#time,accel_x,accel_y,accel_z
3960.114921,-2068.457845,-0.000000,9622.677246
3960.115236,-1838.629195,-518.144159,9252.574275
3960.115551,-1532.190996,-370.102971,9696.697840
3960.115866,-1915.238745,-222.061783,8882.471304
3960.116182,-1455.581446,-148.041188,9400.615463
3960.116497,-1225.752797,-222.061783,8808.450710
3960.116812,-689.485948,-370.102971,8660.409521
3960.117127,-306.438199,-0.000000,8734.430116
3960.117442,-306.438199,-222.061783,9104.533087
3960.117757,0.000000,-148.041188,9326.594869
3960.118072,153.219100,-148.041188,8882.471304
3960.118387,0.000000,-370.102971,9030.512492
3960.118702,229.828649,-592.164754,8808.450710
3960.119018,76.609550,-740.205942,9400.615463
3960.119333,459.657299,-666.185348,9104.533087
3960.119648,0.000000,-740.205942,9178.553681
3960.119963,-229.828649,-666.185348,8956.491898
3960.120278,-229.828649,-1184.329507,8882.471304
3960.120593,-689.485948,-1406.391290,9030.512492
3960.120908,-612.876398,-1480.411884,9548.656652
3960.121223,-689.485948,-1406.391290,9178.553681
3960.121539,-689.485948,-1332.370696,8956.491898
3960.121854,-612.876398,-1258.350101,9622.677246
3960.122169,0.000000,-962.267725,9548.656652
3960.122484,0.000000,-1036.288319,9400.615463
3960.122799,0.000000,-370.102971,9548.656652
3960.123114,-153.219100,-814.226536,10288.862594
3960.123429,229.828649,-0.000000,9696.697840
3960.123744,153.219100,-0.000000,9474.636058
3960.124060,153.219100,-222.061783,9400.615463
3960.124375,0.000000,-222.061783,9474.636058
3960.124690,-383.047749,-222.061783,9548.656652
3960.125005,-153.219100,-296.082377,9918.759623
3960.125320,-459.657299,-296.082377,10436.903782
3960.125635,-612.876398,-0.000000,9992.780217
3960.125950,-536.266849,-0.000000,9474.636058
3960.126265,-383.047749,222.061783,9696.697840
3960.126580,-536.266849,518.144159,9622.677246
3960.126896,0.000000,222.061783,9400.615463
3960.127211,383.047749,888.247130,9400.615463
3960.127526,536.266849,814.226536,9400.615463
3960.127841,0.000000,1332.370696,9622.677246
3960.128156,306.438199,1702.473667,9326.594869
3960.128471,536.266849,1850.514855,9400.615463
3960.128786,842.705048,1702.473667,9104.533087
3960.129101,536.266849,1850.514855,9104.533087
3960.129417,995.924147,1702.473667,9030.512492
3960.129732,306.438199,1332.370696,9400.615463
3960.130047,612.876398,1554.432478,9474.636058
3960.130362,0.000000,1332.370696,9770.718434
3960.130677,0.000000,1184.329507,9622.677246
3960.130992,0.000000,1036.288319,10140.821405
3960.131307,-229.828649,1184.329507,10066.800811
3960.131622,-229.828649,1332.370696,10214.842000
3960.131937,153.219100,1554.432478,9548.656652
3960.132253,0.000000,1628.453072,10066.800811
3960.132568,229.828649,1702.473667,10140.821405
3960.132883,612.876398,1332.370696,10140.821405
3960.133198,766.095498,1480.411884,9770.718434
3960.133513,459.657299,1036.288319,9992.780217
3960.133828,919.314598,666.185348,10732.986159
3960.134143,383.047749,740.205942,10288.862594
3960.134458,459.657299,444.123565,10288.862594
3960.134774,306.438199,-0.000000,10288.862594
3960.135089,306.438199,-0.000000,10140.821405
3960.135404,0.000000,-370.102971,10066.800811
3960.135719,229.828649,-0.000000,10066.800811
3960.136034,383.047749,-0.000000,10362.883188
3960.136349,153.219100,-148.041188,9548.656652
3960.136664,459.657299,-296.082377,9474.636058
3960.136979,766.095498,-370.102971,9844.739029
3960.137295,536.266849,-74.020594,9696.697840
3960.137610,536.266849,-74.020594,9844.739029
3960.137925,306.438199,-148.041188,9770.718434
3960.138240,229.828649,-370.102971,9622.677246
3960.138555,229.828649,-296.082377,9104.533087
3960.138870,306.438199,-74.020594,9474.636058
3960.139185,383.047749,-0.000000,9178.553681
3960.139500,76.609550,-444.123565,8956.491898
3960.139815,76.609550,-370.102971,8882.471304
3960.140131,0.000000,-592.164754,8956.491898
3960.140446,-229.828649,-888.247130,9178.553681
3960.140761,153.219100,-814.226536,9104.533087
3960.141076,0.000000,-1036.288319,9030.512492
3960.141391,76.609550,-814.226536,9622.677246
3960.141706,153.219100,-1110.308913,9030.512492
3960.142021,0.000000,-1184.329507,8882.471304
3960.142336,0.000000,-666.185348,9474.636058
3960.142652,0.000000,-740.205942,9178.553681
3960.142967,383.047749,-444.123565,9252.574275
3960.143282,459.657299,-1110.308913,9252.574275
3960.143597,76.609550,-592.164754,9474.636058
3960.143912,76.609550,-592.164754,9400.615463
3960.144227,0.000000,-222.061783,8956.491898
3960.144542,229.828649,-296.082377,9622.677246
3960.144857,76.609550,-444.123565,9992.780217
3960.145172,0.000000,-444.123565,9918.759623
3960.145488,0.000000,-592.164754,9770.718434
3960.145803,-229.828649,-592.164754,9622.677246
3960.146118,229.828649,-370.102971,9770.718434
3960.146433,0.000000,-222.061783,9696.697840
3960.146748,-229.828649,-0.000000,9992.780217
3960.147063,0.000000,-0.000000,9696.697840
3960.147378,0.000000,-0.000000,9474.636058
3960.147693,76.609550,296.082377,9770.718434
3960.148009,383.047749,740.205942,10066.800811
3960.148324,229.828649,592.164754,9844.739029
3960.148639,0.000000,518.144159,9696.697840
3960.148954,229.828649,592.164754,9622.677246
3960.149269,1149.143247,518.144159,9992.780217
3960.149584,153.219100,666.185348,9844.739029
3960.149899,76.609550,740.205942,10214.842000
3960.150214,229.828649,888.247130,9844.739029
3960.150530,306.438199,814.226536,9844.739029
3960.150845,153.219100,666.185348,9770.718434
3960.151160,0.000000,740.205942,9844.739029
3960.151475,76.609550,962.267725,9992.780217
3960.151790,76.609550,1110.308913,9696.697840
3960.152105,383.047749,814.226536,9992.780217
3960.152420,383.047749,1110.308913,9770.718434
3960.152735,0.000000,740.205942,9696.697840
3960.153050,0.000000,592.164754,9992.780217
3960.153366,0.000000,666.185348,9844.739029
3960.153681,0.000000,962.267725,9992.780217
3960.153996,0.000000,740.205942,9770.718434
3960.154311,0.000000,666.185348,9844.739029
3960.154626,0.000000,888.247130,9696.697840
3960.154941,153.219100,740.205942,9326.594869
3960.155256,0.000000,518.144159,10140.821405
3960.155571,153.219100,444.123565,10140.821405
3960.155887,0.000000,592.164754,9622.677246
3960.156202,0.000000,370.102971,9548.656652
3960.156517,-306.438199,296.082377,9474.636058
3960.156832,76.609550,296.082377,9474.636058
3960.157147,0.000000,370.102971,9474.636058
3960.157462,0.000000,-74.020594,9548.656652
3960.157777,0.000000,-148.041188,9326.594869
3960.158092,0.000000,148.041188,9326.594869
3960.158408,459.657299,-444.123565,9474.636058
3960.158723,383.047749,-0.000000,9474.636058
3960.159038,229.828649,-0.000000,9252.574275
3960.159353,383.047749,-148.041188,9030.512492
3960.159668,76.609550,-74.020594,9252.574275
3960.159983,229.828649,-740.205942,9400.615463
3960.160298,306.438199,-296.082377,9104.533087
3960.160613,153.219100,-370.102971,9400.615463
3960.160928,229.828649,-444.123565,9400.615463
3960.161243,306.438199,-518.144159,9400.615463
3960.161558,459.657299,-592.164754,9104.533087
3960.161873,0.000000,-814.226536,9104.533087
3960.162187,0.000000,-592.164754,9400.615463
3960.162502,0.000000,-296.082377,9104.533087
3960.162817,153.219100,-444.123565,9474.636058
3960.163132,306.438199,-740.205942,8956.491898
3960.163447,229.828649,-740.205942,8882.471304
3960.163762,0.000000,-518.144159,9474.636058
3960.164077,0.000000,-370.102971,9178.553681
3960.164392,76.609550,-222.061783,9400.615463
3960.164707,459.657299,-0.000000,9696.697840
3960.165022,459.657299,-0.000000,9474.636058
3960.165337,153.219100,-370.102971,9030.512492
3960.165652,76.609550,-0.000000,8956.491898
3960.165967,76.609550,-0.000000,9770.718434
3960.166282,306.438199,-444.123565,9104.533087
3960.166597,76.609550,-0.000000,9622.677246
3960.166912,76.609550,-0.000000,9474.636058
3960.167227,-229.828649,-0.000000,9474.636058
3960.167541,229.828649,222.061783,9548.656652
3960.167856,-306.438199,296.082377,9622.677246
3960.168171,-306.438199,-0.000000,9918.759623
3960.168486,0.000000,592.164754,9770.718434
3960.168801,-153.219100,592.164754,9696.697840
3960.169116,0.000000,518.144159,10066.800811
3960.169431,306.438199,666.185348,9696.697840
3960.169746,0.000000,666.185348,9992.780217
3960.170061,0.000000,444.123565,9770.718434
3960.170376,0.000000,666.185348,9770.718434
3960.170691,536.266849,592.164754,9622.677246
3960.171006,459.657299,888.247130,10288.862594
3960.171321,0.000000,740.205942,9992.780217
3960.171636,76.609550,740.205942,9992.780217
3960.171951,0.000000,888.247130,9844.739029
3960.172266,0.000000,814.226536,9918.759623
3960.172580,229.828649,370.102971,9770.718434
3960.172895,153.219100,666.185348,9992.780217
3960.173210,383.047749,814.226536,9770.718434
3960.173525,306.438199,814.226536,9992.780217
3960.173840,842.705048,370.102971,9622.677246
3960.174155,689.485948,740.205942,9622.677246
3960.174470,76.609550,592.164754,9918.759623
3960.174785,229.828649,666.185348,9696.697840
3960.175100,383.047749,518.144159,9918.759623
3960.175415,306.438199,370.102971,10066.800811
3960.175730,383.047749,518.144159,10214.842000
3960.176045,229.828649,296.082377,9696.697840
3960.176360,229.828649,-0.000000,9474.636058
3960.176675,229.828649,222.061783,9844.739029
3960.176990,229.828649,-0.000000,9696.697840
3960.177305,459.657299,-0.000000,9696.697840
3960.177620,0.000000,-74.020594,9844.739029
3960.177934,76.609550,74.020594,9474.636058
3960.178249,0.000000,-0.000000,9548.656652
3960.178564,76.609550,-0.000000,9844.739029
3960.178879,76.609550,-444.123565,9844.739029
3960.179194,0.000000,-0.000000,9474.636058
3960.179509,76.609550,-0.000000,9474.636058
3960.179824,0.000000,222.061783,9548.656652
3960.180139,229.828649,-296.082377,9770.718434
3960.180454,229.828649,-222.061783,9474.636058
3960.180769,0.000000,-148.041188,9326.594869
3960.181084,0.000000,-0.000000,8808.450710
3960.181399,0.000000,-370.102971,8956.491898
3960.181714,0.000000,-370.102971,9030.512492
3960.182029,76.609550,-148.041188,9326.594869
3960.182344,0.000000,-222.061783,9252.574275
3960.182659,0.000000,-0.000000,8956.491898
3960.182973,0.000000,-148.041188,9104.533087
3960.183288,0.000000,-222.061783,9326.594869
3960.183603,153.219100,-222.061783,9252.574275
3960.183918,153.219100,-222.061783,9252.574275
3960.184233,459.657299,-74.020594,9326.594869
3960.184548,153.219100,-74.020594,9104.533087
3960.184863,229.828649,-222.061783,9178.553681
3960.185178,153.219100,-148.041188,9548.656652
3960.185493,0.000000,-222.061783,9400.615463
3960.185808,153.219100,-222.061783,9474.636058
3960.186123,229.828649,-0.000000,9770.718434
3960.186438,383.047749,-74.020594,9474.636058
3960.186753,229.828649,-296.082377,9474.636058
3960.187068,229.828649,-0.000000,9474.636058
3960.187383,229.828649,-0.000000,9548.656652
3960.187698,153.219100,-0.000000,9844.739029
3960.188013,383.047749,-74.020594,9918.759623
3960.188327,76.609550,-0.000000,9622.677246
3960.188642,229.828649,-0.000000,9622.677246
3960.188957,153.219100,444.123565,9696.697840
3960.189272,383.047749,592.164754,9992.780217
3960.189587,0.000000,-0.000000,9844.739029
3960.189902,0.000000,296.082377,9844.739029
3960.190217,0.000000,370.102971,9474.636058
3960.190532,76.609550,518.144159,9770.718434
3960.190847,153.219100,444.123565,9622.677246
3960.191162,0.000000,222.061783,9992.780217
3960.191477,0.000000,444.123565,9696.697840
3960.191792,0.000000,518.144159,9474.636058
3960.192107,0.000000,370.102971,9474.636058
3960.192422,0.000000,592.164754,9548.656652
3960.192737,-306.438199,296.082377,10066.800811
3960.193052,-306.438199,296.082377,9844.739029
3960.193366,0.000000,592.164754,9918.759623
3960.193681,0.000000,518.144159,9474.636058
3960.193996,0.000000,370.102971,9622.677246
3960.194311,229.828649,666.185348,9918.759623
3960.194626,0.000000,444.123565,9400.615463
3960.194941,0.000000,518.144159,9844.739029
3960.195256,153.219100,444.123565,9474.636058
3960.195571,229.828649,296.082377,9326.594869
3960.195886,-536.266849,-0.000000,9918.759623
3960.196201,-76.609550,222.061783,9992.780217
3960.196516,153.219100,370.102971,9696.697840
3960.196831,0.000000,-0.000000,9770.718434
3960.197146,76.609550,-0.000000,9696.697840
3960.197461,0.000000,-0.000000,9474.636058
3960.197776,229.828649,-0.000000,9474.636058
3960.198091,229.828649,-74.020594,9844.739029
3960.198406,229.828649,-74.020594,9770.718434
3960.198720,76.609550,-0.000000,9770.718434
3960.199035,0.000000,-148.041188,9622.677246
3960.199350,153.219100,-148.041188,9770.718434
3960.199665,0.000000,74.020594,9622.677246
3960.199980,0.000000,-148.041188,9992.780217
3960.200295,0.000000,-148.041188,9992.780217
3960.200610,0.000000,-148.041188,9474.636058
3960.200925,0.000000,-74.020594,9474.636058
3960.201240,0.000000,-296.082377,9548.656652
3960.201555,0.000000,-74.020594,9474.636058
3960.201870,306.438199,-296.082377,9622.677246
3960.202185,-306.438199,-296.082377,9548.656652
3960.202500,0.000000,-74.020594,9474.636058
3960.202815,153.219100,-0.000000,9252.574275
3960.203130,0.000000,-222.061783,9252.574275
3960.203445,0.000000,-296.082377,9548.656652
3960.203759,0.000000,-148.041188,9326.594869
3960.204074,76.609550,-0.000000,9252.574275
3960.204389,76.609550,-0.000000,9326.594869
3960.204704,0.000000,-74.020594,9400.615463
3960.205019,0.000000,-0.000000,9474.636058
3960.205334,-306.438199,-0.000000,9400.615463
3960.205649,76.609550,-0.000000,9770.718434
3960.205964,229.828649,-0.000000,9326.594869
3960.206279,0.000000,-0.000000,9400.615463
3960.206594,76.609550,-0.000000,9696.697840
3960.206909,-612.876398,-148.041188,9474.636058
3960.207224,0.000000,222.061783,9844.739029
3960.207539,229.828649,370.102971,9770.718434
3960.207854,0.000000,370.102971,9474.636058
3960.208169,306.438199,370.102971,9474.636058
3960.208484,536.266849,222.061783,9178.553681
3960.208799,229.828649,222.061783,9622.677246
3960.209113,76.609550,296.082377,9696.697840
3960.209428,76.609550,370.102971,9770.718434
3960.209743,0.000000,370.102971,9770.718434
3960.210058,306.438199,370.102971,9622.677246
3960.210373,153.219100,370.102971,9770.718434
3960.210688,153.219100,370.102971,9844.739029
3960.211003,76.609550,222.061783,10066.800811
3960.211318,-229.828649,-0.000000,9400.615463
3960.211633,0.000000,370.102971,9696.697840
3960.211948,306.438199,666.185348,9696.697840
3960.212263,306.438199,666.185348,9622.677246
3960.212578,0.000000,222.061783,9992.780217
3960.212893,-383.047749,-0.000000,9696.697840
3960.213208,0.000000,222.061783,9770.718434
3960.213523,76.609550,444.123565,9548.656652
3960.213838,0.000000,592.164754,9474.636058
3960.214152,0.000000,370.102971,9992.780217
3960.214467,0.000000,444.123565,9992.780217
3960.214782,0.000000,148.041188,9548.656652
3960.215097,-229.828649,-0.000000,9474.636058
3960.215412,229.828649,518.144159,9696.697840
3960.215727,76.609550,592.164754,9770.718434
3960.216042,229.828649,296.082377,9622.677246
3960.216357,153.219100,-0.000000,9326.594869
3960.216672,76.609550,518.144159,9474.636058
3960.216987,0.000000,-0.000000,9400.615463
3960.217302,76.609550,-0.000000,9474.636058
3960.217617,76.609550,-0.000000,9474.636058
3960.217932,383.047749,-0.000000,9400.615463
3960.218247,229.828649,148.041188,9474.636058
3960.218562,76.609550,370.102971,9622.677246
3960.218877,306.438199,296.082377,9400.615463
3960.219191,229.828649,-0.000000,9326.594869
3960.219506,383.047749,-0.000000,9400.615463
3960.219821,383.047749,222.061783,9548.656652
3960.220136,229.828649,-0.000000,9622.677246
3960.220451,76.609550,-370.102971,9474.636058
3960.220766,76.609550,-148.041188,9474.636058
3960.221081,0.000000,148.041188,9474.636058
3960.221396,229.828649,-0.000000,9918.759623
3960.221711,0.000000,-0.000000,10066.800811
3960.222026,383.047749,-222.061783,9400.615463
3960.222341,0.000000,-518.144159,9252.574275
3960.222656,153.219100,222.061783,9548.656652
3960.222971,0.000000,-0.000000,9474.636058
3960.223286,0.000000,222.061783,9696.697840
3960.223601,0.000000,-148.041188,9770.718434
3960.223916,76.609550,-370.102971,9622.677246
3960.224231,0.000000,-0.000000,9474.636058
3960.224545,76.609550,222.061783,9326.594869
3960.224860,0.000000,-0.000000,9992.780217
3960.225175,0.000000,-74.020594,9918.759623
3960.225490,0.000000,-0.000000,9474.636058
3960.225805,0.000000,222.061783,9696.697840
3960.226120,76.609550,-0.000000,9474.636058
3960.226435,306.438199,296.082377,9474.636058
3960.226750,306.438199,-0.000000,9474.636058
3960.227065,0.000000,-0.000000,9770.718434
3960.227380,0.000000,222.061783,9474.636058
3960.227695,229.828649,296.082377,9696.697840
3960.228010,536.266849,-0.000000,9918.759623
3960.228325,0.000000,-0.000000,9548.656652
3960.228640,0.000000,148.041188,9844.739029
3960.228955,153.219100,370.102971,9548.656652
3960.229270,153.219100,296.082377,9622.677246
3960.229584,306.438199,370.102971,9548.656652
3960.229899,0.000000,296.082377,9400.615463
3960.230214,76.609550,222.061783,9770.718434
3960.230529,0.000000,444.123565,9844.739029
3960.230844,0.000000,370.102971,10066.800811
3960.231159,-229.828649,222.061783,9622.677246
3960.231474,153.219100,370.102971,9548.656652
3960.231789,153.219100,740.205942,9622.677246
3960.232104,306.438199,444.123565,9770.718434
3960.232419,229.828649,222.061783,10214.842000
3960.232734,0.000000,444.123565,9844.739029
3960.233049,0.000000,148.041188,9474.636058
3960.233364,153.219100,370.102971,9696.697840
3960.233679,0.000000,444.123565,9548.656652
3960.233994,0.000000,-0.000000,9992.780217
3960.234309,76.609550,666.185348,10362.883188
3960.234624,76.609550,-74.020594,9548.656652
3960.234938,0.000000,148.041188,9400.615463
3960.235253,76.609550,370.102971,9400.615463
3960.235568,76.609550,-0.000000,10140.821405
3960.235883,0.000000,-0.000000,9474.636058
3960.236198,0.000000,222.061783,9474.636058
3960.236513,383.047749,-0.000000,9696.697840
3960.236828,0.000000,-0.000000,9696.697840
3960.237143,612.876398,-74.020594,9548.656652
3960.237458,153.219100,-74.020594,9548.656652
3960.237773,0.000000,-74.020594,9622.677246
3960.238088,0.000000,74.020594,9252.574275
3960.238403,0.000000,-74.020594,9400.615463
3960.238718,0.000000,-222.061783,9770.718434
3960.239033,0.000000,-74.020594,9770.718434
3960.239348,0.000000,-0.000000,9622.677246
3960.239663,229.828649,-0.000000,9696.697840
3960.239977,0.000000,-0.000000,9474.636058
3960.240292,76.609550,-0.000000,9474.636058
3960.240607,0.000000,-0.000000,9178.553681
3960.240922,612.876398,-0.000000,9622.677246
3960.241237,153.219100,-148.041188,9400.615463
3960.241552,306.438199,-0.000000,9474.636058
3960.241867,0.000000,-0.000000,9696.697840
3960.242182,383.047749,148.041188,9252.574275
3960.242497,76.609550,148.041188,9400.615463
3960.242812,76.609550,148.041188,9622.677246
3960.243127,0.000000,-0.000000,9992.780217
3960.243442,0.000000,74.020594,9474.636058
3960.243757,0.000000,-0.000000,9104.533087
3960.244072,0.000000,444.123565,9548.656652
3960.244387,153.219100,-0.000000,9474.636058
3960.244702,0.000000,-0.000000,9548.656652
3960.245017,0.000000,-0.000000,9474.636058
3960.245331,-306.438199,-222.061783,9400.615463
3960.245646,0.000000,-0.000000,9252.574275
3960.245961,0.000000,222.061783,9400.615463
3960.246276,0.000000,-0.000000,9918.759623
3960.246591,153.219100,-0.000000,9770.718434
3960.246906,-306.438199,-0.000000,9474.636058
3960.247221,153.219100,-0.000000,9400.615463
3960.247536,76.609550,-0.000000,9696.697840
3960.247851,0.000000,148.041188,9622.677246
3960.248166,689.485948,444.123565,9474.636058
3960.248481,0.000000,-0.000000,9696.697840
3960.248796,76.609550,-0.000000,9474.636058
3960.249111,0.000000,222.061783,9474.636058
3960.249426,76.609550,-0.000000,9696.697840
3960.249741,0.000000,222.061783,9622.677246
3960.250056,229.828649,-0.000000,10066.800811
3960.250370,229.828649,518.144159,9474.636058
3960.250685,0.000000,444.123565,9918.759623
3960.251000,76.609550,370.102971,9326.594869
3960.251315,0.000000,148.041188,9252.574275
3960.251630,76.609550,148.041188,10066.800811
3960.251945,153.219100,296.082377,9844.739029
3960.252260,0.000000,370.102971,9770.718434
3960.252575,229.828649,370.102971,9548.656652
3960.252890,-153.219100,-0.000000,9622.677246
3960.253205,153.219100,370.102971,9474.636058
3960.253520,0.000000,148.041188,9548.656652
3960.253835,76.609550,-0.000000,10214.842000
3960.254150,0.000000,296.082377,9548.656652
3960.254465,459.657299,-0.000000,9548.656652
3960.254780,229.828649,296.082377,9770.718434
3960.255095,0.000000,444.123565,9622.677246
3960.255410,-153.219100,296.082377,9770.718434
3960.255724,-153.219100,-0.000000,9622.677246
3960.256039,153.219100,-0.000000,9474.636058
3960.256354,0.000000,-74.020594,9178.553681
3960.256669,0.000000,-0.000000,9400.615463
3960.256984,0.000000,222.061783,9696.697840
3960.257299,0.000000,-0.000000,9326.594869
3960.257614,153.219100,148.041188,9400.615463
3960.257929,76.609550,-0.000000,9474.636058
3960.258244,76.609550,-0.000000,9474.636058
3960.258559,0.000000,296.082377,9548.656652
3960.258874,0.000000,-0.000000,9400.615463
3960.259189,76.609550,-0.000000,9696.697840
3960.259504,76.609550,-74.020594,9400.615463
3960.259819,229.828649,-148.041188,9326.594869
3960.260134,153.219100,-0.000000,9474.636058
3960.260449,76.609550,-0.000000,9622.677246
3960.260763,0.000000,-0.000000,9696.697840
3960.261077,229.828649,-0.000000,9326.594869
3960.261392,153.219100,-0.000000,9770.718434
3960.261707,76.609550,-0.000000,9474.636058
3960.262022,0.000000,-0.000000,9252.574275
3960.262337,229.828649,-0.000000,10436.903782
3960.262652,76.609550,-0.000000,9548.656652
3960.262966,-306.438199,148.041188,9622.677246
3960.263281,229.828649,-0.000000,9548.656652
3960.263596,0.000000,-0.000000,9622.677246
3960.263911,0.000000,518.144159,9918.759623
3960.264226,-153.219100,-0.000000,9770.718434
3960.264541,0.000000,-74.020594,10066.800811
3960.264855,-229.828649,-0.000000,9622.677246
3960.265170,-153.219100,666.185348,9400.615463
3960.265485,-306.438199,-0.000000,9474.636058
3960.265800,-995.924147,444.123565,9696.697840
3960.266115,-612.876398,222.061783,9844.739029
3960.266430,-459.657299,444.123565,9548.656652
3960.266744,-536.266849,444.123565,9844.739029
3960.267059,-383.047749,518.144159,9548.656652
3960.267374,-459.657299,740.205942,9474.636058
3960.267689,0.000000,888.247130,9696.697840
3960.268004,-229.828649,962.267725,9178.553681
3960.268319,-612.876398,1110.308913,9400.615463
3960.268633,-229.828649,962.267725,8882.471304
3960.268948,-383.047749,1480.411884,8956.491898
3960.269263,-689.485948,1406.391290,9104.533087
3960.269578,-1225.752797,888.247130,9252.574275
3960.269893,-1149.143247,1036.288319,9622.677246
3960.270208,-1685.410096,814.226536,9770.718434
3960.270522,-1608.800546,888.247130,10066.800811
3960.270837,-1455.581446,888.247130,10066.800811
3960.271152,-1149.143247,1184.329507,10214.842000
3960.271467,-995.924147,1332.370696,9770.718434
3960.271782,-766.095498,1924.535449,9474.636058
3960.272097,-842.705048,1850.514855,9474.636058
3960.272411,-383.047749,2220.617826,9178.553681
3960.272726,-766.095498,2294.638420,8956.491898
3960.273041,-229.828649,2294.638420,9548.656652
3960.273356,-766.095498,1628.453072,9548.656652
3960.273671,-842.705048,1702.473667,9992.780217
3960.273986,-1225.752797,1332.370696,9992.780217
3960.274300,-1455.581446,1110.308913,10140.821405
3960.274615,-1532.190996,1554.432478,10436.903782
3960.274930,-1225.752797,1406.391290,10362.883188
3960.275245,-995.924147,888.247130,10584.944971
3960.275560,-689.485948,1406.391290,10066.800811
3960.275875,0.000000,1480.411884,9252.574275
3960.276189,0.000000,1850.514855,9474.636058
3960.276504,306.438199,1998.556043,9400.615463
3960.276819,-76.609550,1850.514855,9622.677246
3960.277134,0.000000,1850.514855,9474.636058
3960.277449,0.000000,1554.432478,9326.594869
3960.277764,-306.438199,1406.391290,9474.636058
3960.278078,-536.266849,740.205942,9696.697840
3960.278393,-536.266849,666.185348,10362.883188
3960.278708,-842.705048,370.102971,10066.800811
3960.279023,0.000000,148.041188,10140.821405
3960.279338,-306.438199,518.144159,9844.739029
3960.279653,0.000000,444.123565,9770.718434
3960.279967,0.000000,666.185348,9622.677246
3960.280282,153.219100,666.185348,9548.656652
3960.280597,612.876398,888.247130,9178.553681
3960.280912,689.485948,888.247130,9400.615463
3960.281227,919.314598,444.123565,9622.677246
3960.281542,1378.971896,222.061783,9548.656652
3960.281856,1608.800546,-0.000000,9770.718434
3960.282171,1532.190996,-0.000000,9770.718434
3960.282486,1608.800546,-222.061783,9696.697840
3960.282801,1685.410096,-370.102971,9548.656652
3960.283116,1532.190996,-148.041188,9178.553681
3960.283431,1532.190996,-296.082377,8882.471304
3960.283745,1302.362347,-0.000000,9030.512492
3960.284060,689.485948,-222.061783,9178.553681
3960.284375,153.219100,-814.226536,9474.636058
3960.284690,0.000000,-814.226536,9548.656652
3960.285005,0.000000,-1036.288319,9622.677246
3960.285320,0.000000,-1110.308913,9992.780217
3960.285634,0.000000,-1258.350101,10510.924376
3960.285949,0.000000,-1036.288319,10658.965565
3960.286264,306.438199,-1110.308913,10066.800811
3960.286579,383.047749,-444.123565,9104.533087
3960.286894,306.438199,-296.082377,9178.553681
3960.287209,229.828649,-222.061783,8956.491898
3960.287523,0.000000,-222.061783,9030.512492
3960.287838,-612.876398,-814.226536,8660.409521
3960.288153,-612.876398,-888.247130,8882.471304
3960.288468,-1149.143247,-1480.411884,9178.553681
3960.288783,-1455.581446,-1554.432478,9622.677246
3960.289098,-1685.410096,-1776.494261,9844.739029
3960.289412,-1915.238745,-1776.494261,10140.821405
3960.289727,-1532.190996,-1702.473667,9992.780217
3960.290042,-1302.362347,-1184.329507,9844.739029
3960.290357,-919.314598,-1036.288319,9548.656652
3960.290672,-459.657299,-518.144159,9326.594869
3960.290987,0.000000,-0.000000,8956.491898
3960.291301,229.828649,-74.020594,8808.450710
3960.291616,153.219100,222.061783,8808.450710
3960.291931,229.828649,296.082377,8142.265362
3960.292246,0.000000,296.082377,8956.491898
3960.292561,-229.828649,-0.000000,8734.430116
3960.292876,-766.095498,-0.000000,9252.574275
3960.293190,-689.485948,-370.102971,9474.636058
3960.293505,-919.314598,-592.164754,9474.636058
3960.293820,-1149.143247,-740.205942,9622.677246
3960.294135,-1072.533697,-370.102971,9548.656652
3960.294450,-842.705048,222.061783,9844.739029
3960.294765,-306.438199,592.164754,9770.718434
3960.295079,153.219100,1184.329507,9400.615463
3960.295394,306.438199,1480.411884,9030.512492
3960.295709,689.485948,1850.514855,8808.450710
3960.296024,766.095498,1924.535449,9030.512492
3960.296339,766.095498,1850.514855,9252.574275
3960.296654,612.876398,1628.453072,9548.656652
3960.296968,995.924147,962.267725,10140.821405
3960.297283,919.314598,1480.411884,10288.862594
3960.297598,612.876398,962.267725,10658.965565
3960.297913,612.876398,592.164754,11029.068536
3960.298228,459.657299,666.185348,10881.027347
3960.298543,689.485948,518.144159,10732.986159
3960.298857,995.924147,888.247130,9992.780217
3960.299172,1532.190996,1184.329507,10214.842000
3960.299487,1685.410096,1332.370696,10214.842000
3960.299802,1991.848295,1184.329507,10066.800811
3960.300117,1608.800546,1036.288319,9696.697840
3960.300432,2068.457845,888.247130,9844.739029
3960.300746,2221.676944,1184.329507,10066.800811
3960.301061,2145.067394,814.226536,9622.677246
3960.301376,1685.410096,962.267725,10362.883188
3960.301691,1302.362347,592.164754,10140.821405
3960.302006,995.924147,222.061783,9992.780217
3960.302321,153.219100,222.061783,10066.800811
3960.302635,-306.438199,-148.041188,9992.780217
3960.302950,0.000000,-444.123565,10288.862594
3960.303265,-459.657299,-740.205942,10436.903782
3960.303580,-229.828649,-518.144159,9918.759623
3960.303895,-229.828649,-296.082377,10214.842000
3960.304209,0.000000,-296.082377,9844.739029
3960.304524,536.266849,222.061783,9178.553681
3960.304839,383.047749,296.082377,8882.471304
3960.305154,153.219100,518.144159,8956.491898
3960.305469,-153.219100,444.123565,9104.533087
3960.305784,-459.657299,592.164754,9030.512492
3960.306098,-1072.533697,-0.000000,8956.491898
3960.306413,-1762.019645,-222.061783,9030.512492
3960.306728,-1762.019645,-592.164754,9178.553681
3960.307043,-1838.629195,-592.164754,9474.636058
3960.307358,-2221.676944,-1258.350101,9696.697840
3960.307673,-1991.848295,-1702.473667,9844.739029
3960.307987,-1915.238745,-888.247130,9622.677246
3960.308302,-1532.190996,-740.205942,9474.636058
3960.308617,-1149.143247,-444.123565,9104.533087
3960.308932,-766.095498,-74.020594,8956.491898
3960.309247,0.000000,-74.020594,8660.409521
3960.309562,76.609550,148.041188,8364.327145
3960.309876,-229.828649,444.123565,8290.306550
3960.310191,-306.438199,296.082377,8364.327145
3960.310506,-383.047749,-0.000000,8734.430116
3960.310821,-459.657299,-74.020594,8956.491898
3960.311136,-919.314598,-888.247130,9474.636058
3960.311451,-1225.752797,-962.267725,9474.636058
3960.311765,-1225.752797,-1258.350101,9474.636058
3960.312080,-1072.533697,-1258.350101,9992.780217
3960.312395,-306.438199,-592.164754,10140.821405
3960.312710,-536.266849,-148.041188,10066.800811
3960.313025,0.000000,148.041188,9474.636058
3960.313340,536.266849,370.102971,9326.594869
3960.313654,689.485948,1036.288319,9770.718434
3960.313969,919.314598,888.247130,9400.615463
3960.314284,1149.143247,888.247130,9548.656652
3960.314599,1225.752797,740.205942,10140.821405
3960.314914,1455.581446,-0.000000,10362.883188
3960.315229,1608.800546,296.082377,10140.821405
3960.315543,1378.971896,-0.000000,9992.780217
3960.315858,1532.190996,-0.000000,10807.006753
3960.316173,1378.971896,-296.082377,10732.986159
3960.316488,1685.410096,-74.020594,10881.027347
3960.316803,1838.629195,-0.000000,10510.924376
3960.317118,1762.019645,370.102971,10362.883188
3960.317432,1915.238745,370.102971,9918.759623
3960.317747,2145.067394,740.205942,9992.780217
3960.318062,2221.676944,370.102971,9770.718434
3960.318377,2451.505594,518.144159,9400.615463
3960.318692,2451.505594,666.185348,9252.574275
3960.319007,1685.410096,888.247130,9622.677246
3960.319321,1455.581446,740.205942,9992.780217
3960.319636,1149.143247,518.144159,9844.739029
3960.319951,536.266849,-0.000000,9622.677246
3960.320266,306.438199,-0.000000,9622.677246
3960.320581,-306.438199,-74.020594,9844.739029
3960.320896,-306.438199,-296.082377,10066.800811
3960.321210,-229.828649,-592.164754,10140.821405
3960.321525,-536.266849,-0.000000,9622.677246
3960.321840,-459.657299,-0.000000,9400.615463
3960.322155,-459.657299,444.123565,8882.471304
3960.322470,-306.438199,148.041188,9030.512492
3960.322785,-1149.143247,370.102971,8734.430116
3960.323099,-536.266849,296.082377,8660.409521
3960.323414,-689.485948,370.102971,9252.574275
3960.323729,-919.314598,222.061783,8586.388927
3960.324044,-1378.971896,-0.000000,9030.512492
3960.324359,-1608.800546,-444.123565,9770.718434
3960.324674,-1915.238745,-148.041188,9474.636058
3960.324988,-2221.676944,-296.082377,9622.677246
3960.325303,-2145.067394,-370.102971,9992.780217
3960.325618,-1608.800546,-0.000000,9696.697840
3960.325933,-1915.238745,-222.061783,9622.677246
3960.326248,-1072.533697,222.061783,9252.574275
3960.326563,-919.314598,592.164754,9326.594869
3960.326877,-612.876398,888.247130,9104.533087
3960.327192,0.000000,444.123565,9474.636058
3960.327507,-766.095498,888.247130,8808.450710
3960.327822,-612.876398,1184.329507,9030.512492
3960.328137,-689.485948,1332.370696,9030.512492
3960.328452,-919.314598,1036.288319,9474.636058
3960.328766,-995.924147,296.082377,9474.636058
3960.329081,-842.705048,444.123565,9622.677246
3960.329396,-995.924147,444.123565,9770.718434
3960.329711,-766.095498,592.164754,9918.759623
3960.330026,-766.095498,592.164754,10214.842000
3960.330341,-229.828649,1184.329507,10140.821405
3960.330655,76.609550,1036.288319,9844.739029
3960.330970,459.657299,1776.494261,9548.656652
3960.331285,995.924147,1554.432478,9474.636058
3960.331600,1685.410096,1628.453072,9844.739029
3960.331915,842.705048,1480.411884,10436.903782
3960.332230,1149.143247,1258.350101,10066.800811
3960.332544,1302.362347,962.267725,10066.800811
3960.332859,1302.362347,592.164754,10288.862594
3960.333174,1302.362347,-296.082377,10436.903782
3960.333489,1455.581446,296.082377,10658.965565
3960.333804,1378.971896,-0.000000,10658.965565
3960.334119,1762.019645,-148.041188,10658.965565
3960.334433,2451.505594,-222.061783,10288.862594
3960.334748,1991.848295,-444.123565,10066.800811
3960.335063,2145.067394,-0.000000,10066.800811
3960.335378,2298.286494,-0.000000,9622.677246
3960.335693,2451.505594,-0.000000,9548.656652
3960.336008,2528.115143,-74.020594,9696.697840
3960.336322,2451.505594,-296.082377,9326.594869
3960.336637,1991.848295,-74.020594,9326.594869
3960.336952,1532.190996,-148.041188,9474.636058
3960.337267,1072.533697,-370.102971,9474.636058
3960.337582,842.705048,-370.102971,9474.636058
3960.337897,383.047749,-962.267725,9696.697840
3960.338211,153.219100,-962.267725,9622.677246
3960.338526,-536.266849,-1110.308913,9474.636058
3960.338841,-612.876398,-1184.329507,9696.697840
3960.339156,-536.266849,-888.247130,9696.697840
3960.339471,-766.095498,-962.267725,9622.677246
3960.339786,-459.657299,-666.185348,9030.512492
3960.340100,-383.047749,-518.144159,8882.471304
3960.340415,-842.705048,-296.082377,8808.450710
3960.340730,-766.095498,-444.123565,8956.491898
3960.341045,-1072.533697,-518.144159,8586.388927
3960.341360,-1302.362347,-0.000000,8882.471304
3960.341675,-1838.629195,-444.123565,8586.388927
3960.341989,-1991.848295,-1184.329507,8438.347739
3960.342304,-1532.190996,-1258.350101,9030.512492
3960.342619,-2298.286494,-1184.329507,9622.677246
3960.342934,-2528.115143,-1184.329507,9326.594869
3960.343249,-2451.505594,-1110.308913,9400.615463
3960.343564,-2298.286494,-592.164754,9548.656652
3960.343878,-1072.533697,-370.102971,9326.594869
3960.344193,-1532.190996,-296.082377,9178.553681
3960.344508,-1149.143247,296.082377,8956.491898
3960.344823,-459.657299,222.061783,8808.450710
3960.345138,-459.657299,666.185348,8586.388927
3960.345453,-612.876398,592.164754,8290.306550
3960.345767,-536.266849,814.226536,9104.533087
3960.346082,-612.876398,444.123565,9030.512492
3960.346397,-689.485948,222.061783,9474.636058
3960.346712,-1149.143247,222.061783,9918.759623
3960.347027,-842.705048,-0.000000,10362.883188
3960.347342,-842.705048,-0.000000,9770.718434
3960.347656,0.000000,370.102971,9770.718434
3960.347971,76.609550,888.247130,10140.821405
3960.348286,612.876398,1258.350101,9992.780217
3960.348601,766.095498,1776.494261,9992.780217
3960.348916,995.924147,1850.514855,9696.697840
3960.349231,1378.971896,1924.535449,9992.780217
3960.349545,1455.581446,1924.535449,10214.842000
3960.349860,1762.019645,1850.514855,10584.944971
3960.350175,1302.362347,1480.411884,10807.006753
3960.350490,1838.629195,1110.308913,10732.986159
3960.350805,1838.629195,1184.329507,11029.068536
3960.351120,1838.629195,1036.288319,11399.171507
3960.351434,1991.848295,1110.308913,11103.089130
3960.351749,2068.457845,814.226536,10658.965565
3960.352064,2298.286494,814.226536,10658.965565
3960.352379,2374.896044,962.267725,10288.862594
3960.352694,2221.676944,962.267725,9918.759623
3960.353009,2528.115143,962.267725,9696.697840
3960.353323,2834.553343,888.247130,10066.800811
3960.353638,2681.334243,666.185348,9474.636058
3960.353953,2528.115143,592.164754,9400.615463
3960.354268,2298.286494,444.123565,9474.636058
3960.354583,1532.190996,296.082377,9178.553681
3960.354898,1225.752797,296.082377,9326.594869
3960.355212,995.924147,-0.000000,9104.533087
3960.355527,536.266849,-296.082377,9548.656652
3960.355842,153.219100,-1036.288319,9474.636058
3960.356157,0.000000,-592.164754,9474.636058
3960.356472,-689.485948,-814.226536,9696.697840
3960.356787,-383.047749,-666.185348,9104.533087
3960.357101,-536.266849,-518.144159,9326.594869
3960.357416,-612.876398,-444.123565,9030.512492
3960.357731,-306.438199,-296.082377,8882.471304
3960.358046,-842.705048,-148.041188,8586.388927
3960.358361,-1149.143247,-148.041188,8216.285956
3960.358675,-919.314598,-296.082377,8734.430116
3960.358990,-1608.800546,-444.123565,8882.471304
3960.359305,-1991.848295,-592.164754,8882.471304
3960.359620,-2145.067394,-962.267725,9104.533087
3960.359935,-2451.505594,-1184.329507,9400.615463
3960.360250,-2068.457845,-1554.432478,9474.636058
3960.360564,-2374.896044,-1406.391290,9696.697840
3960.360879,-2145.067394,-962.267725,9622.677246
3960.361194,-2221.676944,-814.226536,9474.636058
3960.361509,-1991.848295,-518.144159,9400.615463
3960.361824,-1455.581446,-666.185348,9030.512492
3960.362139,-1149.143247,-0.000000,9030.512492
3960.362454,-995.924147,222.061783,8882.471304
3960.362769,-995.924147,370.102971,8734.430116
3960.363084,-689.485948,222.061783,8734.430116
3960.363398,-766.095498,-0.000000,8734.430116
3960.363713,-689.485948,-0.000000,8956.491898
3960.364028,-995.924147,-0.000000,9844.739029
3960.364343,-1149.143247,-74.020594,9622.677246
3960.364658,-1225.752797,-444.123565,9992.780217
3960.364973,-766.095498,-296.082377,9770.718434
3960.365288,-306.438199,-74.020594,10066.800811
3960.365603,229.828649,444.123565,10140.821405
3960.365918,306.438199,592.164754,9918.759623
3960.366233,842.705048,1110.308913,9918.759623
3960.366547,1378.971896,1332.370696,9770.718434
3960.366862,1225.752797,1406.391290,9696.697840
3960.367177,1378.971896,1332.370696,9844.739029
3960.367492,1762.019645,1258.350101,10066.800811
3960.367807,1455.581446,814.226536,9992.780217
3960.368122,1762.019645,740.205942,10732.986159
3960.368437,1838.629195,370.102971,10732.986159
3960.368752,1915.238745,444.123565,10881.027347
3960.369067,1991.848295,296.082377,10732.986159
3960.369382,2221.676944,740.205942,10658.965565
3960.369696,2528.115143,444.123565,10288.862594
3960.370011,2451.505594,518.144159,10436.903782
3960.370326,2528.115143,666.185348,9918.759623
3960.370641,2681.334243,592.164754,9770.718434
3960.370956,2451.505594,814.226536,9548.656652
3960.371271,2681.334243,888.247130,9474.636058
3960.371586,2604.724693,592.164754,9844.739029
3960.371901,2221.676944,592.164754,9400.615463
3960.372216,1838.629195,444.123565,9178.553681
3960.372531,1072.533697,-0.000000,9770.718434
3960.372845,459.657299,296.082377,9474.636058
3960.373160,536.266849,-0.000000,9770.718434
3960.373475,-306.438199,-222.061783,9622.677246
3960.373790,-229.828649,-592.164754,9622.677246
3960.374105,-229.828649,-370.102971,9622.677246
3960.374420,-459.657299,-148.041188,9104.533087
3960.374735,-689.485948,-74.020594,9622.677246
3960.375050,-459.657299,-74.020594,8882.471304
3960.375365,-306.438199,-0.000000,8512.368333
3960.375679,-1072.533697,-0.000000,8512.368333
3960.375994,-1072.533697,-0.000000,8216.285956
3960.376309,-1302.362347,74.020594,8290.306550
3960.376624,-1532.190996,-0.000000,8512.368333
3960.376939,-1762.019645,-518.144159,9030.512492
3960.377254,-2145.067394,-740.205942,8734.430116
3960.377569,-2604.724693,-888.247130,9400.615463
3960.377884,-2757.943793,-888.247130,9622.677246
3960.378199,-2451.505594,-666.185348,9696.697840
3960.378514,-2451.505594,-444.123565,9844.739029
3960.378828,-2221.676944,-222.061783,9474.636058
3960.379143,-1838.629195,148.041188,9696.697840
3960.379458,-1532.190996,370.102971,8956.491898
3960.379773,-1302.362347,666.185348,8734.430116
3960.380088,-1225.752797,444.123565,9030.512492
3960.380403,-1225.752797,962.267725,8808.450710
3960.380718,-842.705048,888.247130,8956.491898
3960.381033,-995.924147,814.226536,8956.491898
3960.381348,-995.924147,370.102971,9474.636058
3960.381663,-1225.752797,518.144159,9474.636058
3960.381977,-995.924147,-0.000000,10140.821405
3960.382292,-919.314598,-222.061783,10658.965565
3960.382607,-919.314598,-0.000000,10140.821405
3960.382922,-383.047749,-0.000000,9622.677246
3960.383237,-229.828649,444.123565,10140.821405
3960.383552,0.000000,888.247130,9992.780217
3960.383867,689.485948,1184.329507,10066.800811
3960.384182,1072.533697,1628.453072,9770.718434
3960.384497,919.314598,888.247130,9918.759623
3960.384812,1378.971896,1184.329507,9696.697840
3960.385126,1608.800546,1184.329507,9918.759623
3960.385441,1915.238745,888.247130,10955.047942
3960.385756,1991.848295,592.164754,10658.965565
3960.386071,2145.067394,148.041188,10510.924376
3960.386386,1838.629195,-0.000000,10658.965565
3960.386701,2068.457845,-0.000000,10881.027347
3960.387016,2451.505594,222.061783,10584.944971
3960.387331,2757.943793,-0.000000,10288.862594
3960.387646,2987.772442,-0.000000,10214.842000
3960.387961,2681.334243,370.102971,9918.759623
3960.388275,2221.676944,-0.000000,9622.677246
3960.388590,2757.943793,-0.000000,9474.636058
3960.388905,2987.772442,-74.020594,9252.574275
3960.389220,2987.772442,222.061783,9474.636058
3960.389535,2528.115143,-148.041188,9474.636058
3960.389850,2221.676944,-74.020594,9178.553681
3960.390165,1532.190996,-222.061783,8956.491898
3960.390480,536.266849,-518.144159,9178.553681
3960.390795,306.438199,-518.144159,9326.594869
3960.391110,229.828649,-814.226536,9548.656652
3960.391424,0.000000,-888.247130,9548.656652
3960.391739,0.000000,-1036.288319,9400.615463
3960.392054,-536.266849,-1480.411884,9178.553681
3960.392369,-536.266849,-666.185348,9474.636058
3960.392684,-766.095498,-444.123565,9178.553681
3960.392999,-842.705048,-444.123565,9178.553681
3960.393314,-689.485948,-370.102971,8512.368333
3960.393629,-919.314598,-0.000000,8364.327145
3960.393944,-1378.971896,-296.082377,8808.450710
3960.394259,-1455.581446,-148.041188,9030.512492
3960.394573,-2068.457845,-444.123565,8956.491898
3960.394888,-2451.505594,-888.247130,9178.553681
3960.395203,-2528.115143,-1036.288319,9400.615463
3960.395518,-2374.896044,-888.247130,9252.574275
3960.395833,-2604.724693,-888.247130,9474.636058
3960.396148,-2451.505594,-814.226536,10140.821405
3960.396463,-2604.724693,-740.205942,9696.697840
3960.396778,-2298.286494,-518.144159,9474.636058
3960.397093,-1685.410096,-74.020594,9326.594869
3960.397408,-1532.190996,-0.000000,9030.512492
3960.397722,-1455.581446,370.102971,9030.512492
3960.398037,-1072.533697,888.247130,8882.471304
3960.398352,-995.924147,814.226536,9104.533087
3960.398667,-1072.533697,962.267725,9104.533087
3960.398982,-1225.752797,814.226536,9030.512492
3960.399297,-1149.143247,444.123565,9548.656652
3960.399612,-1149.143247,-0.000000,9770.718434
3960.399927,-995.924147,-222.061783,9992.780217
3960.400242,-1072.533697,-0.000000,10288.862594
3960.400556,-612.876398,444.123565,10288.862594
3960.400871,-153.219100,888.247130,10214.842000
3960.401186,229.828649,1184.329507,9696.697840
3960.401501,842.705048,1776.494261,10140.821405
3960.401816,1302.362347,1850.514855,10140.821405
3960.402131,1455.581446,1850.514855,9918.759623
3960.402446,1455.581446,1702.473667,9992.780217
3960.402761,1915.238745,1406.391290,10066.800811
3960.403076,1915.238745,1554.432478,10436.903782
3960.403391,1915.238745,1184.329507,10510.924376
3960.403705,1915.238745,888.247130,11177.109724
3960.404020,1991.848295,740.205942,10881.027347
3960.404335,2298.286494,666.185348,10658.965565
3960.404650,2604.724693,888.247130,10881.027347
3960.404965,2528.115143,740.205942,10510.924376
3960.405280,2834.553343,518.144159,10584.944971
3960.405595,2528.115143,666.185348,9918.759623
3960.405910,2911.162892,296.082377,9696.697840
3960.406225,3064.381992,592.164754,9474.636058
3960.406540,3294.210641,666.185348,9326.594869
3960.406854,3140.991542,518.144159,9326.594869
3960.407169,2757.943793,296.082377,9030.512492
3960.407484,2298.286494,222.061783,9252.574275
3960.407799,1915.238745,-0.000000,8808.450710
3960.408114,1072.533697,-296.082377,9326.594869
3960.408429,1149.143247,-370.102971,9400.615463
3960.408744,459.657299,-592.164754,9474.636058
3960.409059,0.000000,-1036.288319,9622.677246
3960.409374,0.000000,-1036.288319,9252.574275
3960.409689,-536.266849,-888.247130,9474.636058
3960.410003,-306.438199,-592.164754,9252.574275
3960.410318,-459.657299,-592.164754,9400.615463
3960.410633,-229.828649,-518.144159,8512.368333
3960.410948,-383.047749,-0.000000,8438.347739
3960.411263,-842.705048,-222.061783,8660.409521
3960.411578,-1149.143247,-592.164754,8808.450710
3960.411893,-1302.362347,-740.205942,8438.347739
3960.412208,-1991.848295,-740.205942,9104.533087
3960.412523,-2451.505594,-592.164754,9400.615463
3960.412838,-2451.505594,-962.267725,9400.615463
3960.413152,-2757.943793,-1110.308913,9622.677246
3960.413467,-2911.162892,-1332.370696,9474.636058
3960.413782,-3294.210641,-1332.370696,9548.656652
3960.414097,-2604.724693,-518.144159,9548.656652
3960.414412,-2298.286494,-740.205942,9844.739029
3960.414727,-1838.629195,-74.020594,9252.574275
3960.415042,-1532.190996,222.061783,8956.491898
3960.415357,-1762.019645,518.144159,9030.512492
3960.415672,-1455.581446,666.185348,8956.491898
3960.415987,-1302.362347,518.144159,9178.553681
3960.416301,-1608.800546,444.123565,8956.491898
3960.416616,-1225.752797,-0.000000,9178.553681
3960.416931,-1762.019645,592.164754,10066.800811
3960.417246,-1455.581446,296.082377,9844.739029
3960.417561,-1302.362347,-0.000000,10066.800811
3960.417876,-1455.581446,-222.061783,10066.800811
3960.418191,-1225.752797,444.123565,10288.862594
3960.418506,-306.438199,592.164754,9918.759623
3960.418821,-229.828649,740.205942,9918.759623
3960.419136,536.266849,962.267725,9696.697840
3960.419450,919.314598,1480.411884,9696.697840
3960.419765,1072.533697,1480.411884,9548.656652
3960.420080,1685.410096,1406.391290,9770.718434
3960.420395,1378.971896,1110.308913,9992.780217
3960.420710,1608.800546,888.247130,10288.862594
3960.421025,1685.410096,814.226536,10436.903782
3960.421340,2068.457845,888.247130,11103.089130
3960.421655,2221.676944,592.164754,10658.965565
3960.421970,2145.067394,592.164754,10510.924376
3960.422285,2451.505594,666.185348,10584.944971
3960.422599,2681.334243,740.205942,10140.821405
3960.422914,2987.772442,518.144159,10510.924376
3960.423229,3064.381992,592.164754,10584.944971
3960.423544,2834.553343,740.205942,10066.800811
3960.423859,3140.991542,740.205942,9844.739029
3960.424174,3294.210641,666.185348,9104.533087
3960.424489,3140.991542,740.205942,9326.594869
3960.424804,3064.381992,666.185348,9400.615463
3960.425119,2528.115143,518.144159,9474.636058
3960.425433,1915.238745,370.102971,9400.615463
3960.425748,1608.800546,-0.000000,9104.533087
3960.426063,1149.143247,-148.041188,9474.636058
3960.426378,76.609550,-444.123565,9474.636058
3960.426693,0.000000,-444.123565,9918.759623
3960.427008,-229.828649,-518.144159,9696.697840
3960.427323,0.000000,-518.144159,9252.574275
3960.427638,0.000000,-370.102971,9178.553681
3960.427953,0.000000,-222.061783,8956.491898
3960.428268,-306.438199,-0.000000,8882.471304
3960.428582,-459.657299,-74.020594,8586.388927
3960.428897,-459.657299,-0.000000,8512.368333
3960.429212,-919.314598,-74.020594,8660.409521
3960.429527,-1762.019645,-444.123565,8882.471304
3960.429842,-2145.067394,-592.164754,8882.471304
3960.430157,-2221.676944,-888.247130,9104.533087
3960.430472,-2374.896044,-888.247130,9326.594869
3960.430787,-2528.115143,-962.267725,9622.677246
3960.431102,-2757.943793,-888.247130,10066.800811
3960.431417,-2757.943793,-888.247130,9622.677246
3960.431731,-2451.505594,-592.164754,9474.636058
3960.432046,-2374.896044,-592.164754,9622.677246
3960.432361,-1991.848295,-0.000000,9474.636058
3960.432676,-1762.019645,296.082377,9178.553681
3960.432991,-1762.019645,370.102971,8808.450710
3960.433306,-1378.971896,592.164754,8586.388927
3960.433621,-1225.752797,592.164754,9030.512492
3960.433936,-1149.143247,592.164754,9178.553681
3960.434251,-1149.143247,518.144159,9474.636058
3960.434566,-1302.362347,-0.000000,9474.636058
3960.434880,-1302.362347,-74.020594,9770.718434
3960.435195,-1302.362347,-0.000000,9992.780217
3960.435510,-1608.800546,-444.123565,10362.883188
3960.435825,-842.705048,-296.082377,10807.006753
3960.436140,-383.047749,-0.000000,10288.862594
3960.436455,229.828649,592.164754,10066.800811
3960.436770,612.876398,962.267725,9992.780217
3960.437085,689.485948,1332.370696,9918.759623
3960.437400,1378.971896,1184.329507,9696.697840
3960.437715,1455.581446,1406.391290,9844.739029
3960.438029,1685.410096,962.267725,9548.656652
3960.438344,2068.457845,888.247130,9918.759623
3960.438659,1838.629195,740.205942,10436.903782
3960.438974,1838.629195,148.041188,10732.986159
3960.439289,1838.629195,148.041188,10955.047942
3960.439604,2145.067394,296.082377,10362.883188
3960.439919,2068.457845,-0.000000,10362.883188
3960.440234,2681.334243,-74.020594,10288.862594
3960.440549,2911.162892,-0.000000,10288.862594
3960.440864,3064.381992,296.082377,10140.821405
3960.441178,3294.210641,370.102971,9696.697840
3960.441493,3140.991542,296.082377,9474.636058
3960.441808,3370.820191,296.082377,9474.636058
3960.442123,3140.991542,296.082377,9400.615463
3960.442438,2604.724693,370.102971,9104.533087
3960.442753,2528.115143,296.082377,9326.594869
3960.443068,2068.457845,-0.000000,9252.574275
3960.443383,1915.238745,-222.061783,9474.636058
3960.443698,919.314598,-518.144159,9252.574275
3960.444013,536.266849,-222.061783,9178.553681
3960.444327,0.000000,-888.247130,9844.739029
3960.444642,153.219100,-814.226536,9770.718434
3960.444957,-383.047749,-814.226536,9696.697840
3960.445272,-612.876398,-888.247130,9104.533087
3960.445587,-689.485948,-222.061783,9252.574275
3960.445902,-536.266849,148.041188,9104.533087
3960.446217,-766.095498,-0.000000,8956.491898
3960.446532,-229.828649,148.041188,8660.409521
3960.446847,-1225.752797,-74.020594,8586.388927
3960.447162,-1532.190996,-222.061783,8660.409521
3960.447476,-2068.457845,-518.144159,9030.512492
3960.447791,-2451.505594,-518.144159,9252.574275
3960.448106,-2528.115143,-740.205942,9474.636058
3960.448421,-2757.943793,-888.247130,9474.636058
3960.448736,-2911.162892,-888.247130,9622.677246
3960.449051,-2681.334243,-740.205942,9474.636058
3960.449366,-2604.724693,-740.205942,9548.656652
3960.449681,-2298.286494,-444.123565,9474.636058
3960.449996,-2221.676944,-0.000000,9326.594869
3960.450310,-1991.848295,444.123565,9178.553681
3960.450625,-1532.190996,518.144159,8808.450710
3960.450940,-1302.362347,814.226536,8808.450710
3960.451255,-766.095498,962.267725,8956.491898
3960.451570,-1302.362347,814.226536,9474.636058
3960.451885,-842.705048,888.247130,9474.636058
3960.452200,-1225.752797,814.226536,9178.553681
3960.452515,-1378.971896,296.082377,9622.677246
3960.452830,-1225.752797,-222.061783,10362.883188
3960.453145,-1225.752797,222.061783,10140.821405
3960.453459,-995.924147,222.061783,10214.842000
3960.453774,-229.828649,518.144159,10362.883188
3960.454089,0.000000,962.267725,10288.862594
3960.454404,459.657299,888.247130,9918.759623
3960.454719,1149.143247,1776.494261,9474.636058
3960.455034,1225.752797,1702.473667,10140.821405
3960.455349,1455.581446,1332.370696,10214.842000
3960.455664,1838.629195,1480.411884,10140.821405
3960.455979,1762.019645,1258.350101,10584.944971
3960.456294,1915.238745,888.247130,10436.903782
3960.456608,2068.457845,888.247130,10510.924376
3960.456923,1991.848295,888.247130,11029.068536
3960.457238,2298.286494,370.102971,10807.006753
3960.457553,2374.896044,444.123565,10955.047942
3960.457868,2451.505594,370.102971,10436.903782
3960.458183,2681.334243,296.082377,10362.883188
3960.458498,2834.553343,370.102971,10066.800811
3960.458813,2757.943793,296.082377,9696.697840
3960.459128,2757.943793,-0.000000,9474.636058
3960.459443,3064.381992,222.061783,9400.615463
3960.459757,2987.772442,222.061783,9326.594869
3960.460072,3140.991542,222.061783,9178.553681
3960.460387,2757.943793,-0.000000,9326.594869
3960.460702,2298.286494,-0.000000,8808.450710
3960.461017,1762.019645,-0.000000,8882.471304
3960.461332,1302.362347,-444.123565,8956.491898
3960.461647,612.876398,-518.144159,9104.533087
3960.461962,306.438199,-740.205942,9326.594869
3960.462277,229.828649,-888.247130,9400.615463
3960.462592,0.000000,-888.247130,9474.636058
3960.462907,-306.438199,-666.185348,8956.491898
3960.463222,-459.657299,-1110.308913,8956.491898
3960.463537,-459.657299,-592.164754,9326.594869
3960.463852,-612.876398,-296.082377,8882.471304
3960.464167,-842.705048,-296.082377,8512.368333
3960.464482,-995.924147,-370.102971,8734.430116
3960.464797,-1149.143247,-296.082377,8660.409521
3960.465112,-766.095498,-370.102971,8882.471304
3960.465427,-1991.848295,-370.102971,8660.409521
3960.465742,-2451.505594,-814.226536,9548.656652
3960.466057,-2604.724693,-962.267725,9548.656652
3960.466373,-2604.724693,-1036.288319,9770.718434
3960.466688,-2757.943793,-518.144159,9622.677246
3960.467003,-2681.334243,-444.123565,9696.697840
3960.467318,-2451.505594,-370.102971,9474.636058
3960.467633,-2298.286494,-222.061783,9622.677246
3960.467948,-2068.457845,-0.000000,9622.677246
3960.468263,-1838.629195,296.082377,9178.553681
3960.468578,-1608.800546,370.102971,8882.471304
3960.468893,-1532.190996,370.102971,9104.533087
3960.469208,-1378.971896,740.205942,9474.636058
3960.469523,-1455.581446,444.123565,9548.656652
3960.469838,-1685.410096,222.061783,9178.553681
3960.470153,-1532.190996,-0.000000,9622.677246
3960.470468,-1302.362347,74.020594,9844.739029
3960.470783,-1149.143247,-74.020594,10362.883188
3960.471098,-689.485948,-0.000000,10510.924376
3960.471413,-612.876398,592.164754,10214.842000
3960.471729,-229.828649,888.247130,9918.759623
3960.472044,0.000000,1110.308913,9992.780217
3960.472359,612.876398,1480.411884,10066.800811
3960.472674,1225.752797,1554.432478,10066.800811
3960.472989,1302.362347,1554.432478,9696.697840
3960.473304,1762.019645,1554.432478,10214.842000
3960.473619,1838.629195,1406.391290,9844.739029
3960.473934,1762.019645,962.267725,9992.780217
3960.474249,1991.848295,740.205942,10362.883188
3960.474564,2221.676944,666.185348,10436.903782
3960.474879,2374.896044,518.144159,10732.986159
3960.475194,2451.505594,518.144159,10658.965565
3960.475509,3447.429741,518.144159,10732.986159
3960.475824,3140.991542,592.164754,10436.903782
3960.476139,2834.553343,518.144159,9770.718434
3960.476454,3140.991542,740.205942,9844.739029
3960.476769,3217.601092,518.144159,9770.718434
3960.477085,3600.648841,814.226536,9474.636058
3960.477400,3370.820191,592.164754,9178.553681
3960.477715,3217.601092,370.102971,9252.574275
3960.478030,2681.334243,222.061783,9178.553681
3960.478345,2221.676944,-0.000000,9474.636058
3960.478660,2145.067394,-0.000000,9474.636058
3960.478975,995.924147,-444.123565,9474.636058
3960.479290,459.657299,-370.102971,9400.615463
3960.479605,383.047749,-444.123565,9474.636058
3960.479920,153.219100,-740.205942,9622.677246
3960.480235,-306.438199,-592.164754,9696.697840
3960.480550,-229.828649,-444.123565,9326.594869
3960.480865,0.000000,-148.041188,9030.512492
3960.481180,-536.266849,-74.020594,8660.409521
3960.481495,0.000000,-222.061783,8290.306550
3960.481810,-536.266849,-222.061783,9252.574275
3960.482125,-1378.971896,-296.082377,8586.388927
3960.482441,-1762.019645,-222.061783,8734.430116
3960.482756,-1991.848295,-296.082377,9178.553681
3960.483071,-2451.505594,-740.205942,9104.533087
3960.483386,-2681.334243,-888.247130,9178.553681
3960.483701,-2757.943793,-962.267725,9548.656652
3960.484016,-2987.772442,-1036.288319,10066.800811
3960.484331,-2911.162892,-1110.308913,9400.615463
3960.484646,-2987.772442,-740.205942,9474.636058
3960.484961,-2451.505594,-518.144159,9696.697840
3960.485276,-2604.724693,-666.185348,9400.615463
3960.485591,-2068.457845,-222.061783,9104.533087
3960.485906,-1608.800546,-0.000000,9252.574275
3960.486221,-1225.752797,370.102971,9178.553681
3960.486536,-1378.971896,592.164754,8660.409521
3960.486851,-1455.581446,666.185348,9104.533087
3960.487166,-1149.143247,592.164754,9474.636058
3960.487481,-1608.800546,444.123565,9770.718434
3960.487797,-1685.410096,-0.000000,10140.821405
3960.488112,-1608.800546,-296.082377,9992.780217
3960.488427,-1072.533697,-74.020594,10140.821405
3960.488742,-842.705048,-0.000000,10214.842000
3960.489057,-766.095498,370.102971,10362.883188
3960.489372,-459.657299,444.123565,10436.903782
3960.489687,76.609550,888.247130,9992.780217
3960.490002,612.876398,1258.350101,9918.759623
3960.490317,995.924147,1406.391290,9844.739029
3960.490632,1072.533697,1480.411884,9844.739029
3960.490947,1532.190996,1332.370696,9844.739029
3960.491262,1685.410096,962.267725,9918.759623
3960.491577,1762.019645,666.185348,10362.883188
3960.491892,1762.019645,518.144159,9918.759623
3960.492207,2068.457845,518.144159,10362.883188
3960.492522,1991.848295,148.041188,10732.986159
3960.492837,2068.457845,222.061783,10288.862594
3960.493152,2451.505594,370.102971,10288.862594
3960.493468,2757.943793,222.061783,10140.821405
3960.493783,2911.162892,148.041188,9992.780217
3960.494098,3140.991542,518.144159,9770.718434
3960.494413,3217.601092,444.123565,9548.656652
3960.494728,3677.258390,518.144159,9770.718434
3960.495043,3753.867940,444.123565,9104.533087
3960.495358,3294.210641,296.082377,8734.430116
3960.495673,3064.381992,-0.000000,9178.553681
3960.495988,2451.505594,222.061783,9104.533087
3960.496303,2068.457845,-74.020594,9104.533087
3960.496618,1608.800546,-74.020594,9326.594869
3960.496933,1149.143247,-296.082377,9622.677246
3960.497248,459.657299,-518.144159,9548.656652
3960.497563,153.219100,-740.205942,9474.636058
3960.497878,0.000000,-518.144159,9844.739029
3960.498193,0.000000,-666.185348,9474.636058
3960.498508,-153.219100,-296.082377,9622.677246
3960.498824,0.000000,-74.020594,9178.553681
3960.499139,-306.438199,-0.000000,9030.512492
3960.499454,-689.485948,148.041188,8882.471304
3960.499769,-1072.533697,-0.000000,8808.450710
3960.500084,-1302.362347,-0.000000,9178.553681
3960.500399,-1532.190996,-0.000000,9104.533087
3960.500714,-2451.505594,-296.082377,9104.533087
3960.501029,-2528.115143,-592.164754,9548.656652
3960.501344,-2757.943793,-370.102971,9918.759623
3960.501659,-3064.381992,-518.144159,9770.718434
3960.501974,-2834.553343,-1036.288319,9622.677246
3960.502289,-2911.162892,-666.185348,9770.718434
3960.502604,-2911.162892,-222.061783,9400.615463
3960.502919,-2528.115143,-0.000000,9326.594869
3960.503234,-1838.629195,148.041188,9474.636058
3960.503549,-1915.238745,370.102971,9400.615463
3960.503864,-1608.800546,592.164754,9030.512492
3960.504180,-1608.800546,814.226536,9030.512492
3960.504495,-1455.581446,888.247130,8882.471304
3960.504810,-1685.410096,962.267725,9326.594869
3960.505125,-1532.190996,888.247130,9474.636058
3960.505440,-1532.190996,518.144159,9918.759623
3960.505755,-1532.190996,-0.000000,9696.697840
3960.506070,-1685.410096,-222.061783,9770.718434
3960.506385,-919.314598,-296.082377,10214.842000
3960.506700,-1072.533697,-0.000000,9992.780217
3960.507015,-229.828649,444.123565,10214.842000
3960.507330,0.000000,814.226536,9992.780217
3960.507645,612.876398,1036.288319,9918.759623
3960.507960,766.095498,1406.391290,9770.718434
3960.508275,1302.362347,1702.473667,9474.636058
3960.508590,1532.190996,1554.432478,9918.759623
3960.508905,1838.629195,1110.308913,9992.780217
3960.509220,1762.019645,814.226536,10362.883188
3960.509536,1608.800546,518.144159,10436.903782
3960.509851,1685.410096,592.164754,10584.944971
3960.510166,1915.238745,518.144159,10732.986159
3960.510481,2298.286494,444.123565,11103.089130
3960.510796,2374.896044,370.102971,10955.047942
3960.511111,2451.505594,-74.020594,10362.883188
3960.511426,2757.943793,370.102971,10066.800811
3960.511741,2987.772442,370.102971,9918.759623
3960.512056,3140.991542,444.123565,9622.677246
3960.512371,3294.210641,518.144159,9474.636058
3960.512686,3447.429741,444.123565,9474.636058
3960.513001,3140.991542,444.123565,8956.491898
3960.513316,3064.381992,148.041188,8808.450710
3960.513631,2681.334243,296.082377,9104.533087
3960.513946,2451.505594,-148.041188,9770.718434
3960.514261,1378.971896,-518.144159,9030.512492
3960.514576,995.924147,-296.082377,9178.553681
3960.514892,229.828649,-518.144159,9400.615463
3960.515207,612.876398,-888.247130,9326.594869
3960.515522,459.657299,-666.185348,9474.636058
3960.515837,0.000000,-666.185348,9326.594869
3960.516152,0.000000,-370.102971,9104.533087
3960.516467,-383.047749,-148.041188,9326.594869
3960.516782,-383.047749,-222.061783,8734.430116
3960.517097,-842.705048,-222.061783,8956.491898
3960.517412,-612.876398,-74.020594,8586.388927
3960.517727,-1149.143247,-222.061783,8734.430116
3960.518042,-1532.190996,-370.102971,8734.430116
3960.518357,-1915.238745,-666.185348,9252.574275
3960.518672,-1991.848295,-740.205942,9252.574275
3960.518987,-2528.115143,-814.226536,9400.615463
3960.519302,-2834.553343,-814.226536,9770.718434
3960.519617,-2834.553343,-962.267725,9918.759623
3960.519932,-2681.334243,-1036.288319,10140.821405
3960.520247,-2834.553343,-888.247130,9548.656652
3960.520563,-2298.286494,-444.123565,9474.636058
3960.520878,-2068.457845,-74.020594,9400.615463
3960.521193,-1838.629195,444.123565,9400.615463
3960.521508,-1685.410096,148.041188,9252.574275
3960.521823,-1838.629195,518.144159,9474.636058
3960.522138,-1532.190996,962.267725,8956.491898
3960.522453,-1762.019645,666.185348,9178.553681
3960.522768,-1685.410096,518.144159,9696.697840
3960.523083,-1225.752797,222.061783,9844.739029
3960.523398,-1991.848295,-222.061783,9770.718434
3960.523713,-1532.190996,-74.020594,9770.718434
3960.524028,-1685.410096,-0.000000,9992.780217
3960.524343,-689.485948,370.102971,10066.800811
3960.524658,0.000000,444.123565,10288.862594
3960.524973,-306.438199,1036.288319,10066.800811
3960.525288,306.438199,1258.350101,9622.677246
3960.525603,536.266849,1554.432478,9548.656652
3960.525919,1302.362347,1628.453072,9622.677246
3960.526234,1685.410096,1480.411884,9770.718434
3960.526549,1915.238745,1184.329507,9696.697840
3960.526864,2298.286494,814.226536,9696.697840
3960.527179,2145.067394,888.247130,10140.821405
3960.527494,2298.286494,888.247130,10362.883188
3960.527809,2451.505594,592.164754,10658.965565
3960.528124,2451.505594,444.123565,10436.903782
3960.528439,2681.334243,592.164754,10362.883188
3960.528754,2987.772442,296.082377,10140.821405
3960.529069,2757.943793,444.123565,10288.862594
3960.529384,2757.943793,518.144159,10214.842000
3960.529699,3140.991542,592.164754,9548.656652
3960.530014,3600.648841,592.164754,9770.718434
3960.530329,3907.087040,444.123565,9474.636058
3960.530644,3907.087040,592.164754,9474.636058
3960.530959,2911.162892,592.164754,9178.553681
3960.531275,2528.115143,518.144159,9326.594869
3960.531590,2145.067394,-0.000000,9696.697840
3960.531905,1608.800546,-0.000000,9696.697840
3960.532220,1072.533697,-888.247130,9992.780217
3960.532535,306.438199,-518.144159,9696.697840
3960.532850,76.609550,-592.164754,9696.697840
3960.533165,0.000000,-222.061783,9622.677246
3960.533480,0.000000,-592.164754,9548.656652
3960.533795,-306.438199,-444.123565,9770.718434
3960.534110,-383.047749,-0.000000,9326.594869
3960.534425,-536.266849,-222.061783,8956.491898
3960.534740,-689.485948,-148.041188,8734.430116
3960.535055,-612.876398,-296.082377,8882.471304
3960.535370,-1149.143247,-222.061783,9030.512492
3960.535685,-1838.629195,-444.123565,9104.533087
3960.536000,-2145.067394,-370.102971,9326.594869
3960.536315,-2604.724693,-592.164754,8882.471304
3960.536631,-2681.334243,-1184.329507,9326.594869
3960.536946,-2604.724693,-962.267725,9548.656652
3960.537261,-2834.553343,-814.226536,9548.656652
3960.537576,-2757.943793,-814.226536,9548.656652
3960.537891,-2757.943793,-740.205942,9474.636058
3960.538206,-2528.115143,-296.082377,9474.636058
3960.538521,-2221.676944,-0.000000,9474.636058
3960.538836,-1991.848295,296.082377,9104.533087
3960.539151,-1608.800546,222.061783,9030.512492
3960.539466,-1532.190996,592.164754,8882.471304
3960.539781,-1225.752797,666.185348,9696.697840
3960.540096,-1378.971896,814.226536,9104.533087
3960.540411,-1608.800546,666.185348,9104.533087
3960.540726,-1378.971896,222.061783,9622.677246
3960.541041,-1532.190996,-0.000000,9918.759623
3960.541356,-1378.971896,-0.000000,10140.821405
3960.541671,-1378.971896,-74.020594,10066.800811
3960.541986,-766.095498,-0.000000,10066.800811
3960.542302,-689.485948,222.061783,10140.821405
3960.542617,-612.876398,518.144159,9844.739029
3960.542932,459.657299,296.082377,9992.780217
3960.543247,842.705048,1332.370696,9770.718434
3960.543562,1149.143247,1702.473667,9474.636058
3960.543877,1532.190996,1258.350101,9696.697840
3960.544192,1685.410096,1406.391290,9844.739029
3960.544507,1762.019645,1184.329507,10214.842000
3960.544822,1915.238745,962.267725,10510.924376
3960.545137,1991.848295,592.164754,10362.883188
3960.545452,2068.457845,592.164754,10658.965565
3960.545767,2451.505594,518.144159,10732.986159
3960.546082,2298.286494,-0.000000,10881.027347
3960.546397,2834.553343,222.061783,10362.883188
3960.546712,3064.381992,296.082377,10140.821405
3960.547027,2987.772442,740.205942,9992.780217
3960.547342,3600.648841,444.123565,9622.677246
3960.547658,3677.258390,444.123565,9696.697840
3960.547973,3524.039291,740.205942,9548.656652
3960.548288,3370.820191,518.144159,9104.533087
3960.548603,2987.772442,518.144159,8956.491898
3960.548918,2528.115143,222.061783,8956.491898
3960.549233,2451.505594,74.020594,9400.615463
3960.549548,1532.190996,-296.082377,9326.594869
3960.549863,1072.533697,-296.082377,9474.636058
3960.550178,766.095498,-444.123565,9326.594869
3960.550493,995.924147,-592.164754,9548.656652
3960.550808,229.828649,-592.164754,9474.636058
3960.551123,0.000000,-666.185348,9326.594869
3960.551438,0.000000,-592.164754,8882.471304
3960.551753,76.609550,-148.041188,9326.594869
3960.552068,0.000000,-74.020594,9252.574275
3960.552383,-459.657299,-74.020594,8808.450710
3960.552698,-612.876398,-148.041188,8734.430116
3960.553014,-995.924147,-148.041188,8882.471304
3960.553329,-1532.190996,-148.041188,8882.471304
3960.553644,-1685.410096,-296.082377,9178.553681
3960.553959,-2528.115143,-592.164754,9474.636058
3960.554274,-2681.334243,-814.226536,9474.636058
3960.554589,-3064.381992,-888.247130,9474.636058
3960.554904,-2911.162892,-1110.308913,9696.697840
3960.555219,-2834.553343,-888.247130,9770.718434
3960.555534,-2834.553343,-592.164754,9474.636058
3960.555849,-2681.334243,-666.185348,9326.594869
3960.556164,-2221.676944,-0.000000,9474.636058
3960.556479,-1762.019645,222.061783,9548.656652
3960.556794,-1532.190996,370.102971,8882.471304
3960.557109,-1608.800546,444.123565,8882.471304
3960.557424,-1685.410096,888.247130,9178.553681
3960.557739,-1532.190996,814.226536,9104.533087
3960.558054,-1455.581446,518.144159,9178.553681
3960.558370,-1685.410096,296.082377,9770.718434
3960.558685,-1762.019645,-0.000000,10214.842000
3960.559000,-1762.019645,-0.000000,9992.780217
3960.559315,-1608.800546,222.061783,9918.759623
3960.559630,-1225.752797,-0.000000,10140.821405
3960.559945,-995.924147,296.082377,10066.800811
3960.560260,0.000000,888.247130,9696.697840
3960.560575,383.047749,1110.308913,9696.697840
3960.560890,766.095498,1702.473667,9622.677246
3960.561205,1225.752797,1258.350101,9622.677246
3960.561520,1225.752797,1184.329507,9548.656652
3960.561835,1608.800546,1406.391290,9918.759623
3960.562150,1608.800546,962.267725,9992.780217
3960.562465,1991.848295,888.247130,10584.944971
3960.562780,2451.505594,666.185348,10955.047942
3960.563095,2145.067394,296.082377,10955.047942
3960.563410,2068.457845,370.102971,10584.944971
3960.563725,2451.505594,444.123565,10584.944971
3960.564040,2757.943793,444.123565,10510.924376
3960.564355,3217.601092,222.061783,10510.924376
3960.564670,2911.162892,444.123565,10140.821405
3960.564985,3370.820191,740.205942,9844.739029
3960.565300,3524.039291,444.123565,9474.636058
3960.565615,3217.601092,592.164754,9474.636058
3960.565930,3983.696590,148.041188,9474.636058
3960.566245,3140.991542,370.102971,9326.594869
3960.566560,2681.334243,370.102971,9030.512492
3960.566875,2298.286494,-0.000000,9104.533087
3960.567190,1838.629195,-0.000000,9326.594869
3960.567505,1532.190996,-518.144159,9474.636058
3960.567820,919.314598,-518.144159,9326.594869
3960.568136,383.047749,-740.205942,9548.656652
3960.568451,229.828649,-518.144159,9548.656652
3960.568766,153.219100,-814.226536,9474.636058
3960.569081,0.000000,-1332.370696,9104.533087
3960.569396,0.000000,-222.061783,8956.491898
3960.569711,0.000000,-296.082377,8956.491898
3960.570026,0.000000,-74.020594,8956.491898
3960.570341,-459.657299,-0.000000,8734.430116
3960.570656,-766.095498,-370.102971,8586.388927
3960.570971,-1225.752797,-74.020594,8512.368333
3960.571286,-1378.971896,-592.164754,8808.450710
3960.571601,-1838.629195,-666.185348,9178.553681
3960.571916,-2451.505594,-666.185348,9400.615463
3960.572231,-2681.334243,-740.205942,9770.718434
3960.572546,-2987.772442,-666.185348,9770.718434
3960.572861,-3140.991542,-592.164754,9474.636058
3960.573176,-2757.943793,-740.205942,9622.677246
3960.573491,-2528.115143,-814.226536,9770.718434
3960.573806,-2221.676944,-592.164754,9326.594869
3960.574121,-2221.676944,222.061783,9326.594869
3960.574436,-1838.629195,518.144159,9030.512492
3960.574751,-1685.410096,666.185348,9030.512492
3960.575066,-995.924147,518.144159,8956.491898
3960.575381,-1991.848295,740.205942,9326.594869
3960.575696,-1838.629195,740.205942,9474.636058
3960.576011,-1685.410096,296.082377,9178.553681
3960.576326,-1838.629195,296.082377,9548.656652
3960.576641,-1991.848295,-74.020594,9770.718434
3960.576956,-2145.067394,-0.000000,10140.821405
3960.577271,-1302.362347,-74.020594,9992.780217
3960.577586,-995.924147,296.082377,10288.862594
3960.577901,-459.657299,592.164754,10362.883188
3960.578216,0.000000,1036.288319,9918.759623
3960.578531,536.266849,1480.411884,9770.718434
3960.578846,766.095498,1554.432478,9696.697840
3960.579161,1225.752797,1628.453072,9770.718434
3960.579476,1838.629195,1332.370696,9992.780217
3960.579791,1532.190996,962.267725,10140.821405
3960.580106,1915.238745,962.267725,10288.862594
3960.580421,1991.848295,814.226536,10436.903782
3960.580736,2068.457845,444.123565,10658.965565
3960.581051,2298.286494,444.123565,11029.068536
3960.581366,2528.115143,370.102971,10732.986159
3960.581681,2604.724693,370.102971,10362.883188
3960.581996,2911.162892,370.102971,10362.883188
3960.582311,3140.991542,370.102971,10288.862594
3960.582626,3294.210641,814.226536,9918.759623
3960.582941,3217.601092,666.185348,9844.739029
3960.583256,3370.820191,444.123565,9548.656652
3960.583571,3294.210641,592.164754,9030.512492
3960.583886,3370.820191,444.123565,9252.574275
3960.584201,2834.553343,370.102971,9400.615463
3960.584516,2911.162892,-0.000000,9104.533087
3960.584831,2145.067394,-74.020594,9252.574275
3960.585146,1225.752797,-148.041188,9252.574275
3960.585461,1149.143247,-444.123565,9474.636058
3960.585776,689.485948,-740.205942,9474.636058
3960.586091,306.438199,-814.226536,9252.574275
3960.586406,0.000000,-740.205942,9548.656652
3960.586721,-383.047749,-444.123565,9030.512492
3960.587036,0.000000,-74.020594,9104.533087
3960.587351,0.000000,-0.000000,9030.512492
3960.587666,-459.657299,-222.061783,8660.409521
3960.587981,-536.266849,-0.000000,8512.368333
3960.588296,-842.705048,-74.020594,8660.409521
3960.588611,-1378.971896,-0.000000,8808.450710
3960.588926,-1915.238745,-444.123565,8956.491898
3960.589241,-2298.286494,-444.123565,9400.615463
3960.589556,-2528.115143,-666.185348,9326.594869
3960.589871,-2911.162892,-740.205942,9548.656652
3960.590186,-3064.381992,-962.267725,9992.780217
3960.590501,-3447.429741,-1036.288319,9992.780217
3960.590816,-2681.334243,-814.226536,10066.800811
3960.591131,-2757.943793,-888.247130,9770.718434
3960.591446,-2374.896044,-296.082377,9400.615463
3960.591761,-2068.457845,296.082377,9326.594869
3960.592076,-1378.971896,222.061783,8660.409521
3960.592391,-1608.800546,666.185348,8808.450710
3960.592706,-1532.190996,666.185348,8882.471304
3960.593021,-1685.410096,370.102971,8956.491898
3960.593336,-995.924147,666.185348,9178.553681
3960.593651,-1762.019645,518.144159,9474.636058
3960.593966,-1762.019645,222.061783,9918.759623
3960.594281,-1762.019645,-74.020594,9770.718434
3960.594596,-1762.019645,-0.000000,10066.800811
3960.594911,-1455.581446,-222.061783,10510.924376
3960.595226,-1149.143247,370.102971,10066.800811
3960.595541,-536.266849,444.123565,10066.800811
3960.595856,0.000000,888.247130,10066.800811
3960.596171,229.828649,1110.308913,9918.759623
3960.596486,536.266849,888.247130,10140.821405
3960.596801,1378.971896,1554.432478,9844.739029
3960.597116,1532.190996,1628.453072,9992.780217
3960.597431,1915.238745,888.247130,9770.718434
3960.597746,2068.457845,740.205942,10140.821405
3960.598061,1838.629195,740.205942,10584.944971
3960.598376,1991.848295,370.102971,10436.903782
3960.598691,2068.457845,370.102971,10584.944971
3960.599006,2451.505594,148.041188,10362.883188
3960.599321,2604.724693,370.102971,10955.047942
3960.599637,2681.334243,-0.000000,10140.821405
3960.599952,2834.553343,296.082377,10436.903782
3960.600267,3064.381992,222.061783,9992.780217
3960.600582,3370.820191,222.061783,9400.615463
3960.600897,4060.306139,814.226536,9474.636058
3960.601212,3677.258390,592.164754,9326.594869
3960.601527,3294.210641,296.082377,8956.491898
3960.601842,2834.553343,296.082377,9178.553681
3960.602157,2604.724693,370.102971,9104.533087
3960.602472,2221.676944,148.041188,9252.574275
3960.602787,1455.581446,-0.000000,9326.594869
3960.603102,1072.533697,-148.041188,9400.615463
3960.603417,536.266849,-740.205942,9400.615463
3960.603732,689.485948,-814.226536,9252.574275
3960.604047,229.828649,-1184.329507,9474.636058
3960.604362,229.828649,-370.102971,9548.656652
3960.604677,0.000000,-222.061783,9622.677246
3960.604992,0.000000,-0.000000,8808.450710
3960.605307,0.000000,-74.020594,8512.368333
3960.605622,-229.828649,-0.000000,9030.512492
3960.605937,-689.485948,-0.000000,8808.450710
3960.606252,-1378.971896,-74.020594,8956.491898
3960.606567,-1685.410096,-296.082377,9030.512492
3960.606882,-1991.848295,-444.123565,9178.553681
3960.607197,-2221.676944,-666.185348,9548.656652
3960.607512,-2911.162892,-888.247130,9474.636058
3960.607827,-3140.991542,-740.205942,9844.739029
3960.608142,-3140.991542,-666.185348,9696.697840
3960.608457,-2757.943793,-592.164754,9844.739029
3960.608772,-2834.553343,-444.123565,9622.677246
3960.609087,-2604.724693,-0.000000,10066.800811
3960.609402,-2298.286494,-0.000000,9400.615463
3960.609717,-2145.067394,222.061783,9178.553681
3960.610032,-1532.190996,666.185348,8956.491898
3960.610347,-1762.019645,666.185348,9030.512492
3960.610662,-1608.800546,518.144159,8956.491898
3960.610977,-1532.190996,888.247130,9104.533087
3960.611292,-1685.410096,518.144159,9400.615463
3960.611607,-1762.019645,222.061783,9992.780217
3960.611922,-1149.143247,-0.000000,9918.759623
3960.612237,-1838.629195,-222.061783,10140.821405
3960.612552,-1608.800546,-222.061783,10214.842000
3960.612867,-1072.533697,296.082377,10362.883188
3960.613182,-612.876398,592.164754,10214.842000
3960.613497,689.485948,592.164754,9770.718434
3960.613812,229.828649,1036.288319,9696.697840
3960.614127,919.314598,1258.350101,9548.656652
3960.614442,1149.143247,1480.411884,9770.718434
3960.614757,1225.752797,1258.350101,9918.759623
3960.615072,1685.410096,1036.288319,10510.924376
3960.615387,2298.286494,1036.288319,10658.965565
3960.615702,1991.848295,666.185348,9992.780217
3960.616017,2068.457845,296.082377,10436.903782
3960.616332,2145.067394,444.123565,10881.027347
3960.616647,2374.896044,-0.000000,10436.903782
3960.616962,2681.334243,370.102971,10436.903782
3960.617277,2681.334243,-0.000000,10288.862594
3960.617592,3294.210641,444.123565,10140.821405
3960.617907,2681.334243,222.061783,9844.739029
3960.618222,3677.258390,740.205942,9622.677246
3960.618537,3753.867940,740.205942,9474.636058
3960.618852,3907.087040,666.185348,8956.491898
3960.619167,3447.429741,370.102971,9030.512492
3960.619482,2987.772442,370.102971,8882.471304
3960.619797,2374.896044,222.061783,9104.533087
3960.620112,2221.676944,222.061783,8956.491898
3960.620427,1532.190996,-222.061783,9326.594869
3960.620742,1378.971896,-148.041188,9326.594869
3960.621057,995.924147,-1036.288319,8882.471304
3960.621372,919.314598,-666.185348,9696.697840
3960.621687,306.438199,-518.144159,9474.636058
3960.622002,0.000000,-370.102971,9400.615463
3960.622317,229.828649,-370.102971,9104.533087
3960.622632,76.609550,-0.000000,9104.533087
3960.622947,-306.438199,-0.000000,8956.491898
3960.623262,-306.438199,-0.000000,8512.368333
3960.623577,-766.095498,-0.000000,8586.388927
3960.623892,-1302.362347,-0.000000,9104.533087
3960.624207,-1685.410096,-370.102971,9104.533087
3960.624522,-1838.629195,-814.226536,9400.615463
3960.624837,-2298.286494,-444.123565,9474.636058
3960.625152,-2757.943793,-1110.308913,9696.697840
3960.625467,-2834.553343,-1036.288319,9770.718434
3960.625782,-3600.648841,-1110.308913,10584.944971
3960.626097,-2681.334243,-518.144159,10288.862594
3960.626412,-2528.115143,-370.102971,9844.739029
3960.626727,-2298.286494,-148.041188,9622.677246
3960.627042,-2145.067394,-0.000000,9696.697840
3960.627357,-2221.676944,444.123565,9474.636058
3960.627672,-1762.019645,666.185348,9104.533087
3960.627987,-1762.019645,592.164754,9104.533087
3960.628302,-1685.410096,518.144159,9474.636058
3960.628617,-1991.848295,444.123565,9474.636058
3960.628932,-1991.848295,-0.000000,9326.594869
3960.629247,-1915.238745,148.041188,9696.697840
3960.629562,-2145.067394,-148.041188,9918.759623
3960.629877,-1915.238745,-0.000000,9992.780217
3960.630192,-1378.971896,-370.102971,9992.780217
3960.630507,-1149.143247,-74.020594,9992.780217
3960.630823,-689.485948,518.144159,9844.739029
3960.631138,0.000000,888.247130,9770.718434
3960.631453,612.876398,1184.329507,9844.739029
3960.631768,1072.533697,1110.308913,9400.615463
3960.632083,1072.533697,1110.308913,9400.615463
3960.632398,1532.190996,1406.391290,9844.739029
3960.632713,1532.190996,888.247130,9918.759623
3960.633028,1991.848295,592.164754,10214.842000
3960.633343,1838.629195,592.164754,10436.903782
3960.633658,2374.896044,592.164754,10214.842000
3960.633973,2604.724693,296.082377,10214.842000
3960.634288,2528.115143,296.082377,10214.842000
3960.634603,2757.943793,370.102971,10584.944971
3960.634918,3064.381992,-0.000000,10436.903782
3960.635233,3217.601092,370.102971,9548.656652
3960.635548,3370.820191,296.082377,9622.677246
3960.635863,3447.429741,444.123565,9400.615463
3960.636178,3907.087040,592.164754,9474.636058
3960.636493,3524.039291,370.102971,9326.594869
3960.636808,3447.429741,222.061783,9252.574275
3960.637123,3140.991542,518.144159,8808.450710
3960.637438,2604.724693,444.123565,8956.491898
3960.637753,2374.896044,-74.020594,9326.594869
3960.638068,1608.800546,-0.000000,9548.656652
3960.638383,995.924147,-222.061783,9474.636058
3960.638698,459.657299,-666.185348,9400.615463
3960.639013,229.828649,-740.205942,9622.677246
3960.639328,153.219100,-592.164754,9992.780217
3960.639643,76.609550,-518.144159,9622.677246
3960.639958,0.000000,-74.020594,9474.636058
3960.640273,-229.828649,148.041188,8956.491898
3960.640588,0.000000,-74.020594,8882.471304
3960.640903,-536.266849,370.102971,8734.430116
3960.641218,-1072.533697,-0.000000,8660.409521
3960.641533,-1149.143247,-148.041188,9030.512492
3960.641848,-1838.629195,-444.123565,9104.533087
3960.642163,-1915.238745,-1036.288319,9918.759623
3960.642478,-2451.505594,-814.226536,9474.636058
3960.642793,-2834.553343,-888.247130,9548.656652
3960.643108,-3140.991542,-1036.288319,9992.780217
3960.643423,-2987.772442,-962.267725,9844.739029
3960.643738,-2911.162892,-888.247130,10362.883188
3960.644053,-2911.162892,-666.185348,9548.656652
3960.644368,-2604.724693,-296.082377,9696.697840
3960.644683,-2068.457845,-0.000000,9326.594869
3960.644998,-1685.410096,444.123565,8882.471304
3960.645313,-1608.800546,444.123565,9474.636058
3960.645628,-1685.410096,740.205942,9104.533087
3960.645943,-1608.800546,814.226536,9030.512492
3960.646258,-1685.410096,592.164754,9252.574275
3960.646573,-1302.362347,444.123565,9178.553681
3960.646888,-2451.505594,-0.000000,9400.615463
3960.647203,-1685.410096,-222.061783,9770.718434
3960.647518,-1762.019645,-222.061783,10214.842000
3960.647833,-1532.190996,-74.020594,9918.759623
3960.648148,-1378.971896,370.102971,9696.697840
3960.648463,-459.657299,296.082377,10288.862594
3960.648778,0.000000,888.247130,10066.800811
3960.649093,153.219100,1110.308913,9696.697840
3960.649408,689.485948,1406.391290,9548.656652
3960.649723,1225.752797,1332.370696,9548.656652
3960.650038,1838.629195,1480.411884,9844.739029
3960.650353,1838.629195,1480.411884,10288.862594
3960.650668,1991.848295,1258.350101,10214.842000
3960.650983,2068.457845,888.247130,9844.739029
3960.651298,2145.067394,666.185348,10436.903782
3960.651613,2298.286494,518.144159,10807.006753
3960.651928,2145.067394,-148.041188,10584.944971
3960.652243,2298.286494,-0.000000,10436.903782
3960.652558,2451.505594,-0.000000,10288.862594
3960.652873,3064.381992,370.102971,10288.862594
3960.653188,2604.724693,296.082377,9696.697840
3960.653503,3217.601092,444.123565,9326.594869
3960.653818,3524.039291,592.164754,9474.636058
3960.654133,3830.477490,740.205942,9030.512492
3960.654448,3753.867940,592.164754,9178.553681
3960.654763,3140.991542,148.041188,9252.574275
3960.655078,3064.381992,296.082377,9104.533087
3960.655393,2451.505594,-0.000000,8956.491898
3960.655708,1838.629195,222.061783,9178.553681
3960.656023,1455.581446,-666.185348,9622.677246
3960.656338,1149.143247,-1258.350101,9770.718434
3960.656653,459.657299,-592.164754,9474.636058
3960.656968,306.438199,-814.226536,9696.697840
3960.657283,0.000000,-592.164754,9548.656652
3960.657598,229.828649,-518.144159,9548.656652
3960.657913,76.609550,-296.082377,9474.636058
3960.658228,-229.828649,-74.020594,9252.574275
3960.658543,0.000000,-0.000000,8734.430116
3960.658858,-536.266849,-0.000000,8586.388927
3960.659173,-766.095498,-222.061783,8808.450710
3960.659488,-1532.190996,-74.020594,9474.636058
3960.659803,-1608.800546,-444.123565,9252.574275
3960.660118,-2451.505594,-740.205942,9326.594869
3960.660433,-2757.943793,-962.267725,9622.677246
3960.660748,-3140.991542,-1110.308913,9770.718434
3960.661063,-3217.601092,-1110.308913,9770.718434
3960.661378,-3217.601092,-1036.288319,10214.842000
3960.661693,-3140.991542,-740.205942,9474.636058
3960.662008,-2604.724693,-148.041188,9548.656652
3960.662324,-2221.676944,222.061783,9622.677246
3960.662639,-1915.238745,370.102971,9326.594869
3960.662954,-1838.629195,370.102971,8660.409521
3960.663269,-1762.019645,592.164754,8808.450710
3960.663584,-1608.800546,444.123565,9104.533087
3960.663899,-1608.800546,666.185348,9104.533087
3960.664214,-1532.190996,444.123565,9104.533087
3960.664529,-1915.238745,148.041188,9326.594869
3960.664844,-1685.410096,-0.000000,9622.677246
3960.665159,-1685.410096,-222.061783,9696.697840
3960.665474,-1762.019645,222.061783,10066.800811
3960.665789,-995.924147,-222.061783,9918.759623
3960.666104,-612.876398,-0.000000,9770.718434
3960.666419,-383.047749,444.123565,9622.677246
3960.666734,229.828649,1184.329507,9918.759623
3960.667049,612.876398,1406.391290,9548.656652
3960.667364,766.095498,1406.391290,9770.718434
3960.667679,1532.190996,1480.411884,9622.677246
3960.667994,1762.019645,1332.370696,10066.800811
3960.668309,1991.848295,1184.329507,10436.903782
3960.668624,1608.800546,740.205942,10732.986159
3960.668939,1762.019645,222.061783,10584.944971
3960.669254,1991.848295,518.144159,10510.924376
3960.669569,2145.067394,592.164754,10732.986159
3960.669884,2451.505594,444.123565,10807.006753
3960.670200,2834.553343,518.144159,10732.986159
3960.670515,2911.162892,592.164754,10510.924376
3960.670830,2987.772442,888.247130,10214.842000
3960.671145,3064.381992,814.226536,9992.780217
3960.671460,3600.648841,888.247130,9400.615463
3960.671775,3677.258390,1332.370696,9474.636058
3960.672090,3524.039291,370.102971,9548.656652
3960.672405,3217.601092,740.205942,9252.574275
3960.672720,2681.334243,592.164754,9400.615463
3960.673035,1991.848295,222.061783,9474.636058
3960.673350,1915.238745,-296.082377,9400.615463
3960.673665,1072.533697,-148.041188,9548.656652
3960.673980,766.095498,-444.123565,9474.636058
3960.674295,612.876398,-1036.288319,9918.759623
3960.674610,229.828649,-740.205942,9548.656652
3960.674925,76.609550,-296.082377,9326.594869
3960.675240,0.000000,-370.102971,8808.450710
3960.675555,0.000000,-148.041188,9030.512492
3960.675870,0.000000,-148.041188,8660.409521
3960.676185,0.000000,-148.041188,8734.430116
3960.676500,-383.047749,-0.000000,8808.450710
3960.676815,-1072.533697,-148.041188,8586.388927
3960.677131,-1302.362347,-148.041188,8882.471304
3960.677446,-1685.410096,-666.185348,9400.615463
3960.677761,-2221.676944,-962.267725,9326.594869
3960.678076,-2221.676944,-1258.350101,9474.636058
3960.678391,-2604.724693,-1036.288319,9622.677246
3960.678706,-2834.553343,-666.185348,9770.718434
3960.679021,-2604.724693,-888.247130,9548.656652
3960.679336,-2911.162892,-666.185348,9622.677246
3960.679651,-2298.286494,-518.144159,9844.739029
3960.679966,-1915.238745,-0.000000,9326.594869
3960.680281,-1762.019645,-0.000000,8956.491898
3960.680596,-1608.800546,296.082377,8882.471304
3960.680911,-1225.752797,740.205942,9178.553681
3960.681226,-1532.190996,518.144159,9104.533087
3960.681541,-1915.238745,296.082377,9252.574275
3960.681856,-1838.629195,296.082377,9474.636058
3960.682171,-1915.238745,222.061783,9548.656652
3960.682486,-1762.019645,-0.000000,9918.759623
3960.682801,-1838.629195,-74.020594,9844.739029
3960.683116,-1838.629195,-222.061783,10288.862594
3960.683431,-1378.971896,-74.020594,10066.800811
3960.683746,-1302.362347,222.061783,9992.780217
3960.684062,-459.657299,592.164754,10066.800811
3960.684377,459.657299,962.267725,9622.677246
3960.684692,459.657299,1258.350101,9696.697840
3960.685007,689.485948,1184.329507,9622.677246
3960.685322,1225.752797,1480.411884,9844.739029
3960.685637,1378.971896,1332.370696,9548.656652
3960.685952,1532.190996,888.247130,9696.697840
3960.686267,1608.800546,740.205942,10214.842000
3960.686582,1685.410096,666.185348,10214.842000
3960.686897,2068.457845,370.102971,10362.883188
3960.687212,2145.067394,444.123565,10510.924376
3960.687527,2145.067394,370.102971,10732.986159
3960.687842,2681.334243,518.144159,10214.842000
3960.688157,2681.334243,-0.000000,10288.862594
3960.688472,2911.162892,296.082377,10140.821405
3960.688787,3370.820191,592.164754,9770.718434
3960.689102,3524.039291,518.144159,9474.636058
3960.689417,3753.867940,592.164754,9400.615463
3960.689732,3677.258390,888.247130,9252.574275
3960.690047,3370.820191,592.164754,9252.574275
3960.690362,2834.553343,666.185348,9252.574275
3960.690677,2451.505594,444.123565,9030.512492
3960.690992,2068.457845,370.102971,9104.533087
3960.691308,1378.971896,-148.041188,9622.677246
3960.691623,919.314598,-518.144159,9844.739029
3960.691938,689.485948,-444.123565,9770.718434
3960.692253,459.657299,-666.185348,9548.656652
3960.692568,153.219100,-370.102971,9622.677246
3960.692883,0.000000,-296.082377,9400.615463
3960.693198,0.000000,-0.000000,9474.636058
3960.693513,0.000000,-0.000000,8808.450710
3960.693828,0.000000,-74.020594,8882.471304
3960.694143,-766.095498,-74.020594,8882.471304
3960.694458,-1072.533697,-0.000000,8734.430116
3960.694773,-1378.971896,-74.020594,9178.553681
3960.695088,-1915.238745,-444.123565,9326.594869
3960.695403,-2298.286494,-518.144159,9178.553681
3960.695718,-2528.115143,-888.247130,9400.615463
3960.696033,-2681.334243,-1036.288319,9770.718434
3960.696348,-2604.724693,-888.247130,9918.759623
3960.696663,-3140.991542,-592.164754,9474.636058
3960.696978,-3064.381992,-518.144159,9622.677246
3960.697293,-2451.505594,-370.102971,9548.656652
3960.697608,-2451.505594,-148.041188,9326.594869
3960.697923,-1991.848295,222.061783,9030.512492
3960.698239,-1302.362347,444.123565,8956.491898
3960.698554,-1455.581446,814.226536,8882.471304
3960.698869,-1838.629195,592.164754,8956.491898
3960.699184,-1608.800546,592.164754,9030.512492
3960.699499,-1685.410096,444.123565,9474.636058
3960.699814,-1608.800546,-0.000000,9474.636058
3960.700129,-1225.752797,-0.000000,9548.656652
3960.700444,-1685.410096,-0.000000,10066.800811
3960.700759,-1378.971896,-0.000000,10066.800811
3960.701074,-1455.581446,-74.020594,10288.862594
3960.701389,-919.314598,370.102971,9770.718434
3960.701704,0.000000,1036.288319,9918.759623
3960.702019,306.438199,1036.288319,9770.718434
3960.702334,689.485948,1406.391290,9918.759623
3960.702649,919.314598,1184.329507,9770.718434
3960.702964,689.485948,1258.350101,9992.780217
3960.703279,1532.190996,1184.329507,10214.842000
3960.703594,1762.019645,1036.288319,10510.924376
3960.703909,1685.410096,814.226536,10955.047942
3960.704224,1685.410096,592.164754,10807.006753
3960.704539,1915.238745,-0.000000,10584.944971
3960.704854,2068.457845,444.123565,10807.006753
3960.705170,2298.286494,222.061783,10584.944971
3960.705485,2528.115143,444.123565,10066.800811
3960.705800,2374.896044,-0.000000,10510.924376
3960.706115,2911.162892,444.123565,10066.800811
3960.706430,3140.991542,296.082377,9474.636058
3960.706745,3370.820191,-0.000000,9622.677246
3960.707060,3140.991542,296.082377,9474.636058
3960.707375,3294.210641,222.061783,9104.533087
3960.707690,2911.162892,444.123565,9252.574275
3960.708005,2604.724693,222.061783,8808.450710
3960.708320,2221.676944,-148.041188,9252.574275
3960.708635,1991.848295,-74.020594,8882.471304
3960.708950,1302.362347,-222.061783,9178.553681
3960.709265,995.924147,-444.123565,9252.574275
3960.709580,383.047749,-962.267725,9474.636058
3960.709895,153.219100,-1110.308913,9622.677246
3960.710210,0.000000,-1036.288319,9474.636058
3960.710525,-76.609550,-666.185348,8882.471304
3960.710840,0.000000,-370.102971,9400.615463
3960.711155,-153.219100,-222.061783,9104.533087
3960.711470,0.000000,-296.082377,8512.368333
3960.711785,-459.657299,-148.041188,8512.368333
3960.712101,-919.314598,-148.041188,8734.430116
3960.712416,-1072.533697,-74.020594,8882.471304
3960.712731,-1532.190996,-296.082377,9178.553681
3960.713046,-1991.848295,-518.144159,9844.739029
3960.713361,-2298.286494,-592.164754,9622.677246
3960.713676,-2757.943793,-888.247130,9474.636058
3960.713991,-2757.943793,-592.164754,9844.739029
3960.714306,-2834.553343,-592.164754,9992.780217
3960.714621,-3294.210641,-666.185348,10881.027347
3960.714936,-2604.724693,-222.061783,9548.656652
3960.715251,-2374.896044,-222.061783,9400.615463
3960.715566,-2068.457845,518.144159,9622.677246
3960.715881,-1915.238745,592.164754,9400.615463
3960.716196,-2298.286494,814.226536,9622.677246
3960.716511,-1685.410096,1036.288319,9474.636058
3960.716826,-1915.238745,888.247130,9178.553681
3960.717141,-1762.019645,814.226536,9252.574275
3960.717456,-1838.629195,740.205942,9622.677246
3960.717771,-1532.190996,-0.000000,10140.821405
3960.718086,-1915.238745,222.061783,9844.739029
3960.718401,-1838.629195,148.041188,9992.780217
3960.718716,-1685.410096,370.102971,9992.780217
3960.719032,-919.314598,444.123565,10066.800811
3960.719347,536.266849,1258.350101,9918.759623
3960.719662,0.000000,1110.308913,9918.759623
3960.719977,383.047749,1480.411884,9622.677246
3960.720292,766.095498,1554.432478,9622.677246
3960.720607,1378.971896,1554.432478,9844.739029
3960.720922,1302.362347,1628.453072,9918.759623
3960.721237,1532.190996,1258.350101,9844.739029
3960.721552,2068.457845,888.247130,10510.924376
3960.721867,1991.848295,814.226536,10584.944971
3960.722182,2221.676944,370.102971,10807.006753
3960.722497,1838.629195,296.082377,10214.842000
3960.722812,2451.505594,518.144159,10658.965565
3960.723127,2681.334243,296.082377,10732.986159
3960.723442,2911.162892,444.123565,10288.862594
3960.723757,3064.381992,444.123565,10066.800811
3960.724072,2987.772442,222.061783,9918.759623
3960.724387,3217.601092,518.144159,9474.636058
3960.724702,3524.039291,666.185348,9474.636058
3960.725017,3447.429741,518.144159,9178.553681
3960.725332,3370.820191,-0.000000,9474.636058
3960.725647,2528.115143,-0.000000,9104.533087
3960.725963,2298.286494,-148.041188,8808.450710
3960.726278,1915.238745,-0.000000,9326.594869
3960.726593,1455.581446,-74.020594,9326.594869
3960.726908,536.266849,-592.164754,9474.636058
3960.727223,612.876398,-666.185348,9696.697840
3960.727538,229.828649,-740.205942,9474.636058
3960.727853,76.609550,-888.247130,9474.636058
3960.728168,0.000000,-740.205942,9252.574275
3960.728483,0.000000,-740.205942,9474.636058
3960.728798,0.000000,-518.144159,8882.471304
3960.729113,-383.047749,-296.082377,8808.450710
3960.729428,-306.438199,-0.000000,8512.368333
3960.729743,-919.314598,-444.123565,8808.450710
3960.730058,-536.266849,-296.082377,8438.347739
3960.730373,-1532.190996,-370.102971,8882.471304
3960.730688,-1838.629195,-814.226536,8882.471304
3960.731003,-2451.505594,-1110.308913,8882.471304
3960.731318,-2681.334243,-1332.370696,9474.636058
3960.731633,-2757.943793,-1110.308913,9918.759623
3960.731948,-3140.991542,-1406.391290,9844.739029
3960.732263,-2911.162892,-1036.288319,9992.780217
3960.732578,-2604.724693,-666.185348,9474.636058
3960.732894,-2145.067394,-222.061783,9696.697840
3960.733209,-1915.238745,-74.020594,9326.594869
3960.733524,-1608.800546,370.102971,8660.409521
3960.733839,-1532.190996,592.164754,9104.533087
3960.734154,-1532.190996,592.164754,9030.512492
3960.734469,-1378.971896,888.247130,9104.533087
3960.734784,-1532.190996,370.102971,9474.636058
3960.735099,-1838.629195,-222.061783,9326.594869
3960.735414,-1838.629195,-0.000000,9696.697840
3960.735729,-1838.629195,-148.041188,10140.821405
3960.736044,-1455.581446,-0.000000,10732.986159
3960.736359,-1378.971896,-296.082377,10436.903782
3960.736674,-1072.533697,-0.000000,10214.842000
3960.736989,-536.266849,666.185348,10214.842000
3960.737304,153.219100,1036.288319,9992.780217
3960.737619,689.485948,1258.350101,9844.739029
3960.737934,1302.362347,1628.453072,9992.780217
3960.738249,1225.752797,1924.535449,9844.739029
3960.738564,1302.362347,1628.453072,9770.718434
3960.738879,1455.581446,1184.329507,10140.821405
3960.739194,1685.410096,1036.288319,10510.924376
3960.739509,1991.848295,296.082377,10510.924376
3960.739825,1915.238745,666.185348,10658.965565
3960.740140,1915.238745,370.102971,10584.944971
3960.740455,2298.286494,370.102971,10436.903782
3960.740770,2374.896044,222.061783,10288.862594
3960.741085,2757.943793,296.082377,10584.944971
3960.741400,3064.381992,370.102971,10436.903782
3960.741715,3064.381992,666.185348,9252.574275
3960.742030,2834.553343,518.144159,9104.533087
3960.742345,3524.039291,518.144159,9548.656652
3960.742660,3677.258390,666.185348,8882.471304
3960.742975,2987.772442,814.226536,9030.512492
3960.743290,2757.943793,740.205942,9400.615463
3960.743605,2528.115143,370.102971,9252.574275
3960.743920,2068.457845,-0.000000,9252.574275
3960.744235,1149.143247,-0.000000,9030.512492
3960.744550,919.314598,-518.144159,9622.677246
3960.744865,459.657299,-888.247130,9992.780217
3960.745180,306.438199,-740.205942,9696.697840
3960.745495,0.000000,-814.226536,9696.697840
3960.745810,0.000000,-518.144159,9548.656652
3960.746125,0.000000,-370.102971,9178.553681
3960.746440,0.000000,-0.000000,9104.533087
3960.746756,-306.438199,-74.020594,9178.553681
3960.747071,-536.266849,-0.000000,8734.430116
3960.747386,-612.876398,222.061783,8586.388927
3960.747701,-766.095498,-592.164754,8956.491898
3960.748016,-1225.752797,-222.061783,9326.594869
3960.748331,-1991.848295,-518.144159,9474.636058
3960.748646,-2451.505594,-888.247130,9252.574275
3960.748961,-2681.334243,-1036.288319,9622.677246
3960.749276,-2834.553343,-740.205942,9622.677246
3960.749591,-2757.943793,-888.247130,10066.800811
3960.749906,-2757.943793,-814.226536,9844.739029
3960.750221,-2681.334243,-296.082377,9548.656652
3960.750536,-2451.505594,-0.000000,9474.636058
3960.750851,-1838.629195,74.020594,9474.636058
3960.751166,-1762.019645,-0.000000,9474.636058
3960.751481,-1378.971896,444.123565,8586.388927
3960.751796,-1225.752797,740.205942,9030.512492
3960.752111,-1762.019645,666.185348,9326.594869
3960.752426,-1378.971896,370.102971,9030.512492
3960.752741,-1378.971896,370.102971,9104.533087
3960.753056,-1608.800546,-222.061783,9474.636058
3960.753371,-1838.629195,-148.041188,9770.718434
3960.753687,-1455.581446,-0.000000,9770.718434
3960.754002,-1149.143247,-0.000000,10288.862594
3960.754317,-995.924147,-74.020594,10288.862594
3960.754632,-536.266849,370.102971,9918.759623
3960.754947,0.000000,1110.308913,9696.697840
3960.755262,229.828649,1184.329507,10288.862594
3960.755577,995.924147,1258.350101,10214.842000
3960.755892,1149.143247,1258.350101,9918.759623
3960.756207,1302.362347,1258.350101,9844.739029
3960.756522,1685.410096,1110.308913,10362.883188
3960.756837,1915.238745,518.144159,10140.821405
3960.757152,1915.238745,814.226536,10510.924376
3960.757467,1915.238745,222.061783,10807.006753
3960.757782,1838.629195,296.082377,10436.903782
3960.758097,2221.676944,296.082377,10584.944971
3960.758412,2298.286494,-0.000000,10881.027347
3960.758727,2604.724693,148.041188,10584.944971
3960.759042,2681.334243,370.102971,10436.903782
3960.759357,2834.553343,222.061783,9918.759623
3960.759672,3064.381992,370.102971,9474.636058
3960.759987,3447.429741,370.102971,9326.594869
3960.760302,3370.820191,666.185348,9400.615463
3960.760618,3217.601092,370.102971,9400.615463
3960.760933,2757.943793,592.164754,9104.533087
3960.761248,2528.115143,444.123565,9030.512492
3960.761563,1915.238745,-0.000000,9252.574275
3960.761878,1532.190996,-222.061783,9400.615463
3960.762193,1149.143247,-518.144159,9474.636058
3960.762508,612.876398,-666.185348,9548.656652
3960.762823,229.828649,-666.185348,9770.718434
3960.763138,306.438199,-814.226536,9696.697840
3960.763453,0.000000,-666.185348,8956.491898
3960.763768,153.219100,-222.061783,9252.574275
3960.764083,0.000000,222.061783,8882.471304
3960.764398,383.047749,-0.000000,8808.450710
3960.764713,-153.219100,-74.020594,8660.409521
3960.765028,-766.095498,222.061783,8734.430116
3960.765343,-995.924147,-0.000000,8512.368333
3960.765658,-1378.971896,-74.020594,8586.388927
3960.765973,-1991.848295,-666.185348,8734.430116
3960.766288,-2374.896044,-1036.288319,9474.636058
3960.766603,-2145.067394,-814.226536,9474.636058
3960.766918,-2987.772442,-814.226536,9844.739029
3960.767233,-2604.724693,-740.205942,9992.780217
3960.767549,-2987.772442,-666.185348,9918.759623
3960.767863,-2451.505594,-148.041188,9918.759623
3960.768178,-2374.896044,-74.020594,9770.718434
3960.768493,-2221.676944,-0.000000,9400.615463
3960.768808,-2068.457845,592.164754,9104.533087
3960.769123,-1225.752797,814.226536,9178.553681
3960.769438,-1302.362347,888.247130,9178.553681
3960.769753,-1685.410096,888.247130,8882.471304
3960.770068,-1378.971896,814.226536,9400.615463
3960.770383,-1762.019645,518.144159,9474.636058
3960.770698,-1915.238745,222.061783,9770.718434
3960.771013,-1608.800546,-148.041188,10066.800811
3960.771328,-1685.410096,-74.020594,10214.842000
3960.771643,-1532.190996,-0.000000,10288.862594
3960.771958,-919.314598,444.123565,10288.862594
3960.772273,-842.705048,888.247130,10214.842000
3960.772588,0.000000,1036.288319,9992.780217
3960.772903,536.266849,1332.370696,9696.697840
3960.773217,689.485948,1480.411884,9548.656652
3960.773532,1225.752797,1406.391290,9696.697840
3960.773847,1225.752797,1480.411884,9992.780217
3960.774162,1225.752797,1332.370696,9844.739029
3960.774477,1302.362347,1036.288319,10066.800811
3960.774792,1378.971896,740.205942,10288.862594
3960.775107,1838.629195,518.144159,10510.924376
3960.775422,1838.629195,666.185348,10436.903782
3960.775737,1915.238745,148.041188,10436.903782
3960.776052,2451.505594,370.102971,10288.862594
3960.776367,2298.286494,296.082377,10288.862594
3960.776682,3294.210641,444.123565,9918.759623
3960.776997,2987.772442,592.164754,10066.800811
3960.777312,3140.991542,518.144159,9696.697840
3960.777627,3753.867940,518.144159,9548.656652
3960.777942,3600.648841,444.123565,9252.574275
3960.778257,3294.210641,148.041188,8956.491898
3960.778572,3064.381992,-148.041188,9030.512492
3960.778886,2451.505594,-0.000000,9252.574275
3960.779201,2221.676944,-0.000000,9178.553681
3960.779516,1532.190996,-518.144159,9178.553681
3960.779831,1378.971896,-740.205942,9326.594869
3960.780146,842.705048,-888.247130,9474.636058
3960.780461,153.219100,-814.226536,9622.677246
3960.780776,383.047749,-1036.288319,9474.636058
3960.781091,229.828649,-962.267725,9474.636058
3960.781406,0.000000,-666.185348,8808.450710
3960.781721,0.000000,-222.061783,9178.553681
3960.782036,153.219100,-148.041188,8882.471304
3960.782351,153.219100,-148.041188,8808.450710
3960.782666,-536.266849,-222.061783,8882.471304
3960.782981,-1072.533697,-296.082377,8586.388927
3960.783296,-1225.752797,-444.123565,8956.491898
3960.783611,-1532.190996,-592.164754,9474.636058
3960.783926,-2145.067394,-888.247130,9400.615463
3960.784240,-2528.115143,-1184.329507,9474.636058
3960.784555,-2911.162892,-1332.370696,9844.739029
3960.784870,-2604.724693,-592.164754,9918.759623
3960.785185,-2528.115143,-814.226536,9474.636058
3960.785500,-2911.162892,-444.123565,9548.656652
3960.785815,-2298.286494,-296.082377,9474.636058
3960.786130,-2068.457845,-0.000000,9326.594869
3960.786445,-1915.238745,296.082377,9178.553681
3960.786760,-1762.019645,518.144159,9104.533087
3960.787075,-1302.362347,444.123565,9104.533087
3960.787390,-1532.190996,814.226536,8882.471304
3960.787705,-1685.410096,740.205942,9178.553681
3960.788020,-1532.190996,370.102971,9474.636058
3960.788335,-1915.238745,222.061783,9992.780217
3960.788650,-2068.457845,296.082377,9770.718434
3960.788965,-1991.848295,222.061783,10140.821405
3960.789280,-1532.190996,148.041188,10288.862594
3960.789595,-1225.752797,370.102971,10288.862594
3960.789909,-1225.752797,592.164754,10066.800811
3960.790224,-383.047749,1036.288319,9992.780217
3960.790539,0.000000,1184.329507,9844.739029
3960.790854,536.266849,1776.494261,10214.842000
3960.791169,689.485948,1480.411884,10066.800811
3960.791484,1149.143247,1258.350101,9622.677246
3960.791799,689.485948,1480.411884,9918.759623
3960.792114,1532.190996,1332.370696,10140.821405
3960.792429,1685.410096,814.226536,10362.883188
3960.792744,1762.019645,444.123565,10436.903782
3960.793059,2068.457845,370.102971,10584.944971
3960.793374,2221.676944,-0.000000,10584.944971
3960.793689,2374.896044,444.123565,10436.903782
3960.794004,2451.505594,148.041188,10288.862594
3960.794319,2757.943793,296.082377,10584.944971
3960.794634,2987.772442,222.061783,9696.697840
3960.794949,3370.820191,666.185348,9770.718434
3960.795263,3370.820191,370.102971,9178.553681
3960.795578,3524.039291,814.226536,9474.636058
3960.795893,3524.039291,518.144159,8956.491898
3960.796208,3753.867940,444.123565,8734.430116
3960.796523,2528.115143,222.061783,8956.491898
3960.796838,2298.286494,-0.000000,9030.512492
3960.797153,1685.410096,-0.000000,9326.594869
3960.797468,1149.143247,-222.061783,9400.615463
3960.797783,689.485948,-592.164754,9474.636058
3960.798098,536.266849,-592.164754,9622.677246
3960.798413,536.266849,-592.164754,9474.636058
3960.798728,76.609550,-370.102971,9696.697840
3960.799043,0.000000,-370.102971,9252.574275
3960.799358,383.047749,-222.061783,8882.471304
3960.799673,153.219100,-0.000000,8882.471304
3960.799988,0.000000,-0.000000,8586.388927
3960.800303,-612.876398,-0.000000,8660.409521
3960.800617,-1149.143247,-0.000000,8660.409521
3960.800932,-612.876398,-0.000000,8956.491898
3960.801247,-1608.800546,-444.123565,9030.512492
3960.801562,-2145.067394,-888.247130,9474.636058
3960.801877,-2834.553343,-888.247130,9696.697840
3960.802192,-3064.381992,-1110.308913,9844.739029
3960.802507,-3064.381992,-1110.308913,10288.862594
3960.802822,-2834.553343,-962.267725,10066.800811
3960.803137,-2451.505594,-370.102971,10436.903782
3960.803452,-2374.896044,-0.000000,9474.636058
3960.803767,-2068.457845,-74.020594,9178.553681
3960.804082,-2068.457845,222.061783,9474.636058
3960.804397,-1762.019645,296.082377,8956.491898
3960.804712,-1532.190996,370.102971,9104.533087
3960.805027,-1608.800546,370.102971,9178.553681
3960.805342,-1455.581446,370.102971,9252.574275
3960.805657,-1685.410096,-0.000000,9474.636058
3960.805972,-1915.238745,-0.000000,9622.677246
3960.806286,-1991.848295,-74.020594,10362.883188
3960.806601,-2068.457845,-148.041188,10066.800811
3960.806916,-1302.362347,-296.082377,10140.821405
3960.807231,-1532.190996,-74.020594,10362.883188
3960.807546,-459.657299,444.123565,9844.739029
3960.807861,0.000000,962.267725,9918.759623
3960.808176,229.828649,1184.329507,9844.739029
3960.808491,842.705048,1480.411884,9696.697840
3960.808806,1149.143247,1406.391290,9474.636058
3960.809121,1302.362347,1406.391290,9622.677246
3960.809436,1838.629195,1258.350101,9992.780217
3960.809751,1532.190996,888.247130,10362.883188
3960.810066,1455.581446,592.164754,10288.862594
3960.810381,1685.410096,666.185348,10436.903782
3960.810696,2145.067394,-0.000000,10362.883188
3960.811011,1685.410096,-0.000000,10066.800811
3960.811326,1991.848295,-0.000000,10510.924376
3960.811640,2604.724693,148.041188,10584.944971
3960.811955,2604.724693,148.041188,9548.656652
3960.812270,2834.553343,518.144159,9918.759623
3960.812585,2911.162892,592.164754,9548.656652
3960.812900,3140.991542,296.082377,9104.533087
3960.813215,3753.867940,-0.000000,9104.533087
3960.813530,3600.648841,518.144159,8882.471304
3960.813845,3294.210641,370.102971,9400.615463
3960.814160,2451.505594,370.102971,9104.533087
3960.814475,2298.286494,-0.000000,8882.471304
3960.814790,1838.629195,-222.061783,9104.533087
3960.815105,1149.143247,-370.102971,9252.574275
3960.815420,536.266849,-518.144159,9474.636058
3960.815735,306.438199,-814.226536,9474.636058
3960.816050,612.876398,-888.247130,9474.636058
3960.816365,-153.219100,-518.144159,9400.615463
3960.816680,76.609550,-592.164754,9252.574275
3960.816995,0.000000,-444.123565,9622.677246
3960.817309,0.000000,-148.041188,8808.450710
3960.817624,383.047749,-222.061783,8734.430116
3960.817939,-383.047749,-0.000000,8660.409521
3960.818254,-612.876398,-0.000000,8586.388927
3960.818569,-1225.752797,-222.061783,9252.574275
3960.818884,-1455.581446,-74.020594,9252.574275
3960.819199,-1838.629195,-666.185348,9252.574275
3960.819514,-2604.724693,-740.205942,9400.615463
3960.819829,-2834.553343,-814.226536,9696.697840
3960.820144,-2757.943793,-888.247130,10066.800811
3960.820459,-2834.553343,-888.247130,10066.800811
3960.820774,-2451.505594,-444.123565,10066.800811
3960.821089,-2681.334243,-148.041188,9770.718434
3960.821404,-2298.286494,-0.000000,9622.677246
3960.821719,-2068.457845,444.123565,9178.553681
3960.822034,-1762.019645,518.144159,8956.491898
3960.822349,-1378.971896,666.185348,9474.636058
3960.822663,-1838.629195,740.205942,9474.636058
3960.822978,-1685.410096,814.226536,9326.594869
3960.823293,-1838.629195,666.185348,9400.615463
3960.823608,-1838.629195,-0.000000,9622.677246
3960.823923,-1915.238745,-0.000000,9548.656652
3960.824238,-1608.800546,-148.041188,9844.739029
3960.824553,-1532.190996,-370.102971,10288.862594
3960.824868,-1378.971896,148.041188,9992.780217
3960.825183,-1072.533697,-0.000000,9992.780217
3960.825498,-612.876398,740.205942,10436.903782
3960.825813,153.219100,1110.308913,9770.718434
3960.826128,1072.533697,1258.350101,9844.739029
3960.826443,919.314598,1258.350101,9844.739029
3960.826758,1378.971896,1406.391290,9770.718434
3960.827073,1608.800546,1258.350101,9696.697840
3960.827388,1838.629195,1184.329507,9622.677246
3960.827703,1991.848295,740.205942,10436.903782
3960.828017,1915.238745,296.082377,10436.903782
3960.828332,1991.848295,518.144159,10288.862594
3960.828647,1915.238745,-0.000000,10362.883188
3960.828962,2298.286494,444.123565,10510.924376
3960.829277,2604.724693,-0.000000,10362.883188
3960.829592,2451.505594,-0.000000,10436.903782
3960.829907,2681.334243,222.061783,9918.759623
3960.830222,2911.162892,222.061783,9548.656652
3960.830537,3294.210641,444.123565,9326.594869
3960.830852,3753.867940,666.185348,9474.636058
3960.831167,3600.648841,592.164754,9622.677246
3960.831482,2911.162892,370.102971,8808.450710
3960.831797,2604.724693,222.061783,8808.450710
3960.832112,2145.067394,148.041188,9326.594869
3960.832427,1608.800546,222.061783,9474.636058
3960.832742,1302.362347,-444.123565,9474.636058
3960.833057,1302.362347,-222.061783,9474.636058
3960.833372,766.095498,-740.205942,9918.759623
3960.833686,306.438199,-814.226536,9548.656652
3960.834001,0.000000,-814.226536,9474.636058
3960.834316,0.000000,-370.102971,9400.615463
3960.834631,0.000000,-74.020594,9104.533087
3960.834946,-153.219100,-0.000000,8734.430116
3960.835261,153.219100,-148.041188,8808.450710
3960.835576,-536.266849,-0.000000,8808.450710
3960.835891,-842.705048,-0.000000,8586.388927
3960.836206,-1149.143247,-0.000000,8586.388927
3960.836521,-1685.410096,-296.082377,9178.553681
3960.836836,-1991.848295,-814.226536,9252.574275
3960.837151,-2451.505594,-1110.308913,9474.636058
3960.837466,-2681.334243,-962.267725,9696.697840
3960.837781,-2681.334243,-1036.288319,9918.759623
3960.838096,-2528.115143,-814.226536,9918.759623
3960.838411,-2604.724693,-666.185348,10140.821405
3960.838726,-2834.553343,-370.102971,9992.780217
3960.839040,-2068.457845,-74.020594,9474.636058
3960.839355,-1685.410096,444.123565,8956.491898
3960.839670,-1378.971896,518.144159,9178.553681
3960.839985,-1225.752797,740.205942,9326.594869
3960.840300,-1302.362347,814.226536,9400.615463
3960.840615,-1532.190996,222.061783,9326.594869
3960.840930,-1685.410096,444.123565,9104.533087
3960.841245,-1838.629195,-0.000000,9474.636058
3960.841560,-1915.238745,-222.061783,9992.780217
3960.841875,-1762.019645,-74.020594,10140.821405
3960.842190,-1378.971896,-148.041188,10584.944971
3960.842505,-1532.190996,-0.000000,9992.780217
3960.842820,-995.924147,666.185348,9992.780217
3960.843135,-459.657299,888.247130,9918.759623
3960.843450,306.438199,1184.329507,9844.739029
3960.843765,459.657299,1258.350101,9696.697840
3960.844080,919.314598,1406.391290,9696.697840
3960.844395,1072.533697,1480.411884,9918.759623
3960.844709,1302.362347,1332.370696,9770.718434
3960.845024,1378.971896,1036.288319,10140.821405
3960.845339,1608.800546,962.267725,10510.924376
3960.845654,1838.629195,666.185348,9992.780217
3960.845969,2068.457845,148.041188,10362.883188
3960.846284,2221.676944,-0.000000,10362.883188
3960.846599,2604.724693,296.082377,10362.883188
3960.846914,2451.505594,222.061783,9918.759623
3960.847229,2528.115143,222.061783,9696.697840
3960.847544,2911.162892,592.164754,9770.718434
3960.847859,3217.601092,592.164754,9696.697840
3960.848174,3600.648841,518.144159,9474.636058
3960.848489,3830.477490,666.185348,9326.594869
3960.848804,3447.429741,444.123565,9326.594869
3960.849119,3370.820191,370.102971,9400.615463
3960.849434,3064.381992,296.082377,9326.594869
3960.849749,2298.286494,444.123565,9474.636058
3960.850063,2068.457845,-0.000000,9326.594869
3960.850378,1685.410096,-148.041188,9548.656652
3960.850693,995.924147,-444.123565,9548.656652
3960.851008,689.485948,-740.205942,9696.697840
3960.851323,153.219100,-740.205942,9918.759623
3960.851638,306.438199,-296.082377,9622.677246
3960.851953,459.657299,-296.082377,9178.553681
3960.852268,383.047749,-296.082377,9400.615463
3960.852583,153.219100,-0.000000,9178.553681
3960.852898,-383.047749,-0.000000,8956.491898
3960.853213,-689.485948,-0.000000,8808.450710
3960.853528,-919.314598,-0.000000,8808.450710
3960.853843,-1225.752797,-0.000000,9252.574275
3960.854158,-1685.410096,-296.082377,9326.594869
3960.854473,-2451.505594,-518.144159,9178.553681
3960.854788,-2528.115143,-814.226536,9548.656652
3960.855103,-2528.115143,-518.144159,10066.800811
3960.855418,-2604.724693,-592.164754,9844.739029
3960.855732,-2911.162892,-888.247130,10140.821405
3960.856047,-2911.162892,-518.144159,9992.780217
3960.856362,-2374.896044,-296.082377,9548.656652
3960.856677,-2221.676944,-296.082377,9400.615463
3960.856992,-1838.629195,-0.000000,9474.636058
3960.857307,-1991.848295,-0.000000,9030.512492
3960.857622,-1532.190996,518.144159,8808.450710
3960.857937,-1685.410096,666.185348,8882.471304
3960.858252,-1608.800546,444.123565,8956.491898
3960.858567,-1838.629195,370.102971,9104.533087
3960.858882,-1685.410096,148.041188,9252.574275
3960.859197,-1685.410096,-0.000000,9770.718434
3960.859512,-1915.238745,-148.041188,10066.800811
3960.859827,-1762.019645,-444.123565,10214.842000
3960.860142,-1608.800546,-148.041188,10362.883188
3960.860457,-995.924147,-222.061783,9844.739029
3960.860772,-919.314598,296.082377,10288.862594
3960.861086,76.609550,740.205942,9918.759623
3960.861401,459.657299,1110.308913,9548.656652
3960.861716,766.095498,1480.411884,9696.697840
3960.862031,995.924147,1184.329507,9474.636058
3960.862346,1225.752797,1332.370696,9696.697840
3960.862661,1685.410096,1184.329507,10140.821405
3960.862976,1608.800546,740.205942,10066.800811
3960.863291,1608.800546,444.123565,10510.924376
3960.863606,1838.629195,296.082377,10658.965565
3960.863921,1838.629195,296.082377,10288.862594
3960.864236,1838.629195,296.082377,10436.903782
3960.864551,2145.067394,444.123565,10436.903782
3960.864866,2987.772442,296.082377,10658.965565
3960.865181,2987.772442,-0.000000,9770.718434
3960.865496,3140.991542,444.123565,9474.636058
3960.865811,3447.429741,666.185348,9622.677246
3960.866126,3524.039291,518.144159,9252.574275
3960.866441,3370.820191,518.144159,9474.636058
3960.866756,2834.553343,370.102971,9104.533087
3960.867071,3064.381992,666.185348,8956.491898
3960.867386,2604.724693,-0.000000,8882.471304
3960.867701,1991.848295,-0.000000,9178.553681
3960.868016,1302.362347,-74.020594,9622.677246
3960.868331,995.924147,-444.123565,9474.636058
3960.868646,766.095498,-148.041188,9474.636058
3960.868961,459.657299,-518.144159,9474.636058
3960.869276,459.657299,-444.123565,9474.636058
3960.869591,306.438199,-222.061783,9252.574275
3960.869906,76.609550,-222.061783,9104.533087
3960.870221,612.876398,-0.000000,8882.471304
3960.870536,0.000000,-148.041188,8660.409521
3960.870851,-306.438199,-0.000000,9030.512492
3960.871166,-689.485948,148.041188,8808.450710
3960.871481,-1225.752797,-148.041188,8512.368333
3960.871796,-1072.533697,-296.082377,9104.533087
3960.872111,-2068.457845,-592.164754,9474.636058
3960.872426,-2374.896044,-740.205942,9770.718434
3960.872741,-2528.115143,-740.205942,9770.718434
3960.873056,-2911.162892,-740.205942,9770.718434
3960.873371,-2757.943793,-888.247130,9992.780217
3960.873686,-2757.943793,-444.123565,10288.862594
3960.874001,-2528.115143,-0.000000,9696.697840
3960.874316,-2145.067394,-0.000000,9770.718434
3960.874631,-2221.676944,296.082377,9474.636058
3960.874946,-1685.410096,370.102971,9178.553681
3960.875261,-1608.800546,888.247130,9178.553681
3960.875576,-1838.629195,518.144159,9400.615463
3960.875891,-2145.067394,740.205942,9104.533087
3960.876206,-1608.800546,518.144159,8956.491898
3960.876521,-1532.190996,370.102971,9548.656652
3960.876836,-2298.286494,-0.000000,9622.677246
3960.877151,-2298.286494,222.061783,10066.800811
3960.877466,-2145.067394,-0.000000,9992.780217
3960.877781,-1685.410096,-148.041188,9844.739029
3960.878096,-1378.971896,296.082377,9992.780217
3960.878411,-689.485948,740.205942,10288.862594
3960.878726,0.000000,962.267725,10140.821405
3960.879041,306.438199,1110.308913,9696.697840
3960.879356,919.314598,1332.370696,9548.656652
3960.879671,1149.143247,1554.432478,9474.636058
3960.879986,1455.581446,1110.308913,9696.697840
3960.880301,1685.410096,1184.329507,9992.780217
3960.880616,2068.457845,592.164754,10214.842000
3960.880931,2374.896044,370.102971,10288.862594
3960.881246,2374.896044,222.061783,10140.821405
3960.881561,2451.505594,-0.000000,10362.883188
3960.881876,2451.505594,-0.000000,10214.842000
3960.882191,2834.553343,-0.000000,10066.800811
3960.882506,3294.210641,-0.000000,10214.842000
3960.882821,3294.210641,370.102971,10140.821405
3960.883136,3217.601092,518.144159,9918.759623
3960.883451,3677.258390,296.082377,9474.636058
3960.883766,3983.696590,592.164754,9104.533087
3960.884081,4136.915689,148.041188,9400.615463
3960.884396,3753.867940,370.102971,9474.636058
3960.884711,3370.820191,444.123565,9326.594869
3960.885026,2834.553343,148.041188,9252.574275
3960.885341,2298.286494,-222.061783,9474.636058
3960.885656,1378.971896,-0.000000,10140.821405
3960.885971,1072.533697,-518.144159,9770.718434
3960.886286,612.876398,-1110.308913,9770.718434
3960.886601,306.438199,-1036.288319,9474.636058
3960.886916,-383.047749,-814.226536,9548.656652
3960.887231,0.000000,-592.164754,9178.553681
3960.887546,-229.828649,-518.144159,9252.574275
3960.887861,-229.828649,-74.020594,9104.533087
3960.888176,-229.828649,-74.020594,8808.450710
3960.888491,-612.876398,-0.000000,8364.327145
3960.888806,-1149.143247,-0.000000,8808.450710
3960.889121,-1225.752797,-296.082377,8660.409521
3960.889436,-1838.629195,-592.164754,9030.512492
3960.889751,-2451.505594,-592.164754,9104.533087
3960.890066,-2757.943793,-1036.288319,9548.656652
3960.890381,-3064.381992,-888.247130,9474.636058
3960.890696,-3140.991542,-1036.288319,9622.677246
3960.891011,-3064.381992,-888.247130,9474.636058
3960.891326,-2604.724693,-666.185348,9918.759623
3960.891641,-2834.553343,-518.144159,9992.780217
3960.891956,-2528.115143,-74.020594,9326.594869
3960.892271,-2221.676944,296.082377,8956.491898
3960.892586,-2145.067394,370.102971,8956.491898
3960.892901,-1991.848295,592.164754,8882.471304
3960.893216,-1991.848295,740.205942,9326.594869
3960.893531,-1838.629195,740.205942,9178.553681
3960.893846,-1762.019645,444.123565,9474.636058
3960.894161,-1991.848295,444.123565,9474.636058
3960.894476,-1762.019645,148.041188,9696.697840
3960.894791,-1838.629195,370.102971,9918.759623
3960.895106,-1915.238745,-74.020594,10288.862594
3960.895421,-1455.581446,-0.000000,10584.944971
3960.895736,-1149.143247,370.102971,10140.821405
3960.896051,-536.266849,370.102971,10140.821405
3960.896366,-306.438199,1184.329507,10362.883188
3960.896681,229.828649,1554.432478,10140.821405
3960.896996,612.876398,1554.432478,10066.800811
3960.897311,1608.800546,1480.411884,9622.677246
3960.897626,1532.190996,1702.473667,9918.759623
3960.897941,2068.457845,1110.308913,9844.739029
3960.898256,1915.238745,1036.288319,10288.862594
3960.898571,2145.067394,592.164754,10362.883188
3960.898886,2145.067394,666.185348,10510.924376
3960.899201,2451.505594,518.144159,10584.944971
3960.899516,2528.115143,370.102971,10436.903782
3960.899831,2604.724693,370.102971,10288.862594
3960.900146,2987.772442,-0.000000,10288.862594
3960.900461,2911.162892,370.102971,9770.718434
3960.900776,3064.381992,518.144159,9844.739029
3960.901091,3600.648841,444.123565,9400.615463
3960.901406,4136.915689,592.164754,9178.553681
3960.901721,3830.477490,814.226536,9178.553681
3960.902036,3370.820191,666.185348,8882.471304
3960.902351,3217.601092,-0.000000,8808.450710
3960.902666,2834.553343,296.082377,9178.553681
3960.902981,2298.286494,-0.000000,8882.471304
3960.903296,1762.019645,-296.082377,9178.553681
3960.903611,1302.362347,-444.123565,9400.615463
3960.903926,995.924147,-518.144159,9474.636058
3960.904241,612.876398,-888.247130,9548.656652
3960.904556,459.657299,-666.185348,9474.636058
3960.904871,459.657299,-518.144159,9252.574275
3960.905186,0.000000,-444.123565,9030.512492
3960.905501,-306.438199,-296.082377,9104.533087
3960.905816,0.000000,-0.000000,8956.491898
3960.906131,0.000000,-222.061783,8956.491898
3960.906446,-1072.533697,-74.020594,9030.512492
3960.906761,-1302.362347,-148.041188,9030.512492
3960.907076,-1455.581446,-296.082377,9252.574275
3960.907391,-2068.457845,-592.164754,9474.636058
3960.907706,-2604.724693,-888.247130,9548.656652
3960.908021,-2757.943793,-962.267725,9622.677246
3960.908336,-2987.772442,-666.185348,9918.759623
3960.908651,-2911.162892,-814.226536,9770.718434
3960.908966,-3064.381992,-592.164754,9918.759623
3960.909281,-2987.772442,-592.164754,9696.697840
3960.909596,-2528.115143,-518.144159,9548.656652
3960.909911,-2298.286494,-74.020594,9178.553681
3960.910226,-2451.505594,296.082377,8882.471304
3960.910541,-1915.238745,296.082377,9104.533087
3960.910856,-1991.848295,444.123565,9178.553681
3960.911171,-1302.362347,370.102971,8956.491898
3960.911486,-2145.067394,518.144159,9178.553681
3960.911801,-1762.019645,444.123565,9474.636058
3960.912116,-2068.457845,-148.041188,9696.697840
3960.912431,-1915.238745,-296.082377,9696.697840
3960.912746,-1455.581446,-222.061783,9918.759623
3960.913061,-1378.971896,-148.041188,10214.842000
3960.913376,-1072.533697,222.061783,10066.800811
3960.913691,-536.266849,666.185348,9844.739029
3960.914006,0.000000,740.205942,9474.636058
3960.914321,229.828649,740.205942,9474.636058
3960.914636,689.485948,1332.370696,9622.677246
