#time,accel_x,accel_y,accel_z
3752.294526,229.828649,222.061783,9696.697840
3752.294841,0.000000,370.102971,9474.636058
3752.295155,229.828649,-0.000000,9474.636058
3752.295469,229.828649,-0.000000,9770.718434
3752.295784,0.000000,-222.061783,9770.718434
3752.296098,76.609550,-74.020594,10140.821405
3752.296413,306.438199,-0.000000,9474.636058
3752.296727,76.609550,-74.020594,9474.636058
3752.297042,153.219100,296.082377,9992.780217
3752.297356,383.047749,222.061783,9844.739029
3752.297670,229.828649,-148.041188,9844.739029
3752.297985,0.000000,222.061783,9770.718434
3752.298299,0.000000,222.061783,9844.739029
3752.298614,0.000000,370.102971,9548.656652
3752.298928,76.609550,-0.000000,9548.656652
3752.299243,229.828649,370.102971,9992.780217
3752.299557,-153.219100,148.041188,9474.636058
3752.299872,0.000000,-0.000000,9474.636058
3752.300186,0.000000,-0.000000,9622.677246
3752.300500,-536.266849,222.061783,9326.594869
3752.300815,0.000000,148.041188,9622.677246
3752.301129,0.000000,296.082377,9400.615463
3752.301444,0.000000,-0.000000,9474.636058
3752.301758,0.000000,296.082377,9474.636058
3752.302073,459.657299,518.144159,9548.656652
3752.302387,229.828649,370.102971,9400.615463
3752.302702,306.438199,-0.000000,9178.553681
3752.303016,229.828649,74.020594,9474.636058
3752.303330,76.609550,518.144159,9326.594869
3752.303645,0.000000,222.061783,9548.656652
3752.303959,153.219100,-74.020594,9326.594869
3752.304274,0.000000,-0.000000,9400.615463
3752.304588,229.828649,-0.000000,9474.636058
3752.304903,76.609550,-0.000000,9474.636058
3752.305217,229.828649,370.102971,9918.759623
3752.305532,153.219100,148.041188,9918.759623
3752.305846,0.000000,-0.000000,9918.759623
3752.306160,229.828649,222.061783,9474.636058
3752.306475,229.828649,-0.000000,9400.615463
3752.306789,229.828649,-0.000000,9992.780217
3752.307104,76.609550,296.082377,9918.759623
3752.307418,306.438199,-0.000000,9918.759623
3752.307733,306.438199,-0.000000,9622.677246
3752.308047,229.828649,-0.000000,9622.677246
3752.308362,0.000000,148.041188,9770.718434
3752.308676,459.657299,222.061783,9770.718434
3752.308990,229.828649,-0.000000,9844.739029
3752.309305,0.000000,148.041188,9696.697840
3752.309619,0.000000,-0.000000,9770.718434
3752.309934,76.609550,-0.000000,9474.636058
3752.310248,76.609550,148.041188,9548.656652
3752.310563,0.000000,-0.000000,9474.636058
3752.310877,0.000000,222.061783,9622.677246
3752.311191,0.000000,222.061783,9474.636058
3752.311506,-612.876398,592.164754,9178.553681
3752.311820,0.000000,-0.000000,9548.656652
3752.312135,306.438199,148.041188,9770.718434
3752.312449,0.000000,444.123565,9622.677246
3752.312764,0.000000,296.082377,9622.677246
3752.313078,153.219100,-0.000000,9474.636058
3752.313393,153.219100,-0.000000,9474.636058
3752.313707,0.000000,-0.000000,8808.450710
3752.314021,0.000000,296.082377,8882.471304
3752.314336,536.266849,-0.000000,9770.718434
3752.314650,459.657299,222.061783,9548.656652
3752.314965,0.000000,-0.000000,9400.615463
3752.315279,0.000000,-0.000000,9696.697840
3752.315594,229.828649,-0.000000,9770.718434
3752.315908,229.828649,222.061783,9474.636058
3752.316223,153.219100,-0.000000,9622.677246
3752.316537,306.438199,-148.041188,9474.636058
3752.316851,76.609550,222.061783,9474.636058
3752.317166,229.828649,296.082377,9474.636058
3752.317480,306.438199,-0.000000,9474.636058
3752.317795,383.047749,-0.000000,10066.800811
3752.318109,229.828649,-0.000000,9918.759623
3752.318424,306.438199,148.041188,9844.739029
3752.318738,459.657299,296.082377,9992.780217
3752.319053,306.438199,222.061783,9696.697840
3752.319367,229.828649,370.102971,9696.697840
3752.319681,306.438199,666.185348,9474.636058
3752.319996,459.657299,592.164754,9474.636058
3752.320310,766.095498,444.123565,9474.636058
3752.320625,536.266849,370.102971,9400.615463
3752.320939,536.266849,296.082377,10066.800811
3752.321254,689.485948,444.123565,9918.759623
3752.321568,383.047749,222.061783,9696.697840
3752.321882,689.485948,518.144159,9844.739029
3752.322197,536.266849,1110.308913,9622.677246
3752.322511,842.705048,740.205942,9252.574275
3752.322826,1072.533697,740.205942,9400.615463
3752.323140,1378.971896,1036.288319,9696.697840
3752.323455,1685.410096,740.205942,9992.780217
3752.323769,1685.410096,1036.288319,9548.656652
3752.324084,2451.505594,1184.329507,9992.780217
3752.324398,2681.334243,1554.432478,9696.697840
3752.324712,2911.162892,1924.535449,9326.594869
3752.325027,3217.601092,2368.659014,9178.553681
3752.325341,3753.867940,2072.576638,9326.594869
3752.325656,3600.648841,2368.659014,8586.388927
3752.325970,3907.087040,2368.659014,8216.285956
3752.326285,3753.867940,2442.679609,8438.347739
3752.326599,4136.915689,2590.720797,8882.471304
3752.326914,3294.210641,2664.741391,9178.553681
3752.327228,2604.724693,2368.659014,9252.574275
3752.327542,2987.772442,2516.700203,9178.553681
3752.327857,3370.820191,2886.803174,9844.739029
3752.328171,3217.601092,3108.864956,9548.656652
3752.328486,3217.601092,3478.967927,9326.594869
3752.328800,2834.553343,3404.947333,9326.594869
3752.329115,2834.553343,3404.947333,9178.553681
3752.329429,3064.381992,3701.029710,9474.636058
3752.329744,2987.772442,3478.967927,9918.759623
3752.330058,2221.676944,3552.988522,10436.903782
3752.330372,1838.629195,3775.050304,10140.821405
3752.330687,2068.457845,3701.029710,10732.986159
3752.331001,2068.457845,3775.050304,11103.089130
3752.331316,1915.238745,3627.009116,11177.109724
3752.331630,2068.457845,3404.947333,10807.006753
3752.331945,1532.190996,3552.988522,10881.027347
3752.332259,1762.019645,3478.967927,10584.944971
3752.332574,1915.238745,3775.050304,10288.862594
3752.332888,2221.676944,4219.173869,9992.780217
3752.333202,2451.505594,3849.070898,9548.656652
3752.333517,2374.896044,3701.029710,9474.636058
3752.333831,2298.286494,3701.029710,9696.697840
3752.334146,1838.629195,3404.947333,9770.718434
3752.334460,1455.581446,3404.947333,9844.739029
3752.334775,1302.362347,2516.700203,10510.924376
3752.335089,1302.362347,2886.803174,10436.903782
3752.335403,1685.410096,2664.741391,10510.924376
3752.335718,1455.581446,2590.720797,9918.759623
3752.336032,1532.190996,2738.761985,9696.697840
3752.336347,1685.410096,3034.844362,9918.759623
3752.336661,1532.190996,3404.947333,9326.594869
3752.336976,1915.238745,2886.803174,9178.553681
3752.337290,1838.629195,3034.844362,9474.636058
3752.337605,1685.410096,2664.741391,9474.636058
3752.337919,1455.581446,1776.494261,9400.615463
3752.338233,1455.581446,1554.432478,9770.718434
3752.338548,1302.362347,1332.370696,10510.924376
3752.338862,1149.143247,1406.391290,10510.924376
3752.339177,1302.362347,1554.432478,10658.965565
3752.339491,1532.190996,1554.432478,10066.800811
3752.339806,2068.457845,1924.535449,9622.677246
3752.340120,2604.724693,1998.556043,8882.471304
3752.340435,2757.943793,2146.597232,8734.430116
3752.340749,3140.991542,1998.556043,8512.368333
3752.341063,3370.820191,1850.514855,8216.285956
3752.341378,3600.648841,1776.494261,8290.306550
3752.341692,3064.381992,1480.411884,8438.347739
3752.342007,2987.772442,1184.329507,9030.512492
3752.342321,2451.505594,1258.350101,9104.533087
3752.342636,2221.676944,814.226536,8808.450710
3752.342950,1838.629195,370.102971,9252.574275
3752.343265,1838.629195,518.144159,9104.533087
3752.343579,1991.848295,148.041188,10288.862594
3752.343893,2221.676944,-0.000000,10584.944971
3752.344208,2298.286494,222.061783,10362.883188
3752.344522,2681.334243,962.267725,9992.780217
3752.344837,3064.381992,1850.514855,9474.636058
3752.345151,4136.915689,2220.617826,9104.533087
3752.345466,3907.087040,2738.761985,8882.471304
3752.345780,4213.525239,2664.741391,8216.285956
3752.346095,3830.477490,2294.638420,8142.265362
3752.346409,3830.477490,1850.514855,7994.224174
3752.346723,3064.381992,962.267725,8290.306550
3752.347038,1838.629195,444.123565,9178.553681
3752.347352,1149.143247,-0.000000,10214.842000
3752.347667,459.657299,-74.020594,11029.068536
3752.347981,153.219100,-0.000000,11843.295072
3752.348296,0.000000,370.102971,12287.418637
3752.348610,383.047749,1184.329507,11695.253884
3752.348924,1378.971896,2072.576638,11029.068536
3752.349239,2834.553343,2886.803174,9992.780217
3752.349553,3140.991542,4293.194464,8956.491898
3752.349868,4213.525239,4737.318029,7846.182985
3752.350182,4749.792088,5107.421000,7254.018232
3752.350497,4596.572988,4219.173869,7105.977043
3752.350811,4290.134789,3108.864956,8142.265362
3752.351126,2374.896044,1850.514855,9474.636058
3752.351440,689.485948,1258.350101,10807.006753
3752.351754,-612.876398,814.226536,11843.295072
3752.352069,-1455.581446,592.164754,12361.439231
3752.352383,-1072.533697,296.082377,12435.459826
3752.352698,-689.485948,1554.432478,11695.253884
3752.353012,0.000000,2812.782580,10214.842000
3752.353327,1608.800546,3923.091493,9104.533087
3752.353641,3140.991542,4663.297435,7846.182985
3752.353956,3907.087040,4589.276840,7698.141797
3752.354270,4673.182538,4293.194464,8512.368333
3752.354584,4060.306139,4071.132681,8216.285956
3752.354899,3140.991542,3627.009116,9326.594869
3752.355213,2298.286494,2960.823768,10881.027347
3752.355528,1225.752797,3404.947333,11103.089130
3752.355842,76.609550,3108.864956,10436.903782
3752.356157,-612.876398,3108.864956,9770.718434
3752.356471,0.000000,2072.576638,9770.718434
3752.356786,459.657299,1258.350101,9474.636058
3752.357100,383.047749,1036.288319,9178.553681
3752.357414,459.657299,962.267725,9770.718434
3752.357729,536.266849,1554.432478,9548.656652
3752.358043,1149.143247,2072.576638,9474.636058
3752.358358,1685.410096,2368.659014,9770.718434
3752.358672,1532.190996,3108.864956,9548.656652
3752.358987,842.705048,3108.864956,9548.656652
3752.359301,1225.752797,2368.659014,10362.883188
3752.359615,1378.971896,1924.535449,10807.006753
3752.359930,1072.533697,1184.329507,10584.944971
3752.360244,1225.752797,1036.288319,10288.862594
3752.360559,919.314598,1554.432478,10214.842000
3752.360873,995.924147,1776.494261,9918.759623
3752.361188,1302.362347,1480.411884,8882.471304
3752.361502,1455.581446,1110.308913,7920.203579
3752.361817,1991.848295,222.061783,8586.388927
3752.362131,1225.752797,-296.082377,9178.553681
3752.362445,612.876398,-888.247130,10362.883188
3752.362760,153.219100,-1332.370696,10510.924376
3752.363074,0.000000,-1036.288319,10807.006753
3752.363389,536.266849,-518.144159,10955.047942
3752.363703,229.828649,740.205942,9548.656652
3752.364018,612.876398,1258.350101,8956.491898
3752.364332,1149.143247,1258.350101,8512.368333
3752.364647,1302.362347,1184.329507,8142.265362
3752.364961,1608.800546,-0.000000,8512.368333
3752.365275,1685.410096,-666.185348,9474.636058
3752.365590,766.095498,-1110.308913,9844.739029
3752.365904,0.000000,-1480.411884,10362.883188
3752.366219,-383.047749,-888.247130,10288.862594
3752.366533,-612.876398,-962.267725,9992.780217
3752.366848,-1225.752797,-592.164754,9844.739029
3752.367162,-766.095498,-1258.350101,9770.718434
3752.367477,-612.876398,-1406.391290,9696.697840
3752.367791,-689.485948,-1702.473667,9770.718434
3752.368106,76.609550,-1628.453072,9326.594869
3752.368420,-153.219100,-1554.432478,9696.697840
3752.368735,459.657299,-74.020594,8882.471304
3752.369049,919.314598,-296.082377,8290.306550
3752.369364,1225.752797,-0.000000,8734.430116
3752.369678,1455.581446,-962.267725,9770.718434
3752.369993,842.705048,-814.226536,9252.574275
3752.370307,153.219100,-1110.308913,9474.636058
3752.370622,-306.438199,-1110.308913,9918.759623
3752.370936,-1072.533697,-740.205942,9918.759623
3752.371251,-1149.143247,-370.102971,9178.553681
3752.371565,-1072.533697,-740.205942,8882.471304
3752.371880,-459.657299,-1110.308913,9252.574275
3752.372194,-536.266849,-962.267725,9030.512492
3752.372509,-766.095498,-1332.370696,9474.636058
3752.372823,-689.485948,-1406.391290,10066.800811
3752.373138,-919.314598,-1554.432478,10436.903782
3752.373452,-536.266849,-1332.370696,10288.862594
3752.373767,-536.266849,-666.185348,9548.656652
3752.374081,-383.047749,-296.082377,9400.615463
3752.374396,0.000000,-222.061783,9104.533087
3752.374710,0.000000,296.082377,9400.615463
3752.375025,153.219100,-0.000000,9252.574275
3752.375339,0.000000,-74.020594,9400.615463
3752.375654,0.000000,-444.123565,9178.553681
3752.375968,0.000000,-296.082377,9474.636058
3752.376283,-536.266849,148.041188,9252.574275
3752.376597,-536.266849,148.041188,8364.327145
3752.376912,0.000000,-222.061783,8808.450710
3752.377226,76.609550,-370.102971,9400.615463
3752.377541,-229.828649,-666.185348,9696.697840
3752.377855,153.219100,-444.123565,10066.800811
3752.378170,0.000000,-518.144159,10436.903782
3752.378484,0.000000,592.164754,10362.883188
3752.378799,0.000000,1332.370696,9622.677246
3752.379113,612.876398,1924.535449,8956.491898
3752.379428,1072.533697,1628.453072,8956.491898
3752.379742,1762.019645,1258.350101,8956.491898
3752.380057,2145.067394,1184.329507,8956.491898
3752.380371,1915.238745,1110.308913,9474.636058
3752.380686,1532.190996,740.205942,9474.636058
3752.381000,459.657299,1110.308913,9918.759623
3752.381315,229.828649,1184.329507,9696.697840
3752.381629,153.219100,814.226536,9474.636058
3752.381944,0.000000,-0.000000,9918.759623
3752.382258,0.000000,-0.000000,10362.883188
3752.382573,0.000000,444.123565,10510.924376
3752.382887,229.828649,740.205942,10140.821405
3752.383202,306.438199,1406.391290,10140.821405
3752.383516,153.219100,1628.453072,10362.883188
3752.383831,995.924147,1776.494261,10362.883188
3752.384145,995.924147,1924.535449,9622.677246
3752.384460,1302.362347,1628.453072,9400.615463
3752.384774,1225.752797,1332.370696,9474.636058
3752.385088,766.095498,888.247130,9622.677246
3752.385403,229.828649,-0.000000,10658.965565
3752.385717,-536.266849,148.041188,10584.944971
3752.386032,-766.095498,444.123565,10362.883188
3752.386346,-1072.533697,888.247130,9844.739029
3752.386661,-919.314598,518.144159,10140.821405
3752.386975,-842.705048,-0.000000,10362.883188
3752.387290,0.000000,-0.000000,10288.862594
3752.387604,0.000000,296.082377,9622.677246
3752.387919,306.438199,222.061783,9400.615463
3752.388233,689.485948,370.102971,9770.718434
3752.388548,612.876398,740.205942,9474.636058
3752.388862,0.000000,1406.391290,8660.409521
3752.389177,76.609550,1332.370696,9178.553681
3752.389491,459.657299,666.185348,9474.636058
3752.389806,-229.828649,148.041188,9326.594869
3752.390120,-229.828649,-370.102971,9252.574275
3752.390435,-842.705048,-666.185348,9918.759623
3752.390749,-1072.533697,-0.000000,10066.800811
3752.391064,-1072.533697,222.061783,9474.636058
3752.391378,-919.314598,222.061783,9178.553681
3752.391693,-919.314598,-148.041188,9326.594869
3752.392007,-306.438199,-888.247130,9252.574275
3752.392322,0.000000,-444.123565,9326.594869
3752.392636,0.000000,-370.102971,9326.594869
3752.392951,-459.657299,-1036.288319,9844.739029
3752.393265,0.000000,-444.123565,9474.636058
3752.393580,-229.828649,370.102971,9178.553681
3752.393894,-229.828649,-0.000000,9030.512492
3752.394209,0.000000,-74.020594,8882.471304
3752.394523,0.000000,-518.144159,9474.636058
3752.394838,0.000000,-592.164754,9326.594869
3752.395152,0.000000,-962.267725,9474.636058
3752.395467,-229.828649,-1332.370696,9696.697840
3752.395781,-306.438199,-1184.329507,9918.759623
3752.396096,-766.095498,-1332.370696,9992.780217
3752.396410,-306.438199,-444.123565,9548.656652
3752.396725,-383.047749,-740.205942,9474.636058
3752.397039,0.000000,-518.144159,9770.718434
3752.397354,153.219100,-444.123565,9918.759623
3752.397668,383.047749,-1036.288319,10140.821405
3752.397983,0.000000,-1110.308913,9992.780217
3752.398297,459.657299,-222.061783,10214.842000
3752.398612,383.047749,-0.000000,9252.574275
3752.398926,689.485948,370.102971,9252.574275
3752.399241,1072.533697,-0.000000,9400.615463
3752.399555,1149.143247,-222.061783,9252.574275
3752.399870,1302.362347,-222.061783,9178.553681
3752.400184,612.876398,-888.247130,9770.718434
3752.400499,229.828649,-1036.288319,10140.821405
3752.400813,-612.876398,-444.123565,10066.800811
3752.401128,-383.047749,-0.000000,9474.636058
3752.401442,0.000000,-0.000000,9030.512492
3752.401757,612.876398,-222.061783,9400.615463
3752.402071,842.705048,518.144159,9474.636058
3752.402386,1302.362347,222.061783,9474.636058
3752.402700,1072.533697,296.082377,9178.553681
3752.403015,1302.362347,222.061783,9474.636058
3752.403329,766.095498,1184.329507,9326.594869
3752.403644,612.876398,1258.350101,9178.553681
3752.403958,229.828649,1184.329507,9178.553681
3752.404273,0.000000,370.102971,9770.718434
3752.404587,0.000000,222.061783,9696.697840
3752.404902,0.000000,-222.061783,9992.780217
3752.405216,0.000000,-518.144159,10066.800811
3752.405531,-76.609550,-74.020594,10214.842000
3752.405845,-76.609550,518.144159,9918.759623
3752.406160,-153.219100,814.226536,9104.533087
3752.406474,0.000000,962.267725,8956.491898
3752.406789,383.047749,666.185348,9252.574275
3752.407103,689.485948,1036.288319,9104.533087
3752.407418,612.876398,888.247130,9326.594869
3752.407732,383.047749,814.226536,9474.636058
3752.408047,0.000000,666.185348,10510.924376
3752.408361,-306.438199,1184.329507,10140.821405
3752.408676,-766.095498,1332.370696,9474.636058
3752.408990,-612.876398,1110.308913,9918.759623
3752.409305,-689.485948,888.247130,10436.903782
3752.409619,-536.266849,592.164754,10066.800811
3752.409934,-536.266849,296.082377,10140.821405
3752.410248,-612.876398,1332.370696,9178.553681
3752.410563,1072.533697,-296.082377,10732.986159
3752.410877,153.219100,2072.576638,9252.574275
3752.411192,-766.095498,1332.370696,9844.739029
3752.411506,153.219100,592.164754,9844.739029
3752.411821,0.000000,888.247130,9844.739029
3752.412135,0.000000,962.267725,9844.739029
3752.412450,459.657299,-0.000000,9696.697840
3752.412764,306.438199,370.102971,9918.759623
3752.413079,383.047749,444.123565,10362.883188
3752.413393,-229.828649,888.247130,9918.759623
3752.413708,0.000000,1184.329507,9474.636058
3752.414022,229.828649,1258.350101,9400.615463
3752.414337,1072.533697,740.205942,9696.697840
3752.414651,612.876398,962.267725,8734.430116
3752.414966,536.266849,-74.020594,9770.718434
3752.415280,689.485948,-0.000000,9622.677246
3752.415595,459.657299,222.061783,9548.656652
3752.415909,0.000000,962.267725,9548.656652
3752.416224,0.000000,592.164754,9252.574275
3752.416538,306.438199,222.061783,9696.697840
3752.416853,459.657299,-592.164754,9844.739029
3752.417167,306.438199,-814.226536,9918.759623
3752.417482,0.000000,-740.205942,9992.780217
3752.417796,76.609550,-444.123565,9918.759623
3752.418111,306.438199,-296.082377,9770.718434
3752.418425,306.438199,370.102971,9178.553681
3752.418739,842.705048,-148.041188,8660.409521
3752.419054,459.657299,-296.082377,8956.491898
3752.419368,459.657299,-444.123565,9548.656652
3752.419683,459.657299,-592.164754,9326.594869
3752.419997,459.657299,-814.226536,9474.636058
3752.420312,459.657299,-740.205942,9474.636058
3752.420626,-229.828649,-814.226536,9770.718434
3752.420941,-306.438199,-296.082377,9474.636058
3752.421255,-459.657299,-296.082377,9474.636058
3752.421570,-229.828649,-444.123565,9548.656652
3752.421884,153.219100,-962.267725,9918.759623
3752.422199,0.000000,-1184.329507,9992.780217
3752.422513,0.000000,-740.205942,10140.821405
3752.422828,-306.438199,-962.267725,9918.759623
3752.423142,-153.219100,-592.164754,9918.759623
3752.423457,-229.828649,-296.082377,9548.656652
3752.423771,0.000000,148.041188,9548.656652
3752.424086,536.266849,-0.000000,9326.594869
3752.424400,306.438199,-296.082377,8808.450710
3752.424715,459.657299,-370.102971,9548.656652
3752.425029,459.657299,-0.000000,9400.615463
3752.425344,229.828649,-592.164754,9622.677246
3752.425658,-459.657299,-518.144159,9622.677246
3752.425973,-383.047749,-296.082377,9178.553681
3752.426287,-689.485948,-148.041188,9178.553681
3752.426602,-919.314598,-888.247130,9844.739029
3752.426916,-612.876398,-888.247130,10140.821405
3752.427231,-612.876398,-296.082377,9918.759623
3752.427545,-383.047749,-592.164754,9474.636058
3752.427860,-229.828649,-148.041188,9992.780217
3752.428174,-306.438199,296.082377,9918.759623
3752.428489,0.000000,814.226536,9400.615463
3752.428803,229.828649,962.267725,8882.471304
3752.429118,689.485948,518.144159,8808.450710
3752.429432,766.095498,370.102971,9178.553681
3752.429747,689.485948,-0.000000,8734.430116
3752.430061,536.266849,-592.164754,9548.656652
3752.430376,76.609550,-666.185348,9918.759623
3752.430690,-536.266849,-148.041188,9992.780217
3752.431005,-842.705048,222.061783,9474.636058
3752.431319,0.000000,-222.061783,9178.553681
3752.431634,0.000000,-148.041188,9548.656652
3752.431948,229.828649,-74.020594,9918.759623
3752.432263,612.876398,-222.061783,9844.739029
3752.432577,919.314598,-0.000000,9992.780217
3752.432892,1149.143247,740.205942,10140.821405
3752.433206,689.485948,1702.473667,9030.512492
3752.433521,1072.533697,1850.514855,9030.512492
3752.433835,1608.800546,1702.473667,9326.594869
3752.434150,1455.581446,1184.329507,8808.450710
3752.434464,1225.752797,666.185348,9474.636058
3752.434779,306.438199,370.102971,9770.718434
3752.435093,383.047749,296.082377,10140.821405
3752.435408,-306.438199,-0.000000,10362.883188
3752.435722,-612.876398,444.123565,10362.883188
3752.436037,-383.047749,518.144159,10288.862594
3752.436351,-459.657299,518.144159,9918.759623
3752.436666,0.000000,518.144159,9918.759623
3752.436980,229.828649,740.205942,9696.697840
3752.437295,766.095498,740.205942,9770.718434
3752.437609,689.485948,-74.020594,9992.780217
3752.437924,919.314598,1258.350101,9696.697840
3752.438238,689.485948,1850.514855,9474.636058
3752.438553,689.485948,1998.556043,8660.409521
3752.438867,536.266849,1702.473667,9178.553681
3752.439182,766.095498,888.247130,9400.615463
3752.439496,153.219100,814.226536,9252.574275
3752.439811,76.609550,-0.000000,9252.574275
3752.440125,0.000000,-74.020594,9696.697840
3752.440440,-383.047749,-74.020594,10066.800811
3752.440754,-1378.971896,296.082377,9622.677246
3752.441069,-1378.971896,-74.020594,9400.615463
3752.441383,-919.314598,-74.020594,9548.656652
3752.441698,-536.266849,-0.000000,9696.697840
3752.442012,-383.047749,-0.000000,9770.718434
3752.442327,-229.828649,-592.164754,9770.718434
3752.442641,-383.047749,-0.000000,9770.718434
3752.442956,-153.219100,518.144159,9770.718434
3752.443270,76.609550,1110.308913,9326.594869
3752.443585,153.219100,1554.432478,9474.636058
3752.443899,842.705048,518.144159,9178.553681
3752.444214,229.828649,-222.061783,9770.718434
3752.444528,229.828649,222.061783,9548.656652
3752.444843,153.219100,-0.000000,9474.636058
3752.445157,0.000000,-444.123565,9992.780217
3752.445472,-229.828649,-888.247130,10658.965565
3752.445786,-383.047749,-296.082377,9548.656652
3752.446101,-536.266849,-148.041188,9252.574275
3752.446415,-229.828649,-0.000000,9474.636058
3752.446730,153.219100,-740.205942,10140.821405
3752.447044,229.828649,-814.226536,9696.697840
3752.447359,153.219100,-370.102971,9696.697840
3752.447673,229.828649,-370.102971,10288.862594
3752.447988,0.000000,296.082377,10288.862594
3752.448302,153.219100,666.185348,9400.615463
3752.448617,459.657299,518.144159,9252.574275
3752.448931,1302.362347,148.041188,9696.697840
3752.449246,1072.533697,-0.000000,9622.677246
3752.449560,919.314598,-148.041188,9178.553681
3752.449875,459.657299,-444.123565,9474.636058
3752.450189,306.438199,-888.247130,10066.800811
3752.450504,-383.047749,-1036.288319,9178.553681
3752.450818,-536.266849,-444.123565,9104.533087
3752.451133,-306.438199,-296.082377,9178.553681
3752.451447,-153.219100,-962.267725,9474.636058
3752.451762,0.000000,-814.226536,9400.615463
3752.452076,0.000000,-1258.350101,9400.615463
3752.452390,153.219100,-666.185348,9992.780217
3752.452705,459.657299,-444.123565,10288.862594
3752.453019,229.828649,-0.000000,9770.718434
3752.453334,0.000000,-0.000000,9622.677246
3752.453648,459.657299,666.185348,8364.327145
3752.453963,1225.752797,444.123565,9030.512492
3752.454277,995.924147,148.041188,9474.636058
3752.454592,995.924147,148.041188,9030.512492
3752.454906,536.266849,-74.020594,9474.636058
3752.455221,689.485948,-370.102971,9622.677246
3752.455535,0.000000,-222.061783,9400.615463
3752.455850,-383.047749,222.061783,9178.553681
3752.456164,-383.047749,-222.061783,9252.574275
3752.456479,-153.219100,-1036.288319,9474.636058
3752.456793,-536.266849,-666.185348,9992.780217
3752.457108,-153.219100,-0.000000,9622.677246
3752.457422,-306.438199,-0.000000,9992.780217
3752.457737,-383.047749,592.164754,10658.965565
3752.458051,-383.047749,888.247130,9992.780217
3752.458366,0.000000,1184.329507,9252.574275
3752.458680,459.657299,1184.329507,9696.697840
3752.458995,459.657299,1110.308913,9844.739029
3752.459309,536.266849,1036.288319,9770.718434
3752.459624,1225.752797,592.164754,9326.594869
3752.459938,459.657299,1332.370696,9474.636058
3752.460253,306.438199,962.267725,9474.636058
3752.460567,0.000000,962.267725,9104.533087
3752.460882,-766.095498,962.267725,9030.512492
3752.461196,-689.485948,296.082377,9474.636058
3752.461511,-1072.533697,-148.041188,9918.759623
3752.461825,-919.314598,-444.123565,10214.842000
3752.462140,-612.876398,-148.041188,10732.986159
3752.462454,-689.485948,-444.123565,10362.883188
3752.462769,-459.657299,222.061783,10214.842000
3752.463083,-306.438199,1036.288319,9696.697840
3752.463398,229.828649,1702.473667,9178.553681
3752.463712,995.924147,1702.473667,9252.574275
3752.464027,1685.410096,1258.350101,9548.656652
3752.464341,1378.971896,1258.350101,9104.533087
3752.464656,1532.190996,1036.288319,9178.553681
3752.464970,1149.143247,592.164754,9622.677246
3752.465285,306.438199,444.123565,9992.780217
3752.465599,-383.047749,888.247130,9474.636058
3752.465914,-689.485948,444.123565,9104.533087
3752.466228,-229.828649,-0.000000,9918.759623
3752.466543,-229.828649,-592.164754,10140.821405
3752.466857,-536.266849,-740.205942,10362.883188
3752.467172,-229.828649,-888.247130,10362.883188
3752.467487,-536.266849,-222.061783,10140.821405
3752.467801,76.609550,740.205942,10362.883188
3752.468116,536.266849,1110.308913,9548.656652
3752.468430,842.705048,1850.514855,9104.533087
3752.468745,1455.581446,962.267725,9400.615463
3752.469060,1302.362347,1406.391290,9326.594869
3752.469374,1532.190996,1036.288319,9474.636058
3752.469689,1532.190996,370.102971,9474.636058
3752.470003,689.485948,-74.020594,10436.903782
3752.470318,0.000000,222.061783,9474.636058
3752.470633,-383.047749,-0.000000,9474.636058
3752.470947,-459.657299,-74.020594,9474.636058
3752.471262,-153.219100,-814.226536,9844.739029
3752.471577,459.657299,-962.267725,9474.636058
3752.471891,-459.657299,-1480.411884,9844.739029
3752.472206,0.000000,-1332.370696,10066.800811
3752.472520,0.000000,-666.185348,9992.780217
3752.472835,0.000000,-0.000000,9622.677246
3752.473150,0.000000,740.205942,9104.533087
3752.473464,306.438199,740.205942,8734.430116
3752.473779,1225.752797,-0.000000,9252.574275
3752.474094,1455.581446,-0.000000,9474.636058
3752.474408,919.314598,-222.061783,9252.574275
3752.474723,536.266849,-0.000000,9474.636058
3752.475037,76.609550,-296.082377,10214.842000
3752.475352,-229.828649,-0.000000,9918.759623
3752.475667,-536.266849,-518.144159,8882.471304
3752.475981,-459.657299,-1036.288319,9178.553681
3752.476296,-306.438199,-1184.329507,9696.697840
3752.476611,-842.705048,-1258.350101,9474.636058
3752.476925,-689.485948,-1258.350101,9548.656652
3752.477240,-612.876398,-1406.391290,9770.718434
3752.477554,-383.047749,-962.267725,9992.780217
3752.477869,-383.047749,370.102971,9400.615463
3752.478184,76.609550,370.102971,8808.450710
3752.478498,536.266849,1184.329507,8438.347739
3752.478813,689.485948,444.123565,9178.553681
3752.479128,689.485948,666.185348,8882.471304
3752.479442,383.047749,222.061783,9178.553681
3752.479757,229.828649,-222.061783,9696.697840
3752.480071,-459.657299,-74.020594,10288.862594
3752.480386,-1149.143247,592.164754,10288.862594
3752.480701,-1455.581446,-0.000000,10066.800811
3752.481015,-1302.362347,148.041188,10214.842000
3752.481330,-689.485948,-148.041188,10362.883188
3752.481644,-536.266849,-148.041188,9770.718434
3752.481959,-229.828649,-370.102971,10066.800811
3752.482274,-306.438199,-296.082377,10362.883188
3752.482588,0.000000,444.123565,9696.697840
3752.482903,0.000000,1110.308913,9474.636058
3752.483218,229.828649,1110.308913,8956.491898
3752.483532,919.314598,962.267725,9178.553681
3752.483847,1455.581446,296.082377,9400.615463
3752.484161,536.266849,-0.000000,9030.512492
3752.484476,536.266849,222.061783,9326.594869
3752.484791,383.047749,518.144159,9548.656652
3752.485105,0.000000,-0.000000,10214.842000
3752.485420,76.609550,740.205942,9696.697840
3752.485735,0.000000,592.164754,9252.574275
3752.486049,459.657299,148.041188,9844.739029
3752.486364,383.047749,518.144159,9992.780217
3752.486678,459.657299,444.123565,9548.656652
3752.486993,459.657299,-0.000000,9918.759623
3752.487308,536.266849,222.061783,10288.862594
3752.487622,612.876398,592.164754,9918.759623
3752.487937,459.657299,1258.350101,9474.636058
3752.488252,536.266849,1258.350101,9548.656652
3752.488566,1149.143247,814.226536,9474.636058
3752.488881,919.314598,1258.350101,9548.656652
3752.489195,1072.533697,888.247130,9548.656652
3752.489510,1149.143247,518.144159,9474.636058
3752.489825,1072.533697,222.061783,10066.800811
3752.490139,612.876398,444.123565,9474.636058
3752.490454,306.438199,962.267725,9252.574275
3752.490769,383.047749,888.247130,8808.450710
3752.491083,536.266849,740.205942,9326.594869
3752.491398,536.266849,222.061783,9696.697840
3752.491712,229.828649,222.061783,9622.677246
3752.492027,153.219100,296.082377,9770.718434
3752.492342,0.000000,-0.000000,9992.780217
3752.492656,0.000000,888.247130,10066.800811
3752.492971,-689.485948,296.082377,9474.636058
3752.493285,0.000000,666.185348,9696.697840
3752.493600,766.095498,518.144159,9844.739029
3752.493915,536.266849,814.226536,9326.594869
3752.494229,229.828649,444.123565,9696.697840
3752.494544,153.219100,296.082377,9622.677246
3752.494859,229.828649,-296.082377,9770.718434
3752.495173,0.000000,222.061783,9474.636058
3752.495488,-612.876398,148.041188,8882.471304
3752.495802,-689.485948,-0.000000,9030.512492
3752.496117,-306.438199,-222.061783,9474.636058
3752.496432,-229.828649,-444.123565,9474.636058
3752.496746,-459.657299,-518.144159,9622.677246
3752.497061,-459.657299,-592.164754,9770.718434
3752.497376,-842.705048,-740.205942,10807.006753
3752.497690,-842.705048,-0.000000,10214.842000
3752.498005,-995.924147,370.102971,9622.677246
3752.498319,-229.828649,296.082377,9474.636058
3752.498634,0.000000,-0.000000,9696.697840
3752.498949,919.314598,222.061783,9696.697840
3752.499263,612.876398,-0.000000,9622.677246
3752.499578,459.657299,-222.061783,9770.718434
3752.499893,76.609550,-74.020594,9770.718434
3752.500207,0.000000,370.102971,9400.615463
3752.500522,-306.438199,666.185348,9474.636058
3752.500836,-229.828649,-0.000000,9548.656652
3752.501151,0.000000,-888.247130,9400.615463
3752.501466,0.000000,-962.267725,9548.656652
3752.501780,0.000000,-1036.288319,9770.718434
3752.502095,-229.828649,-592.164754,9918.759623
3752.502409,-153.219100,-370.102971,9992.780217
3752.502724,-306.438199,-0.000000,9548.656652
3752.503039,76.609550,-0.000000,9326.594869
3752.503353,306.438199,-0.000000,9474.636058
3752.503668,536.266849,-0.000000,9178.553681
3752.503983,459.657299,-0.000000,9326.594869
3752.504297,536.266849,-296.082377,9474.636058
3752.504612,612.876398,-222.061783,9622.677246
3752.504926,383.047749,-296.082377,9992.780217
3752.505241,229.828649,-148.041188,9548.656652
3752.505556,0.000000,-74.020594,8808.450710
3752.505870,153.219100,-222.061783,9104.533087
3752.506185,153.219100,-296.082377,9326.594869
3752.506500,153.219100,-740.205942,9104.533087
3752.506814,306.438199,-1332.370696,9326.594869
3752.507129,459.657299,-592.164754,9474.636058
3752.507443,0.000000,-370.102971,9474.636058
3752.507758,459.657299,592.164754,8956.491898
3752.508073,153.219100,740.205942,9326.594869
3752.508387,612.876398,740.205942,9696.697840
3752.508702,842.705048,444.123565,9548.656652
3752.509017,1072.533697,370.102971,9178.553681
3752.509331,1378.971896,-0.000000,9622.677246
3752.509646,1149.143247,-0.000000,10140.821405
3752.509960,459.657299,370.102971,9844.739029
3752.510275,0.000000,814.226536,9474.636058
3752.510590,0.000000,740.205942,9474.636058
3752.510904,0.000000,222.061783,9992.780217
3752.511219,0.000000,-148.041188,9992.780217
3752.511534,0.000000,-0.000000,9992.780217
3752.511848,306.438199,-0.000000,9844.739029
3752.512163,0.000000,444.123565,9918.759623
3752.512477,153.219100,1036.288319,9992.780217
3752.512792,76.609550,1554.432478,9400.615463
3752.513107,229.828649,1406.391290,9326.594869
3752.513421,306.438199,1110.308913,9474.636058
3752.513736,383.047749,1110.308913,9326.594869
3752.514050,306.438199,962.267725,9696.697840
3752.514365,689.485948,666.185348,9844.739029
3752.514680,-153.219100,148.041188,10510.924376
3752.514994,-612.876398,666.185348,10140.821405
3752.515309,-995.924147,296.082377,9622.677246
3752.515624,-766.095498,592.164754,9474.636058
3752.515938,-689.485948,296.082377,9918.759623
3752.516253,-536.266849,888.247130,10140.821405
3752.516567,-459.657299,148.041188,9992.780217
3752.516882,-229.828649,370.102971,9696.697840
3752.517197,0.000000,296.082377,9918.759623
3752.517511,-306.438199,592.164754,9696.697840
3752.517826,0.000000,1332.370696,8734.430116
3752.518141,153.219100,888.247130,9178.553681
3752.518455,459.657299,518.144159,9252.574275
3752.518770,383.047749,296.082377,9400.615463
3752.519084,153.219100,-444.123565,9474.636058
3752.519399,459.657299,-148.041188,9918.759623
3752.519714,76.609550,-0.000000,9918.759623
3752.520028,0.000000,296.082377,9992.780217
3752.520343,-229.828649,370.102971,9622.677246
3752.520658,0.000000,-0.000000,9918.759623
3752.520972,306.438199,-148.041188,9474.636058
3752.521287,536.266849,-0.000000,9474.636058
3752.521601,842.705048,-0.000000,9696.697840
3752.521916,1072.533697,-444.123565,9474.636058
3752.522231,919.314598,-0.000000,10214.842000
3752.522545,689.485948,518.144159,9474.636058
3752.522860,612.876398,-0.000000,8808.450710
3752.523174,612.876398,-74.020594,9104.533087
3752.523489,383.047749,-222.061783,9622.677246
3752.523804,306.438199,-444.123565,10362.883188
3752.524118,-229.828649,-666.185348,9622.677246
3752.524433,0.000000,-962.267725,9770.718434
3752.524748,153.219100,-814.226536,10362.883188
3752.525062,-459.657299,-0.000000,9770.718434
3752.525377,459.657299,222.061783,9030.512492
3752.525691,229.828649,-0.000000,9104.533087
3752.526006,689.485948,-74.020594,9104.533087
3752.526321,536.266849,-444.123565,8734.430116
3752.526635,612.876398,-444.123565,8882.471304
3752.526950,766.095498,-1258.350101,9992.780217
3752.527265,-306.438199,-148.041188,9474.636058
3752.527579,-842.705048,-0.000000,9178.553681
3752.527894,-459.657299,-222.061783,9400.615463
3752.528208,153.219100,-666.185348,9622.677246
3752.528523,383.047749,-370.102971,9400.615463
3752.528838,536.266849,-740.205942,9326.594869
3752.529152,153.219100,-666.185348,9400.615463
3752.529467,229.828649,-370.102971,9400.615463
3752.529782,536.266849,-0.000000,9474.636058
3752.530096,76.609550,296.082377,9400.615463
3752.530411,306.438199,444.123565,8808.450710
3752.530725,0.000000,148.041188,8734.430116
3752.531040,76.609550,-74.020594,9622.677246
3752.531355,-229.828649,-0.000000,10066.800811
3752.531669,-459.657299,-148.041188,10066.800811
3752.531984,-612.876398,-518.144159,10584.944971
3752.532299,-689.485948,-370.102971,10955.047942
3752.532613,-1149.143247,518.144159,10140.821405
3752.532928,-306.438199,-0.000000,9918.759623
3752.533242,0.000000,666.185348,9548.656652
3752.533557,76.609550,666.185348,9918.759623
3752.533872,536.266849,962.267725,9696.697840
3752.534186,612.876398,518.144159,9400.615463
3752.534501,536.266849,444.123565,9548.656652
3752.534815,383.047749,1036.288319,9474.636058
3752.535130,0.000000,1406.391290,8512.368333
3752.535445,76.609550,814.226536,8956.491898
3752.535759,-459.657299,666.185348,9474.636058
3752.536074,-229.828649,222.061783,10436.903782
3752.536389,-459.657299,-0.000000,10140.821405
3752.536703,-383.047749,-0.000000,10288.862594
3752.537018,-689.485948,296.082377,10362.883188
3752.537332,0.000000,666.185348,10288.862594
3752.537647,0.000000,888.247130,9400.615463
3752.537962,153.219100,888.247130,9252.574275
3752.538276,459.657299,1258.350101,9474.636058
3752.538591,612.876398,1184.329507,9400.615463
3752.538906,689.485948,1184.329507,9696.697840
3752.539220,842.705048,1036.288319,9548.656652
3752.539535,689.485948,1036.288319,9326.594869
3752.539849,306.438199,592.164754,9622.677246
3752.540164,-306.438199,1184.329507,9326.594869
3752.540479,0.000000,814.226536,9770.718434
3752.540793,0.000000,518.144159,9474.636058
3752.541108,0.000000,-0.000000,10066.800811
3752.541423,-229.828649,-296.082377,10362.883188
3752.541737,76.609550,148.041188,10362.883188
3752.542052,76.609550,-0.000000,10658.965565
3752.542366,76.609550,888.247130,9770.718434
3752.542681,383.047749,888.247130,9252.574275
3752.542996,995.924147,1036.288319,8734.430116
3752.543310,1455.581446,592.164754,9400.615463
3752.543625,1608.800546,148.041188,9474.636058
3752.543939,1072.533697,-0.000000,9030.512492
3752.544254,919.314598,-222.061783,9474.636058
3752.544569,766.095498,-0.000000,9844.739029
3752.544883,76.609550,-0.000000,9548.656652
3752.545198,0.000000,-0.000000,9104.533087
3752.545513,-306.438199,-0.000000,9770.718434
3752.545827,0.000000,-444.123565,10510.924376
3752.546142,-689.485948,-592.164754,10436.903782
3752.546456,-229.828649,-444.123565,10214.842000
3752.546771,0.000000,-518.144159,10288.862594
3752.547086,0.000000,-148.041188,10288.862594
3752.547400,459.657299,-0.000000,9474.636058
3752.547715,995.924147,370.102971,9104.533087
3752.548030,995.924147,814.226536,9400.615463
3752.548344,1302.362347,666.185348,9178.553681
3752.548659,995.924147,222.061783,8290.306550
3752.548973,842.705048,-222.061783,8882.471304
3752.549288,459.657299,-814.226536,9474.636058
3752.549603,0.000000,-1184.329507,9474.636058
3752.549917,-919.314598,-666.185348,9252.574275
3752.550232,-1225.752797,-444.123565,9400.615463
3752.550547,-1072.533697,-1258.350101,9474.636058
3752.550861,-1378.971896,-1332.370696,9844.739029
3752.551176,-689.485948,-1406.391290,10288.862594
3752.551490,-306.438199,-1258.350101,9696.697840
3752.551805,-306.438199,-592.164754,10140.821405
3752.552120,229.828649,222.061783,9474.636058
3752.552434,229.828649,1036.288319,8956.491898
3752.552749,766.095498,1406.391290,8364.327145
3752.553064,1149.143247,1036.288319,8808.450710
3752.553378,1072.533697,296.082377,8882.471304
3752.553693,383.047749,-0.000000,8734.430116
3752.554007,0.000000,-740.205942,9474.636058
3752.554322,-153.219100,-962.267725,10140.821405
3752.554637,-1225.752797,-888.247130,9918.759623
3752.554951,-1608.800546,-444.123565,9918.759623
3752.555266,-1455.581446,-740.205942,9696.697840
3752.555580,-995.924147,-666.185348,10140.821405
3752.555895,-459.657299,-222.061783,10214.842000
3752.556210,-459.657299,-0.000000,9770.718434
3752.556524,0.000000,444.123565,9918.759623
3752.556839,306.438199,-0.000000,9992.780217
3752.557154,689.485948,1332.370696,9622.677246
3752.557468,689.485948,1554.432478,8808.450710
3752.557783,766.095498,1850.514855,8956.491898
3752.558097,766.095498,1480.411884,8882.471304
3752.558412,612.876398,1110.308913,9326.594869
3752.558727,536.266849,-0.000000,9474.636058
3752.559041,0.000000,-148.041188,9992.780217
3752.559356,-536.266849,-296.082377,10510.924376
3752.559671,-919.314598,-74.020594,10214.842000
3752.559985,-1378.971896,296.082377,9474.636058
3752.560300,-1302.362347,518.144159,9844.739029
3752.560614,-306.438199,-0.000000,9918.759623
3752.560929,229.828649,-0.000000,9474.636058
3752.561244,306.438199,666.185348,9474.636058
3752.561558,919.314598,814.226536,9548.656652
3752.561873,1072.533697,1258.350101,9992.780217
3752.562188,1072.533697,1628.453072,9474.636058
3752.562502,842.705048,1406.391290,9252.574275
3752.562817,1225.752797,1480.411884,8882.471304
3752.563131,1149.143247,1332.370696,9474.636058
3752.563446,842.705048,1184.329507,9548.656652
3752.563761,689.485948,370.102971,9474.636058
3752.564075,306.438199,-0.000000,9844.739029
3752.564390,0.000000,-370.102971,10066.800811
3752.564705,0.000000,-0.000000,9844.739029
3752.565019,-306.438199,-0.000000,9622.677246
3752.565334,-229.828649,444.123565,9770.718434
3752.565648,76.609550,296.082377,9696.697840
3752.565963,0.000000,222.061783,9696.697840
3752.566278,153.219100,370.102971,9548.656652
3752.566592,766.095498,592.164754,9992.780217
3752.566907,536.266849,740.205942,10584.944971
3752.567221,612.876398,1332.370696,9474.636058
3752.567536,153.219100,1554.432478,9030.512492
3752.567851,153.219100,1036.288319,9400.615463
3752.568165,0.000000,296.082377,9918.759623
3752.568480,0.000000,-148.041188,9918.759623
3752.568795,0.000000,-370.102971,9474.636058
3752.569109,-383.047749,-962.267725,10288.862594
3752.569424,-842.705048,-666.185348,10140.821405
3752.569739,-1225.752797,-74.020594,9918.759623
3752.570053,-1072.533697,222.061783,9326.594869
3752.570368,-383.047749,-0.000000,9474.636058
3752.570683,-153.219100,-0.000000,9696.697840
3752.570997,0.000000,-74.020594,9326.594869
3752.571312,229.828649,-148.041188,9030.512492
3752.571626,383.047749,-0.000000,9622.677246
3752.571941,153.219100,296.082377,9770.718434
3752.572256,383.047749,518.144159,9326.594869
3752.572570,536.266849,296.082377,8956.491898
3752.572885,766.095498,-74.020594,9178.553681
3752.573200,153.219100,-592.164754,9548.656652
3752.573514,0.000000,-296.082377,9400.615463
3752.573829,-153.219100,-740.205942,9696.697840
3752.574144,0.000000,-1258.350101,10066.800811
3752.574458,-306.438199,-888.247130,10066.800811
3752.574773,-306.438199,-370.102971,8660.409521
3752.575088,-459.657299,-222.061783,8586.388927
3752.575402,153.219100,-370.102971,9474.636058
3752.575717,153.219100,-740.205942,9400.615463
3752.576032,383.047749,-592.164754,9474.636058
3752.576346,689.485948,-888.247130,9622.677246
3752.576661,0.000000,-888.247130,9918.759623
3752.576975,0.000000,-370.102971,10066.800811
3752.577290,-612.876398,-0.000000,9696.697840
3752.577605,-229.828649,-0.000000,9918.759623
3752.577919,76.609550,-0.000000,9770.718434
3752.578234,0.000000,-222.061783,9326.594869
3752.578549,612.876398,-148.041188,9326.594869
3752.578863,842.705048,-814.226536,9622.677246
3752.579178,536.266849,-592.164754,10140.821405
3752.579493,229.828649,-0.000000,9326.594869
3752.579807,0.000000,-0.000000,8734.430116
3752.580122,0.000000,-74.020594,8882.471304
3752.580437,536.266849,-0.000000,9326.594869
3752.580751,306.438199,-370.102971,9474.636058
3752.581066,0.000000,-518.144159,9400.615463
3752.581381,229.828649,-444.123565,9844.739029
3752.581695,0.000000,-0.000000,10288.862594
3752.582010,-383.047749,444.123565,9918.759623
3752.582324,-229.828649,1258.350101,9696.697840
3752.582639,76.609550,1184.329507,9474.636058
3752.582954,842.705048,1184.329507,9696.697840
3752.583268,1072.533697,1184.329507,9622.677246
3752.583583,1072.533697,888.247130,9474.636058
3752.583898,842.705048,740.205942,9474.636058
3752.584212,612.876398,518.144159,9844.739029
3752.584527,229.828649,814.226536,9252.574275
3752.584842,-383.047749,1036.288319,8956.491898
3752.585156,-153.219100,592.164754,9696.697840
3752.585471,-306.438199,-148.041188,10214.842000
3752.585786,-383.047749,-0.000000,9474.636058
3752.586100,-766.095498,-0.000000,9844.739029
3752.586415,-306.438199,-74.020594,10436.903782
3752.586729,-229.828649,148.041188,11029.068536
3752.587044,0.000000,1110.308913,9622.677246
3752.587359,0.000000,1628.453072,9326.594869
3752.587673,306.438199,1036.288319,9918.759623
3752.587988,1455.581446,1406.391290,9844.739029
3752.588303,842.705048,1110.308913,9696.697840
3752.588617,459.657299,1110.308913,9992.780217
3752.588932,0.000000,666.185348,10436.903782
3752.589247,0.000000,888.247130,10140.821405
3752.589561,-229.828649,1110.308913,9918.759623
3752.589876,-536.266849,666.185348,9622.677246
3752.590191,-536.266849,518.144159,9844.739029
3752.590505,-536.266849,-74.020594,9548.656652
3752.590820,-612.876398,-0.000000,9770.718434
3752.591135,0.000000,-296.082377,9252.574275
3752.591449,153.219100,222.061783,10510.924376
3752.591764,-229.828649,518.144159,9918.759623
3752.592078,0.000000,962.267725,9474.636058
3752.592393,0.000000,1110.308913,8956.491898
3752.592708,766.095498,888.247130,9474.636058
3752.593022,459.657299,666.185348,9696.697840
3752.593337,766.095498,296.082377,9474.636058
3752.593652,612.876398,-0.000000,9474.636058
3752.593966,689.485948,-0.000000,10066.800811
3752.594281,0.000000,370.102971,10066.800811
3752.594596,-383.047749,-0.000000,9326.594869
3752.594910,-842.705048,-0.000000,9400.615463
3752.595225,0.000000,-592.164754,9400.615463
3752.595540,0.000000,-592.164754,9326.594869
3752.595854,-306.438199,-888.247130,9548.656652
3752.596169,0.000000,-1110.308913,9992.780217
3752.596484,-153.219100,-518.144159,10362.883188
3752.596798,0.000000,-222.061783,9696.697840
3752.597113,229.828649,296.082377,8956.491898
3752.597427,536.266849,370.102971,9400.615463
3752.597742,995.924147,370.102971,9252.574275
3752.598057,1072.533697,148.041188,9252.574275
3752.598371,1072.533697,-0.000000,9252.574275
3752.598686,995.924147,-666.185348,9696.697840
3752.599001,919.314598,-518.144159,9622.677246
3752.599315,536.266849,-74.020594,9548.656652
3752.599630,0.000000,222.061783,9104.533087
3752.599945,76.609550,-222.061783,9104.533087
3752.600259,306.438199,-814.226536,9474.636058
3752.600574,76.609550,-1184.329507,9474.636058
3752.600889,76.609550,-1332.370696,9844.739029
3752.601203,-306.438199,-1332.370696,10140.821405
3752.601518,153.219100,-666.185348,10066.800811
3752.601832,-229.828649,-222.061783,9474.636058
3752.602147,-229.828649,296.082377,9178.553681
3752.602462,153.219100,-222.061783,9474.636058
3752.602776,459.657299,-0.000000,9474.636058
3752.603091,612.876398,222.061783,9400.615463
3752.603406,612.876398,-0.000000,9474.636058
3752.603720,612.876398,-370.102971,9474.636058
3752.604035,842.705048,-222.061783,10214.842000
3752.604350,76.609550,-0.000000,9548.656652
3752.604664,-459.657299,296.082377,8882.471304
3752.604979,-306.438199,-0.000000,9548.656652
3752.605294,-306.438199,-0.000000,9474.636058
3752.605608,0.000000,-888.247130,9178.553681
3752.605923,-459.657299,-962.267725,9252.574275
3752.606238,-383.047749,-666.185348,9622.677246
3752.606552,-459.657299,-518.144159,10140.821405
3752.606867,-842.705048,-0.000000,10288.862594
3752.607181,-995.924147,666.185348,9400.615463
3752.607496,-459.657299,518.144159,9400.615463
3752.607811,153.219100,370.102971,9696.697840
3752.608125,383.047749,666.185348,9770.718434
3752.608440,0.000000,962.267725,9622.677246
3752.608755,766.095498,666.185348,9992.780217
3752.609069,229.828649,1110.308913,9696.697840
3752.609384,383.047749,1110.308913,9548.656652
3752.609699,76.609550,1258.350101,8956.491898
3752.610013,306.438199,962.267725,9178.553681
3752.610328,383.047749,666.185348,9474.636058
3752.610643,0.000000,-0.000000,9104.533087
3752.610957,-306.438199,-0.000000,9622.677246
3752.611272,-459.657299,-148.041188,9992.780217
3752.611587,-459.657299,-74.020594,10214.842000
3752.611901,-689.485948,222.061783,10140.821405
3752.612216,-459.657299,814.226536,9474.636058
3752.612530,0.000000,666.185348,10214.842000
3752.612845,0.000000,1480.411884,9770.718434
3752.613160,536.266849,1110.308913,9474.636058
3752.613474,766.095498,888.247130,9548.656652
3752.613789,1532.190996,814.226536,10140.821405
3752.614104,1225.752797,1480.411884,9548.656652
3752.614418,612.876398,1850.514855,8734.430116
3752.614733,306.438199,1628.453072,8808.450710
3752.615048,842.705048,666.185348,9178.553681
3752.615362,612.876398,-0.000000,9400.615463
3752.615677,229.828649,-444.123565,9400.615463
3752.615992,-459.657299,-740.205942,10066.800811
3752.616306,-689.485948,-370.102971,10510.924376
3752.616621,-919.314598,-74.020594,10807.006753
3752.616935,-995.924147,-0.000000,10362.883188
3752.617250,-459.657299,370.102971,10362.883188
3752.617565,689.485948,444.123565,10066.800811
3752.617879,919.314598,1036.288319,9326.594869
3752.618194,1225.752797,444.123565,9178.553681
3752.618509,1302.362347,1184.329507,9622.677246
3752.618823,1302.362347,962.267725,9474.636058
3752.619138,1149.143247,888.247130,9474.636058
3752.619453,536.266849,592.164754,9178.553681
3752.619767,459.657299,-0.000000,8660.409521
3752.620082,153.219100,-222.061783,9178.553681
3752.620397,-306.438199,-370.102971,9622.677246
3752.620711,-689.485948,-1036.288319,10140.821405
3752.621026,-766.095498,-1258.350101,10066.800811
3752.621341,-995.924147,-1554.432478,10288.862594
3752.621655,-995.924147,-592.164754,10658.965565
3752.621970,-842.705048,-74.020594,9622.677246
3752.622284,0.000000,-148.041188,9400.615463
3752.622599,383.047749,222.061783,9326.594869
3752.622914,1225.752797,-0.000000,8956.491898
3752.623228,1455.581446,296.082377,8438.347739
3752.623543,1149.143247,-0.000000,9326.594869
3752.623858,842.705048,222.061783,9992.780217
3752.624172,0.000000,-0.000000,9178.553681
3752.624487,153.219100,-444.123565,8956.491898
3752.624802,-229.828649,-296.082377,9178.553681
3752.625116,-306.438199,-962.267725,9474.636058
3752.625431,-536.266849,-1036.288319,9770.718434
3752.625746,-919.314598,-1924.535449,9918.759623
3752.626060,-919.314598,-1702.473667,10510.924376
3752.626375,-536.266849,-1406.391290,10140.821405
3752.626690,-766.095498,-888.247130,9474.636058
3752.627004,-229.828649,-296.082377,9474.636058
3752.627319,76.609550,-444.123565,9030.512492
3752.627633,459.657299,-296.082377,9548.656652
3752.627948,612.876398,-0.000000,9326.594869
3752.628263,995.924147,148.041188,9104.533087
3752.628577,1072.533697,148.041188,9326.594869
3752.628892,995.924147,-0.000000,9474.636058
3752.629207,536.266849,444.123565,9622.677246
3752.629521,-306.438199,518.144159,9178.553681
3752.629836,-229.828649,-222.061783,9474.636058
3752.630151,-612.876398,-962.267725,9992.780217
3752.630465,-536.266849,-1110.308913,9992.780217
3752.630780,-459.657299,-1332.370696,10066.800811
3752.631095,-306.438199,-962.267725,10658.965565
3752.631409,-536.266849,-222.061783,10807.006753
3752.631724,-383.047749,888.247130,9474.636058
3752.632038,76.609550,1184.329507,8882.471304
3752.632353,842.705048,888.247130,8956.491898
3752.632668,1302.362347,1110.308913,9178.553681
3752.632982,1225.752797,888.247130,9178.553681
3752.633297,842.705048,814.226536,9400.615463
3752.633612,229.828649,962.267725,9400.615463
3752.633926,0.000000,962.267725,9474.636058
3752.634241,-306.438199,1036.288319,9400.615463
3752.634556,-459.657299,666.185348,9548.656652
3752.634870,76.609550,-0.000000,9696.697840
3752.635185,-229.828649,-148.041188,10140.821405
3752.635500,-612.876398,444.123565,10140.821405
3752.635814,-229.828649,296.082377,10362.883188
3752.636129,-306.438199,222.061783,10732.986159
3752.636444,0.000000,962.267725,10288.862594
3752.636758,536.266849,1480.411884,9548.656652
3752.637073,919.314598,1998.556043,8882.471304
3752.637387,1378.971896,1628.453072,8882.471304
3752.637702,1378.971896,1554.432478,9400.615463
3752.638017,689.485948,1258.350101,9104.533087
3752.638331,536.266849,1110.308913,9548.656652
3752.638646,612.876398,518.144159,9918.759623
3752.638961,306.438199,666.185348,10140.821405
3752.639275,-306.438199,1036.288319,9622.677246
3752.639590,-689.485948,814.226536,9696.697840
3752.639905,0.000000,222.061783,10510.924376
3752.640219,-153.219100,148.041188,10584.944971
3752.640534,-153.219100,222.061783,10066.800811
3752.640849,229.828649,666.185348,9770.718434
3752.641163,306.438199,740.205942,10066.800811
3752.641478,536.266849,1332.370696,9844.739029
3752.641793,536.266849,1628.453072,9178.553681
3752.642107,229.828649,1406.391290,9474.636058
3752.642422,383.047749,814.226536,9474.636058
3752.642736,842.705048,296.082377,9548.656652
3752.643051,306.438199,-0.000000,9696.697840
3752.643366,153.219100,-222.061783,10214.842000
3752.643680,-306.438199,-370.102971,10140.821405
3752.643995,-1455.581446,-296.082377,10288.862594
3752.644310,-766.095498,-148.041188,9696.697840
3752.644624,-842.705048,-148.041188,9400.615463
3752.644939,-536.266849,148.041188,9770.718434
3752.645254,0.000000,-666.185348,9400.615463
3752.645568,536.266849,-370.102971,9548.656652
3752.645883,153.219100,-296.082377,9104.533087
3752.646198,536.266849,-370.102971,9400.615463
3752.646512,536.266849,-0.000000,9400.615463
3752.646827,306.438199,666.185348,8734.430116
3752.647141,612.876398,222.061783,7846.182985
3752.647456,612.876398,-740.205942,8512.368333
3752.647771,229.828649,-666.185348,9474.636058
3752.648085,0.000000,-740.205942,9622.677246
3752.648400,-536.266849,-1332.370696,9696.697840
3752.648715,-612.876398,-1184.329507,10436.903782
3752.649029,-919.314598,-740.205942,9696.697840
3752.649344,-612.876398,-666.185348,9400.615463
3752.649659,-229.828649,-666.185348,9696.697840
3752.649973,306.438199,-592.164754,9622.677246
3752.650288,306.438199,-370.102971,9400.615463
3752.650603,766.095498,-296.082377,8956.491898
3752.650917,766.095498,-148.041188,9400.615463
3752.651232,76.609550,-444.123565,9770.718434
3752.651547,76.609550,-444.123565,9326.594869
3752.651861,-459.657299,-296.082377,9474.636058
3752.652176,-306.438199,-592.164754,9696.697840
3752.652490,-383.047749,-1258.350101,9992.780217
3752.652805,-612.876398,-740.205942,9622.677246
3752.653120,-842.705048,-1258.350101,10732.986159
3752.653434,-459.657299,-518.144159,9844.739029
3752.653749,-459.657299,-592.164754,10214.842000
3752.654064,-383.047749,148.041188,9400.615463
3752.654378,0.000000,-0.000000,9400.615463
3752.654693,153.219100,-0.000000,9770.718434
3752.655008,153.219100,-74.020594,9548.656652
3752.655322,76.609550,-222.061783,9326.594869
3752.655637,536.266849,-444.123565,9696.697840
3752.655952,76.609550,-222.061783,9622.677246
3752.656266,0.000000,-444.123565,9474.636058
3752.656581,-229.828649,222.061783,9548.656652
3752.656896,-153.219100,296.082377,9104.533087
3752.657210,383.047749,-0.000000,9400.615463
3752.657525,689.485948,-0.000000,9770.718434
3752.657839,459.657299,222.061783,9474.636058
3752.658154,306.438199,518.144159,9844.739029
3752.658469,842.705048,-0.000000,9844.739029
3752.658783,689.485948,814.226536,9770.718434
3752.659098,0.000000,1406.391290,9400.615463
3752.659413,229.828649,1406.391290,9030.512492
3752.659727,689.485948,1258.350101,9252.574275
3752.660042,1302.362347,1110.308913,9992.780217
3752.660357,919.314598,666.185348,9474.636058
3752.660671,536.266849,296.082377,9770.718434
3752.660986,306.438199,518.144159,10140.821405
3752.661301,383.047749,518.144159,9622.677246
3752.661615,459.657299,1184.329507,9400.615463
3752.661930,306.438199,1332.370696,9474.636058
3752.662244,306.438199,1184.329507,9548.656652
3752.662559,536.266849,1110.308913,9400.615463
3752.662874,459.657299,592.164754,9030.512492
3752.663188,229.828649,888.247130,9622.677246
3752.663503,612.876398,740.205942,10214.842000
3752.663818,153.219100,962.267725,10436.903782
3752.664132,-383.047749,1554.432478,9474.636058
3752.664447,0.000000,1332.370696,9918.759623
3752.664762,306.438199,1184.329507,9918.759623
3752.665076,0.000000,962.267725,10140.821405
3752.665391,153.219100,666.185348,9992.780217
3752.665706,612.876398,-0.000000,10510.924376
3752.666020,76.609550,444.123565,10288.862594
3752.666335,0.000000,222.061783,9992.780217
3752.666650,-306.438199,814.226536,9548.656652
3752.666964,0.000000,1036.288319,9178.553681
3752.667279,612.876398,518.144159,9326.594869
3752.667593,536.266849,814.226536,9400.615463
3752.667908,306.438199,592.164754,8956.491898
3752.668223,229.828649,-0.000000,9400.615463
3752.668537,306.438199,-0.000000,9622.677246
3752.668852,-536.266849,518.144159,9548.656652
3752.669167,-689.485948,-0.000000,9474.636058
3752.669482,-459.657299,-444.123565,9622.677246
3752.669796,-536.266849,-666.185348,10288.862594
3752.670111,-306.438199,-592.164754,10214.842000
3752.670426,-153.219100,-296.082377,9844.739029
3752.670740,-459.657299,-0.000000,10214.842000
3752.671055,0.000000,-0.000000,10436.903782
3752.671370,229.828649,-0.000000,9474.636058
3752.671685,689.485948,518.144159,8734.430116
3752.671999,229.828649,-0.000000,9030.512492
3752.672314,995.924147,222.061783,8882.471304
3752.672629,536.266849,222.061783,8660.409521
3752.672943,612.876398,-0.000000,9104.533087
3752.673258,229.828649,-962.267725,9400.615463
3752.673573,-536.266849,-1184.329507,10140.821405
3752.673888,-766.095498,-814.226536,9844.739029
3752.674202,-1072.533697,-962.267725,9400.615463
3752.674517,-689.485948,-1258.350101,9992.780217
3752.674832,-689.485948,-1184.329507,9696.697840
3752.675146,153.219100,-1332.370696,9474.636058
3752.675461,306.438199,-888.247130,9918.759623
3752.675776,153.219100,-444.123565,9992.780217
3752.676091,689.485948,-0.000000,9696.697840
3752.676405,612.876398,740.205942,8882.471304
3752.676720,919.314598,222.061783,8290.306550
3752.677035,1455.581446,-74.020594,9030.512492
3752.677349,1149.143247,-740.205942,8882.471304
3752.677664,383.047749,-1110.308913,9252.574275
3752.677979,0.000000,-1184.329507,9326.594869
3752.678294,0.000000,-1258.350101,9622.677246
3752.678608,-689.485948,-1110.308913,9918.759623
3752.678923,-612.876398,-814.226536,9474.636058
3752.679238,-689.485948,-740.205942,9622.677246
3752.679552,-612.876398,-1110.308913,9474.636058
3752.679867,-306.438199,-666.185348,10214.842000
3752.680182,306.438199,-296.082377,9696.697840
3752.680497,383.047749,-518.144159,9770.718434
3752.680811,766.095498,-0.000000,10214.842000
3752.681126,766.095498,444.123565,9918.759623
3752.681441,995.924147,1258.350101,9474.636058
3752.681755,766.095498,1924.535449,8660.409521
3752.682070,1149.143247,1184.329507,9104.533087
3752.682385,995.924147,888.247130,9178.553681
3752.682700,766.095498,-0.000000,9178.553681
3752.683014,0.000000,-444.123565,9696.697840
3752.683329,-153.219100,-148.041188,10140.821405
3752.683644,-766.095498,-148.041188,10288.862594
3752.683958,-1225.752797,444.123565,9696.697840
3752.684273,-1225.752797,296.082377,9622.677246
3752.684588,-153.219100,296.082377,10362.883188
3752.684903,-76.609550,814.226536,10140.821405
3752.685217,0.000000,592.164754,10066.800811
3752.685532,459.657299,1258.350101,9548.656652
3752.685847,919.314598,1110.308913,9548.656652
3752.686161,1149.143247,1480.411884,9622.677246
3752.686476,842.705048,2146.597232,8808.450710
3752.686791,689.485948,2146.597232,9030.512492
3752.687106,612.876398,1184.329507,9326.594869
3752.687420,1149.143247,666.185348,9548.656652
3752.687735,0.000000,370.102971,9696.697840
3752.688050,0.000000,-0.000000,10066.800811
3752.688364,-536.266849,-74.020594,10288.862594
3752.688679,-919.314598,-0.000000,10288.862594
3752.688994,-1378.971896,296.082377,9622.677246
3752.689308,-612.876398,740.205942,9326.594869
3752.689623,0.000000,666.185348,9548.656652
3752.689938,229.828649,962.267725,9548.656652
3752.690253,459.657299,962.267725,9474.636058
3752.690567,842.705048,740.205942,9622.677246
3752.690882,459.657299,888.247130,9992.780217
3752.691197,459.657299,1332.370696,9622.677246
3752.691511,229.828649,1406.391290,9178.553681
3752.691826,842.705048,1332.370696,9104.533087
3752.692141,689.485948,814.226536,9844.739029
3752.692456,459.657299,814.226536,9548.656652
3752.692770,229.828649,-148.041188,9918.759623
3752.693085,76.609550,-74.020594,10066.800811
3752.693400,-76.609550,-148.041188,9918.759623
3752.693714,-612.876398,-0.000000,9770.718434
3752.694029,-229.828649,222.061783,9474.636058
3752.694344,0.000000,-0.000000,9474.636058
3752.694659,76.609550,-0.000000,9474.636058
3752.694973,842.705048,222.061783,9696.697840
3752.695288,689.485948,-518.144159,9622.677246
3752.695603,383.047749,-74.020594,10288.862594
3752.695917,459.657299,296.082377,10436.903782
3752.696232,76.609550,740.205942,9696.697840
3752.696547,153.219100,1036.288319,9326.594869
3752.696862,612.876398,-0.000000,9696.697840
3752.697176,536.266849,-0.000000,9770.718434
3752.697491,306.438199,-296.082377,9548.656652
3752.697806,76.609550,-370.102971,9474.636058
3752.698120,153.219100,-888.247130,9474.636058
3752.698435,229.828649,-962.267725,9770.718434
3752.698750,0.000000,-518.144159,9252.574275
3752.699065,0.000000,-740.205942,8808.450710
3752.699379,-229.828649,-962.267725,8808.450710
3752.699694,-229.828649,-1110.308913,9030.512492
3752.700009,0.000000,-1036.288319,9770.718434
3752.700323,0.000000,-1480.411884,9918.759623
3752.700638,-229.828649,-1184.329507,10584.944971
3752.700953,0.000000,-962.267725,10288.862594
3752.701268,-229.828649,-444.123565,9474.636058
3752.701582,153.219100,-0.000000,9696.697840
3752.701897,536.266849,-0.000000,9326.594869
3752.702212,995.924147,-370.102971,8882.471304
3752.702526,383.047749,-222.061783,9030.512492
3752.702841,229.828649,-740.205942,9030.512492
3752.703156,536.266849,-444.123565,9474.636058
3752.703471,229.828649,-518.144159,9400.615463
3752.703785,-306.438199,-148.041188,9104.533087
3752.704100,-612.876398,-74.020594,8956.491898
3752.704415,-689.485948,-1184.329507,9252.574275
3752.704729,0.000000,-1480.411884,9844.739029
3752.705044,-153.219100,-740.205942,9918.759623
3752.705359,-995.924147,-1110.308913,9918.759623
3752.705674,-919.314598,-1036.288319,10288.862594
3752.705988,-612.876398,-0.000000,10362.883188
3752.706303,-689.485948,814.226536,9918.759623
3752.706618,-842.705048,518.144159,9178.553681
3752.706932,76.609550,592.164754,9474.636058
3752.707247,842.705048,1036.288319,9548.656652
3752.707562,995.924147,888.247130,8882.471304
3752.707877,689.485948,666.185348,9178.553681
3752.708191,689.485948,222.061783,9770.718434
3752.708506,0.000000,518.144159,9326.594869
3752.708821,-459.657299,666.185348,8734.430116
3752.709135,-383.047749,296.082377,9252.574275
3752.709450,-383.047749,-222.061783,9474.636058
3752.709765,-229.828649,-222.061783,9622.677246
3752.710080,-612.876398,-666.185348,10140.821405
3752.710394,-536.266849,-222.061783,10140.821405
3752.710709,0.000000,222.061783,10510.924376
3752.711024,229.828649,1110.308913,10214.842000
3752.711338,229.828649,1702.473667,9178.553681
3752.711653,1225.752797,2072.576638,8438.347739
3752.711968,1762.019645,1998.556043,8734.430116
3752.712283,1838.629195,1998.556043,9178.553681
3752.712597,1762.019645,962.267725,9474.636058
3752.712912,766.095498,-0.000000,9178.553681
3752.713227,842.705048,592.164754,9474.636058
3752.713541,76.609550,888.247130,9622.677246
3752.713856,-536.266849,1036.288319,9474.636058
3752.714171,-459.657299,666.185348,10140.821405
3752.714485,0.000000,222.061783,10436.903782
3752.714800,-306.438199,222.061783,10732.986159
3752.715115,0.000000,296.082377,10362.883188
3752.715430,383.047749,814.226536,10510.924376
3752.715744,536.266849,1110.308913,10807.006753
3752.716059,459.657299,1924.535449,10510.924376
3752.716374,1149.143247,2516.700203,9548.656652
3752.716688,1455.581446,2294.638420,9326.594869
3752.717003,1532.190996,1406.391290,9770.718434
3752.717318,1838.629195,962.267725,9474.636058
3752.717633,1149.143247,962.267725,9178.553681
3752.717947,306.438199,370.102971,9622.677246
3752.718262,-229.828649,-148.041188,10436.903782
3752.718577,-919.314598,-222.061783,9918.759623
3752.718891,-1378.971896,-296.082377,10140.821405
3752.719206,-766.095498,-740.205942,9918.759623
3752.719521,-536.266849,-592.164754,10140.821405
3752.719836,-459.657299,-370.102971,9992.780217
3752.720150,-383.047749,-222.061783,9696.697840
3752.720465,-229.828649,-370.102971,9918.759623
3752.720780,306.438199,148.041188,9918.759623
3752.721094,536.266849,962.267725,9104.533087
3752.721409,536.266849,1406.391290,8734.430116
3752.721724,612.876398,666.185348,8882.471304
3752.722039,612.876398,-0.000000,9178.553681
3752.722353,536.266849,-74.020594,9326.594869
3752.722668,229.828649,-888.247130,9178.553681
3752.722983,-383.047749,-1332.370696,9696.697840
3752.723297,-766.095498,-1184.329507,10140.821405
3752.723612,-1302.362347,-1184.329507,9474.636058
3752.723927,-766.095498,-1184.329507,9030.512492
3752.724242,-995.924147,-1332.370696,8956.491898
3752.724556,-536.266849,-1850.514855,9474.636058
3752.724871,-76.609550,-1332.370696,9178.553681
3752.725186,229.828649,-814.226536,9474.636058
3752.725500,306.438199,-814.226536,9622.677246
3752.725815,689.485948,-74.020594,9030.512492
3752.726130,459.657299,666.185348,8734.430116
3752.726445,459.657299,370.102971,8586.388927
3752.726759,919.314598,-296.082377,9178.553681
3752.727074,766.095498,-518.144159,9696.697840
3752.727389,76.609550,-666.185348,9030.512492
3752.727703,0.000000,-1406.391290,9622.677246
3752.728018,-536.266849,-1332.370696,10288.862594
3752.728333,-689.485948,-1110.308913,10214.842000
3752.728648,-842.705048,-666.185348,9474.636058
3752.728962,-766.095498,-592.164754,9474.636058
3752.729277,0.000000,-962.267725,9622.677246
3752.729592,229.828649,-222.061783,9548.656652
3752.729906,0.000000,-0.000000,9400.615463
3752.730221,383.047749,-296.082377,9474.636058
3752.730536,459.657299,-444.123565,9696.697840
3752.730851,842.705048,-0.000000,9326.594869
3752.731165,383.047749,888.247130,9474.636058
3752.731480,459.657299,592.164754,9326.594869
3752.731795,383.047749,518.144159,9696.697840
3752.732109,153.219100,370.102971,9622.677246
3752.732424,0.000000,-0.000000,9844.739029
3752.732739,0.000000,-148.041188,9918.759623
3752.733054,0.000000,-296.082377,10510.924376
3752.733368,0.000000,222.061783,10066.800811
3752.733683,-306.438199,888.247130,9696.697840
3752.733998,0.000000,814.226536,8956.491898
3752.734312,306.438199,444.123565,9548.656652
3752.734627,612.876398,740.205942,9474.636058
3752.734942,459.657299,518.144159,9178.553681
3752.735257,536.266849,888.247130,9474.636058
3752.735571,459.657299,1110.308913,9622.677246
3752.735886,306.438199,1332.370696,9844.739029
3752.736201,0.000000,1110.308913,9104.533087
3752.736515,0.000000,1036.288319,9474.636058
3752.736830,76.609550,1406.391290,10288.862594
3752.737145,383.047749,1110.308913,9918.759623
3752.737460,229.828649,814.226536,10288.862594
3752.737774,0.000000,740.205942,10658.965565
3752.738089,-229.828649,1184.329507,9992.780217
3752.738404,153.219100,1554.432478,9696.697840
3752.738718,306.438199,1776.494261,9400.615463
3752.739033,459.657299,1554.432478,9104.533087
3752.739348,842.705048,888.247130,9400.615463
3752.739663,842.705048,888.247130,8956.491898
3752.739977,459.657299,370.102971,9326.594869
3752.740292,-229.828649,222.061783,10066.800811
3752.740607,-383.047749,222.061783,10288.862594
3752.740921,-536.266849,1036.288319,9918.759623
3752.741236,-689.485948,962.267725,9474.636058
3752.741551,-383.047749,740.205942,9770.718434
3752.741865,0.000000,370.102971,9918.759623
3752.742180,0.000000,444.123565,10066.800811
3752.742495,0.000000,740.205942,9918.759623
3752.742810,536.266849,518.144159,9622.677246
3752.743124,383.047749,666.185348,9622.677246
3752.743439,0.000000,888.247130,9400.615463
3752.743754,153.219100,814.226536,8586.388927
3752.744068,689.485948,222.061783,9474.636058
3752.744383,383.047749,518.144159,9548.656652
3752.744698,306.438199,-222.061783,9252.574275
3752.745013,76.609550,-740.205942,9696.697840
3752.745327,229.828649,-1184.329507,10214.842000
3752.745642,-306.438199,-222.061783,10066.800811
3752.745957,-306.438199,370.102971,9474.636058
3752.746271,0.000000,-0.000000,9696.697840
3752.746586,153.219100,-0.000000,9844.739029
3752.746901,383.047749,-0.000000,9252.574275
3752.747216,689.485948,-148.041188,8882.471304
3752.747530,536.266849,-444.123565,9844.739029
3752.747845,612.876398,-592.164754,9992.780217
3752.748160,383.047749,-222.061783,9474.636058
3752.748474,383.047749,-0.000000,9474.636058
3752.748789,0.000000,-74.020594,8808.450710
3752.749104,306.438199,-518.144159,9400.615463
3752.749419,0.000000,-814.226536,9326.594869
3752.749733,-153.219100,-1110.308913,10066.800811
3752.750048,-306.438199,-1332.370696,9622.677246
3752.750363,-306.438199,-1258.350101,9992.780217
3752.750677,-306.438199,-1036.288319,9992.780217
3752.750992,-689.485948,-74.020594,9770.718434
3752.751307,-306.438199,-222.061783,9178.553681
3752.751622,0.000000,-370.102971,9548.656652
3752.751936,76.609550,-370.102971,9474.636058
3752.752251,306.438199,-518.144159,9474.636058
3752.752566,612.876398,-370.102971,9696.697840
3752.752880,383.047749,-666.185348,9918.759623
3752.753195,0.000000,-370.102971,9326.594869
3752.753510,153.219100,-296.082377,9030.512492
3752.753825,229.828649,-222.061783,9474.636058
3752.754139,153.219100,-518.144159,9696.697840
3752.754454,0.000000,-518.144159,9178.553681
3752.754769,-229.828649,-740.205942,9474.636058
3752.755083,76.609550,-962.267725,9918.759623
3752.755398,-306.438199,-518.144159,9918.759623
3752.755713,-229.828649,-148.041188,9326.594869
3752.756028,-766.095498,-74.020594,8956.491898
3752.756342,0.000000,-0.000000,9400.615463
3752.756657,153.219100,296.082377,9844.739029
3752.756972,306.438199,222.061783,9252.574275
3752.757286,153.219100,-0.000000,9696.697840
3752.757601,0.000000,-148.041188,10066.800811
3752.757916,76.609550,370.102971,10214.842000
3752.758231,0.000000,1258.350101,9474.636058
3752.758545,0.000000,1036.288319,9400.615463
3752.758860,0.000000,1332.370696,9844.739029
3752.759175,689.485948,962.267725,9474.636058
3752.759489,612.876398,888.247130,9696.697840
3752.759804,689.485948,888.247130,10362.883188
3752.760119,459.657299,592.164754,9918.759623
3752.760434,153.219100,740.205942,9918.759623
3752.760748,0.000000,1184.329507,9548.656652
3752.761063,0.000000,1036.288319,9178.553681
3752.761378,0.000000,740.205942,9400.615463
3752.761692,0.000000,592.164754,9622.677246
3752.762007,0.000000,592.164754,9474.636058
3752.762322,0.000000,444.123565,9770.718434
3752.762637,0.000000,518.144159,9992.780217
3752.762951,76.609550,888.247130,10584.944971
3752.763266,0.000000,1184.329507,9992.780217
3752.763581,-306.438199,1554.432478,9400.615463
3752.763895,-229.828649,1480.411884,9992.780217
3752.764210,0.000000,962.267725,10140.821405
3752.764525,0.000000,740.205942,9844.739029
3752.764840,306.438199,666.185348,10288.862594
3752.765154,76.609550,444.123565,10362.883188
3752.765469,76.609550,962.267725,10288.862594
3752.765784,-153.219100,962.267725,9548.656652
3752.766098,-229.828649,1332.370696,8956.491898
3752.766413,0.000000,1184.329507,9992.780217
3752.766728,536.266849,444.123565,9030.512492
3752.767042,306.438199,-0.000000,9400.615463
3752.767357,306.438199,-0.000000,9474.636058
3752.767672,536.266849,-222.061783,10214.842000
3752.767987,306.438199,666.185348,10140.821405
3752.768301,0.000000,1110.308913,9548.656652
3752.768616,0.000000,888.247130,8956.491898
3752.768931,536.266849,222.061783,9252.574275
3752.769242,919.314598,370.102971,9474.636058
3752.769557,842.705048,-222.061783,9474.636058
3752.769872,459.657299,-148.041188,9844.739029
3752.770186,459.657299,-74.020594,10288.862594
3752.770501,536.266849,296.082377,9548.656652
3752.770816,0.000000,740.205942,9104.533087
3752.771130,0.000000,592.164754,9178.553681
3752.771445,0.000000,-0.000000,9474.636058
3752.771760,76.609550,-296.082377,9474.636058
3752.772074,0.000000,-592.164754,9326.594869
3752.772389,153.219100,-592.164754,9622.677246
3752.772703,-153.219100,-814.226536,9918.759623
3752.773018,-229.828649,-444.123565,9770.718434
3752.773333,-306.438199,-370.102971,9474.636058
3752.773647,-229.828649,-0.000000,9030.512492
3752.773962,76.609550,-444.123565,9474.636058
3752.774277,306.438199,-444.123565,9104.533087
3752.774591,383.047749,-666.185348,8808.450710
3752.774906,0.000000,-740.205942,9474.636058
3752.775221,76.609550,-1332.370696,9770.718434
3752.775535,-153.219100,-814.226536,9696.697840
3752.775850,0.000000,-814.226536,9474.636058
3752.776165,-306.438199,-518.144159,9400.615463
3752.776479,0.000000,-592.164754,9178.553681
3752.776794,0.000000,-888.247130,9252.574275
3752.777109,306.438199,-1110.308913,9696.697840
3752.777423,229.828649,-1110.308913,9696.697840
3752.777738,153.219100,-740.205942,9548.656652
3752.778053,0.000000,-592.164754,9252.574275
3752.778367,306.438199,-148.041188,8660.409521
3752.778682,0.000000,-74.020594,9178.553681
3752.778997,76.609550,-592.164754,9622.677246
3752.779311,0.000000,-740.205942,9770.718434
3752.779626,-229.828649,-592.164754,9622.677246
3752.779941,0.000000,-518.144159,9770.718434
3752.780255,-459.657299,-222.061783,10214.842000
3752.780570,-689.485948,222.061783,9918.759623
3752.780885,-383.047749,740.205942,9326.594869
3752.781199,-306.438199,666.185348,9104.533087
3752.781514,76.609550,370.102971,9622.677246
3752.781829,306.438199,296.082377,9474.636058
3752.782143,0.000000,222.061783,9696.697840
3752.782458,76.609550,-148.041188,9992.780217
3752.782773,153.219100,-0.000000,10140.821405
3752.783087,-153.219100,1036.288319,9918.759623
3752.783402,0.000000,1332.370696,9326.594869
3752.783717,-306.438199,1036.288319,9104.533087
3752.784031,153.219100,888.247130,9474.636058
3752.784346,229.828649,666.185348,9622.677246
3752.784661,-229.828649,296.082377,9992.780217
3752.784975,229.828649,222.061783,10584.944971
3752.785290,-229.828649,518.144159,9770.718434
3752.785605,0.000000,1036.288319,9400.615463
3752.785919,0.000000,1776.494261,9104.533087
3752.786234,0.000000,1036.288319,9696.697840
3752.786549,689.485948,1554.432478,9474.636058
3752.786863,766.095498,1110.308913,9030.512492
3752.787178,766.095498,888.247130,9178.553681
3752.787493,995.924147,740.205942,9844.739029
3752.787807,306.438199,1258.350101,9918.759623
3752.788122,0.000000,1184.329507,10066.800811
3752.788437,0.000000,1258.350101,9770.718434
3752.788751,0.000000,296.082377,9992.780217
3752.789066,383.047749,296.082377,10436.903782
3752.789381,229.828649,444.123565,10288.862594
3752.789695,459.657299,592.164754,10066.800811
3752.790010,0.000000,296.082377,10288.862594
3752.790325,383.047749,666.185348,10140.821405
3752.790639,383.047749,1184.329507,9844.739029
3752.790954,306.438199,1628.453072,9474.636058
3752.791269,766.095498,1110.308913,9992.780217
3752.791583,919.314598,1036.288319,9400.615463
3752.791898,689.485948,592.164754,9474.636058
3752.792213,459.657299,518.144159,9770.718434
3752.792527,459.657299,518.144159,10140.821405
3752.792842,-153.219100,370.102971,10066.800811
3752.793156,-459.657299,666.185348,9770.718434
3752.793471,-689.485948,666.185348,9474.636058
3752.793786,-306.438199,222.061783,9844.739029
3752.794100,76.609550,-74.020594,9992.780217
3752.794415,0.000000,-296.082377,10066.800811
3752.794730,0.000000,-296.082377,9844.739029
3752.795044,76.609550,-0.000000,10140.821405
3752.795359,0.000000,518.144159,9622.677246
3752.795674,76.609550,592.164754,9030.512492
3752.795988,229.828649,444.123565,9178.553681
3752.796303,766.095498,148.041188,8660.409521
3752.796618,842.705048,-666.185348,9030.512492
3752.796932,306.438199,-222.061783,8956.491898
3752.797247,153.219100,-888.247130,9252.574275
3752.797562,-306.438199,-1184.329507,9770.718434
3752.797876,-383.047749,-1110.308913,9400.615463
3752.798191,-919.314598,-1036.288319,9474.636058
3752.798506,-919.314598,-1258.350101,9548.656652
3752.798820,-689.485948,-1184.329507,10066.800811
3752.799135,-536.266849,-1184.329507,9992.780217
3752.799450,-459.657299,-1332.370696,9992.780217
3752.799764,0.000000,-962.267725,9548.656652
3752.800079,229.828649,-1036.288319,9992.780217
3752.800394,536.266849,-666.185348,9474.636058
3752.800708,383.047749,-0.000000,8882.471304
3752.801023,689.485948,-370.102971,8808.450710
3752.801338,689.485948,-296.082377,8882.471304
3752.801652,919.314598,-666.185348,8956.491898
3752.801967,383.047749,-814.226536,9400.615463
3752.802282,0.000000,-1332.370696,9770.718434
3752.802596,-995.924147,-1554.432478,9770.718434
3752.802911,-995.924147,-1184.329507,9770.718434
3752.803226,-766.095498,-666.185348,9548.656652
3752.803540,-842.705048,-962.267725,10066.800811
3752.803855,-306.438199,-1110.308913,10140.821405
3752.804170,0.000000,-370.102971,9326.594869
3752.804484,306.438199,-518.144159,9918.759623
3752.804799,459.657299,-74.020594,9770.718434
3752.805114,459.657299,370.102971,10066.800811
3752.805428,689.485948,740.205942,9252.574275
3752.805743,766.095498,740.205942,9030.512492
3752.806058,1072.533697,666.185348,8956.491898
3752.806372,1072.533697,296.082377,8882.471304
3752.806687,919.314598,370.102971,9178.553681
3752.807002,536.266849,-296.082377,9400.615463
3752.807316,76.609550,-222.061783,9326.594869
3752.807631,76.609550,-148.041188,9622.677246
3752.807946,-229.828649,222.061783,9474.636058
3752.808260,-612.876398,518.144159,9474.636058
3752.808575,-383.047749,518.144159,9548.656652
3752.808890,229.828649,814.226536,9252.574275
3752.809204,229.828649,740.205942,9918.759623
3752.809519,306.438199,592.164754,9918.759623
3752.809834,842.705048,666.185348,9918.759623
3752.810148,919.314598,814.226536,9474.636058
3752.810463,459.657299,1776.494261,9770.718434
3752.810778,612.876398,2442.679609,9104.533087
3752.811092,766.095498,1924.535449,9474.636058
3752.811407,536.266849,1480.411884,9696.697840
3752.811722,383.047749,1036.288319,9474.636058
3752.812036,0.000000,518.144159,9474.636058
3752.812351,-306.438199,148.041188,10436.903782
3752.812666,-383.047749,296.082377,10658.965565
3752.812980,-842.705048,666.185348,10066.800811
3752.813295,-612.876398,962.267725,9326.594869
3752.813609,-459.657299,814.226536,10584.944971
3752.813924,0.000000,1036.288319,10510.924376
3752.814239,0.000000,518.144159,9992.780217
3752.814553,0.000000,814.226536,10288.862594
3752.814868,0.000000,962.267725,10214.842000
3752.815183,-153.219100,1332.370696,10288.862594
3752.815497,0.000000,1702.473667,9696.697840
3752.815812,0.000000,1406.391290,9548.656652
3752.816127,383.047749,1480.411884,9844.739029
3752.816441,536.266849,592.164754,9326.594869
3752.816756,153.219100,962.267725,9178.553681
3752.817071,229.828649,296.082377,9844.739029
3752.817385,0.000000,-74.020594,10140.821405
3752.817700,-383.047749,-148.041188,10140.821405
3752.818015,-612.876398,-0.000000,9178.553681
3752.818329,-306.438199,-0.000000,8956.491898
3752.818644,-229.828649,-370.102971,9326.594869
3752.818959,0.000000,-666.185348,9696.697840
3752.819273,0.000000,-370.102971,9326.594869
3752.819588,229.828649,-370.102971,9474.636058
3752.819903,306.438199,148.041188,9770.718434
3752.820217,306.438199,518.144159,9474.636058
3752.820532,306.438199,518.144159,9104.533087
3752.820847,766.095498,296.082377,8808.450710
3752.821161,459.657299,-592.164754,9178.553681
3752.821476,995.924147,-370.102971,9030.512492
3752.821791,842.705048,-518.144159,9104.533087
3752.822105,383.047749,-888.247130,9474.636058
3752.822420,0.000000,-888.247130,9474.636058
3752.822735,0.000000,-666.185348,8956.491898
3752.823049,-229.828649,-592.164754,8586.388927
3752.823364,0.000000,-666.185348,9474.636058
3752.823679,306.438199,-1258.350101,8956.491898
3752.823993,383.047749,-1406.391290,8882.471304
3752.824308,0.000000,-1332.370696,9474.636058
3752.824623,0.000000,-1702.473667,10066.800811
3752.824937,0.000000,-1332.370696,10214.842000
3752.825252,0.000000,-814.226536,9622.677246
3752.825567,383.047749,-0.000000,9548.656652
3752.825881,536.266849,222.061783,9326.594869
3752.826196,612.876398,-0.000000,9474.636058
3752.826511,459.657299,-74.020594,9474.636058
3752.826825,306.438199,-370.102971,9548.656652
3752.827140,536.266849,-962.267725,10140.821405
3752.827455,459.657299,-518.144159,10140.821405
3752.827769,306.438199,-0.000000,9918.759623
3752.828084,0.000000,-74.020594,8808.450710
3752.828399,-306.438199,-296.082377,9030.512492
3752.828713,-153.219100,-888.247130,9622.677246
3752.829028,-459.657299,-592.164754,9622.677246
3752.829343,-459.657299,-1110.308913,9918.759623
3752.829657,-536.266849,-888.247130,10140.821405
3752.829972,0.000000,-814.226536,10066.800811
3752.830287,-383.047749,-444.123565,9548.656652
3752.830601,0.000000,1184.329507,9400.615463
3752.830916,536.266849,1480.411884,9992.780217
3752.831231,689.485948,1702.473667,9548.656652
3752.831545,1378.971896,1480.411884,9178.553681
3752.831860,995.924147,1184.329507,9178.553681
3752.832175,842.705048,740.205942,9696.697840
3752.832489,383.047749,1184.329507,9474.636058
3752.832804,-306.438199,518.144159,9474.636058
3752.833119,-536.266849,222.061783,9548.656652
3752.833433,-459.657299,-0.000000,9400.615463
3752.833748,-383.047749,-0.000000,9548.656652
3752.834063,-612.876398,-148.041188,10140.821405
3752.834377,-536.266849,-74.020594,10436.903782
3752.834692,0.000000,-0.000000,9992.780217
3752.835006,-459.657299,592.164754,10214.842000
3752.835321,0.000000,1850.514855,9622.677246
3752.835636,306.438199,1924.535449,9104.533087
3752.835950,1072.533697,2368.659014,9104.533087
3752.836265,842.705048,1850.514855,9400.615463
3752.836580,919.314598,1702.473667,9474.636058
3752.836894,919.314598,1184.329507,9400.615463
3752.837209,536.266849,740.205942,9918.759623
3752.837524,0.000000,814.226536,9770.718434
3752.837838,-612.876398,370.102971,9918.759623
3752.838153,-995.924147,370.102971,9474.636058
3752.838468,-766.095498,-0.000000,10066.800811
3752.838782,-383.047749,-0.000000,9992.780217
3752.839097,-689.485948,-0.000000,9770.718434
3752.839412,-229.828649,-222.061783,10140.821405
3752.839726,0.000000,-0.000000,10510.924376
3752.840041,0.000000,1036.288319,10066.800811
3752.840356,306.438199,1702.473667,9326.594869
3752.840670,612.876398,1628.453072,9104.533087
3752.840985,1378.971896,1036.288319,9030.512492
3752.841300,1378.971896,740.205942,9326.594869
3752.841614,1455.581446,740.205942,9326.594869
3752.841929,842.705048,-0.000000,9696.697840
3752.842244,842.705048,-0.000000,10140.821405
3752.842558,76.609550,518.144159,9400.615463
3752.842873,-306.438199,-0.000000,9400.615463
3752.843188,-306.438199,-74.020594,9326.594869
3752.843502,459.657299,-592.164754,9696.697840
3752.843817,0.000000,-592.164754,9622.677246
3752.844132,0.000000,-370.102971,9622.677246
3752.844446,76.609550,-592.164754,9696.697840
3752.844761,383.047749,-148.041188,10140.821405
3752.845076,689.485948,-0.000000,9548.656652
3752.845390,306.438199,814.226536,8882.471304
3752.845705,459.657299,518.144159,8808.450710
3752.846020,1072.533697,370.102971,9474.636058
3752.846334,919.314598,370.102971,9252.574275
3752.846649,459.657299,-0.000000,9770.718434
3752.846964,306.438199,-444.123565,9474.636058
3752.847278,-76.609550,-740.205942,10288.862594
3752.847593,-383.047749,-444.123565,9992.780217
3752.847908,-536.266849,-148.041188,9400.615463
3752.848222,-536.266849,-1332.370696,9474.636058
3752.848537,-306.438199,-1406.391290,9548.656652
3752.848852,-229.828649,-1184.329507,9474.636058
3752.849166,-383.047749,-1036.288319,9400.615463
3752.849481,-459.657299,-1184.329507,9696.697840
3752.849796,0.000000,-1036.288319,9696.697840
3752.850110,-306.438199,-148.041188,9104.533087
3752.850425,-229.828649,222.061783,9178.553681
3752.850740,153.219100,-296.082377,9252.574275
3752.851054,383.047749,-370.102971,9400.615463
3752.851369,383.047749,-370.102971,9252.574275
3752.851684,306.438199,-518.144159,9474.636058
3752.851998,383.047749,-888.247130,9844.739029
3752.852313,0.000000,-1036.288319,9918.759623
3752.852628,-459.657299,-592.164754,9548.656652
3752.852942,-612.876398,-740.205942,9474.636058
3752.853257,-383.047749,-296.082377,9030.512492
3752.853572,-306.438199,-518.144159,9770.718434
3752.853886,-229.828649,-814.226536,9696.697840
3752.854201,229.828649,-1332.370696,9548.656652
3752.854516,76.609550,-1036.288319,9474.636058
3752.854830,306.438199,-666.185348,9844.739029
3752.855145,229.828649,518.144159,9474.636058
3752.855459,76.609550,296.082377,9104.533087
3752.855774,612.876398,814.226536,9252.574275
3752.856089,689.485948,518.144159,9252.574275
3752.856403,459.657299,666.185348,9104.533087
3752.856718,459.657299,296.082377,9474.636058
3752.857033,229.828649,370.102971,9844.739029
3752.857347,383.047749,-0.000000,10066.800811
3752.857662,0.000000,740.205942,9326.594869
3752.857977,-153.219100,740.205942,8956.491898
3752.858291,306.438199,666.185348,9770.718434
3752.858606,229.828649,370.102971,9326.594869
3752.858921,153.219100,370.102971,9474.636058
3752.859235,153.219100,-0.000000,9770.718434
3752.859550,229.828649,-0.000000,10066.800811
3752.859865,229.828649,1036.288319,9770.718434
3752.860179,0.000000,1480.411884,9400.615463
3752.860494,76.609550,1258.350101,9548.656652
3752.860809,536.266849,1258.350101,10140.821405
3752.861123,536.266849,962.267725,9696.697840
3752.861438,536.266849,1332.370696,9992.780217
3752.861753,536.266849,1184.329507,9918.759623
3752.862067,612.876398,1184.329507,10214.842000
3752.862382,76.609550,1702.473667,10214.842000
3752.862697,76.609550,1702.473667,9474.636058
3752.863011,459.657299,1184.329507,9030.512492
3752.863326,459.657299,814.226536,9548.656652
3752.863641,612.876398,1110.308913,10066.800811
3752.863955,459.657299,518.144159,9770.718434
3752.864270,0.000000,518.144159,9696.697840
3752.864585,0.000000,518.144159,10732.986159
3752.864899,-153.219100,962.267725,10362.883188
3752.865214,-536.266849,1258.350101,9622.677246
3752.865529,76.609550,1332.370696,9474.636058
3752.865843,229.828649,1332.370696,10066.800811
3752.866158,689.485948,1184.329507,10066.800811
3752.866473,612.876398,814.226536,9844.739029
3752.866787,995.924147,888.247130,9844.739029
3752.867102,459.657299,-0.000000,10066.800811
3752.867417,766.095498,1036.288319,9400.615463
3752.867731,76.609550,1184.329507,8956.491898
3752.868046,0.000000,592.164754,9696.697840
3752.868361,0.000000,-0.000000,9474.636058
3752.868675,-306.438199,-444.123565,9326.594869
3752.868990,0.000000,-592.164754,9622.677246
3752.869305,-459.657299,-740.205942,10214.842000
3752.869619,-229.828649,-592.164754,10510.924376
3752.869934,-383.047749,-148.041188,9770.718434
3752.870249,-536.266849,296.082377,9252.574275
3752.870563,76.609550,-0.000000,9104.533087
3752.870878,536.266849,-148.041188,9030.512492
3752.871192,766.095498,222.061783,9326.594869
3752.871507,459.657299,-0.000000,8882.471304
3752.871822,612.876398,-296.082377,9548.656652
3752.872136,306.438199,-370.102971,9252.574275
3752.872451,153.219100,222.061783,9030.512492
3752.872766,0.000000,-296.082377,9030.512492
3752.873080,76.609550,-1110.308913,9696.697840
3752.873395,76.609550,-1110.308913,9844.739029
3752.873710,-229.828649,-1036.288319,9030.512492
3752.874024,-383.047749,-1184.329507,9474.636058
3752.874339,-536.266849,-1628.453072,10510.924376
3752.874653,-919.314598,-1406.391290,10066.800811
3752.874968,-612.876398,-1184.329507,9548.656652
3752.875283,-153.219100,-444.123565,9178.553681
3752.875597,229.828649,-444.123565,9326.594869
3752.875912,612.876398,-592.164754,9178.553681
3752.876227,919.314598,-518.144159,8808.450710
3752.876541,689.485948,-666.185348,9548.656652
3752.876856,459.657299,-1036.288319,10066.800811
3752.877171,306.438199,-444.123565,10140.821405
3752.877485,-459.657299,-296.082377,9474.636058
3752.877800,-766.095498,-296.082377,9474.636058
3752.878115,-766.095498,-666.185348,9918.759623
3752.878429,-229.828649,-740.205942,10066.800811
3752.878744,-383.047749,-1110.308913,9992.780217
3752.879058,-383.047749,-740.205942,9474.636058
3752.879373,0.000000,-1184.329507,10214.842000
3752.879688,0.000000,-148.041188,9844.739029
3752.880002,153.219100,592.164754,9474.636058
3752.880317,0.000000,666.185348,8808.450710
3752.880632,536.266849,370.102971,9104.533087
3752.880946,1072.533697,296.082377,9104.533087
3752.881261,766.095498,370.102971,9178.553681
3752.881576,919.314598,-0.000000,9178.553681
3752.881890,383.047749,-0.000000,9844.739029
3752.882205,0.000000,370.102971,9770.718434
3752.882519,-536.266849,-0.000000,9474.636058
3752.882834,0.000000,518.144159,9474.636058
3752.883149,153.219100,222.061783,10066.800811
3752.883463,306.438199,222.061783,9696.697840
3752.883778,153.219100,-0.000000,9400.615463
3752.884093,153.219100,518.144159,10288.862594
3752.884407,306.438199,370.102971,10436.903782
3752.884722,383.047749,1110.308913,9696.697840
3752.885037,306.438199,1702.473667,8734.430116
3752.885351,919.314598,1332.370696,8882.471304
3752.885666,995.924147,1480.411884,9252.574275
3752.885980,766.095498,1110.308913,8956.491898
3752.886295,536.266849,592.164754,9548.656652
3752.886610,229.828649,296.082377,10362.883188
3752.886924,306.438199,296.082377,10732.986159
3752.887239,153.219100,1036.288319,9474.636058
3752.887554,-766.095498,962.267725,9474.636058
3752.887868,-459.657299,888.247130,10584.944971
3752.888183,0.000000,814.226536,10140.821405
3752.888498,153.219100,962.267725,10362.883188
3752.888812,0.000000,1184.329507,10362.883188
3752.889127,459.657299,814.226536,10436.903782
3752.889442,536.266849,1554.432478,9992.780217
3752.889756,229.828649,1702.473667,9696.697840
3752.890071,229.828649,1924.535449,9252.574275
3752.890385,383.047749,1184.329507,9474.636058
3752.890700,229.828649,1036.288319,9696.697840
3752.891015,0.000000,518.144159,10066.800811
3752.891329,-153.219100,370.102971,9696.697840
3752.891644,-306.438199,-148.041188,10140.821405
3752.891959,-689.485948,-74.020594,10288.862594
3752.892273,-842.705048,-148.041188,10436.903782
3752.892588,-842.705048,296.082377,9326.594869
3752.892903,-229.828649,148.041188,9622.677246
3752.893217,153.219100,296.082377,10066.800811
3752.893532,306.438199,148.041188,9696.697840
3752.893846,383.047749,148.041188,9770.718434
3752.894161,842.705048,296.082377,9548.656652
3752.894476,689.485948,518.144159,9622.677246
3752.894790,995.924147,814.226536,9178.553681
3752.895105,766.095498,740.205942,8586.388927
3752.895420,536.266849,148.041188,9400.615463
3752.895734,383.047749,-666.185348,9474.636058
3752.896049,76.609550,-740.205942,9474.636058
3752.896364,-306.438199,-962.267725,9548.656652
3752.896678,0.000000,-888.247130,10362.883188
3752.896993,306.438199,-592.164754,9770.718434
3752.897307,-229.828649,-296.082377,8882.471304
3752.897622,0.000000,-814.226536,9104.533087
3752.897937,306.438199,-1406.391290,8956.491898
3752.898251,689.485948,-666.185348,9030.512492
3752.898566,612.876398,-444.123565,9400.615463
3752.898881,689.485948,-518.144159,9474.636058
3752.899195,383.047749,-592.164754,9622.677246
3752.899510,383.047749,-740.205942,9326.594869
3752.899825,306.438199,-296.082377,9104.533087
3752.900139,0.000000,-148.041188,9326.594869
3752.900454,76.609550,-592.164754,9696.697840
3752.900769,76.609550,-740.205942,9474.636058
3752.901083,153.219100,-1110.308913,9474.636058
3752.901398,-153.219100,-962.267725,9696.697840
3752.901712,0.000000,-1258.350101,9622.677246
3752.902027,76.609550,-740.205942,9696.697840
3752.902342,383.047749,-222.061783,9030.512492
3752.902656,229.828649,-518.144159,9030.512492
3752.902971,0.000000,-444.123565,9178.553681
3752.903286,0.000000,-296.082377,9252.574275
3752.903600,-229.828649,-518.144159,9770.718434
3752.903915,-229.828649,-666.185348,9844.739029
3752.904230,0.000000,-740.205942,10214.842000
3752.904544,-306.438199,-0.000000,9918.759623
3752.904859,-306.438199,888.247130,9474.636058
3752.905173,-153.219100,888.247130,9252.574275
3752.905488,383.047749,-0.000000,9474.636058
3752.905803,306.438199,-0.000000,9104.533087
3752.906117,306.438199,-0.000000,9474.636058
3752.906432,153.219100,-74.020594,9326.594869
3752.906747,229.828649,-0.000000,9770.718434
3752.907061,-229.828649,1258.350101,9474.636058
3752.907376,0.000000,1036.288319,8882.471304
3752.907691,0.000000,740.205942,9474.636058
3752.908005,76.609550,296.082377,9992.780217
3752.908320,0.000000,-0.000000,9992.780217
3752.908634,0.000000,-0.000000,9992.780217
3752.908949,-153.219100,740.205942,10362.883188
3752.909264,-306.438199,592.164754,10584.944971
3752.909578,0.000000,1110.308913,10140.821405
3752.909893,0.000000,1850.514855,9622.677246
3752.910208,536.266849,1554.432478,9104.533087
3752.910522,1072.533697,1332.370696,9474.636058
3752.910837,995.924147,1406.391290,9326.594869
3752.911152,612.876398,814.226536,9696.697840
3752.911466,689.485948,-0.000000,10066.800811
3752.911781,0.000000,444.123565,10362.883188
3752.912096,-76.609550,1110.308913,9844.739029
3752.912410,-766.095498,1258.350101,9622.677246
3752.912725,-536.266849,1036.288319,9992.780217
3752.913039,-153.219100,296.082377,10140.821405
3752.913354,153.219100,-0.000000,10066.800811
3752.913669,153.219100,-74.020594,10066.800811
3752.913983,0.000000,370.102971,10140.821405
3752.914298,842.705048,518.144159,9992.780217
3752.914613,229.828649,1184.329507,9326.594869
3752.914927,306.438199,2220.617826,9030.512492
3752.915242,766.095498,1110.308913,9252.574275
3752.915557,919.314598,962.267725,9474.636058
3752.915871,1302.362347,666.185348,9474.636058
3752.916186,919.314598,592.164754,9030.512492
3752.916500,459.657299,148.041188,9622.677246
3752.916815,153.219100,-0.000000,9992.780217
3752.917130,-536.266849,-0.000000,9548.656652
3752.917444,-536.266849,444.123565,9178.553681
3752.917759,-306.438199,-0.000000,9474.636058
3752.918074,459.657299,-222.061783,9548.656652
3752.918388,383.047749,-222.061783,9770.718434
3752.918703,306.438199,-296.082377,10288.862594
3752.919018,536.266849,-148.041188,10510.924376
3752.919332,153.219100,370.102971,9770.718434
3752.919647,306.438199,1332.370696,9548.656652
3752.919961,766.095498,1332.370696,8956.491898
3752.920276,1072.533697,888.247130,9252.574275
3752.920591,689.485948,370.102971,8734.430116
3752.920905,766.095498,-518.144159,8882.471304
3752.921220,689.485948,-370.102971,9474.636058
3752.921535,0.000000,-814.226536,9622.677246
3752.921849,-383.047749,-888.247130,9992.780217
3752.922164,-842.705048,-888.247130,9622.677246
3752.922479,-689.485948,-666.185348,9548.656652
3752.922793,-306.438199,-1036.288319,9548.656652
3752.923108,-383.047749,-666.185348,10362.883188
3752.923423,-383.047749,-518.144159,10362.883188
3752.923737,-306.438199,-740.205942,9474.636058
3752.924052,0.000000,-444.123565,9918.759623
3752.924366,459.657299,-444.123565,9252.574275
3752.924681,229.828649,444.123565,8956.491898
3752.924996,0.000000,222.061783,9252.574275
3752.925310,306.438199,-370.102971,9030.512492
3752.925625,459.657299,-296.082377,9178.553681
3752.925940,0.000000,-444.123565,9252.574275
3752.926254,-306.438199,-1258.350101,9548.656652
3752.926569,-536.266849,-1554.432478,10658.965565
3752.926884,-1302.362347,-1258.350101,10362.883188
3752.927198,-1532.190996,-888.247130,9992.780217
3752.927513,-1149.143247,-296.082377,9400.615463
3752.927827,-689.485948,-518.144159,9844.739029
3752.928142,0.000000,-0.000000,9844.739029
3752.928457,383.047749,-592.164754,9326.594869
3752.928771,459.657299,-0.000000,9400.615463
3752.929086,689.485948,-0.000000,9474.636058
3752.929401,1149.143247,592.164754,9400.615463
3752.929715,919.314598,1332.370696,8364.327145
3752.930030,919.314598,592.164754,8512.368333
3752.930345,919.314598,222.061783,9252.574275
3752.930659,689.485948,-74.020594,9326.594869
3752.930974,-229.828649,-148.041188,9622.677246
3752.931288,-459.657299,-666.185348,10066.800811
3752.931603,-689.485948,-592.164754,10732.986159
3752.931918,-995.924147,-74.020594,10066.800811
3752.932232,-919.314598,-0.000000,9548.656652
3752.932547,-459.657299,-0.000000,10066.800811
3752.932862,-229.828649,-222.061783,9548.656652
3752.933176,76.609550,666.185348,9326.594869
3752.933491,612.876398,740.205942,9474.636058
3752.933806,842.705048,888.247130,9918.759623
3752.934120,1149.143247,1406.391290,9770.718434
3752.934435,689.485948,1702.473667,9030.512492
3752.934750,919.314598,1702.473667,9252.574275
3752.935064,536.266849,962.267725,9030.512492
3752.935379,536.266849,814.226536,9474.636058
3752.935693,229.828649,444.123565,9622.677246
3752.936008,383.047749,-296.082377,9844.739029
3752.936323,0.000000,-296.082377,9770.718434
3752.936637,0.000000,-0.000000,10362.883188
3752.936952,0.000000,592.164754,9622.677246
3752.937267,-229.828649,1110.308913,9252.574275
3752.937581,383.047749,814.226536,9326.594869
3752.937896,536.266849,370.102971,10288.862594
3752.938211,919.314598,814.226536,9178.553681
3752.938525,919.314598,666.185348,9474.636058
3752.938840,1072.533697,1110.308913,9770.718434
3752.939154,1149.143247,1332.370696,10288.862594
3752.939469,689.485948,1998.556043,9918.759623
3752.939784,842.705048,1702.473667,9622.677246
3752.940098,689.485948,1258.350101,9918.759623
3752.940413,919.314598,592.164754,9992.780217
3752.940728,689.485948,592.164754,10066.800811
3752.941042,383.047749,296.082377,9622.677246
3752.941357,306.438199,-74.020594,9844.739029
3752.941672,229.828649,148.041188,10140.821405
3752.941986,-153.219100,518.144159,9770.718434
3752.942301,76.609550,888.247130,9104.533087
3752.942615,76.609550,518.144159,9474.636058
3752.942930,153.219100,592.164754,9770.718434
3752.943245,0.000000,-148.041188,9548.656652
3752.943559,0.000000,-0.000000,9696.697840
3752.943874,-306.438199,-370.102971,10214.842000
3752.944189,-76.609550,370.102971,9622.677246
3752.944503,-229.828649,518.144159,9622.677246
3752.944818,-612.876398,666.185348,9474.636058
3752.945133,-536.266849,-0.000000,9474.636058
3752.945447,76.609550,-0.000000,9918.759623
3752.945762,76.609550,-222.061783,9326.594869
3752.946077,76.609550,-444.123565,9844.739029
3752.946391,0.000000,-444.123565,9548.656652
3752.946706,-689.485948,-518.144159,9474.636058
3752.947020,-766.095498,296.082377,8734.430116
3752.947335,-153.219100,-0.000000,9326.594869
3752.947650,-383.047749,-888.247130,9400.615463
3752.947964,-306.438199,-740.205942,9474.636058
3752.948279,-306.438199,-962.267725,9474.636058
3752.948594,-459.657299,-1480.411884,9844.739029
3752.948908,-459.657299,-962.267725,9992.780217
3752.949223,-459.657299,-666.185348,9696.697840
3752.949538,-689.485948,-148.041188,9178.553681
3752.949852,-153.219100,-666.185348,8734.430116
3752.950167,0.000000,-592.164754,9104.533087
3752.950481,76.609550,-518.144159,8956.491898
3752.950796,306.438199,-814.226536,9474.636058
3752.951111,383.047749,-518.144159,9474.636058
3752.951425,306.438199,-666.185348,9474.636058
3752.951740,383.047749,-296.082377,9474.636058
3752.952055,0.000000,-222.061783,9178.553681
3752.952369,229.828649,-370.102971,9252.574275
3752.952684,229.828649,-740.205942,9474.636058
3752.952999,306.438199,-740.205942,9474.636058
3752.953313,0.000000,-888.247130,9696.697840
3752.953628,-229.828649,-592.164754,10658.965565
3752.953942,0.000000,-370.102971,10510.924376
3752.954257,-459.657299,592.164754,9844.739029
3752.954572,459.657299,666.185348,9548.656652
3752.954886,536.266849,666.185348,9104.533087
3752.955201,995.924147,518.144159,9548.656652
3752.955516,1149.143247,888.247130,9400.615463
3752.955830,1072.533697,444.123565,9326.594869
3752.956145,1149.143247,-0.000000,9252.574275
3752.956460,1302.362347,666.185348,9696.697840
3752.956774,766.095498,888.247130,9622.677246
3752.957089,612.876398,962.267725,8586.388927
3752.957404,229.828649,370.102971,9104.533087
3752.957718,383.047749,-222.061783,10140.821405
3752.958033,0.000000,-74.020594,9992.780217
3752.958347,-229.828649,-148.041188,10214.842000
3752.958662,-306.438199,-296.082377,10510.924376
3752.958977,-229.828649,370.102971,10732.986159
3752.959291,0.000000,962.267725,9992.780217
3752.959606,76.609550,1480.411884,9326.594869
3752.959921,766.095498,1776.494261,9770.718434
3752.960235,1149.143247,1406.391290,9400.615463
3752.960550,995.924147,814.226536,9104.533087
3752.960865,995.924147,1036.288319,9178.553681
3752.961179,612.876398,666.185348,9844.739029
3752.961494,0.000000,1036.288319,10066.800811
3752.961808,-383.047749,962.267725,9696.697840
3752.962123,-995.924147,888.247130,9548.656652
3752.962438,-689.485948,666.185348,9474.636058
3752.962752,-766.095498,-0.000000,10288.862594
3752.963067,-766.095498,-444.123565,10732.986159
3752.963382,-766.095498,-518.144159,10584.944971
3752.963696,-536.266849,148.041188,10658.965565
3752.964011,-306.438199,740.205942,9918.759623
3752.964326,-459.657299,1702.473667,9696.697840
3752.964640,0.000000,1998.556043,9104.533087
3752.964955,229.828649,1850.514855,9326.594869
3752.965269,919.314598,1480.411884,9474.636058
3752.965584,919.314598,962.267725,9548.656652
3752.965899,459.657299,518.144159,9104.533087
3752.966213,76.609550,-222.061783,10140.821405
3752.966528,-229.828649,-0.000000,9918.759623
3752.966843,-689.485948,148.041188,9474.636058
3752.967157,-612.876398,-0.000000,9326.594869
3752.967472,-306.438199,-370.102971,9918.759623
3752.967787,0.000000,-148.041188,9326.594869
3752.968101,-229.828649,-592.164754,9326.594869
3752.968416,0.000000,-444.123565,9178.553681
3752.968731,153.219100,-740.205942,10362.883188
3752.969045,229.828649,-0.000000,9992.780217
3752.969360,459.657299,518.144159,9474.636058
3752.969674,766.095498,592.164754,9474.636058
3752.969989,1149.143247,518.144159,9622.677246
3752.970304,1302.362347,518.144159,9104.533087
3752.970618,919.314598,-148.041188,9474.636058
3752.970933,689.485948,-518.144159,9326.594869
3752.971248,612.876398,-1110.308913,9696.697840
3752.971563,153.219100,-962.267725,9474.636058
3752.971877,-612.876398,-592.164754,9178.553681
3752.972192,-229.828649,-814.226536,9474.636058
3752.972507,-536.266849,-962.267725,9770.718434
3752.972822,-536.266849,-962.267725,9252.574275
3752.973136,536.266849,-1332.370696,9548.656652
3752.973451,383.047749,-1036.288319,9622.677246
3752.973766,536.266849,-814.226536,9770.718434
3752.974080,153.219100,-74.020594,9844.739029
3752.974395,153.219100,370.102971,9178.553681
3752.974710,306.438199,-74.020594,9326.594869
3752.975025,766.095498,-444.123565,10288.862594
3752.975339,766.095498,-296.082377,9474.636058
3752.975654,919.314598,-296.082377,9474.636058
3752.975969,842.705048,-444.123565,9622.677246
3752.976284,383.047749,-592.164754,9844.739029
3752.976598,383.047749,-296.082377,10066.800811
3752.976913,0.000000,-222.061783,9252.574275
3752.977228,-306.438199,-518.144159,8808.450710
3752.977542,-229.828649,-962.267725,9104.533087
3752.977857,76.609550,-296.082377,9548.656652
3752.978172,76.609550,-444.123565,9252.574275
3752.978487,229.828649,-666.185348,9918.759623
3752.978801,153.219100,-148.041188,9474.636058
3752.979116,-229.828649,-0.000000,9474.636058
3752.979431,-306.438199,1110.308913,8734.430116
3752.979746,0.000000,740.205942,9548.656652
3752.980060,0.000000,666.185348,9622.677246
3752.980375,689.485948,962.267725,9696.697840
3752.980690,76.609550,814.226536,9474.636058
3752.981004,0.000000,-0.000000,10214.842000
3752.981319,0.000000,370.102971,10214.842000
3752.981634,-459.657299,888.247130,9548.656652
3752.981949,-995.924147,1628.453072,9178.553681
3752.982263,-1072.533697,1036.288319,9326.594869
3752.982578,-459.657299,444.123565,10066.800811
3752.982893,-306.438199,296.082377,9252.574275
3752.983208,-306.438199,370.102971,9474.636058
3752.983522,-919.314598,592.164754,9918.759623
3752.983837,-689.485948,666.185348,10288.862594
3752.984152,-306.438199,1110.308913,9770.718434
3752.984467,-612.876398,1036.288319,9622.677246
3752.984781,0.000000,1110.308913,9918.759623
3752.985096,383.047749,962.267725,10214.842000
3752.985411,229.828649,1110.308913,9622.677246
3752.985725,459.657299,814.226536,9918.759623
3752.986040,459.657299,1184.329507,10214.842000
3752.986355,76.609550,1332.370696,10510.924376
3752.986670,0.000000,1776.494261,9474.636058
3752.986984,153.219100,1110.308913,9326.594869
3752.987299,536.266849,666.185348,9844.739029
3752.987614,383.047749,296.082377,9844.739029
3752.987929,0.000000,-0.000000,10140.821405
3752.988243,0.000000,-296.082377,9844.739029
3752.988558,-229.828649,-370.102971,10658.965565
3752.988873,-229.828649,-0.000000,10140.821405
3752.989187,-536.266849,814.226536,9548.656652
3752.989502,0.000000,666.185348,9474.636058
3752.989817,229.828649,370.102971,9770.718434
3752.990132,459.657299,518.144159,9400.615463
3752.990446,919.314598,444.123565,9178.553681
3752.990761,1225.752797,518.144159,9252.574275
3752.991076,1685.410096,444.123565,9400.615463
3752.991391,995.924147,666.185348,9326.594869
3752.991705,612.876398,1332.370696,8882.471304
3752.992020,612.876398,814.226536,8586.388927
3752.992335,689.485948,-0.000000,9474.636058
3752.992649,766.095498,-740.205942,9696.697840
3752.992964,612.876398,-1036.288319,9696.697840
3752.993279,459.657299,-888.247130,9992.780217
3752.993594,153.219100,-666.185348,10362.883188
3752.993908,842.705048,-370.102971,10214.842000
3752.994223,995.924147,-296.082377,8364.327145
3752.994538,1072.533697,222.061783,8290.306550
3752.994853,1838.629195,296.082377,9178.553681
3752.995167,1685.410096,-0.000000,8882.471304
3752.995482,1608.800546,-148.041188,9104.533087
3752.995797,1149.143247,-444.123565,9474.636058
3752.996111,1302.362347,-444.123565,9992.780217
3752.996426,612.876398,-74.020594,9474.636058
3752.996741,459.657299,-148.041188,9252.574275
3752.997056,1072.533697,-888.247130,9696.697840
3752.997370,229.828649,-1480.411884,9992.780217
3752.997685,-306.438199,-1184.329507,9474.636058
3752.998000,0.000000,-814.226536,9696.697840
3752.998315,-1225.752797,-962.267725,9992.780217
3752.998629,-1072.533697,-1184.329507,10140.821405
3752.998944,-1302.362347,-740.205942,9992.780217
3752.999259,-1072.533697,-518.144159,9622.677246
3752.999574,-612.876398,-296.082377,9696.697840
3752.999888,0.000000,-296.082377,9622.677246
3753.000203,-459.657299,-296.082377,10066.800811
3753.000518,-612.876398,-370.102971,9548.656652
3753.000832,-536.266849,-444.123565,9548.656652
3753.001147,-612.876398,-296.082377,9696.697840
3753.001462,-612.876398,74.020594,9104.533087
3753.001777,-995.924147,222.061783,8808.450710
3753.002091,-919.314598,-0.000000,9030.512492
3753.002406,-919.314598,-370.102971,9326.594869
3753.002721,-842.705048,-888.247130,9474.636058
3753.003036,-1149.143247,-814.226536,9696.697840
3753.003350,-995.924147,-1110.308913,10436.903782
3753.003665,-766.095498,-0.000000,10140.821405
3753.003980,-153.219100,1332.370696,9178.553681
3753.004294,0.000000,1554.432478,8660.409521
3753.004609,383.047749,1184.329507,9326.594869
3753.004924,229.828649,814.226536,9030.512492
3753.005239,612.876398,888.247130,8808.450710
3753.005553,536.266849,592.164754,9178.553681
3753.005868,306.438199,296.082377,9918.759623
3753.006183,76.609550,296.082377,10214.842000
3753.006498,-536.266849,888.247130,9474.636058
3753.006812,-842.705048,592.164754,9696.697840
3753.007127,-383.047749,-0.000000,9696.697840
3753.007442,153.219100,-0.000000,9918.759623
3753.007756,459.657299,-74.020594,9844.739029
3753.008071,459.657299,-0.000000,9918.759623
3753.008386,612.876398,-0.000000,9548.656652
3753.008701,689.485948,518.144159,9622.677246
3753.009015,459.657299,1480.411884,9400.615463
3753.009330,1149.143247,1776.494261,9104.533087
3753.009645,1455.581446,1036.288319,9178.553681
3753.009960,1455.581446,962.267725,9326.594869
3753.010274,1225.752797,740.205942,9770.718434
3753.010589,766.095498,-0.000000,9770.718434
3753.010904,306.438199,-518.144159,10732.986159
3753.011219,76.609550,-0.000000,10362.883188
3753.011533,-229.828649,592.164754,10436.903782
3753.011848,0.000000,962.267725,9918.759623
3753.012163,383.047749,814.226536,9992.780217
3753.012477,689.485948,1110.308913,9770.718434
3753.012792,766.095498,888.247130,9770.718434
3753.013107,842.705048,666.185348,9400.615463
3753.013422,1532.190996,-0.000000,9622.677246
3753.013736,1149.143247,814.226536,9622.677246
3753.014051,995.924147,1258.350101,9178.553681
3753.014366,995.924147,1258.350101,9030.512492
3753.014681,1225.752797,1110.308913,9548.656652
3753.014995,995.924147,666.185348,9326.594869
3753.015310,689.485948,518.144159,9548.656652
3753.015625,0.000000,-222.061783,9770.718434
3753.015939,0.000000,-0.000000,10510.924376
3753.016254,-919.314598,-74.020594,9992.780217
3753.016569,-919.314598,444.123565,9770.718434
3753.016884,-459.657299,666.185348,9992.780217
3753.017198,-306.438199,518.144159,9622.677246
3753.017513,76.609550,296.082377,9696.697840
3753.017828,0.000000,-74.020594,9400.615463
3753.018143,153.219100,-0.000000,9400.615463
3753.018457,0.000000,148.041188,9844.739029
3753.018772,-536.266849,740.205942,9400.615463
3753.019087,-612.876398,370.102971,9030.512492
3753.019401,-766.095498,296.082377,8956.491898
3753.019716,-612.876398,-296.082377,9400.615463
3753.020031,-612.876398,-888.247130,9474.636058
3753.020346,-919.314598,-1184.329507,9474.636058
3753.020660,-689.485948,-1406.391290,9622.677246
3753.020975,-842.705048,-888.247130,10288.862594
3753.021290,-919.314598,-666.185348,9548.656652
3753.021605,-1072.533697,-296.082377,9400.615463
3753.021919,-459.657299,-592.164754,9548.656652
3753.022234,-459.657299,-370.102971,9474.636058
3753.022549,153.219100,-740.205942,9178.553681
3753.022863,153.219100,-444.123565,9178.553681
3753.023178,306.438199,-666.185348,9770.718434
3753.023493,383.047749,-666.185348,9770.718434
3753.023808,383.047749,-296.082377,8956.491898
3753.024122,-306.438199,-0.000000,9252.574275
3753.024437,76.609550,-148.041188,9622.677246
3753.024752,0.000000,-888.247130,9326.594869
3753.025067,306.438199,-1110.308913,9474.636058
3753.025381,306.438199,-1332.370696,9474.636058
3753.025696,0.000000,-1480.411884,9844.739029
3753.026011,0.000000,-1036.288319,10140.821405
3753.026326,0.000000,-0.000000,9622.677246
3753.026640,153.219100,370.102971,9104.533087
3753.026955,766.095498,296.082377,9030.512492
3753.027270,689.485948,370.102971,8882.471304
3753.027584,612.876398,-148.041188,9326.594869
3753.027899,766.095498,-222.061783,9696.697840
3753.028214,536.266849,-370.102971,9918.759623
3753.028529,0.000000,-0.000000,10288.862594
3753.028843,-229.828649,666.185348,9474.636058
3753.029158,229.828649,592.164754,9474.636058
3753.029473,612.876398,296.082377,9770.718434
3753.029788,229.828649,222.061783,9400.615463
3753.030102,153.219100,222.061783,9104.533087
3753.030417,306.438199,-0.000000,9622.677246
3753.030732,153.219100,148.041188,9844.739029
3753.031046,459.657299,370.102971,9696.697840
3753.031361,0.000000,518.144159,9844.739029
3753.031676,0.000000,444.123565,9400.615463
3753.031991,689.485948,444.123565,9548.656652
3753.032305,306.438199,814.226536,9622.677246
3753.032620,536.266849,296.082377,9696.697840
3753.032935,1378.971896,-74.020594,9992.780217
3753.033250,536.266849,370.102971,9844.739029
3753.033564,689.485948,1036.288319,9844.739029
3753.033879,153.219100,1110.308913,9548.656652
3753.034194,76.609550,962.267725,9474.636058
3753.034508,383.047749,740.205942,9326.594869
3753.034823,612.876398,888.247130,9548.656652
3753.035138,459.657299,740.205942,9844.739029
3753.035453,153.219100,148.041188,9474.636058
3753.035767,0.000000,-0.000000,9770.718434
3753.036082,-153.219100,888.247130,9696.697840
3753.036397,-766.095498,1110.308913,9474.636058
3753.036712,-536.266849,1036.288319,9696.697840
3753.037026,-229.828649,740.205942,10214.842000
3753.037341,0.000000,814.226536,10362.883188
3753.037656,0.000000,962.267725,9918.759623
3753.037970,-383.047749,888.247130,10140.821405
3753.038285,0.000000,888.247130,10732.986159
3753.038600,-383.047749,1258.350101,9992.780217
3753.038915,-383.047749,1628.453072,9474.636058
3753.039229,0.000000,1332.370696,9548.656652
3753.039544,76.609550,814.226536,9474.636058
3753.039859,76.609550,962.267725,9622.677246
3753.040174,76.609550,740.205942,9326.594869
3753.040488,229.828649,-0.000000,9696.697840
3753.040803,383.047749,-0.000000,9622.677246
3753.041118,229.828649,666.185348,9474.636058
3753.041433,-229.828649,1258.350101,8956.491898
3753.041747,-153.219100,370.102971,9326.594869
3753.042062,229.828649,-0.000000,9696.697840
3753.042377,306.438199,-74.020594,9844.739029
3753.042691,306.438199,-148.041188,9696.697840
3753.043006,612.876398,-444.123565,10066.800811
3753.043321,306.438199,-0.000000,9770.718434
3753.043636,153.219100,740.205942,9918.759623
3753.043950,229.828649,962.267725,9104.533087
3753.044265,842.705048,296.082377,9178.553681
3753.044580,842.705048,-0.000000,9326.594869
3753.044895,919.314598,-370.102971,9178.553681
3753.045209,689.485948,-296.082377,8882.471304
3753.045524,153.219100,-1332.370696,9474.636058
3753.045839,0.000000,-962.267725,9918.759623
3753.046153,-612.876398,-740.205942,9992.780217
3753.046468,-229.828649,-592.164754,9104.533087
3753.046783,-383.047749,-1110.308913,9844.739029
3753.047098,0.000000,-962.267725,9474.636058
3753.047412,0.000000,-1184.329507,10214.842000
3753.047727,76.609550,-1184.329507,10140.821405
3753.048042,76.609550,-1258.350101,9992.780217
3753.048357,383.047749,-296.082377,9770.718434
3753.048671,459.657299,74.020594,9104.533087
3753.048986,459.657299,222.061783,8660.409521
3753.049301,919.314598,-370.102971,9178.553681
3753.049615,1302.362347,-740.205942,9326.594869
3753.049930,459.657299,-444.123565,8956.491898
3753.050245,459.657299,-814.226536,8882.471304
3753.050560,0.000000,-1258.350101,9474.636058
3753.050874,-306.438199,-1258.350101,10214.842000
3753.051189,-766.095498,-962.267725,9548.656652
3753.051504,-536.266849,-666.185348,9030.512492
3753.051819,-306.438199,-592.164754,9548.656652
3753.052133,-306.438199,-370.102971,9622.677246
3753.052448,-459.657299,-370.102971,9622.677246
3753.052763,76.609550,-222.061783,9548.656652
3753.053077,229.828649,-592.164754,9844.739029
3753.053392,536.266849,-370.102971,9474.636058
3753.053707,536.266849,740.205942,8512.368333
3753.054022,-229.828649,888.247130,8586.388927
3753.054336,536.266849,296.082377,8956.491898
3753.054651,229.828649,666.185348,8882.471304
3753.054966,153.219100,-74.020594,9104.533087
3753.055281,306.438199,-296.082377,9474.636058
3753.055595,-459.657299,-444.123565,10214.842000
3753.055910,-383.047749,-0.000000,9770.718434
3753.056225,-1225.752797,222.061783,9918.759623
3753.056540,-1149.143247,-0.000000,9548.656652
3753.056854,-689.485948,-296.082377,10288.862594
3753.057169,-153.219100,592.164754,10140.821405
3753.057484,0.000000,296.082377,9622.677246
3753.057798,536.266849,888.247130,9992.780217
3753.058113,612.876398,814.226536,9992.780217
3753.058428,612.876398,1406.391290,9696.697840
3753.058743,459.657299,1702.473667,9696.697840
3753.059057,459.657299,1850.514855,8956.491898
3753.059372,919.314598,1702.473667,9400.615463
3753.059687,536.266849,1258.350101,9400.615463
3753.060002,459.657299,962.267725,9844.739029
3753.060316,-536.266849,222.061783,10140.821405
3753.060631,0.000000,518.144159,10362.883188
3753.060946,-229.828649,1184.329507,10288.862594
3753.061260,-383.047749,1480.411884,9548.656652
3753.061575,-459.657299,1036.288319,10066.800811
3753.061890,0.000000,1332.370696,10436.903782
3753.062205,0.000000,1184.329507,10362.883188
3753.062519,76.609550,1332.370696,10362.883188
3753.062834,306.438199,1258.350101,10510.924376
3753.063149,229.828649,1702.473667,10807.006753
3753.063464,383.047749,1924.535449,9918.759623
3753.063778,459.657299,1776.494261,8734.430116
3753.064093,766.095498,1480.411884,8808.450710
3753.064408,689.485948,962.267725,9474.636058
3753.064722,1072.533697,148.041188,9548.656652
3753.065037,459.657299,-74.020594,9474.636058
3753.065352,0.000000,-444.123565,9696.697840
3753.065667,-153.219100,-296.082377,9770.718434
3753.065981,-536.266849,-0.000000,9400.615463
3753.066296,-229.828649,-0.000000,9474.636058
3753.066611,0.000000,-0.000000,9474.636058
3753.066926,459.657299,222.061783,9918.759623
3753.067240,153.219100,296.082377,9252.574275
3753.067555,459.657299,-0.000000,9548.656652
3753.067870,1072.533697,-74.020594,10140.821405
3753.068184,459.657299,296.082377,9696.697840
3753.068499,383.047749,518.144159,9474.636058
3753.068814,76.609550,444.123565,9474.636058
3753.069129,1149.143247,-0.000000,9104.533087
3753.069443,842.705048,-222.061783,9030.512492
3753.069758,612.876398,-296.082377,8882.471304
3753.070073,536.266849,-518.144159,8956.491898
3753.070388,383.047749,-1406.391290,9474.636058
3753.070702,306.438199,-592.164754,9178.553681
3753.071017,0.000000,-592.164754,9252.574275
3753.071332,-229.828649,-222.061783,8364.327145
3753.071646,153.219100,-814.226536,8956.491898
3753.071961,229.828649,-962.267725,9474.636058
3753.072276,0.000000,-1406.391290,9548.656652
3753.072591,-383.047749,-1036.288319,9548.656652
3753.072905,-306.438199,-1184.329507,10436.903782
3753.073220,-306.438199,-222.061783,10510.924376
3753.073535,-536.266849,-0.000000,9770.718434
3753.073850,-536.266849,222.061783,10066.800811
3753.074164,-229.828649,-222.061783,10066.800811
3753.074479,0.000000,-518.144159,9474.636058
3753.074794,76.609550,-518.144159,9178.553681
3753.075108,153.219100,-370.102971,9622.677246
3753.075423,0.000000,-518.144159,9770.718434
3753.075738,-306.438199,-1036.288319,9252.574275
3753.076053,-459.657299,-444.123565,8512.368333
3753.076367,-612.876398,-444.123565,9178.553681
3753.076682,-383.047749,-1110.308913,9474.636058
3753.076997,-306.438199,-962.267725,9770.718434
3753.077311,-919.314598,-1628.453072,9770.718434
3753.077626,-919.314598,-1480.411884,10584.944971
3753.077941,-689.485948,-814.226536,10584.944971
3753.078256,-612.876398,-0.000000,10140.821405
3753.078570,-153.219100,888.247130,9548.656652
3753.078885,229.828649,888.247130,9326.594869
3753.079200,1072.533697,962.267725,9474.636058
3753.079514,1532.190996,1110.308913,9030.512492
3753.079829,1608.800546,962.267725,9104.533087
3753.080144,1149.143247,444.123565,9400.615463
3753.080459,842.705048,-0.000000,9770.718434
3753.080773,459.657299,666.185348,9474.636058
3753.081088,0.000000,666.185348,9326.594869
3753.081403,-229.828649,296.082377,9474.636058
3753.081717,0.000000,-592.164754,9696.697840
3753.082032,-76.609550,-148.041188,9844.739029
3753.082347,0.000000,-222.061783,9844.739029
3753.082662,0.000000,-0.000000,10214.842000
3753.082976,153.219100,-74.020594,10436.903782
3753.083291,306.438199,1332.370696,9548.656652
3753.083606,919.314598,2368.659014,9104.533087
3753.083920,1378.971896,1776.494261,9030.512492
3753.084235,1455.581446,1702.473667,9474.636058
3753.084550,1838.629195,1554.432478,9326.594869
3753.084865,919.314598,1258.350101,8956.491898
3753.085179,612.876398,740.205942,9696.697840
3753.085494,229.828649,814.226536,9844.739029
3753.085809,0.000000,1036.288319,9696.697840
3753.086123,-689.485948,814.226536,9326.594869
3753.086438,-689.485948,370.102971,9770.718434
3753.086753,-306.438199,-0.000000,9844.739029
3753.087068,-306.438199,-0.000000,9844.739029
3753.087382,-612.876398,-0.000000,9770.718434
3753.087697,0.000000,-74.020594,10584.944971
3753.088012,153.219100,814.226536,10140.821405
3753.088326,383.047749,1776.494261,9548.656652
3753.088641,383.047749,2294.638420,9030.512492
3753.088956,1378.971896,1850.514855,9178.553681
3753.089271,842.705048,1554.432478,9548.656652
3753.089585,766.095498,888.247130,9252.574275
3753.089900,383.047749,1036.288319,9474.636058
3753.090215,229.828649,370.102971,10140.821405
3753.090530,-459.657299,222.061783,10881.027347
3753.090844,-995.924147,370.102971,9992.780217
3753.091159,-1302.362347,444.123565,9696.697840
3753.091474,-1225.752797,-148.041188,9918.759623
3753.091788,-689.485948,-444.123565,10066.800811
3753.092103,-766.095498,-296.082377,10436.903782
3753.092418,0.000000,-592.164754,10955.047942
3753.092733,229.828649,444.123565,9918.759623
3753.093047,0.000000,592.164754,9770.718434
3753.093362,536.266849,962.267725,9178.553681
3753.093677,766.095498,1036.288319,9252.574275
3753.093991,1302.362347,1110.308913,9104.533087
3753.094306,2068.457845,666.185348,8882.471304
3753.094621,842.705048,222.061783,8956.491898
3753.094936,383.047749,-296.082377,9548.656652
3753.095250,0.000000,-1110.308913,10140.821405
3753.095565,-536.266849,-888.247130,9770.718434
3753.095880,-689.485948,-1110.308913,9474.636058
3753.096194,-689.485948,-1258.350101,9474.636058
3753.096509,-306.438199,-1480.411884,9696.697840
3753.096824,-306.438199,-1332.370696,9474.636058
3753.097139,-229.828649,-962.267725,9326.594869
3753.097453,0.000000,-888.247130,9400.615463
3753.097768,153.219100,-962.267725,9622.677246
3753.098083,612.876398,-148.041188,9400.615463
3753.098397,459.657299,296.082377,8956.491898
3753.098712,689.485948,-0.000000,8734.430116
3753.099027,919.314598,-592.164754,8808.450710
3753.099342,766.095498,-814.226536,9474.636058
3753.099656,383.047749,-814.226536,9548.656652
3753.099971,76.609550,-1924.535449,9474.636058
3753.100286,-306.438199,-1554.432478,10066.800811
3753.100600,-306.438199,-1110.308913,9548.656652
3753.100915,-383.047749,-666.185348,9178.553681
3753.101230,0.000000,-1036.288319,9400.615463
3753.101545,76.609550,-1480.411884,9326.594869
3753.101859,306.438199,-888.247130,8882.471304
3753.102174,459.657299,-666.185348,8882.471304
3753.102489,383.047749,-444.123565,9252.574275
