#time,accel_x,accel_y,accel_z
4110.130008,-1762.019645,-222.061783,10881.027347
4110.130323,-1838.629195,-666.185348,10362.883188
4110.130638,-1991.848295,-666.185348,9844.739029
4110.130953,-1378.971896,-222.061783,9326.594869
4110.131268,-1225.752797,-74.020594,8808.450710
4110.131583,-766.095498,-0.000000,8364.327145
4110.131899,-842.705048,148.041188,8216.285956
4110.132214,-536.266849,-0.000000,8290.306550
4110.132529,-459.657299,-0.000000,8216.285956
4110.132844,-306.438199,-0.000000,8956.491898
4110.133159,-153.219100,-296.082377,9400.615463
4110.133474,-612.876398,-370.102971,9326.594869
4110.133790,-229.828649,-592.164754,9474.636058
4110.134105,-459.657299,-814.226536,9548.656652
4110.134420,-229.828649,-888.247130,9474.636058
4110.134735,-229.828649,-740.205942,9104.533087
4110.135050,-536.266849,-518.144159,8882.471304
4110.135365,-536.266849,-814.226536,8216.285956
4110.135680,-383.047749,-1110.308913,8586.388927
4110.135996,-306.438199,-740.205942,8660.409521
4110.136311,-459.657299,-1258.350101,8364.327145
4110.136626,-842.705048,-962.267725,8660.409521
4110.136941,-689.485948,-1332.370696,9474.636058
4110.137256,-459.657299,-1184.329507,9104.533087
4110.137571,-383.047749,-1258.350101,9326.594869
4110.137887,-536.266849,-1332.370696,9548.656652
4110.138202,-536.266849,-1036.288319,9548.656652
4110.138517,-306.438199,-666.185348,9770.718434
4110.138832,76.609550,-666.185348,9696.697840
4110.139147,76.609550,-592.164754,9992.780217
4110.139462,153.219100,-444.123565,9548.656652
4110.139778,0.000000,-222.061783,9622.677246
4110.140093,229.828649,-74.020594,9622.677246
4110.140408,229.828649,-370.102971,9548.656652
4110.140723,76.609550,-370.102971,9844.739029
4110.141038,0.000000,-296.082377,9622.677246
4110.141353,229.828649,-148.041188,9696.697840
4110.141669,229.828649,-74.020594,9474.636058
4110.141984,306.438199,-0.000000,9474.636058
4110.142299,459.657299,-0.000000,9252.574275
4110.142614,536.266849,444.123565,9400.615463
4110.142929,612.876398,814.226536,8956.491898
4110.143244,612.876398,666.185348,8882.471304
4110.143559,766.095498,1036.288319,9104.533087
4110.143875,536.266849,1036.288319,9178.553681
4110.144190,459.657299,1628.453072,9178.553681
4110.144505,229.828649,1480.411884,9104.533087
4110.144820,0.000000,1628.453072,9622.677246
4110.145135,0.000000,1406.391290,9696.697840
4110.145450,-153.219100,1184.329507,9992.780217
4110.145766,-612.876398,1184.329507,10066.800811
4110.146081,-689.485948,1184.329507,10214.842000
4110.146396,-919.314598,1184.329507,10140.821405
4110.146711,-383.047749,1628.453072,10066.800811
4110.147026,-229.828649,1850.514855,9844.739029
4110.147341,0.000000,1850.514855,9474.636058
4110.147657,612.876398,1480.411884,9918.759623
4110.147972,383.047749,1628.453072,9696.697840
4110.148287,383.047749,1702.473667,9918.759623
4110.148602,153.219100,1406.391290,9918.759623
4110.148917,536.266849,1184.329507,10436.903782
4110.149232,459.657299,814.226536,10362.883188
4110.149548,766.095498,888.247130,9844.739029
4110.149863,766.095498,592.164754,10362.883188
4110.150178,612.876398,1036.288319,10140.821405
4110.150493,842.705048,888.247130,9770.718434
4110.150808,766.095498,888.247130,10066.800811
4110.151123,995.924147,444.123565,10214.842000
4110.151439,842.705048,444.123565,10288.862594
4110.151754,612.876398,148.041188,9992.780217
4110.152069,229.828649,296.082377,10140.821405
4110.152384,842.705048,-0.000000,10214.842000
4110.152699,689.485948,222.061783,10066.800811
4110.153014,76.609550,-222.061783,10066.800811
4110.153329,0.000000,-74.020594,9992.780217
4110.153645,306.438199,-0.000000,9548.656652
4110.153960,0.000000,-0.000000,9548.656652
4110.154275,153.219100,-74.020594,9474.636058
4110.154590,0.000000,-148.041188,9474.636058
4110.154905,-153.219100,-296.082377,9474.636058
4110.155220,0.000000,-370.102971,9474.636058
4110.155536,306.438199,-370.102971,9474.636058
4110.155851,0.000000,-518.144159,9104.533087
4110.156166,-153.219100,-888.247130,9400.615463
4110.156481,-383.047749,-814.226536,9252.574275
4110.156796,229.828649,-814.226536,9178.553681
4110.157111,0.000000,-1036.288319,8882.471304
4110.157427,0.000000,-1184.329507,8734.430116
4110.157742,76.609550,-740.205942,8956.491898
4110.158057,76.609550,-814.226536,8882.471304
4110.158372,0.000000,-740.205942,8882.471304
4110.158687,153.219100,-666.185348,8882.471304
4110.159002,229.828649,-592.164754,8734.430116
4110.159318,0.000000,-814.226536,8882.471304
4110.159633,76.609550,-666.185348,9326.594869
4110.159948,459.657299,-1036.288319,9178.553681
4110.160263,0.000000,-814.226536,9326.594869
4110.160578,76.609550,-888.247130,9326.594869
4110.160893,153.219100,-592.164754,9474.636058
4110.161208,0.000000,-444.123565,9400.615463
4110.161524,0.000000,-592.164754,9696.697840
4110.161839,0.000000,-814.226536,9474.636058
4110.162154,-459.657299,-814.226536,9696.697840
4110.162469,0.000000,-592.164754,9770.718434
4110.162784,-229.828649,-518.144159,9918.759623
4110.163099,153.219100,-444.123565,10066.800811
4110.163415,0.000000,-222.061783,9696.697840
4110.163730,0.000000,-370.102971,9918.759623
4110.164045,0.000000,-0.000000,9770.718434
4110.164360,459.657299,-444.123565,9474.636058
4110.164675,459.657299,444.123565,9696.697840
4110.164990,229.828649,-0.000000,9474.636058
4110.165306,76.609550,148.041188,9770.718434
4110.165621,306.438199,592.164754,9696.697840
4110.165936,229.828649,-0.000000,9474.636058
4110.166251,76.609550,518.144159,9474.636058
4110.166566,76.609550,666.185348,9622.677246
4110.166881,0.000000,518.144159,9992.780217
4110.167197,0.000000,592.164754,9918.759623
4110.167512,0.000000,888.247130,9844.739029
4110.167827,0.000000,962.267725,9622.677246
4110.168142,-153.219100,962.267725,9918.759623
4110.168457,0.000000,1184.329507,10214.842000
4110.168772,0.000000,1110.308913,9844.739029
4110.169087,0.000000,592.164754,10214.842000
4110.169403,0.000000,1332.370696,9548.656652
4110.169718,0.000000,1110.308913,9622.677246
4110.170033,0.000000,1258.350101,10214.842000
4110.170348,-229.828649,1258.350101,9844.739029
4110.170663,306.438199,1110.308913,9918.759623
4110.170978,229.828649,1110.308913,9918.759623
4110.171294,306.438199,1184.329507,10140.821405
4110.171609,0.000000,888.247130,9844.739029
4110.171924,229.828649,962.267725,9622.677246
4110.172239,153.219100,962.267725,10066.800811
4110.172554,153.219100,518.144159,9918.759623
4110.172870,76.609550,740.205942,9696.697840
4110.173185,153.219100,444.123565,9548.656652
4110.173500,153.219100,740.205942,9622.677246
4110.173816,76.609550,592.164754,9548.656652
4110.174131,153.219100,666.185348,9696.697840
4110.174447,0.000000,444.123565,9770.718434
4110.174762,76.609550,370.102971,9548.656652
4110.175077,383.047749,148.041188,9696.697840
4110.175393,0.000000,148.041188,9548.656652
4110.175708,0.000000,222.061783,9622.677246
4110.176024,76.609550,222.061783,9696.697840
4110.176339,-229.828649,-74.020594,9326.594869
4110.176654,0.000000,-74.020594,9548.656652
4110.176970,0.000000,-222.061783,9104.533087
4110.177285,0.000000,-370.102971,9474.636058
4110.177600,0.000000,-148.041188,9474.636058
4110.177916,229.828649,-592.164754,9400.615463
4110.178231,0.000000,-444.123565,9326.594869
4110.178547,76.609550,-296.082377,9252.574275
4110.178862,229.828649,-370.102971,9252.574275
4110.179177,229.828649,-370.102971,9548.656652
4110.179493,229.828649,-222.061783,9030.512492
4110.179808,383.047749,-296.082377,9252.574275
4110.180124,536.266849,-370.102971,9030.512492
4110.180439,306.438199,-666.185348,9104.533087
4110.180754,153.219100,-444.123565,9326.594869
4110.181070,-153.219100,-592.164754,9104.533087
4110.181385,459.657299,-518.144159,9252.574275
4110.181701,383.047749,-296.082377,9400.615463
4110.182016,153.219100,-518.144159,9400.615463
4110.182331,0.000000,-370.102971,9104.533087
4110.182647,0.000000,-296.082377,8956.491898
4110.182962,76.609550,-444.123565,9622.677246
4110.183277,76.609550,-370.102971,9622.677246
4110.183593,0.000000,-74.020594,9548.656652
4110.183908,0.000000,-0.000000,9548.656652
4110.184224,76.609550,-0.000000,9622.677246
4110.184539,229.828649,-0.000000,9622.677246
4110.184854,-229.828649,-0.000000,9622.677246
4110.185170,0.000000,-0.000000,9696.697840
4110.185485,-229.828649,-0.000000,9474.636058
4110.185801,0.000000,-0.000000,9252.574275
4110.186116,-229.828649,148.041188,9770.718434
4110.186431,-229.828649,222.061783,9696.697840
4110.186747,153.219100,296.082377,9918.759623
4110.187062,153.219100,-0.000000,9696.697840
4110.187378,459.657299,222.061783,9770.718434
4110.187693,229.828649,370.102971,9548.656652
4110.188008,459.657299,222.061783,9548.656652
4110.188324,383.047749,518.144159,9770.718434
4110.188639,76.609550,370.102971,9548.656652
4110.188954,229.828649,592.164754,9992.780217
4110.189270,306.438199,370.102971,9474.636058
4110.189585,306.438199,518.144159,9548.656652
4110.189901,383.047749,444.123565,9918.759623
4110.190216,689.485948,370.102971,9770.718434
4110.190531,689.485948,1332.370696,10288.862594
4110.190847,689.485948,888.247130,9548.656652
4110.191162,459.657299,666.185348,9844.739029
4110.191478,536.266849,666.185348,10140.821405
4110.191793,153.219100,814.226536,9918.759623
4110.192108,76.609550,740.205942,9770.718434
4110.192424,229.828649,888.247130,10288.862594
4110.192739,306.438199,666.185348,9992.780217
4110.193055,229.828649,740.205942,9844.739029
4110.193370,153.219100,814.226536,9696.697840
4110.193685,536.266849,1036.288319,10214.842000
4110.194001,153.219100,666.185348,10140.821405
4110.194316,229.828649,888.247130,9844.739029
4110.194631,0.000000,592.164754,9844.739029
4110.194947,153.219100,444.123565,9696.697840
4110.195262,229.828649,740.205942,10066.800811
4110.195578,229.828649,666.185348,9992.780217
4110.195893,0.000000,444.123565,9844.739029
4110.196208,0.000000,518.144159,9844.739029
4110.196524,229.828649,222.061783,9770.718434
4110.196839,-383.047749,-0.000000,9770.718434
4110.197155,0.000000,296.082377,9770.718434
4110.197470,0.000000,296.082377,9548.656652
4110.197785,0.000000,148.041188,9548.656652
4110.198101,0.000000,-0.000000,9400.615463
4110.198416,0.000000,-0.000000,9622.677246
4110.198732,0.000000,-74.020594,9400.615463
4110.199047,0.000000,-0.000000,9400.615463
4110.199362,0.000000,-0.000000,9400.615463
4110.199678,0.000000,-74.020594,9474.636058
4110.199993,229.828649,-148.041188,9474.636058
4110.200308,0.000000,-370.102971,9400.615463
4110.200624,0.000000,-222.061783,9400.615463
4110.200939,153.219100,-0.000000,9252.574275
4110.201255,229.828649,-296.082377,9178.553681
4110.201570,229.828649,-370.102971,8956.491898
4110.201885,229.828649,-740.205942,9252.574275
4110.202201,76.609550,-296.082377,9474.636058
4110.202516,153.219100,-296.082377,9104.533087
4110.202832,229.828649,-222.061783,9104.533087
4110.203147,459.657299,-148.041188,9326.594869
4110.203462,229.828649,-148.041188,9474.636058
4110.203778,306.438199,-296.082377,9252.574275
4110.204093,459.657299,-296.082377,9030.512492
4110.204409,306.438199,-222.061783,9474.636058
4110.204724,229.828649,-444.123565,9474.636058
4110.205039,76.609550,-296.082377,9548.656652
4110.205355,0.000000,-370.102971,9548.656652
4110.205670,0.000000,-370.102971,9474.636058
4110.205985,383.047749,-296.082377,9104.533087
4110.206301,76.609550,-222.061783,9770.718434
4110.206616,0.000000,-370.102971,9622.677246
4110.206932,0.000000,-296.082377,9696.697840
4110.207247,0.000000,-222.061783,9474.636058
4110.207562,0.000000,-74.020594,9696.697840
4110.207878,0.000000,-0.000000,9696.697840
4110.208193,0.000000,-0.000000,9696.697840
4110.208509,0.000000,-74.020594,9548.656652
4110.208824,0.000000,-74.020594,9548.656652
4110.209139,76.609550,-296.082377,9474.636058
4110.209455,76.609550,-0.000000,9992.780217
4110.209770,-153.219100,74.020594,9474.636058
4110.210086,0.000000,222.061783,9104.533087
4110.210401,76.609550,370.102971,9326.594869
4110.210716,0.000000,-0.000000,9474.636058
4110.211032,-383.047749,-0.000000,9400.615463
4110.211347,0.000000,296.082377,9548.656652
4110.211662,153.219100,444.123565,9548.656652
4110.211978,459.657299,518.144159,9474.636058
4110.212293,76.609550,444.123565,9622.677246
4110.212609,612.876398,592.164754,9992.780217
4110.212924,76.609550,592.164754,9548.656652
4110.213239,0.000000,148.041188,9622.677246
4110.213555,0.000000,444.123565,9844.739029
4110.213870,76.609550,370.102971,9918.759623
4110.214186,229.828649,740.205942,9918.759623
4110.214501,0.000000,444.123565,9770.718434
4110.214816,153.219100,592.164754,9770.718434
4110.215132,229.828649,740.205942,9844.739029
4110.215447,0.000000,592.164754,9918.759623
4110.215763,0.000000,296.082377,9918.759623
4110.216078,0.000000,592.164754,10066.800811
4110.216393,229.828649,666.185348,9770.718434
4110.216709,0.000000,370.102971,9696.697840
4110.217024,76.609550,740.205942,10066.800811
4110.217339,153.219100,592.164754,9844.739029
4110.217655,0.000000,518.144159,10066.800811
4110.217970,153.219100,296.082377,9622.677246
4110.218286,0.000000,518.144159,9844.739029
4110.218601,306.438199,592.164754,9992.780217
4110.218916,306.438199,-222.061783,10288.862594
4110.219232,0.000000,-0.000000,9548.656652
4110.219547,0.000000,-0.000000,9474.636058
4110.219863,0.000000,-0.000000,9622.677246
4110.220178,-229.828649,-0.000000,9622.677246
4110.220493,0.000000,518.144159,9622.677246
4110.220809,0.000000,296.082377,9400.615463
4110.221124,-229.828649,148.041188,9474.636058
4110.221439,0.000000,148.041188,9326.594869
4110.221755,-459.657299,-0.000000,9400.615463
4110.222070,76.609550,-0.000000,9548.656652
4110.222386,0.000000,-0.000000,9770.718434
4110.222701,76.609550,296.082377,9400.615463
4110.223016,153.219100,-0.000000,9474.636058
4110.223332,383.047749,-148.041188,9474.636058
4110.223647,0.000000,148.041188,9770.718434
4110.223963,0.000000,-74.020594,9326.594869
4110.224278,0.000000,-0.000000,9400.615463
4110.224593,383.047749,-0.000000,9474.636058
4110.224909,0.000000,-148.041188,9178.553681
4110.225224,306.438199,-222.061783,9400.615463
4110.225540,0.000000,-370.102971,9104.533087
4110.225855,76.609550,-74.020594,9326.594869
4110.226170,383.047749,-74.020594,9622.677246
4110.226486,0.000000,-0.000000,9622.677246
4110.226801,0.000000,-0.000000,9770.718434
4110.227116,76.609550,-74.020594,9474.636058
4110.227432,153.219100,-0.000000,9474.636058
4110.227747,0.000000,-0.000000,9548.656652
4110.228063,-306.438199,-222.061783,9770.718434
4110.228378,-229.828649,-666.185348,9474.636058
4110.228693,459.657299,-74.020594,9474.636058
4110.229009,306.438199,-0.000000,9326.594869
4110.229324,0.000000,-0.000000,9474.636058
4110.229640,0.000000,-74.020594,9844.739029
4110.229955,383.047749,148.041188,9548.656652
4110.230270,229.828649,-222.061783,9622.677246
4110.230586,0.000000,-370.102971,9622.677246
4110.230901,76.609550,-0.000000,9622.677246
4110.231217,0.000000,148.041188,9474.636058
4110.231532,-306.438199,148.041188,9474.636058
4110.231847,229.828649,-74.020594,9030.512492
4110.232163,76.609550,-0.000000,9474.636058
4110.232478,76.609550,222.061783,9400.615463
4110.232793,306.438199,296.082377,9548.656652
4110.233109,306.438199,-0.000000,9548.656652
4110.233424,229.828649,370.102971,9030.512492
4110.233740,383.047749,222.061783,9548.656652
4110.234055,0.000000,-0.000000,9622.677246
4110.234370,76.609550,370.102971,9474.636058
4110.234686,153.219100,370.102971,9548.656652
4110.235001,0.000000,148.041188,9548.656652
4110.235317,306.438199,666.185348,9918.759623
4110.235632,0.000000,518.144159,9474.636058
4110.235947,153.219100,444.123565,9622.677246
4110.236263,383.047749,296.082377,9400.615463
4110.236578,229.828649,740.205942,9474.636058
4110.236894,459.657299,666.185348,9622.677246
4110.237209,0.000000,370.102971,9918.759623
4110.237524,306.438199,592.164754,9622.677246
4110.237840,0.000000,592.164754,9844.739029
4110.238155,0.000000,666.185348,9770.718434
4110.238470,0.000000,666.185348,9770.718434
4110.238786,0.000000,592.164754,10214.842000
4110.239101,0.000000,222.061783,9548.656652
4110.239417,229.828649,518.144159,9918.759623
4110.239732,153.219100,444.123565,10066.800811
4110.240047,0.000000,296.082377,9696.697840
4110.240363,76.609550,222.061783,10066.800811
4110.240678,0.000000,592.164754,9474.636058
4110.240994,0.000000,296.082377,9770.718434
4110.241309,0.000000,148.041188,10214.842000
4110.241624,153.219100,444.123565,9696.697840
4110.241940,76.609550,518.144159,9548.656652
4110.242255,0.000000,222.061783,9622.677246
4110.242571,0.000000,-0.000000,9474.636058
4110.242886,153.219100,-0.000000,9622.677246
4110.243201,0.000000,148.041188,9548.656652
4110.243517,76.609550,222.061783,9622.677246
4110.243832,459.657299,148.041188,9770.718434
4110.244147,306.438199,-0.000000,9030.512492
4110.244463,153.219100,-0.000000,9770.718434
4110.244778,153.219100,-0.000000,9548.656652
4110.245094,0.000000,148.041188,9474.636058
4110.245409,383.047749,-296.082377,9104.533087
4110.245724,306.438199,148.041188,9326.594869
4110.246040,153.219100,-0.000000,9474.636058
4110.246355,0.000000,222.061783,9400.615463
4110.246671,229.828649,-148.041188,9696.697840
4110.246986,229.828649,-0.000000,9696.697840
4110.247301,459.657299,370.102971,9252.574275
4110.247617,612.876398,-0.000000,9474.636058
4110.247932,306.438199,-74.020594,9548.656652
4110.248248,0.000000,-0.000000,9474.636058
4110.248563,306.438199,-222.061783,9474.636058
4110.248878,153.219100,-148.041188,9474.636058
4110.249194,76.609550,-74.020594,9548.656652
4110.249509,0.000000,222.061783,9474.636058
4110.249824,383.047749,-74.020594,9474.636058
4110.250140,76.609550,-296.082377,9548.656652
4110.250455,153.219100,-74.020594,9400.615463
4110.250771,-306.438199,-296.082377,9622.677246
4110.251086,0.000000,-296.082377,9696.697840
4110.251401,0.000000,-0.000000,9770.718434
4110.251717,383.047749,-74.020594,9696.697840
4110.252032,76.609550,-222.061783,9770.718434
4110.252348,0.000000,-74.020594,9474.636058
4110.252663,0.000000,-148.041188,9400.615463
4110.252978,383.047749,222.061783,9622.677246
4110.253294,0.000000,-74.020594,9474.636058
4110.253609,0.000000,-148.041188,9548.656652
4110.253925,0.000000,-0.000000,9548.656652
4110.254240,0.000000,-0.000000,9548.656652
4110.254555,0.000000,-0.000000,9474.636058
4110.254871,0.000000,296.082377,9474.636058
4110.255186,153.219100,-0.000000,9548.656652
4110.255501,76.609550,-0.000000,9474.636058
4110.255817,-153.219100,-0.000000,9400.615463
4110.256132,0.000000,-0.000000,9548.656652
4110.256448,0.000000,-296.082377,9474.636058
4110.256763,383.047749,-370.102971,9474.636058
4110.257078,306.438199,592.164754,9548.656652
4110.257394,76.609550,222.061783,9696.697840
4110.257709,229.828649,518.144159,9400.615463
4110.258025,306.438199,370.102971,9474.636058
4110.258340,229.828649,666.185348,9474.636058
4110.258655,0.000000,444.123565,9622.677246
4110.258971,76.609550,296.082377,9844.739029
4110.259286,229.828649,-0.000000,9696.697840
4110.259602,76.609550,444.123565,9474.636058
4110.259917,76.609550,370.102971,9770.718434
4110.260232,0.000000,444.123565,9474.636058
4110.260548,153.219100,592.164754,10066.800811
4110.260863,153.219100,296.082377,9918.759623
4110.261178,229.828649,296.082377,9622.677246
4110.261494,153.219100,-0.000000,10140.821405
4110.261809,0.000000,370.102971,9622.677246
4110.262125,0.000000,370.102971,9622.677246
4110.262440,0.000000,222.061783,9696.697840
4110.262755,459.657299,-0.000000,9844.739029
4110.263071,689.485948,-0.000000,9696.697840
4110.263386,0.000000,370.102971,9770.718434
4110.263702,153.219100,296.082377,9548.656652
4110.264017,76.609550,296.082377,9548.656652
4110.264332,76.609550,-0.000000,9696.697840
4110.264648,229.828649,-0.000000,9844.739029
4110.264963,76.609550,-0.000000,9622.677246
4110.265279,76.609550,-0.000000,9474.636058
4110.265594,0.000000,-0.000000,9474.636058
4110.265909,0.000000,-0.000000,9622.677246
4110.266225,383.047749,-148.041188,9400.615463
4110.266540,0.000000,-0.000000,9400.615463
4110.266855,-383.047749,-0.000000,9252.574275
4110.267171,76.609550,296.082377,9400.615463
4110.267486,76.609550,-0.000000,9400.615463
4110.267802,0.000000,-0.000000,9696.697840
4110.268117,0.000000,148.041188,9400.615463
4110.268432,306.438199,-0.000000,9474.636058
4110.268748,153.219100,-0.000000,9178.553681
4110.269063,229.828649,222.061783,9474.636058
4110.269379,0.000000,-370.102971,9474.636058
4110.269694,153.219100,-0.000000,9992.780217
4110.270009,0.000000,148.041188,9252.574275
4110.270325,76.609550,-0.000000,9474.636058
4110.270640,0.000000,-0.000000,9474.636058
4110.270956,-229.828649,-0.000000,9474.636058
4110.271271,0.000000,222.061783,9918.759623
4110.271586,229.828649,148.041188,9400.615463
4110.271902,306.438199,-0.000000,9474.636058
4110.272217,0.000000,-0.000000,9548.656652
4110.272532,0.000000,-0.000000,9326.594869
4110.272848,0.000000,-0.000000,9474.636058
4110.273163,153.219100,-74.020594,9548.656652
4110.273479,0.000000,-370.102971,9474.636058
4110.273794,459.657299,-74.020594,9474.636058
4110.274109,0.000000,-74.020594,9474.636058
4110.274424,-229.828649,222.061783,9622.677246
4110.274739,153.219100,-0.000000,9400.615463
4110.275054,153.219100,-148.041188,9696.697840
4110.275370,459.657299,-0.000000,9696.697840
4110.275685,0.000000,-0.000000,9696.697840
4110.276000,0.000000,-0.000000,9474.636058
4110.276315,153.219100,-0.000000,9548.656652
4110.276630,0.000000,-0.000000,9844.739029
4110.276945,459.657299,-0.000000,9622.677246
4110.277261,0.000000,-0.000000,9696.697840
4110.277576,153.219100,-0.000000,9474.636058
4110.277891,0.000000,-0.000000,9474.636058
4110.278206,0.000000,222.061783,9548.656652
4110.278521,0.000000,370.102971,9770.718434
4110.278836,76.609550,296.082377,9770.718434
4110.279152,0.000000,-0.000000,9474.636058
4110.279467,0.000000,814.226536,9474.636058
4110.279782,-383.047749,962.267725,9770.718434
4110.280097,-766.095498,444.123565,9696.697840
4110.280412,-612.876398,666.185348,9918.759623
4110.280727,-612.876398,518.144159,9548.656652
4110.281043,-536.266849,222.061783,9918.759623
4110.281358,-459.657299,444.123565,9622.677246
4110.281673,-383.047749,962.267725,9696.697840
4110.281988,-612.876398,1184.329507,9844.739029
4110.282303,-153.219100,1480.411884,9252.574275
4110.282618,-306.438199,1332.370696,9178.553681
4110.282933,-536.266849,1406.391290,9400.615463
4110.283249,-689.485948,1258.350101,8956.491898
4110.283564,-1149.143247,1480.411884,9104.533087
4110.283879,-1532.190996,1332.370696,8956.491898
4110.284194,-1991.848295,1184.329507,9178.553681
4110.284509,-2145.067394,1110.308913,9548.656652
4110.284824,-2681.334243,814.226536,9992.780217
4110.285140,-2681.334243,1184.329507,9992.780217
4110.285455,-2681.334243,1480.411884,9992.780217
4110.285770,-2451.505594,1776.494261,9696.697840
4110.286085,-2987.772442,1850.514855,9696.697840
4110.286400,-2681.334243,2146.597232,9696.697840
4110.286715,-2528.115143,2738.761985,9178.553681
4110.287031,-2604.724693,2738.761985,9104.533087
4110.287346,-2451.505594,2960.823768,8956.491898
4110.287661,-2451.505594,2960.823768,8956.491898
4110.287976,-2604.724693,3330.926739,9252.574275
4110.288291,-3217.601092,2960.823768,9474.636058
4110.288606,-2987.772442,2886.803174,9918.759623
4110.288922,-3217.601092,2590.720797,10510.924376
4110.289237,-3217.601092,2738.761985,10362.883188
4110.289552,-2834.553343,2368.659014,10362.883188
4110.289867,-2681.334243,2960.823768,9918.759623
4110.290182,-2298.286494,2886.803174,9918.759623
4110.290497,-1532.190996,3701.029710,10140.821405
4110.290813,-1838.629195,3997.112087,9548.656652
4110.291128,-1149.143247,4071.132681,9622.677246
4110.291443,-689.485948,3923.091493,9252.574275
4110.291758,-536.266849,3849.070898,9104.533087
4110.292073,-459.657299,3478.967927,9178.553681
4110.292388,-1072.533697,3330.926739,9622.677246
4110.292704,-1532.190996,3182.885551,9844.739029
4110.293019,-1225.752797,2664.741391,9770.718434
4110.293334,-1608.800546,2886.803174,9918.759623
4110.293649,-1608.800546,2368.659014,10140.821405
4110.293964,-2145.067394,2664.741391,9918.759623
4110.294279,-1915.238745,2886.803174,9918.759623
4110.294594,-1915.238745,3330.926739,9770.718434
4110.294910,-1915.238745,3404.947333,9326.594869
4110.295225,-2374.896044,3404.947333,9474.636058
4110.295540,-2145.067394,3627.009116,9770.718434
4110.295855,-1915.238745,3330.926739,9992.780217
4110.296170,-2298.286494,3034.844362,10436.903782
4110.296485,-2528.115143,2886.803174,10510.924376
4110.296801,-2451.505594,2442.679609,10807.006753
4110.297116,-1915.238745,2220.617826,10807.006753
4110.297431,-1149.143247,2368.659014,10658.965565
4110.297746,-1225.752797,1998.556043,9844.739029
4110.298061,-919.314598,2294.638420,9696.697840
4110.298376,-459.657299,2442.679609,8808.450710
4110.298692,0.000000,2294.638420,8438.347739
4110.299007,153.219100,2294.638420,8734.430116
4110.299322,-383.047749,2294.638420,8290.306550
4110.299637,-383.047749,1628.453072,8660.409521
4110.299952,-1378.971896,1924.535449,8734.430116
4110.300267,-2145.067394,1628.453072,8882.471304
4110.300583,-2528.115143,1036.288319,8882.471304
4110.300898,-2911.162892,962.267725,9474.636058
4110.301213,-3370.820191,1110.308913,9992.780217
4110.301528,-3217.601092,1258.350101,9992.780217
4110.301843,-3524.039291,1406.391290,9770.718434
4110.302158,-3370.820191,1258.350101,10214.842000
4110.302474,-3294.210641,1702.473667,10510.924376
4110.302789,-2834.553343,1332.370696,10214.842000
4110.303104,-2451.505594,1480.411884,10436.903782
4110.303419,-1915.238745,1554.432478,10362.883188
4110.303734,-1072.533697,1406.391290,9696.697840
4110.304049,-995.924147,1702.473667,9844.739029
4110.304365,-842.705048,2220.617826,9400.615463
4110.304680,-1225.752797,2294.638420,8290.306550
4110.304995,-1608.800546,2516.700203,7772.162391
4110.305310,-1762.019645,2220.617826,7624.121203
4110.305625,-2528.115143,1406.391290,7550.100608
4110.305940,-3753.867940,814.226536,8142.265362
4110.306255,-4596.572988,370.102971,9252.574275
4110.306571,-4749.792088,-592.164754,11251.130318
4110.306886,-4443.353888,-666.185348,10732.986159
4110.307201,-4136.915689,-962.267725,12065.356855
4110.307516,-3064.381992,-518.144159,12509.480420
4110.307831,-1915.238745,-222.061783,11917.315666
4110.308146,76.609550,1480.411884,10881.027347
4110.308462,1608.800546,2960.823768,8734.430116
4110.308777,1532.190996,4959.379811,6513.812290
4110.309092,1608.800546,5625.565159,5773.606348
4110.309407,1532.190996,6291.750507,4811.338623
4110.309722,459.657299,5921.647536,5403.503377
4110.310037,-2145.067394,4737.318029,6587.832884
4110.310353,-4060.306139,1702.473667,9548.656652
4110.310668,-5669.106685,-1702.473667,12583.501014
4110.310983,-6128.763984,-3256.906145,13767.830521
4110.311298,-6205.373534,-4071.132681,15544.324782
4110.311613,-4903.011187,-4145.153275,15766.386565
4110.311928,-2451.505594,-1998.556043,13471.748144
4110.312244,0.000000,2590.720797,9104.533087
4110.312559,2604.724693,5329.482782,7550.100608
4110.312874,3753.867940,8660.409521,5107.421000
4110.313189,4290.134789,9844.739029,3701.029710
4110.313504,3753.867940,10140.821405,3404.947333
4110.313819,1302.362347,7846.182985,5773.606348
4110.314135,-229.828649,4811.338623,9622.677246
4110.314450,-2145.067394,-1036.288319,12065.356855
4110.314765,-3524.039291,-3997.112087,14804.118840
4110.315080,-4290.134789,-4959.379811,16654.633695
4110.315395,-4060.306139,-4737.318029,15322.262999
4110.315710,-2987.772442,-3108.864956,12583.501014
4110.316026,-1762.019645,148.041188,11843.295072
4110.316341,612.876398,3701.029710,8956.491898
4110.316656,1991.848295,5699.585753,5255.462188
4110.316971,2374.896044,7328.038826,3849.070898
4110.317286,2451.505594,7031.956449,5181.441594
4110.317601,1072.533697,4811.338623,6439.791695
4110.317917,383.047749,1998.556043,9474.636058
4110.318232,-306.438199,-444.123565,11399.171507
4110.318547,-459.657299,-2072.576638,13175.665768
4110.318862,-459.657299,-2664.741391,14137.933492
4110.319177,-689.485948,-3034.844362,13619.789333
4110.319492,-536.266849,-1998.556043,12139.377449
4110.319807,-383.047749,-222.061783,11177.109724
4110.320123,153.219100,666.185348,8956.491898
4110.320438,995.924147,1998.556043,7624.121203
4110.320753,1072.533697,2590.720797,6809.894666
4110.321068,153.219100,1628.453072,6883.915261
4110.321383,0.000000,962.267725,7402.059420
4110.321698,0.000000,-0.000000,8364.327145
4110.322014,0.000000,-296.082377,9178.553681
4110.322329,0.000000,-1184.329507,10807.006753
4110.322644,383.047749,-1628.453072,11769.274478
4110.322959,306.438199,-2442.679609,12139.377449
4110.323274,76.609550,-2294.638420,12139.377449
4110.323589,0.000000,-1628.453072,11547.212695
4110.323905,153.219100,-592.164754,9844.739029
4110.324220,459.657299,518.144159,7846.182985
4110.324535,612.876398,814.226536,6661.853478
4110.324850,689.485948,1850.514855,5625.565159
4110.325165,0.000000,1776.494261,5995.668130
4110.325480,-1302.362347,962.267725,7254.018232
4110.325796,-1915.238745,-1184.329507,9474.636058
4110.326111,-2298.286494,-1850.514855,11325.150913
4110.326426,-2374.896044,-3627.009116,12435.459826
4110.326741,-1532.190996,-5033.400406,13175.665768
4110.327056,-536.266849,-5477.523971,13175.665768
4110.327371,612.876398,-3923.091493,11769.274478
4110.327687,1072.533697,-518.144159,8438.347739
4110.328002,1991.848295,1924.535449,7772.162391
4110.328317,2451.505594,4589.276840,5255.462188
4110.328632,2451.505594,4293.194464,4737.318029
4110.328947,1685.410096,3034.844362,5625.565159
4110.329262,-306.438199,592.164754,7772.162391
4110.329578,-1072.533697,-2590.720797,10066.800811
4110.329893,-1455.581446,-4885.359217,11621.233289
4110.330208,-1378.971896,-5995.668130,12879.583391
4110.330523,-995.924147,-5625.565159,13471.748144
4110.330838,-306.438199,-3775.050304,11843.295072
4110.331153,0.000000,-1258.350101,11325.150913
4110.331468,995.924147,962.267725,9548.656652
4110.331784,1838.629195,2516.700203,7920.203579
4110.332099,1915.238745,3404.947333,6291.750507
4110.332414,1378.971896,2220.617826,6809.894666
4110.332729,1149.143247,1850.514855,7105.977043
4110.333044,383.047749,222.061783,7920.203579
4110.333359,842.705048,-888.247130,8734.430116
4110.333675,766.095498,-1258.350101,10362.883188
4110.333990,-153.219100,-1110.308913,11177.109724
4110.334305,0.000000,-1332.370696,11843.295072
4110.334620,0.000000,-814.226536,11917.315666
4110.334935,-536.266849,-1110.308913,11843.295072
4110.335250,-612.876398,-1036.288319,11399.171507
4110.335566,-459.657299,-592.164754,10288.862594
4110.335881,536.266849,370.102971,8364.327145
4110.336196,1991.848295,1998.556043,7105.977043
4110.336511,1915.238745,3849.070898,5107.421000
4110.336826,1149.143247,3775.050304,6291.750507
4110.337141,919.314598,3627.009116,7846.182985
4110.337457,76.609550,2220.617826,9622.677246
4110.337772,-229.828649,-148.041188,11473.192101
4110.338087,-459.657299,-2368.659014,13619.789333
4110.338402,-1378.971896,-3108.864956,13989.892304
4110.338717,-1149.143247,-2516.700203,13323.706956
4110.339032,-229.828649,-296.082377,10807.006753
4110.339348,612.876398,1776.494261,8734.430116
4110.339663,1225.752797,4293.194464,6957.935855
4110.339978,1608.800546,5329.482782,6069.688724
4110.340293,842.705048,4737.318029,6883.915261
4110.340608,76.609550,3330.926739,7698.141797
4110.340923,-842.705048,592.164754,9326.594869
4110.341239,-1378.971896,-1702.473667,11547.212695
4110.341554,-1685.410096,-2590.720797,12509.480420
4110.341869,-1149.143247,-2590.720797,13175.665768
4110.342184,-153.219100,-1332.370696,12213.398043
4110.342499,-229.828649,222.061783,11029.068536
4110.342814,0.000000,2590.720797,8882.471304
4110.343129,153.219100,3997.112087,8364.327145
4110.343445,536.266849,3923.091493,7402.059420
4110.343760,0.000000,3108.864956,8216.285956
4110.344075,-536.266849,1554.432478,8586.388927
4110.344390,-1072.533697,-222.061783,9252.574275
4110.344705,-612.876398,-148.041188,9696.697840
4110.345020,-842.705048,-444.123565,10436.903782
4110.345336,-612.876398,-0.000000,10881.027347
4110.345651,-612.876398,-370.102971,11325.150913
4110.345966,-689.485948,-0.000000,10955.047942
4110.346281,-536.266849,-0.000000,11251.130318
4110.346596,-612.876398,-0.000000,9992.780217
4110.346911,-306.438199,-0.000000,9696.697840
4110.347227,76.609550,370.102971,8438.347739
4110.347542,919.314598,592.164754,7550.100608
4110.347857,1838.629195,1110.308913,6587.832884
4110.348172,1302.362347,1924.535449,6809.894666
4110.348487,919.314598,2220.617826,7328.038826
4110.348802,306.438199,1184.329507,9104.533087
4110.349118,-612.876398,-0.000000,10066.800811
4110.349433,-995.924147,-1776.494261,11843.295072
4110.349748,-1608.800546,-3404.947333,12657.521608
4110.350063,-1225.752797,-3775.050304,12435.459826
4110.350378,-306.438199,-2886.803174,11325.150913
4110.350693,919.314598,-666.185348,9474.636058
4110.351009,1991.848295,1776.494261,7550.100608
4110.351324,1838.629195,3552.988522,6439.791695
4110.351639,1915.238745,3404.947333,6735.874072
4110.351954,2068.457845,2368.659014,7105.977043
4110.352269,766.095498,666.185348,8068.244768
4110.352584,153.219100,-1258.350101,10288.862594
4110.352900,-842.705048,-3552.988522,11621.233289
4110.353215,-995.924147,-3923.091493,12139.377449
4110.353530,-536.266849,-3330.926739,11843.295072
4110.353845,-383.047749,-2294.638420,10807.006753
4110.354160,76.609550,-0.000000,10436.903782
4110.354475,459.657299,666.185348,8956.491898
4110.354790,459.657299,1480.411884,8216.285956
4110.355106,536.266849,1628.453072,7994.224174
4110.355421,76.609550,888.247130,8364.327145
4110.355736,229.828649,-666.185348,8808.450710
4110.356051,0.000000,-1480.411884,9918.759623
4110.356366,306.438199,-1332.370696,10066.800811
4110.356681,536.266849,-814.226536,10140.821405
4110.356997,229.828649,-0.000000,9918.759623
4110.357312,-153.219100,296.082377,10658.965565
4110.357627,-229.828649,-0.000000,10584.944971
4110.357942,-536.266849,-592.164754,10510.924376
4110.358257,-536.266849,-740.205942,9696.697840
4110.358572,-306.438199,-814.226536,9696.697840
4110.358888,-229.828649,-962.267725,8290.306550
4110.359203,0.000000,-222.061783,7846.182985
4110.359518,536.266849,962.267725,7772.162391
4110.359833,612.876398,1776.494261,7031.956449
4110.360148,153.219100,2146.597232,8290.306550
4110.360463,0.000000,1258.350101,9326.594869
4110.360779,-306.438199,-0.000000,10362.883188
4110.361094,-1072.533697,-1036.288319,11473.192101
4110.361409,-1608.800546,-2442.679609,12213.398043
4110.361724,-919.314598,-2146.597232,11547.212695
4110.362039,306.438199,-1258.350101,9992.780217
4110.362354,1072.533697,444.123565,8882.471304
4110.362670,1455.581446,2886.803174,7772.162391
4110.362985,1149.143247,3701.029710,6883.915261
4110.363300,1685.410096,3775.050304,7476.080014
4110.363615,1378.971896,2590.720797,8068.244768
4110.363930,229.828649,814.226536,9474.636058
4110.364245,-536.266849,-1554.432478,10807.006753
4110.364561,-919.314598,-2368.659014,11769.274478
4110.364876,-766.095498,-2146.597232,11843.295072
4110.365191,0.000000,-1480.411884,11399.171507
4110.365506,459.657299,-296.082377,9992.780217
4110.365821,919.314598,1924.535449,9400.615463
4110.366136,1072.533697,2812.782580,8808.450710
4110.366451,1378.971896,2812.782580,8512.368333
4110.366767,1072.533697,2516.700203,8364.327145
4110.367082,536.266849,1258.350101,9474.636058
4110.367397,0.000000,-148.041188,9844.739029
4110.367712,153.219100,-740.205942,10140.821405
4110.368027,1225.752797,-962.267725,10436.903782
4110.368342,1072.533697,-0.000000,10214.842000
4110.368658,383.047749,666.185348,10214.842000
4110.368973,-229.828649,1554.432478,10140.821405
4110.369288,-689.485948,814.226536,10288.862594
4110.369603,459.657299,148.041188,9992.780217
4110.369918,-153.219100,-74.020594,10288.862594
4110.370233,-459.657299,-814.226536,9918.759623
4110.370549,0.000000,-592.164754,9252.574275
4110.370864,229.828649,296.082377,8660.409521
4110.371179,1149.143247,1406.391290,8512.368333
4110.371494,306.438199,2368.659014,8216.285956
4110.371809,229.828649,2220.617826,8808.450710
4110.372124,0.000000,1628.453072,9622.677246
4110.372440,-383.047749,370.102971,10955.047942
4110.372755,-1149.143247,-1554.432478,11103.089130
4110.373070,-1455.581446,-2442.679609,11473.192101
4110.373385,-1225.752797,-2220.617826,11029.068536
4110.373700,0.000000,-1110.308913,9844.739029
4110.374015,536.266849,444.123565,8512.368333
4110.374331,842.705048,2072.576638,7994.224174
4110.374638,536.266849,3034.844362,7476.080014
4110.374953,153.219100,2442.679609,7624.121203
4110.375269,0.000000,1258.350101,8586.388927
4110.375584,0.000000,-666.185348,9918.759623
4110.375899,-766.095498,-2294.638420,10732.986159
4110.376214,-919.314598,-2664.741391,11177.109724
4110.376529,-612.876398,-2442.679609,11103.089130
4110.376844,306.438199,-814.226536,10362.883188
4110.377159,766.095498,592.164754,9400.615463
4110.377475,612.876398,1850.514855,8956.491898
4110.377790,1072.533697,1998.556043,8660.409521
4110.378105,995.924147,1628.453072,8290.306550
4110.378420,153.219100,740.205942,8734.430116
4110.378735,-306.438199,-592.164754,9326.594869
4110.379050,-995.924147,-1998.556043,9696.697840
4110.379365,-612.876398,-2368.659014,10436.903782
4110.379680,0.000000,-1332.370696,10510.924376
4110.379996,153.219100,-444.123565,9474.636058
4110.380311,689.485948,-0.000000,9696.697840
4110.380626,383.047749,222.061783,10362.883188
4110.380941,153.219100,444.123565,10066.800811
4110.381256,536.266849,-0.000000,9696.697840
4110.381571,459.657299,-444.123565,9770.718434
4110.381886,919.314598,-1110.308913,9548.656652
4110.382202,995.924147,-814.226536,8808.450710
4110.382517,1302.362347,148.041188,8216.285956
4110.382832,1302.362347,962.267725,8438.347739
4110.383147,1072.533697,1332.370696,8512.368333
4110.383462,766.095498,592.164754,9400.615463
4110.383777,153.219100,-74.020594,10066.800811
4110.384092,-459.657299,-1036.288319,10955.047942
4110.384407,-689.485948,-2146.597232,11547.212695
4110.384723,-766.095498,-2664.741391,11473.192101
4110.385038,0.000000,-1998.556043,10436.903782
4110.385353,842.705048,-518.144159,9548.656652
4110.385668,1532.190996,1258.350101,7846.182985
4110.385983,1072.533697,2886.803174,7772.162391
4110.386298,1225.752797,3108.864956,8068.244768
4110.386613,766.095498,2886.803174,8290.306550
4110.386929,0.000000,814.226536,9326.594869
4110.387244,-919.314598,-1184.329507,10955.047942
4110.387559,-1608.800546,-2072.576638,11917.315666
4110.387874,-1149.143247,-2812.782580,11473.192101
4110.388189,-919.314598,-1554.432478,11177.109724
4110.388504,-306.438199,-222.061783,9992.780217
4110.388819,-383.047749,1628.453072,9104.533087
4110.389134,0.000000,2368.659014,8364.327145
4110.389450,0.000000,2738.761985,8364.327145
4110.389765,-306.438199,2294.638420,8216.285956
4110.390080,-383.047749,1110.308913,8882.471304
4110.390395,-766.095498,-740.205942,9844.739029
4110.390710,-919.314598,-1480.411884,10436.903782
4110.391025,-612.876398,-888.247130,10288.862594
4110.391340,153.219100,222.061783,10362.883188
4110.391656,76.609550,1258.350101,9548.656652
4110.391971,0.000000,1850.514855,9400.615463
4110.392286,0.000000,1998.556043,9400.615463
4110.392601,0.000000,1702.473667,9178.553681
4110.392916,-536.266849,296.082377,9918.759623
4110.393231,-383.047749,-444.123565,9696.697840
4110.393546,0.000000,-518.144159,9548.656652
4110.393861,536.266849,-0.000000,9030.512492
4110.394177,689.485948,370.102971,9178.553681
4110.394492,612.876398,1332.370696,8956.491898
4110.394807,306.438199,1924.535449,9178.553681
4110.395122,459.657299,1628.453072,9252.574275
4110.395437,76.609550,1110.308913,9992.780217
4110.395752,-306.438199,-370.102971,10658.965565
4110.396067,-612.876398,-1110.308913,10955.047942
4110.396383,-383.047749,-1554.432478,10288.862594
4110.396698,0.000000,-666.185348,9992.780217
4110.397013,919.314598,666.185348,9326.594869
4110.397328,1302.362347,1628.453072,8438.347739
4110.397643,995.924147,2516.700203,8734.430116
4110.397958,383.047749,2294.638420,9178.553681
4110.398273,-306.438199,1110.308913,9548.656652
4110.398588,-383.047749,-0.000000,10214.842000
4110.398904,-919.314598,-1406.391290,10881.027347
4110.399219,-995.924147,-2294.638420,11103.089130
4110.399534,-306.438199,-2220.617826,10732.986159
4110.399849,689.485948,-962.267725,10214.842000
4110.400164,1072.533697,592.164754,8956.491898
4110.400479,919.314598,2146.597232,8216.285956
4110.400794,766.095498,2368.659014,8660.409521
4110.401110,612.876398,2368.659014,8364.327145
4110.401425,229.828649,1184.329507,9030.512492
4110.401740,0.000000,-1110.308913,9770.718434
4110.402055,-766.095498,-1850.514855,10510.924376
4110.402370,-766.095498,-1850.514855,10584.944971
4110.402685,0.000000,-1258.350101,9992.780217
4110.403000,383.047749,-0.000000,10066.800811
4110.403315,0.000000,740.205942,9400.615463
4110.403631,0.000000,1406.391290,9548.656652
4110.403946,0.000000,1110.308913,9104.533087
4110.404261,153.219100,444.123565,9548.656652
4110.404576,0.000000,-296.082377,9918.759623
4110.404891,153.219100,-1110.308913,9474.636058
4110.405206,76.609550,-1332.370696,9252.574275
4110.405521,612.876398,-518.144159,8956.491898
4110.405837,919.314598,370.102971,8882.471304
4110.406152,1072.533697,1258.350101,8808.450710
4110.406467,612.876398,1110.308913,9326.594869
4110.406782,306.438199,370.102971,9548.656652
4110.407097,0.000000,-296.082377,10362.883188
4110.407412,-306.438199,-1702.473667,10510.924376
4110.407727,-689.485948,-2368.659014,10510.924376
4110.408042,-76.609550,-1998.556043,10288.862594
4110.408358,306.438199,-1332.370696,9622.677246
4110.408673,612.876398,-0.000000,8808.450710
4110.408988,919.314598,1406.391290,8068.244768
4110.409303,842.705048,1702.473667,8364.327145
4110.409618,842.705048,1554.432478,9030.512492
4110.409933,229.828649,666.185348,9770.718434
4110.410248,-229.828649,-518.144159,10807.006753
4110.410564,-306.438199,-2146.597232,11103.089130
4110.410879,-306.438199,-2664.741391,11029.068536
4110.411194,153.219100,-1850.514855,10362.883188
4110.411509,383.047749,-814.226536,9474.636058
4110.411824,766.095498,740.205942,8808.450710
4110.412139,383.047749,1702.473667,8290.306550
4110.412454,689.485948,1702.473667,8734.430116
4110.412769,383.047749,1110.308913,8734.430116
4110.413085,-689.485948,222.061783,9474.636058
4110.413400,-995.924147,-1406.391290,10214.842000
4110.413715,-536.266849,-1628.453072,10881.027347
4110.414030,-306.438199,-1628.453072,10140.821405
4110.414345,383.047749,-666.185348,9474.636058
4110.414660,612.876398,1036.288319,9474.636058
4110.414975,459.657299,1924.535449,9474.636058
4110.415290,383.047749,2220.617826,9474.636058
4110.415606,459.657299,1628.453072,9400.615463
4110.415921,0.000000,592.164754,9548.656652
4110.416236,0.000000,-666.185348,9770.718434
4110.416551,76.609550,-1184.329507,9770.718434
4110.416866,153.219100,-962.267725,9030.512492
4110.417181,689.485948,-0.000000,9030.512492
4110.417496,995.924147,1406.391290,8512.368333
4110.417812,459.657299,1850.514855,8586.388927
4110.418127,-76.609550,1998.556043,9030.512492
4110.418442,-229.828649,1184.329507,9696.697840
4110.418757,-612.876398,-0.000000,10510.924376
4110.419072,-1302.362347,-1036.288319,11103.089130
4110.419387,-919.314598,-1036.288319,11473.192101
4110.419702,-229.828649,-962.267725,10510.924376
4110.420017,689.485948,666.185348,9770.718434
4110.420333,1225.752797,1776.494261,8882.471304
4110.420648,919.314598,2590.720797,8364.327145
4110.420963,995.924147,2886.803174,9104.533087
4110.421278,995.924147,1924.535449,9326.594869
4110.421593,229.828649,1184.329507,9844.739029
4110.421908,-383.047749,-518.144159,10584.944971
4110.422223,-766.095498,-1702.473667,10881.027347
4110.422539,-229.828649,-1850.514855,10510.924376
4110.422854,229.828649,-1184.329507,10288.862594
4110.423169,383.047749,-370.102971,9844.739029
4110.423484,536.266849,1332.370696,9178.553681
4110.423799,459.657299,2072.576638,8586.388927
4110.424114,229.828649,1850.514855,9030.512492
4110.424429,-229.828649,1184.329507,9178.553681
4110.424744,-153.219100,-74.020594,10140.821405
4110.425060,-229.828649,-1110.308913,10436.903782
4110.425375,76.609550,-1110.308913,10140.821405
4110.425690,459.657299,-666.185348,10140.821405
4110.426005,1149.143247,370.102971,9252.574275
4110.426320,842.705048,1036.288319,8882.471304
4110.426635,306.438199,1332.370696,9030.512492
4110.426950,0.000000,1332.370696,9030.512492
4110.427266,0.000000,370.102971,9400.615463
4110.427581,-459.657299,-1036.288319,9992.780217
4110.427896,-766.095498,-2146.597232,10140.821405
4110.428211,-842.705048,-2072.576638,9844.739029
4110.428526,383.047749,-1702.473667,9326.594869
4110.428841,383.047749,-444.123565,9030.512492
4110.429156,383.047749,740.205942,8290.306550
4110.429471,689.485948,1480.411884,8364.327145
4110.429787,306.438199,1628.453072,8808.450710
4110.430102,76.609550,444.123565,9622.677246
4110.430417,-536.266849,-370.102971,10066.800811
4110.430732,-536.266849,-1332.370696,10510.924376
4110.431047,-766.095498,-2146.597232,10066.800811
4110.431362,-383.047749,-1110.308913,9918.759623
4110.431677,919.314598,-74.020594,9474.636058
4110.431993,76.609550,888.247130,9030.512492
4110.432308,0.000000,1850.514855,8882.471304
4110.432623,0.000000,1480.411884,9178.553681
4110.432938,-383.047749,962.267725,9548.656652
4110.433253,-689.485948,-296.082377,9992.780217
4110.433568,-919.314598,-1628.453072,10436.903782
4110.433883,-766.095498,-2368.659014,10584.944971
4110.434198,-306.438199,-1554.432478,9992.780217
4110.434514,153.219100,-370.102971,9252.574275
4110.434829,612.876398,814.226536,9178.553681
4110.435144,536.266849,2072.576638,8586.388927
4110.435459,842.705048,1998.556043,9030.512492
4110.435774,459.657299,1554.432478,9178.553681
4110.436089,-306.438199,666.185348,9844.739029
4110.436404,-612.876398,-888.247130,10362.883188
4110.436720,-689.485948,-1184.329507,10658.965565
4110.437035,76.609550,-888.247130,10362.883188
4110.437350,459.657299,-444.123565,9992.780217
4110.437665,919.314598,814.226536,9178.553681
4110.437980,459.657299,1776.494261,9030.512492
4110.438295,536.266849,1776.494261,9326.594869
4110.438610,995.924147,1480.411884,9474.636058
4110.438925,766.095498,592.164754,9992.780217
4110.439241,229.828649,-222.061783,10510.924376
4110.439556,306.438199,-1036.288319,10510.924376
4110.439871,153.219100,-1258.350101,9548.656652
4110.440186,919.314598,-518.144159,9696.697840
4110.440501,919.314598,-0.000000,9326.594869
4110.440816,1302.362347,1110.308913,8882.471304
4110.441131,536.266849,1702.473667,9326.594869
4110.441447,612.876398,1628.453072,8956.491898
4110.441762,-153.219100,666.185348,9770.718434
4110.442077,-383.047749,-222.061783,10436.903782
4110.442392,-766.095498,-1628.453072,11103.089130
4110.442707,-229.828649,-1110.308913,10584.944971
4110.443022,153.219100,-518.144159,9696.697840
4110.443337,459.657299,444.123565,9178.553681
4110.443652,229.828649,1406.391290,8808.450710
4110.443968,0.000000,2442.679609,9474.636058
4110.444283,0.000000,1628.453072,9104.533087
4110.444598,76.609550,888.247130,9474.636058
4110.444913,-229.828649,-370.102971,9844.739029
4110.445228,-919.314598,-1332.370696,9992.780217
4110.445543,-919.314598,-1850.514855,9844.739029
4110.445858,-229.828649,-1036.288319,9622.677246
4110.446174,153.219100,-222.061783,8956.491898
4110.446489,459.657299,1036.288319,8438.347739
4110.446804,306.438199,2072.576638,8512.368333
4110.447119,-153.219100,1850.514855,8512.368333
4110.447434,0.000000,962.267725,9474.636058
4110.447749,-459.657299,-0.000000,9696.697840
4110.448064,-766.095498,-1628.453072,10732.986159
4110.448379,-383.047749,-1554.432478,10584.944971
4110.448695,153.219100,-740.205942,10288.862594
4110.449010,1072.533697,444.123565,9104.533087
4110.449325,995.924147,1554.432478,8882.471304
4110.449640,612.876398,2294.638420,9178.553681
4110.449955,229.828649,2072.576638,9326.594869
4110.450270,459.657299,1184.329507,9178.553681
4110.450585,-306.438199,222.061783,9326.594869
4110.450901,-459.657299,-1554.432478,10362.883188
4110.451216,-689.485948,-1406.391290,11251.130318
4110.451531,-689.485948,-1258.350101,10066.800811
4110.451846,0.000000,-962.267725,10214.842000
4110.452161,229.828649,370.102971,9474.636058
4110.452476,153.219100,1332.370696,8956.491898
4110.452791,536.266849,1776.494261,9104.533087
4110.453106,459.657299,1702.473667,9770.718434
4110.453422,-383.047749,518.144159,10066.800811
4110.453737,-153.219100,-444.123565,10436.903782
4110.454052,-229.828649,-1036.288319,10362.883188
4110.454367,0.000000,-1406.391290,10066.800811
4110.454682,689.485948,-222.061783,9844.739029
4110.454997,995.924147,888.247130,9474.636058
4110.455312,689.485948,1110.308913,9104.533087
4110.455628,383.047749,1036.288319,9104.533087
4110.455943,-383.047749,814.226536,9548.656652
4110.456258,-383.047749,-222.061783,10436.903782
4110.456573,-689.485948,-1258.350101,10658.965565
4110.456888,-459.657299,-1850.514855,10436.903782
4110.457203,0.000000,-1628.453072,10214.842000
4110.457518,689.485948,-666.185348,9252.574275
4110.457833,1225.752797,518.144159,8808.450710
4110.458149,1072.533697,1850.514855,8364.327145
4110.458464,459.657299,1850.514855,8882.471304
4110.458779,459.657299,1554.432478,8808.450710
4110.459094,-229.828649,370.102971,9474.636058
4110.459409,-612.876398,-740.205942,10584.944971
4110.459724,-612.876398,-1554.432478,10214.842000
4110.460039,-229.828649,-2072.576638,9992.780217
4110.460355,76.609550,-888.247130,9918.759623
4110.460670,383.047749,296.082377,9474.636058
4110.460985,919.314598,1406.391290,8290.306550
4110.461300,612.876398,2220.617826,8660.409521
4110.461615,383.047749,2294.638420,8882.471304
4110.461930,306.438199,962.267725,9326.594869
4110.462245,0.000000,222.061783,9474.636058
4110.462560,-536.266849,-888.247130,9992.780217
4110.462876,-229.828649,-1184.329507,10436.903782
4110.463191,153.219100,-666.185348,9918.759623
4110.463506,689.485948,-0.000000,9178.553681
4110.463821,689.485948,666.185348,9474.636058
4110.464136,76.609550,1184.329507,8956.491898
4110.464451,76.609550,1406.391290,9252.574275
4110.464766,0.000000,962.267725,9844.739029
4110.465082,0.000000,-296.082377,9918.759623
4110.465397,-306.438199,-370.102971,9474.636058
4110.465712,229.828649,-2368.659014,10140.821405
4110.466027,1378.971896,-1036.288319,9696.697840
4110.466342,1302.362347,-0.000000,8956.491898
4110.466657,1225.752797,1110.308913,8660.409521
4110.466972,1072.533697,1702.473667,8956.491898
4110.467287,689.485948,1554.432478,9178.553681
4110.467603,459.657299,518.144159,9622.677246
4110.467918,0.000000,-370.102971,10066.800811
4110.468233,-306.438199,-1628.453072,10807.006753
4110.468548,-612.876398,-2072.576638,10881.027347
4110.468863,76.609550,-1628.453072,10658.965565
4110.469178,689.485948,-518.144159,9696.697840
4110.469493,459.657299,962.267725,9104.533087
4110.469809,612.876398,2220.617826,8808.450710
4110.470124,842.705048,1702.473667,9252.574275
4110.470439,459.657299,1406.391290,9474.636058
4110.470754,689.485948,222.061783,9622.677246
4110.471069,-536.266849,-1036.288319,10436.903782
4110.471384,-459.657299,-1554.432478,10584.944971
4110.471699,0.000000,-1406.391290,9770.718434
4110.472014,612.876398,-740.205942,9178.553681
4110.472330,766.095498,-0.000000,9030.512492
4110.472645,153.219100,1332.370696,8882.471304
4110.472960,-306.438199,1628.453072,9252.574275
4110.473275,-536.266849,1332.370696,9400.615463
4110.473590,-612.876398,222.061783,9844.739029
4110.473905,-842.705048,-1258.350101,10584.944971
4110.474220,-1072.533697,-1480.411884,9992.780217
4110.474535,-612.876398,-1184.329507,10214.842000
4110.474851,76.609550,-740.205942,9696.697840
4110.475166,689.485948,592.164754,8660.409521
4110.475481,153.219100,1850.514855,8438.347739
4110.475796,0.000000,1850.514855,8808.450710
4110.476112,-229.828649,1702.473667,8808.450710
4110.476427,-536.266849,740.205942,9400.615463
4110.476742,-766.095498,-666.185348,9696.697840
4110.477058,-1608.800546,-1776.494261,10214.842000
4110.477373,-1225.752797,-1850.514855,10140.821405
4110.477688,-689.485948,-1184.329507,9918.759623
4110.478004,0.000000,592.164754,9252.574275
4110.478319,153.219100,1258.350101,9030.512492
4110.478634,0.000000,1332.370696,8808.450710
4110.478950,76.609550,1924.535449,9400.615463
4110.479265,0.000000,740.205942,9474.636058
4110.479580,-536.266849,-74.020594,10214.842000
4110.479896,-229.828649,-814.226536,10807.006753
4110.480211,0.000000,-1480.411884,9992.780217
4110.480526,612.876398,-666.185348,9622.677246
4110.480841,995.924147,370.102971,9252.574275
4110.481157,1685.410096,1258.350101,8512.368333
4110.481472,1072.533697,1776.494261,8660.409521
4110.481787,842.705048,1628.453072,9178.553681
4110.482103,536.266849,1036.288319,9992.780217
4110.482418,0.000000,-0.000000,9844.739029
4110.482733,-153.219100,-1628.453072,10436.903782
4110.483049,0.000000,-1628.453072,10510.924376
4110.483364,306.438199,-962.267725,10362.883188
4110.483679,995.924147,-0.000000,9844.739029
4110.483995,995.924147,888.247130,9474.636058
4110.484310,459.657299,1406.391290,9548.656652
4110.484625,1225.752797,1924.535449,9474.636058
4110.484941,689.485948,1776.494261,9474.636058
4110.485256,306.438199,740.205942,9992.780217
4110.485571,306.438199,-592.164754,10140.821405
4110.485887,536.266849,-1258.350101,9696.697840
4110.486202,689.485948,-1480.411884,9548.656652
4110.486517,1378.971896,-296.082377,9104.533087
4110.486832,766.095498,592.164754,8586.388927
4110.487148,229.828649,1628.453072,9030.512492
4110.487463,459.657299,1406.391290,9178.553681
4110.487778,0.000000,888.247130,9622.677246
4110.488094,-383.047749,-74.020594,9622.677246
4110.488409,-536.266849,-962.267725,10584.944971
4110.488724,-995.924147,-1554.432478,10658.965565
4110.489040,0.000000,-1406.391290,9474.636058
4110.489355,612.876398,-296.082377,9474.636058
4110.489670,612.876398,962.267725,9178.553681
4110.489986,76.609550,2220.617826,8660.409521
4110.490301,1225.752797,2294.638420,9252.574275
4110.490616,229.828649,1924.535449,9178.553681
4110.490932,-612.876398,518.144159,9548.656652
4110.491247,-995.924147,-814.226536,10140.821405
4110.491562,-1072.533697,-1924.535449,10436.903782
4110.491878,-459.657299,-2146.597232,10140.821405
4110.492193,0.000000,-888.247130,9622.677246
4110.492508,383.047749,444.123565,9178.553681
4110.492823,0.000000,1332.370696,9252.574275
4110.493139,0.000000,1850.514855,9252.574275
4110.493454,0.000000,1332.370696,9030.512492
4110.493769,-536.266849,592.164754,9474.636058
4110.494085,-842.705048,-444.123565,10140.821405
4110.494400,-842.705048,-1480.411884,10140.821405
4110.494715,-612.876398,-1184.329507,10140.821405
4110.495031,229.828649,-814.226536,9992.780217
4110.495346,536.266849,444.123565,9474.636058
4110.495661,383.047749,1480.411884,9030.512492
4110.495977,153.219100,1924.535449,8956.491898
4110.496292,0.000000,1184.329507,9252.574275
4110.496607,-536.266849,888.247130,10140.821405
4110.496923,-689.485948,-814.226536,10362.883188
4110.497238,-842.705048,-1702.473667,10584.944971
4110.497553,-766.095498,-1702.473667,10214.842000
4110.497869,153.219100,-814.226536,9696.697840
4110.498184,842.705048,-0.000000,8882.471304
4110.498499,842.705048,1628.453072,8734.430116
4110.498814,612.876398,1850.514855,8808.450710
4110.499130,919.314598,1628.453072,8882.471304
4110.499445,306.438199,1184.329507,9400.615463
4110.499760,76.609550,-296.082377,9696.697840
4110.500076,-459.657299,-1406.391290,10140.821405
4110.500391,-153.219100,-1406.391290,10214.842000
4110.500706,153.219100,-1480.411884,9770.718434
4110.501022,536.266849,-74.020594,9400.615463
4110.501337,766.095498,1184.329507,9104.533087
4110.501652,306.438199,1554.432478,9104.533087
4110.501968,229.828649,1776.494261,9326.594869
4110.502283,76.609550,1184.329507,9696.697840
4110.502598,76.609550,-0.000000,9992.780217
4110.502914,0.000000,-1036.288319,10288.862594
4110.503229,229.828649,-1184.329507,9844.739029
4110.503544,919.314598,-666.185348,10066.800811
4110.503860,1532.190996,-74.020594,8956.491898
4110.504175,1455.581446,1628.453072,8512.368333
4110.504490,842.705048,2072.576638,9178.553681
4110.504806,689.485948,1554.432478,9326.594869
4110.505121,229.828649,740.205942,9548.656652
4110.505436,-153.219100,-296.082377,9770.718434
4110.505751,0.000000,-1628.453072,10732.986159
4110.506067,-536.266849,-1998.556043,10732.986159
4110.506382,-383.047749,-1628.453072,10066.800811
4110.506697,536.266849,-74.020594,9622.677246
4110.507013,766.095498,518.144159,9252.574275
4110.507328,1072.533697,1850.514855,9030.512492
4110.507643,689.485948,1998.556043,9030.512492
4110.507959,689.485948,1554.432478,9104.533087
4110.508274,0.000000,962.267725,9622.677246
4110.508589,-459.657299,-592.164754,10214.842000
4110.508905,0.000000,-1998.556043,10510.924376
4110.509220,-306.438199,-1332.370696,10066.800811
4110.509535,153.219100,-888.247130,9992.780217
4110.509851,536.266849,-0.000000,9400.615463
4110.510166,76.609550,962.267725,9178.553681
4110.510481,0.000000,1406.391290,9474.636058
4110.510797,-229.828649,1332.370696,9696.697840
4110.511112,-459.657299,814.226536,9770.718434
4110.511427,-536.266849,-814.226536,10362.883188
4110.511742,-306.438199,-1702.473667,10288.862594
4110.512058,-383.047749,-1776.494261,9992.780217
4110.512373,459.657299,-666.185348,9178.553681
4110.512688,536.266849,444.123565,8734.430116
4110.513004,383.047749,1332.370696,8512.368333
4110.513319,536.266849,2072.576638,8734.430116
4110.513634,153.219100,1110.308913,9326.594869
4110.513950,-306.438199,222.061783,9696.697840
4110.514265,-1072.533697,-444.123565,10140.821405
4110.514580,-1072.533697,-1628.453072,10066.800811
4110.514896,-689.485948,-2072.576638,10140.821405
4110.515211,-76.609550,-1184.329507,9474.636058
4110.515526,153.219100,-0.000000,9252.574275
4110.515842,-306.438199,1554.432478,8882.471304
4110.516157,-612.876398,1776.494261,9104.533087
4110.516472,0.000000,962.267725,9104.533087
4110.516788,0.000000,370.102971,9844.739029
4110.517103,-612.876398,-370.102971,10214.842000
4110.517418,-919.314598,-1258.350101,10584.944971
4110.517733,-383.047749,-1110.308913,10214.842000
4110.518049,459.657299,-222.061783,10140.821405
4110.518364,766.095498,518.144159,9178.553681
4110.518679,536.266849,1702.473667,8438.347739
4110.518995,459.657299,2294.638420,8364.327145
4110.519310,383.047749,1924.535449,8512.368333
4110.519625,689.485948,814.226536,9400.615463
4110.519941,-229.828649,-74.020594,9548.656652
4110.520256,-919.314598,-1628.453072,10807.006753
4110.520571,-842.705048,-1924.535449,10732.986159
4110.520887,0.000000,-1110.308913,10214.842000
4110.521202,1225.752797,-592.164754,9474.636058
4110.521517,689.485948,1406.391290,8734.430116
4110.521833,842.705048,2146.597232,8956.491898
4110.522148,1072.533697,2220.617826,8956.491898
4110.522463,995.924147,1998.556043,9326.594869
4110.522779,612.876398,592.164754,9918.759623
4110.523094,-153.219100,-222.061783,10066.800811
4110.523409,-383.047749,-962.267725,10214.842000
4110.523724,306.438199,-888.247130,10288.862594
4110.524040,995.924147,-370.102971,9918.759623
4110.524355,1225.752797,666.185348,9104.533087
4110.524670,766.095498,1702.473667,9326.594869
4110.524986,306.438199,2146.597232,9474.636058
4110.525301,76.609550,1258.350101,9326.594869
4110.525616,76.609550,-0.000000,9992.780217
4110.525932,153.219100,-888.247130,10584.944971
4110.526247,-306.438199,-1554.432478,10584.944971
4110.526562,153.219100,-1110.308913,10436.903782
4110.526878,612.876398,-0.000000,9770.718434
4110.527193,1378.971896,962.267725,9178.553681
4110.527508,536.266849,1850.514855,9178.553681
4110.527824,459.657299,1850.514855,9548.656652
4110.528139,229.828649,1628.453072,9918.759623
4110.528454,-306.438199,518.144159,9918.759623
4110.528770,-995.924147,-814.226536,10658.965565
4110.529085,-1302.362347,-1480.411884,10510.924376
4110.529400,-766.095498,-1554.432478,10436.903782
4110.529716,153.219100,-740.205942,9844.739029
4110.530031,0.000000,592.164754,8882.471304
4110.530346,383.047749,1554.432478,8512.368333
4110.530661,306.438199,1924.535449,8734.430116
4110.530977,0.000000,1332.370696,9030.512492
4110.531292,76.609550,518.144159,9474.636058
4110.531607,0.000000,-592.164754,9770.718434
4110.531923,-612.876398,-1850.514855,10066.800811
4110.532238,-383.047749,-2072.576638,9918.759623
4110.532553,306.438199,-1332.370696,9696.697840
4110.532869,306.438199,-444.123565,9030.512492
4110.533184,229.828649,148.041188,8586.388927
4110.533499,0.000000,1554.432478,8438.347739
4110.533815,-383.047749,1332.370696,8808.450710
4110.534130,-766.095498,592.164754,9400.615463
4110.534445,-1072.533697,-962.267725,9992.780217
4110.534761,-1149.143247,-2220.617826,10288.862594
4110.535076,-383.047749,-2072.576638,10288.862594
4110.535391,76.609550,-1332.370696,9918.759623
4110.535707,689.485948,-0.000000,9178.553681
4110.536022,842.705048,1258.350101,8438.347739
4110.536337,306.438199,2072.576638,8586.388927
4110.536652,842.705048,2220.617826,8808.450710
4110.536968,383.047749,1110.308913,9030.512492
4110.537283,0.000000,-370.102971,9696.697840
4110.537598,0.000000,-1776.494261,10214.842000
4110.537914,-229.828649,-2294.638420,10510.924376
4110.538229,229.828649,-1258.350101,9770.718434
4110.538544,766.095498,-222.061783,9252.574275
4110.538860,536.266849,962.267725,8734.430116
4110.539175,919.314598,1554.432478,9104.533087
4110.539490,1072.533697,1702.473667,9252.574275
4110.539806,459.657299,1036.288319,9548.656652
4110.540121,459.657299,-0.000000,9770.718434
4110.540436,0.000000,-888.247130,10658.965565
4110.540752,0.000000,-1332.370696,10658.965565
4110.541067,612.876398,-1036.288319,10066.800811
4110.541382,1302.362347,-0.000000,9696.697840
4110.541698,1072.533697,1406.391290,9030.512492
4110.542013,1532.190996,1998.556043,9104.533087
4110.542328,919.314598,1998.556043,9178.553681
4110.542643,76.609550,1110.308913,9474.636058
4110.542959,-229.828649,-0.000000,10214.842000
4110.543274,-689.485948,-1332.370696,10881.027347
4110.543589,-689.485948,-2146.597232,10881.027347
4110.543905,-459.657299,-1702.473667,10288.862594
4110.544220,0.000000,-148.041188,9622.677246
4110.544535,0.000000,1036.288319,9178.553681
4110.544851,76.609550,1924.535449,8882.471304
4110.545166,0.000000,2368.659014,9178.553681
4110.545481,0.000000,1702.473667,9548.656652
4110.545797,-689.485948,592.164754,10066.800811
4110.546112,-1149.143247,-518.144159,11029.068536
4110.546427,-1685.410096,-1258.350101,10955.047942
4110.546743,-995.924147,-888.247130,11103.089130
4110.547058,153.219100,-148.041188,9844.739029
4110.547373,612.876398,1110.308913,9252.574275
4110.547689,0.000000,1850.514855,8882.471304
4110.548004,306.438199,2072.576638,9104.533087
4110.548319,-153.219100,1776.494261,9326.594869
4110.548634,-612.876398,888.247130,9770.718434
4110.548950,-766.095498,-444.123565,10510.924376
4110.549265,-842.705048,-1480.411884,10584.944971
4110.549580,-229.828649,-1702.473667,10140.821405
4110.549896,229.828649,-1036.288319,9474.636058
4110.550211,459.657299,296.082377,8956.491898
4110.550526,459.657299,1406.391290,8512.368333
4110.550842,76.609550,1850.514855,8956.491898
4110.551157,153.219100,1480.411884,9252.574275
4110.551472,0.000000,666.185348,9474.636058
4110.551788,0.000000,-740.205942,9696.697840
4110.552103,-459.657299,-1776.494261,10140.821405
4110.552418,0.000000,-1776.494261,10140.821405
4110.552734,766.095498,-1184.329507,9844.739029
4110.553049,919.314598,370.102971,9104.533087
4110.553364,1302.362347,962.267725,8438.347739
4110.553680,766.095498,1554.432478,8734.430116
4110.553995,1378.971896,1184.329507,9326.594869
4110.554310,612.876398,518.144159,9474.636058
4110.554626,612.876398,-666.185348,9696.697840
4110.554941,306.438199,-2072.576638,9992.780217
4110.555256,383.047749,-2146.597232,10140.821405
4110.555571,919.314598,-1258.350101,9548.656652
4110.555887,1455.581446,-74.020594,8882.471304
4110.556202,1225.752797,962.267725,8216.285956
4110.556517,1225.752797,2072.576638,8586.388927
4110.556833,995.924147,1776.494261,9178.553681
4110.557148,383.047749,666.185348,9474.636058
4110.557463,0.000000,-592.164754,9918.759623
4110.557779,-153.219100,-1554.432478,10288.862594
4110.558094,0.000000,-1702.473667,10658.965565
4110.558409,76.609550,-1184.329507,9992.780217
4110.558725,612.876398,-74.020594,9474.636058
4110.559040,459.657299,1110.308913,8808.450710
4110.559355,459.657299,2072.576638,9326.594869
4110.559671,0.000000,1480.411884,9770.718434
4110.559986,-229.828649,1332.370696,9622.677246
4110.560301,-536.266849,-0.000000,9992.780217
4110.560617,-995.924147,-814.226536,10362.883188
4110.560932,-995.924147,-1628.453072,10288.862594
4110.561247,-383.047749,-1110.308913,10140.821405
4110.561562,0.000000,-444.123565,9474.636058
4110.561878,766.095498,592.164754,9104.533087
4110.562193,-383.047749,1850.514855,8586.388927
4110.562508,0.000000,2072.576638,9030.512492
4110.562824,-612.876398,1258.350101,9844.739029
4110.563139,-1302.362347,148.041188,10436.903782
4110.563454,-1378.971896,-888.247130,10955.047942
4110.563770,-1302.362347,-1480.411884,10584.944971
4110.564085,-229.828649,-1554.432478,10214.842000
4110.564400,306.438199,-0.000000,9622.677246
4110.564716,612.876398,1554.432478,8956.491898
4110.565031,383.047749,2072.576638,8956.491898
4110.565346,536.266849,2072.576638,9104.533087
4110.565662,766.095498,1406.391290,8882.471304
4110.565977,229.828649,296.082377,9918.759623
4110.566292,-459.657299,-444.123565,10510.924376
4110.566608,-612.876398,-1850.514855,10584.944971
4110.566923,0.000000,-1702.473667,9844.739029
4110.567238,536.266849,-666.185348,9770.718434
4110.567553,689.485948,296.082377,9030.512492
4110.567869,306.438199,1110.308913,8882.471304
4110.568184,459.657299,1850.514855,8734.430116
4110.568499,383.047749,1184.329507,9252.574275
4110.568815,0.000000,444.123565,9696.697840
4110.569130,0.000000,-666.185348,10288.862594
4110.569445,0.000000,-1110.308913,10214.842000
4110.569761,153.219100,-1110.308913,9548.656652
4110.570076,459.657299,-370.102971,9474.636058
4110.570391,1149.143247,222.061783,9178.553681
4110.570707,766.095498,1554.432478,8734.430116
4110.571022,0.000000,2072.576638,8660.409521
4110.571337,0.000000,1332.370696,9030.512492
4110.571653,-153.219100,592.164754,9548.656652
4110.571968,-383.047749,-888.247130,10214.842000
4110.572283,-842.705048,-1776.494261,10214.842000
4110.572599,-536.266849,-1332.370696,9696.697840
4110.572914,153.219100,-888.247130,9326.594869
4110.573229,919.314598,222.061783,8882.471304
4110.573545,459.657299,444.123565,8512.368333
4110.573860,229.828649,1628.453072,8808.450710
4110.574175,153.219100,1850.514855,8956.491898
4110.574491,0.000000,1184.329507,9474.636058
4110.574806,-383.047749,-0.000000,10066.800811
4110.575121,-306.438199,-1036.288319,10436.903782
4110.575437,-612.876398,-1406.391290,10436.903782
4110.575752,153.219100,-1258.350101,10140.821405
4110.576068,536.266849,-0.000000,9474.636058
4110.576383,383.047749,1332.370696,9104.533087
4110.576698,153.219100,2294.638420,9326.594869
4110.577014,0.000000,2220.617826,9326.594869
4110.577329,0.000000,1332.370696,9326.594869
4110.577644,0.000000,-0.000000,9770.718434
4110.577960,0.000000,-1110.308913,10436.903782
4110.578275,-766.095498,-2146.597232,10584.944971
4110.578591,0.000000,-740.205942,9992.780217
4110.578906,459.657299,148.041188,9770.718434
4110.579221,766.095498,814.226536,9474.636058
4110.579537,459.657299,1702.473667,9030.512492
4110.579852,612.876398,1406.391290,9474.636058
4110.580167,0.000000,1184.329507,9474.636058
4110.580483,-612.876398,-0.000000,10140.821405
4110.580798,-612.876398,-814.226536,10881.027347
4110.581114,-919.314598,-1702.473667,10807.006753
4110.581429,0.000000,-370.102971,10881.027347
4110.581744,689.485948,-222.061783,9696.697840
4110.582060,689.485948,666.185348,9104.533087
4110.582375,689.485948,1702.473667,8882.471304
4110.582690,536.266849,1850.514855,9178.553681
4110.583006,689.485948,1036.288319,9104.533087
4110.583321,229.828649,-0.000000,9474.636058
4110.583636,0.000000,-1036.288319,10140.821405
4110.583952,0.000000,-1628.453072,9770.718434
4110.584267,0.000000,-2072.576638,9400.615463
4110.584583,766.095498,-962.267725,9844.739029
4110.584898,536.266849,-148.041188,8734.430116
4110.585213,459.657299,1184.329507,8512.368333
4110.585529,689.485948,962.267725,8882.471304
4110.585844,153.219100,1110.308913,9104.533087
4110.586159,0.000000,-0.000000,9696.697840
4110.586475,-536.266849,-962.267725,9770.718434
4110.586790,-612.876398,-1702.473667,9696.697840
4110.587106,-153.219100,-1554.432478,9918.759623
4110.587421,229.828649,-1110.308913,9548.656652
4110.587736,306.438199,-0.000000,9178.553681
4110.588052,0.000000,1332.370696,8660.409521
4110.588367,0.000000,1776.494261,9178.553681
4110.588682,306.438199,1776.494261,9030.512492
4110.588998,0.000000,740.205942,9400.615463
4110.589313,0.000000,-0.000000,9844.739029
4110.589629,-536.266849,-1258.350101,10288.862594
4110.589944,0.000000,-1850.514855,10214.842000
4110.590259,689.485948,-1036.288319,9696.697840
4110.590575,536.266849,-0.000000,9178.553681
4110.590890,229.828649,1628.453072,8734.430116
4110.591205,612.876398,2220.617826,8956.491898
4110.591521,229.828649,1850.514855,9474.636058
4110.591836,76.609550,814.226536,9992.780217
4110.592151,-459.657299,-148.041188,10807.006753
4110.592467,-536.266849,-814.226536,10436.903782
4110.592782,-229.828649,-1184.329507,10362.883188
4110.593098,383.047749,-962.267725,10288.862594
4110.593413,842.705048,-0.000000,9696.697840
4110.593728,306.438199,1776.494261,9696.697840
4110.594044,612.876398,1850.514855,9326.594869
4110.594359,842.705048,2368.659014,8956.491898
4110.594674,612.876398,1332.370696,9474.636058
4110.594990,153.219100,-0.000000,10584.944971
4110.595305,-459.657299,-1184.329507,10362.883188
4110.595621,-229.828649,-1628.453072,10807.006753
4110.595936,536.266849,-1628.453072,10288.862594
4110.596251,842.705048,-148.041188,9474.636058
4110.596567,1378.971896,1036.288319,8956.491898
4110.596882,536.266849,1702.473667,9178.553681
4110.597197,842.705048,1110.308913,9400.615463
4110.597513,536.266849,1110.308913,8882.471304
4110.597828,0.000000,-0.000000,9622.677246
4110.598144,-229.828649,-1110.308913,10436.903782
4110.598459,-459.657299,-1480.411884,10140.821405
4110.598774,306.438199,-1702.473667,9770.718434
4110.599090,842.705048,-962.267725,9696.697840
4110.599405,383.047749,814.226536,9030.512492
4110.599720,0.000000,1332.370696,9104.533087
4110.600036,76.609550,1998.556043,8660.409521
4110.600351,0.000000,1258.350101,9326.594869
4110.600667,-306.438199,518.144159,9178.553681
4110.600982,-842.705048,-962.267725,10214.842000
4110.601297,-842.705048,-1628.453072,10140.821405
4110.601613,-306.438199,-1406.391290,9918.759623
4110.601928,766.095498,-222.061783,9474.636058
4110.602243,306.438199,814.226536,8438.347739
4110.602559,-153.219100,1702.473667,8586.388927
4110.602874,-229.828649,2368.659014,8808.450710
4110.603189,0.000000,1702.473667,9326.594869
4110.603505,-689.485948,518.144159,9696.697840
4110.603820,-1225.752797,-666.185348,10288.862594
4110.604136,-1072.533697,-1480.411884,10214.842000
4110.604451,-995.924147,-1628.453072,9770.718434
4110.604766,0.000000,-888.247130,9474.636058
4110.605082,229.828649,518.144159,8882.471304
4110.605397,153.219100,1480.411884,8068.244768
4110.605712,153.219100,1776.494261,8956.491898
4110.606028,153.219100,1554.432478,8660.409521
4110.606343,-612.876398,962.267725,9326.594869
4110.606659,-459.657299,-0.000000,9992.780217
4110.606974,-919.314598,-1406.391290,10288.862594
4110.607289,-229.828649,-1776.494261,10362.883188
4110.607605,383.047749,-962.267725,9992.780217
4110.607920,536.266849,296.082377,9474.636058
4110.608235,536.266849,1554.432478,8956.491898
4110.608551,0.000000,2072.576638,9326.594869
4110.608866,0.000000,1776.494261,9696.697840
4110.609182,0.000000,814.226536,9770.718434
4110.609497,-459.657299,-592.164754,10214.842000
4110.609812,-459.657299,-1036.288319,10658.965565
4110.610128,0.000000,-888.247130,10807.006753
4110.610443,306.438199,-370.102971,9770.718434
4110.610758,612.876398,296.082377,9844.739029
4110.611074,1072.533697,962.267725,9474.636058
4110.611389,995.924147,1702.473667,9696.697840
4110.611704,995.924147,1776.494261,9770.718434
4110.612020,229.828649,1184.329507,9770.718434
4110.612335,76.609550,222.061783,10510.924376
4110.612651,-459.657299,-1110.308913,10807.006753
4110.612966,76.609550,-1184.329507,10658.965565
4110.613281,766.095498,-1036.288319,9992.780217
4110.613597,1225.752797,-74.020594,9400.615463
4110.613912,1225.752797,1258.350101,8734.430116
4110.614227,1149.143247,1702.473667,9030.512492
4110.614543,459.657299,1776.494261,9178.553681
4110.614858,153.219100,740.205942,9474.636058
4110.615174,0.000000,-148.041188,10140.821405
4110.615489,0.000000,-1406.391290,10140.821405
4110.615804,153.219100,-1850.514855,9696.697840
4110.616120,76.609550,-1480.411884,9696.697840
4110.616435,76.609550,-592.164754,9178.553681
4110.616750,536.266849,518.144159,8808.450710
4110.617066,153.219100,1628.453072,8512.368333
4110.617381,306.438199,1480.411884,8956.491898
4110.617697,76.609550,962.267725,8808.450710
4110.618012,-153.219100,-74.020594,9844.739029
4110.618327,-536.266849,-1036.288319,9992.780217
4110.618643,-383.047749,-1850.514855,9992.780217
4110.618958,689.485948,-1406.391290,9548.656652
4110.619273,306.438199,-592.164754,9178.553681
4110.619589,689.485948,444.123565,8734.430116
4110.619904,536.266849,1480.411884,8734.430116
4110.620220,0.000000,1480.411884,8734.430116
4110.620535,383.047749,1036.288319,9178.553681
4110.620850,-229.828649,-0.000000,9770.718434
4110.621166,-842.705048,-1110.308913,10510.924376
4110.621481,-689.485948,-1850.514855,10140.821405
4110.621796,-306.438199,-1480.411884,10066.800811
4110.622112,766.095498,-666.185348,9918.759623
4110.622427,766.095498,666.185348,9548.656652
4110.622742,459.657299,1702.473667,9030.512492
4110.623058,459.657299,2072.576638,9178.553681
4110.623373,689.485948,1628.453072,9326.594869
4110.623689,0.000000,592.164754,9622.677246
4110.624004,-459.657299,-592.164754,10362.883188
4110.624319,-689.485948,-1406.391290,10362.883188
4110.624635,-306.438199,-1628.453072,10066.800811
4110.624950,153.219100,-1258.350101,9548.656652
4110.625265,459.657299,-0.000000,9474.636058
4110.625581,0.000000,1258.350101,9326.594869
4110.625896,-229.828649,1332.370696,9474.636058
4110.626212,-153.219100,1036.288319,9474.636058
4110.626527,-383.047749,222.061783,9696.697840
4110.626842,-536.266849,-740.205942,10436.903782
4110.627158,-689.485948,-1332.370696,10436.903782
4110.627473,-459.657299,-1184.329507,10140.821405
4110.627788,0.000000,-888.247130,9918.759623
4110.628104,766.095498,666.185348,8882.471304
4110.628419,995.924147,1406.391290,8438.347739
4110.628735,383.047749,1480.411884,8882.471304
4110.629050,153.219100,1554.432478,9030.512492
4110.629365,-612.876398,444.123565,9770.718434
4110.629681,-459.657299,-666.185348,10510.924376
4110.629996,-689.485948,-1554.432478,10066.800811
4110.630311,-842.705048,-1480.411884,10140.821405
4110.630627,0.000000,-740.205942,9474.636058
4110.630942,229.828649,222.061783,9252.574275
4110.631257,612.876398,1480.411884,8882.471304
4110.631573,766.095498,2146.597232,8660.409521
4110.631888,383.047749,2220.617826,8882.471304
4110.632204,306.438199,1406.391290,9548.656652
4110.632519,0.000000,-74.020594,10066.800811
4110.632834,0.000000,-814.226536,10584.944971
4110.633150,0.000000,-1110.308913,10436.903782
4110.633465,153.219100,-666.185348,10066.800811
4110.633780,229.828649,592.164754,9622.677246
4110.634096,536.266849,1332.370696,9252.574275
4110.634411,76.609550,1998.556043,8734.430116
4110.634727,153.219100,1924.535449,9178.553681
4110.635042,306.438199,1480.411884,9326.594869
4110.635357,-383.047749,222.061783,9844.739029
4110.635673,-383.047749,-370.102971,10362.883188
4110.635988,-229.828649,-962.267725,10510.924376
4110.636303,383.047749,-1036.288319,10288.862594
4110.636619,842.705048,-74.020594,9622.677246
4110.636934,766.095498,518.144159,9474.636058
4110.637250,459.657299,1480.411884,9400.615463
4110.637565,689.485948,2072.576638,9400.615463
4110.637880,306.438199,1628.453072,9252.574275
4110.638196,0.000000,370.102971,9918.759623
4110.638511,-536.266849,-518.144159,10510.924376
4110.638826,-536.266849,-1406.391290,10140.821405
4110.639142,0.000000,-1480.411884,10066.800811
4110.639457,612.876398,-666.185348,9770.718434
4110.639773,842.705048,814.226536,9178.553681
4110.640088,919.314598,888.247130,9326.594869
4110.640403,383.047749,1332.370696,9474.636058
4110.640719,153.219100,1406.391290,9178.553681
4110.641034,0.000000,-0.000000,9400.615463
4110.641349,0.000000,-592.164754,10288.862594
4110.641665,-459.657299,-1406.391290,10288.862594
4110.641980,153.219100,-1406.391290,9696.697840
4110.642295,229.828649,-666.185348,9622.677246
4110.642611,536.266849,592.164754,9326.594869
4110.642926,306.438199,1184.329507,9178.553681
4110.643242,229.828649,1406.391290,9104.533087
4110.643557,76.609550,888.247130,9696.697840
4110.643872,-306.438199,740.205942,10066.800811
4110.644188,-766.095498,-296.082377,10066.800811
4110.644503,-842.705048,-1332.370696,10584.944971
4110.644818,-612.876398,-1184.329507,10140.821405
4110.645134,229.828649,-814.226536,9474.636058
4110.645449,306.438199,-0.000000,9030.512492
4110.645765,76.609550,1036.288319,8882.471304
4110.646080,-306.438199,1776.494261,8882.471304
4110.646395,-153.219100,1332.370696,8660.409521
4110.646711,-383.047749,592.164754,9622.677246
4110.647026,-459.657299,-518.144159,10140.821405
4110.647341,-1072.533697,-1036.288319,9844.739029
4110.647657,-766.095498,-1406.391290,9770.718434
4110.647972,76.609550,-1184.329507,9844.739029
4110.648288,383.047749,-0.000000,9104.533087
4110.648603,612.876398,1332.370696,9104.533087
4110.648918,76.609550,1184.329507,8882.471304
4110.649234,153.219100,1702.473667,8956.491898
4110.649549,536.266849,1110.308913,8734.430116
4110.649864,0.000000,-74.020594,9918.759623
4110.650180,-383.047749,-1110.308913,10066.800811
4110.650495,-383.047749,-1554.432478,9992.780217
4110.650810,536.266849,-1702.473667,9844.739029
4110.651126,919.314598,-296.082377,9474.636058
4110.651441,919.314598,740.205942,8734.430116
4110.651757,612.876398,1702.473667,8586.388927
4110.652072,383.047749,1258.350101,8956.491898
4110.652387,689.485948,888.247130,9400.615463
4110.652703,383.047749,-0.000000,9548.656652
4110.653018,153.219100,-888.247130,9992.780217
4110.653333,229.828649,-1332.370696,10288.862594
4110.653649,459.657299,-962.267725,10214.842000
4110.653964,766.095498,-592.164754,9770.718434
4110.654280,1149.143247,666.185348,9474.636058
4110.654595,612.876398,1480.411884,9178.553681
4110.654910,306.438199,1332.370696,9474.636058
4110.655226,0.000000,1184.329507,9992.780217
4110.655541,0.000000,592.164754,9918.759623
4110.655856,-306.438199,-444.123565,10214.842000
4110.656172,-536.266849,-1036.288319,10066.800811
4110.656487,76.609550,-962.267725,9918.759623
4110.656803,612.876398,-222.061783,9992.780217
4110.657118,842.705048,518.144159,9030.512492
4110.657433,383.047749,1480.411884,8882.471304
4110.657749,0.000000,1628.453072,9400.615463
4110.658064,-459.657299,1406.391290,9548.656652
4110.658379,-459.657299,296.082377,10214.842000
4110.658695,-919.314598,-518.144159,10140.821405
4110.659010,-842.705048,-1480.411884,10510.924376
4110.659326,0.000000,-1480.411884,10066.800811
4110.659641,612.876398,-592.164754,9918.759623
4110.659956,76.609550,518.144159,9252.574275
4110.660272,0.000000,1924.535449,8956.491898
4110.660587,153.219100,1924.535449,8734.430116
4110.660902,229.828649,1406.391290,9104.533087
4110.661218,0.000000,1332.370696,9474.636058
4110.661533,0.000000,-518.144159,9548.656652
4110.661848,-536.266849,-1110.308913,9622.677246
4110.662164,0.000000,-1332.370696,9474.636058
4110.662479,153.219100,-1184.329507,9474.636058
4110.662795,153.219100,370.102971,9104.533087
4110.663110,306.438199,1554.432478,9178.553681
4110.663425,76.609550,2072.576638,8956.491898
4110.663741,0.000000,1998.556043,8956.491898
4110.664056,-536.266849,1110.308913,9918.759623
4110.664371,-842.705048,-148.041188,10658.965565
4110.664687,-612.876398,-1110.308913,10362.883188
4110.665002,0.000000,-1628.453072,10140.821405
4110.665318,459.657299,-888.247130,10214.842000
4110.665633,459.657299,518.144159,9844.739029
4110.665948,1072.533697,1776.494261,9104.533087
4110.666264,919.314598,2368.659014,9104.533087
4110.666579,919.314598,2294.638420,9104.533087
4110.666894,612.876398,1258.350101,9252.574275
4110.667210,0.000000,-0.000000,9918.759623
4110.667525,-536.266849,-814.226536,10584.944971
4110.667841,0.000000,-1332.370696,10066.800811
4110.668156,689.485948,-1184.329507,9770.718434
4110.668471,919.314598,-370.102971,9622.677246
4110.668787,1149.143247,888.247130,9178.553681
4110.669102,536.266849,1406.391290,9030.512492
4110.669417,995.924147,1776.494261,9400.615463
4110.669733,766.095498,1332.370696,9548.656652
4110.670048,0.000000,-0.000000,9770.718434
4110.670363,0.000000,-1258.350101,10807.006753
4110.670679,-229.828649,-1258.350101,10881.027347
4110.670994,383.047749,-1110.308913,9844.739029
4110.671310,1072.533697,-666.185348,9474.636058
4110.671625,995.924147,962.267725,9104.533087
4110.671940,612.876398,1406.391290,9104.533087
4110.672256,459.657299,1406.391290,9326.594869
4110.672571,76.609550,888.247130,9326.594869
4110.672886,-306.438199,-518.144159,9844.739029
4110.673202,-995.924147,-1628.453072,10436.903782
4110.673517,-1072.533697,-2072.576638,10732.986159
4110.673833,-383.047749,-1702.473667,9770.718434
4110.674148,306.438199,-1110.308913,9326.594869
4110.674463,306.438199,222.061783,9178.553681
4110.674779,0.000000,1332.370696,9400.615463
4110.675094,76.609550,1924.535449,8882.471304
4110.675409,-383.047749,1480.411884,9474.636058
4110.675725,-153.219100,-0.000000,9622.677246
4110.676040,-459.657299,-1184.329507,10288.862594
4110.676356,-842.705048,-1480.411884,10066.800811
4110.676671,0.000000,-1702.473667,10584.944971
4110.676986,383.047749,-666.185348,9474.636058
4110.677302,536.266849,444.123565,8808.450710
4110.677617,229.828649,1702.473667,8660.409521
4110.677932,0.000000,1998.556043,8956.491898
4110.678247,0.000000,1628.453072,9326.594869
4110.678563,-229.828649,296.082377,9770.718434
4110.678878,-459.657299,-888.247130,10362.883188
4110.679193,-689.485948,-1628.453072,10288.862594
4110.679508,76.609550,-1480.411884,9474.636058
4110.679823,383.047749,-814.226536,9696.697840
4110.680139,459.657299,666.185348,9178.553681
4110.680454,919.314598,1554.432478,8882.471304
4110.680769,842.705048,1998.556043,8734.430116
4110.681084,842.705048,1628.453072,9474.636058
4110.681400,459.657299,1036.288319,9770.718434
4110.681715,153.219100,-74.020594,9992.780217
4110.682030,-76.609550,-1258.350101,10066.800811
4110.682345,459.657299,-1554.432478,10140.821405
4110.682661,842.705048,-1184.329507,9844.739029
4110.682976,919.314598,-222.061783,9178.553681
4110.683291,995.924147,1110.308913,8808.450710
4110.683606,459.657299,1850.514855,8660.409521
4110.683922,153.219100,1184.329507,8882.471304
4110.684237,153.219100,222.061783,9548.656652
4110.684552,0.000000,-888.247130,10732.986159
4110.684867,-383.047749,-1406.391290,10584.944971
4110.685183,0.000000,-1480.411884,10140.821405
4110.685498,229.828649,-888.247130,10066.800811
4110.685813,919.314598,370.102971,9326.594869
4110.686128,842.705048,1702.473667,8734.430116
4110.686444,459.657299,1628.453072,9178.553681
4110.686759,536.266849,1776.494261,9770.718434
4110.687074,229.828649,1332.370696,9992.780217
4110.687389,-459.657299,-0.000000,10510.924376
4110.687705,-306.438199,-1036.288319,10881.027347
4110.688020,-536.266849,-1480.411884,10584.944971
4110.688335,229.828649,-1036.288319,10066.800811
4110.688650,229.828649,-74.020594,9178.553681
4110.688966,229.828649,1406.391290,8956.491898
4110.689281,-153.219100,1850.514855,8882.471304
4110.689596,0.000000,1924.535449,9252.574275
4110.689911,-536.266849,1258.350101,9622.677246
4110.690227,-1072.533697,-0.000000,9844.739029
4110.690542,-1378.971896,-740.205942,10362.883188
4110.690857,-842.705048,-1184.329507,10288.862594
4110.691172,-229.828649,-888.247130,9918.759623
4110.691488,306.438199,-0.000000,9474.636058
4110.691803,153.219100,1332.370696,9030.512492
4110.692118,0.000000,2294.638420,8956.491898
4110.692433,0.000000,2220.617826,9030.512492
4110.692749,-306.438199,1480.411884,9326.594869
4110.693064,-689.485948,518.144159,9622.677246
4110.693379,-689.485948,-592.164754,9844.739029
4110.693694,-689.485948,-1776.494261,10362.883188
4110.694009,0.000000,-1480.411884,9548.656652
4110.694325,536.266849,-740.205942,9622.677246
4110.694640,766.095498,592.164754,8512.368333
4110.694955,153.219100,1850.514855,8438.347739
4110.695270,995.924147,2294.638420,9326.594869
4110.695586,459.657299,1554.432478,9030.512492
4110.695901,153.219100,666.185348,9400.615463
4110.696216,76.609550,-370.102971,10140.821405
4110.696531,0.000000,-1110.308913,10288.862594
4110.696847,459.657299,-1480.411884,9844.739029
4110.697162,1302.362347,-444.123565,9696.697840
4110.697477,1225.752797,592.164754,9474.636058
4110.697792,842.705048,1332.370696,9326.594869
4110.698108,153.219100,1406.391290,9844.739029
4110.698423,229.828649,1110.308913,9696.697840
4110.698738,153.219100,222.061783,9770.718434
4110.699053,0.000000,-962.267725,10584.944971
4110.699369,-383.047749,-1258.350101,10510.924376
4110.699684,229.828649,-1406.391290,10510.924376
4110.699999,1225.752797,-1036.288319,9400.615463
4110.700314,1225.752797,-222.061783,9030.512492
4110.700630,919.314598,1036.288319,8956.491898
4110.700945,689.485948,1702.473667,8808.450710
4110.701260,153.219100,1406.391290,9474.636058
4110.701575,76.609550,814.226536,9474.636058
4110.701891,-536.266849,-888.247130,10362.883188
4110.702206,-766.095498,-1702.473667,9992.780217
4110.702521,0.000000,-2220.617826,10584.944971
4110.702836,0.000000,-1184.329507,10066.800811
4110.703152,153.219100,-74.020594,9474.636058
4110.703467,76.609550,888.247130,9030.512492
4110.703782,-383.047749,1554.432478,9400.615463
4110.704097,-229.828649,1258.350101,9622.677246
4110.704413,-306.438199,-0.000000,9326.594869
4110.704728,0.000000,-740.205942,9918.759623
4110.705043,-306.438199,-1406.391290,10066.800811
4110.705358,0.000000,-1554.432478,9326.594869
4110.705674,459.657299,-1110.308913,9474.636058
4110.705989,842.705048,-74.020594,8882.471304
4110.706304,842.705048,962.267725,8142.265362
4110.706619,459.657299,1702.473667,8512.368333
4110.706935,0.000000,1332.370696,9326.594869
4110.707250,-229.828649,666.185348,9326.594869
4110.707565,-842.705048,-518.144159,9548.656652
4110.707880,-919.314598,-1628.453072,10214.842000
4110.708196,-612.876398,-1776.494261,10584.944971
4110.708511,0.000000,-962.267725,10066.800811
4110.708826,383.047749,-0.000000,9622.677246
4110.709141,612.876398,1258.350101,8882.471304
4110.709456,459.657299,2220.617826,8882.471304
4110.709772,459.657299,2072.576638,8808.450710
4110.710087,153.219100,1332.370696,9326.594869
4110.710402,459.657299,444.123565,9992.780217
4110.710717,-612.876398,-666.185348,9844.739029
4110.711033,-536.266849,-1110.308913,9622.677246
4110.711348,0.000000,-1258.350101,9844.739029
4110.711663,0.000000,-74.020594,9548.656652
4110.711978,76.609550,740.205942,9622.677246
4110.712294,153.219100,1110.308913,9178.553681
4110.712609,383.047749,1480.411884,9622.677246
4110.712924,0.000000,962.267725,9400.615463
4110.713239,-306.438199,-0.000000,10066.800811
4110.713555,-383.047749,-444.123565,10955.047942
4110.713870,-612.876398,-888.247130,10066.800811
4110.714185,689.485948,-888.247130,9770.718434
4110.714500,995.924147,148.041188,9696.697840
4110.714816,1302.362347,888.247130,9178.553681
4110.715131,1225.752797,1998.556043,9178.553681
4110.715446,459.657299,1776.494261,9400.615463
4110.715761,76.609550,1406.391290,9622.677246
4110.716077,153.219100,-0.000000,9918.759623
4110.716392,-383.047749,-814.226536,10362.883188
4110.716707,-842.705048,-1554.432478,10288.862594
4110.717022,0.000000,-1406.391290,9844.739029
4110.717338,536.266849,-148.041188,9326.594869
4110.717653,689.485948,740.205942,9252.574275
4110.717968,229.828649,1776.494261,8956.491898
4110.718283,0.000000,1554.432478,9030.512492
4110.718599,306.438199,1702.473667,9178.553681
4110.718914,153.219100,962.267725,9844.739029
4110.719229,-306.438199,-148.041188,10436.903782
4110.719544,-459.657299,-888.247130,10288.862594
4110.719860,-229.828649,-888.247130,10288.862594
4110.720175,76.609550,-148.041188,9992.780217
4110.720490,536.266849,518.144159,9178.553681
4110.720805,76.609550,1998.556043,9104.533087
4110.721121,0.000000,1998.556043,9474.636058
4110.721436,-306.438199,1406.391290,9030.512492
4110.721751,0.000000,666.185348,9474.636058
4110.722066,-689.485948,-296.082377,10066.800811
4110.722382,-1149.143247,-1036.288319,10214.842000
4110.722697,-306.438199,-1480.411884,10214.842000
4110.723012,383.047749,-962.267725,9844.739029
4110.723327,1302.362347,-0.000000,9252.574275
4110.723642,766.095498,740.205942,8882.471304
4110.723958,459.657299,1480.411884,8660.409521
4110.724273,536.266849,1184.329507,9326.594869
4110.724588,0.000000,592.164754,9326.594869
4110.724903,0.000000,-222.061783,9548.656652
4110.725219,-229.828649,-1036.288319,10066.800811
4110.725534,-153.219100,-1332.370696,10288.862594
4110.725849,229.828649,-1406.391290,9918.759623
4110.726164,536.266849,-370.102971,9844.739029
4110.726480,842.705048,740.205942,9326.594869
4110.726795,612.876398,962.267725,8956.491898
4110.727110,689.485948,1628.453072,9474.636058
4110.727425,459.657299,962.267725,9104.533087
4110.727741,689.485948,-0.000000,9770.718434
4110.728056,306.438199,-888.247130,10066.800811
4110.728371,76.609550,-1480.411884,10066.800811
4110.728686,536.266849,-1480.411884,9622.677246
4110.729002,995.924147,-814.226536,9178.553681
4110.729317,1149.143247,-0.000000,9326.594869
4110.729632,536.266849,518.144159,9400.615463
4110.729947,0.000000,1406.391290,9252.574275
4110.730263,-306.438199,888.247130,9622.677246
4110.730578,-612.876398,-74.020594,10140.821405
4110.730893,-1225.752797,-740.205942,10881.027347
4110.731208,-766.095498,-1702.473667,10140.821405
4110.731524,0.000000,-1628.453072,10288.862594
4110.731839,153.219100,-444.123565,9992.780217
4110.732154,689.485948,370.102971,9252.574275
4110.732469,383.047749,1924.535449,8586.388927
4110.732785,536.266849,1628.453072,9326.594869
4110.733100,0.000000,888.247130,9548.656652
4110.733415,-459.657299,296.082377,9474.636058
4110.733730,-383.047749,-888.247130,9622.677246
4110.734046,-459.657299,-1702.473667,10140.821405
4110.734361,-306.438199,-1924.535449,9474.636058
4110.734676,383.047749,-1110.308913,9474.636058
4110.734991,229.828649,222.061783,8956.491898
4110.735307,-229.828649,1554.432478,8734.430116
4110.735622,0.000000,1480.411884,9474.636058
4110.735937,0.000000,1776.494261,9178.553681
4110.736252,-153.219100,888.247130,9770.718434
4110.736568,-383.047749,-296.082377,10436.903782
4110.736883,-383.047749,-888.247130,9770.718434
4110.737198,0.000000,-962.267725,9918.759623
4110.737513,842.705048,-592.164754,10066.800811
4110.737829,995.924147,592.164754,9178.553681
4110.738144,766.095498,1702.473667,8586.388927
4110.738459,842.705048,1924.535449,8882.471304
4110.738774,459.657299,2146.597232,8734.430116
4110.739089,-459.657299,1110.308913,9400.615463
4110.739405,-229.828649,-518.144159,10436.903782
4110.739720,-842.705048,-1258.350101,9918.759623
4110.740035,-459.657299,-2220.617826,9696.697840
4110.740350,536.266849,-1184.329507,10288.862594
4110.740666,536.266849,-0.000000,9696.697840
4110.740981,536.266849,1554.432478,9252.574275
4110.741296,536.266849,2072.576638,9400.615463
4110.741611,766.095498,1924.535449,9548.656652
4110.741927,383.047749,1924.535449,9622.677246
4110.742242,383.047749,444.123565,9696.697840
4110.742557,0.000000,-222.061783,10807.006753
4110.742872,76.609550,-296.082377,9992.780217
4110.743188,766.095498,-592.164754,9918.759623
4110.743503,919.314598,-0.000000,9252.574275
4110.743818,459.657299,1184.329507,9474.636058
4110.744133,229.828649,1924.535449,9178.553681
4110.744449,-229.828649,1406.391290,9770.718434
4110.744764,-536.266849,592.164754,9770.718434
4110.745079,-459.657299,-444.123565,10214.842000
4110.745394,-995.924147,-1406.391290,10510.924376
4110.745710,-689.485948,-1702.473667,10140.821405
4110.746025,536.266849,-962.267725,10066.800811
4110.746340,995.924147,296.082377,8734.430116
4110.746655,766.095498,1406.391290,8438.347739
4110.746971,306.438199,2146.597232,8660.409521
4110.747286,229.828649,1702.473667,9474.636058
4110.747601,306.438199,888.247130,9474.636058
4110.747916,-383.047749,-0.000000,9918.759623
4110.748232,-1225.752797,-1406.391290,10214.842000
4110.748547,-1302.362347,-1480.411884,10807.006753
4110.748862,-536.266849,-1554.432478,10214.842000
4110.749177,0.000000,-1036.288319,10510.924376
4110.749493,76.609550,-0.000000,9474.636058
4110.749808,-229.828649,1628.453072,9178.553681
4110.750123,0.000000,1850.514855,9474.636058
4110.750438,-383.047749,1406.391290,9252.574275
4110.750754,-306.438199,-0.000000,9400.615463
4110.751069,-229.828649,-962.267725,9992.780217
4110.751384,-229.828649,-1480.411884,10140.821405
4110.751699,306.438199,-1554.432478,9696.697840
4110.752015,919.314598,-962.267725,9474.636058
4110.752330,689.485948,-0.000000,9030.512492
4110.752645,383.047749,1184.329507,8956.491898
4110.752960,459.657299,1406.391290,8808.450710
4110.753275,0.000000,962.267725,9622.677246
4110.753591,0.000000,-0.000000,9474.636058
4110.753906,-612.876398,-666.185348,10140.821405
4110.754221,-229.828649,-1406.391290,10066.800811
4110.754536,153.219100,-1702.473667,9844.739029
4110.754852,689.485948,-1036.288319,9622.677246
4110.755167,1455.581446,-0.000000,9252.574275
4110.755482,1225.752797,1332.370696,8586.388927
4110.755797,842.705048,1924.535449,8734.430116
4110.756113,536.266849,1480.411884,8882.471304
4110.756428,766.095498,148.041188,9474.636058
4110.756743,383.047749,-888.247130,10066.800811
4110.757058,0.000000,-1776.494261,10066.800811
4110.757374,153.219100,-2072.576638,9918.759623
4110.757689,919.314598,-1258.350101,9622.677246
4110.758004,995.924147,-222.061783,9326.594869
4110.758319,383.047749,666.185348,9104.533087
4110.758635,306.438199,1554.432478,9400.615463
4110.758950,459.657299,1850.514855,8956.491898
4110.759265,153.219100,740.205942,9326.594869
4110.759580,-306.438199,-296.082377,9548.656652
4110.759896,0.000000,-1036.288319,10362.883188
4110.760211,0.000000,-1406.391290,10066.800811
4110.760526,76.609550,-1110.308913,10140.821405
4110.760841,689.485948,222.061783,9918.759623
4110.761157,0.000000,1110.308913,9178.553681
4110.761472,0.000000,2220.617826,8734.430116
4110.761787,0.000000,2072.576638,9992.780217
4110.762102,-383.047749,962.267725,9548.656652
4110.762418,-612.876398,-222.061783,10362.883188
4110.762733,-459.657299,-1184.329507,10881.027347
4110.763048,-536.266849,-1480.411884,10288.862594
4110.763363,76.609550,-1258.350101,9696.697840
4110.763679,459.657299,370.102971,9400.615463
4110.763994,306.438199,1480.411884,9030.512492
4110.764309,0.000000,2146.597232,8882.471304
4110.764624,0.000000,2146.597232,8660.409521
4110.764940,0.000000,1554.432478,9326.594869
4110.765255,-536.266849,518.144159,9918.759623
4110.765570,-995.924147,-592.164754,10584.944971
4110.765885,-919.314598,-1554.432478,10510.924376
4110.766201,-306.438199,-1184.329507,10362.883188
4110.766516,153.219100,-0.000000,9992.780217
4110.766831,0.000000,1110.308913,9474.636058
4110.767146,-153.219100,2146.597232,9474.636058
4110.767462,306.438199,2368.659014,9696.697840
4110.767777,383.047749,1554.432478,9770.718434
4110.768092,0.000000,666.185348,9992.780217
4110.768407,0.000000,-370.102971,10066.800811
4110.768722,229.828649,-1628.453072,9696.697840
4110.769038,842.705048,-962.267725,9474.636058
4110.769353,1378.971896,-370.102971,9030.512492
4110.769668,1302.362347,518.144159,8438.347739
4110.769983,536.266849,1480.411884,8734.430116
4110.770299,536.266849,1480.411884,8956.491898
4110.770614,306.438199,962.267725,9178.553681
4110.770929,76.609550,148.041188,9696.697840
4110.771244,-383.047749,-1406.391290,10732.986159
4110.771560,-536.266849,-1998.556043,11177.109724
4110.771875,76.609550,-1406.391290,9992.780217
4110.772190,842.705048,-222.061783,9696.697840
4110.772505,1072.533697,1036.288319,9252.574275
4110.772821,919.314598,1998.556043,9030.512492
4110.773136,612.876398,1998.556043,9400.615463
4110.773451,306.438199,1406.391290,9252.574275
4110.773766,612.876398,222.061783,9474.636058
4110.774082,0.000000,-740.205942,10140.821405
4110.774397,-306.438199,-1332.370696,9918.759623
4110.774712,-153.219100,-1924.535449,9548.656652
4110.775027,153.219100,-1850.514855,9844.739029
4110.775343,459.657299,-444.123565,8956.491898
4110.775658,0.000000,666.185348,8660.409521
4110.775973,-383.047749,888.247130,9030.512492
4110.776288,-612.876398,1110.308913,9252.574275
4110.776604,-536.266849,222.061783,9622.677246
4110.776919,-689.485948,-1036.288319,9918.759623
4110.777234,-689.485948,-1776.494261,10362.883188
4110.777549,-689.485948,-1702.473667,10362.883188
4110.777865,0.000000,-740.205942,9992.780217
4110.778180,383.047749,666.185348,9474.636058
4110.778495,536.266849,1702.473667,9104.533087
4110.778810,0.000000,2146.597232,8882.471304
4110.779126,0.000000,2072.576638,8956.491898
4110.779441,-383.047749,1332.370696,9474.636058
4110.779756,-689.485948,-370.102971,9622.677246
4110.780071,-766.095498,-1332.370696,10140.821405
4110.780387,-689.485948,-2072.576638,9622.677246
4110.780702,-306.438199,-1702.473667,9696.697840
4110.781017,306.438199,-518.144159,9104.533087
4110.781333,459.657299,518.144159,8882.471304
4110.781648,76.609550,1776.494261,9104.533087
4110.781963,229.828649,2294.638420,9252.574275
4110.782278,0.000000,1702.473667,9474.636058
4110.782594,0.000000,518.144159,9548.656652
4110.782909,153.219100,-740.205942,9844.739029
4110.783224,229.828649,-962.267725,10288.862594
4110.783539,459.657299,-814.226536,9918.759623
4110.783855,612.876398,592.164754,9770.718434
4110.784170,689.485948,1554.432478,9400.615463
4110.784485,306.438199,1924.535449,9548.656652
4110.784800,306.438199,1924.535449,9474.636058
4110.785116,0.000000,1036.288319,9622.677246
4110.785431,-153.219100,-222.061783,10066.800811
4110.785746,-995.924147,-814.226536,10362.883188
4110.786062,-306.438199,-1480.411884,10584.944971
4110.786377,0.000000,-1332.370696,9992.780217
4110.786692,612.876398,-148.041188,9474.636058
4110.787007,919.314598,962.267725,9104.533087
4110.787323,995.924147,2072.576638,8734.430116
4110.787638,1072.533697,1850.514855,9104.533087
4110.787953,536.266849,1480.411884,9252.574275
4110.788268,0.000000,444.123565,9918.759623
4110.788584,0.000000,-518.144159,10732.986159
4110.788899,-306.438199,-2072.576638,10807.006753
4110.789214,153.219100,-2072.576638,9992.780217
4110.789529,919.314598,-740.205942,9474.636058
4110.789845,689.485948,592.164754,9104.533087
4110.790160,76.609550,1480.411884,8734.430116
4110.790475,766.095498,1554.432478,9030.512492
4110.790791,306.438199,1184.329507,9474.636058
4110.791106,459.657299,296.082377,9622.677246
4110.791421,0.000000,-444.123565,9696.697840
4110.791736,153.219100,-1406.391290,9918.759623
4110.792052,306.438199,-1406.391290,9252.574275
4110.792367,995.924147,-518.144159,9252.574275
4110.792682,1225.752797,962.267725,8734.430116
4110.792997,842.705048,1258.350101,8882.471304
4110.793313,536.266849,1850.514855,8956.491898
4110.793628,0.000000,1332.370696,9400.615463
4110.793943,-536.266849,222.061783,9918.759623
4110.794258,-1072.533697,-888.247130,11029.068536
4110.794574,-1302.362347,-1332.370696,10955.047942
4110.794889,-689.485948,-1554.432478,10214.842000
4110.795204,306.438199,-1110.308913,9918.759623
4110.795520,689.485948,444.123565,9400.615463
4110.795835,459.657299,1258.350101,8808.450710
4110.796150,306.438199,1776.494261,9104.533087
4110.796465,383.047749,1776.494261,9104.533087
4110.796781,306.438199,962.267725,9474.636058
4110.797096,-153.219100,-74.020594,9622.677246
4110.797411,-306.438199,-1406.391290,9918.759623
4110.797726,-383.047749,-1702.473667,9918.759623
4110.798042,612.876398,-1924.535449,9770.718434
4110.798357,229.828649,-518.144159,9400.615463
4110.798672,459.657299,592.164754,8882.471304
4110.798987,-306.438199,1258.350101,9178.553681
4110.799303,-229.828649,1332.370696,9474.636058
4110.799618,153.219100,370.102971,9770.718434
4110.799933,-306.438199,-666.185348,9844.739029
4110.800249,-689.485948,-1332.370696,10362.883188
4110.800564,-689.485948,-1480.411884,9844.739029
4110.800879,0.000000,-1258.350101,9696.697840
4110.801194,306.438199,-222.061783,9696.697840
4110.801510,383.047749,444.123565,9252.574275
4110.801825,153.219100,1480.411884,8660.409521
4110.802140,-229.828649,1332.370696,9030.512492
4110.802455,0.000000,740.205942,9474.636058
4110.802771,-306.438199,148.041188,9474.636058
4110.803086,-612.876398,-1258.350101,9844.739029
4110.803401,-536.266849,-1702.473667,9622.677246
4110.803716,153.219100,-962.267725,9918.759623
4110.804032,306.438199,-296.082377,9474.636058
4110.804347,459.657299,962.267725,8364.327145
4110.804662,0.000000,1850.514855,8882.471304
4110.804978,0.000000,1998.556043,9178.553681
4110.805293,76.609550,1110.308913,9696.697840
4110.805608,-306.438199,444.123565,9770.718434
4110.805923,-306.438199,-592.164754,10214.842000
4110.806239,-229.828649,-592.164754,10066.800811
4110.806554,76.609550,-666.185348,10140.821405
4110.806869,612.876398,148.041188,9548.656652
4110.807184,919.314598,962.267725,9030.512492
4110.807500,306.438199,2146.597232,8882.471304
4110.807815,0.000000,2294.638420,9252.574275
4110.808130,459.657299,1850.514855,9548.656652
4110.808445,0.000000,888.247130,9548.656652
4110.808761,-536.266849,-74.020594,10066.800811
4110.809076,-459.657299,-1406.391290,10955.047942
4110.809391,-229.828649,-1184.329507,10362.883188
4110.809707,689.485948,-222.061783,9696.697840
4110.810022,766.095498,666.185348,9252.574275
4110.810337,689.485948,1924.535449,8956.491898
4110.810652,306.438199,1924.535449,9400.615463
4110.810968,459.657299,1554.432478,9178.553681
4110.811283,383.047749,1406.391290,9474.636058
4110.811598,76.609550,-0.000000,9918.759623
4110.811913,76.609550,-814.226536,9918.759623
4110.812229,383.047749,-1110.308913,10436.903782
4110.812544,536.266849,-814.226536,10288.862594
4110.812859,766.095498,-0.000000,9770.718434
4110.813174,459.657299,962.267725,9400.615463
4110.813490,689.485948,1406.391290,9400.615463
4110.813805,689.485948,1184.329507,9918.759623
4110.814120,459.657299,814.226536,9918.759623
4110.814436,0.000000,-74.020594,9844.739029
4110.814751,76.609550,-814.226536,9474.636058
4110.815066,229.828649,-1480.411884,9770.718434
4110.815381,689.485948,-1036.288319,9474.636058
4110.815697,919.314598,-0.000000,9696.697840
4110.816012,459.657299,888.247130,9252.574275
4110.816327,306.438199,1406.391290,9326.594869
4110.816642,153.219100,1110.308913,9400.615463
4110.816958,-536.266849,740.205942,9770.718434
4110.817273,-919.314598,-148.041188,10362.883188
4110.817588,-1302.362347,-1184.329507,10584.944971
4110.817903,-536.266849,-1406.391290,10066.800811
4110.818219,76.609550,-1332.370696,9770.718434
4110.818534,536.266849,-518.144159,9104.533087
4110.818849,0.000000,222.061783,9178.553681
4110.819165,-229.828649,1036.288319,8882.471304
4110.819480,0.000000,1332.370696,8808.450710
4110.819795,383.047749,740.205942,8808.450710
4110.820110,-459.657299,-444.123565,9326.594869
4110.820426,-612.876398,-1258.350101,9474.636058
4110.820741,-1149.143247,-1998.556043,9474.636058
4110.821056,-306.438199,-1628.453072,9474.636058
4110.821371,306.438199,-1110.308913,9474.636058
4110.821687,153.219100,222.061783,9104.533087
4110.822002,0.000000,1036.288319,9030.512492
4110.822317,76.609550,1480.411884,8956.491898
4110.822632,0.000000,1184.329507,9326.594869
4110.822948,-229.828649,-0.000000,10214.842000
4110.823263,-766.095498,-888.247130,10066.800811
4110.823578,-536.266849,-1554.432478,9844.739029
4110.823894,153.219100,-1850.514855,9474.636058
4110.824209,1149.143247,-814.226536,9622.677246
4110.824524,1302.362347,148.041188,9104.533087
4110.824839,536.266849,1332.370696,9178.553681
4110.825155,306.438199,1628.453072,9178.553681
4110.825470,459.657299,1258.350101,9104.533087
4110.825785,766.095498,222.061783,8882.471304
4110.826100,153.219100,-518.144159,9770.718434
4110.826416,-153.219100,-1406.391290,10140.821405
4110.826731,229.828649,-1702.473667,10066.800811
4110.827046,689.485948,-888.247130,9622.677246
4110.827361,306.438199,666.185348,9474.636058
4110.827677,0.000000,1184.329507,9326.594869
4110.827992,0.000000,1924.535449,9696.697840
4110.828307,153.219100,1480.411884,9918.759623
4110.828623,306.438199,888.247130,9770.718434
4110.828938,76.609550,-0.000000,10584.944971
4110.829253,-383.047749,-666.185348,10140.821405
4110.829568,76.609550,-962.267725,9622.677246
4110.829884,842.705048,-666.185348,9844.739029
4110.830199,766.095498,370.102971,9400.615463
4110.830514,306.438199,1406.391290,8290.306550
4110.830829,76.609550,1924.535449,9178.553681
4110.831145,0.000000,1628.453072,8882.471304
4110.831460,0.000000,962.267725,9548.656652
4110.831775,-306.438199,-148.041188,9770.718434
4110.832090,-536.266849,-1258.350101,10510.924376
4110.832406,-612.876398,-1702.473667,10140.821405
4110.832721,306.438199,-1184.329507,10066.800811
4110.833036,536.266849,370.102971,9326.594869
4110.833352,0.000000,1628.453072,8364.327145
4110.833667,0.000000,2294.638420,9400.615463
4110.833982,383.047749,1998.556043,9252.574275
4110.834297,0.000000,1776.494261,9548.656652
4110.834613,-612.876398,370.102971,10288.862594
4110.834928,-689.485948,-888.247130,10214.842000
4110.835243,-459.657299,-1406.391290,10362.883188
4110.835558,383.047749,-1258.350101,9696.697840
4110.835874,536.266849,-222.061783,9474.636058
4110.836189,766.095498,888.247130,8956.491898
4110.836504,383.047749,2294.638420,8956.491898
4110.836819,459.657299,2442.679609,9326.594869
4110.837135,-383.047749,1776.494261,9696.697840
4110.837450,-536.266849,296.082377,9696.697840
4110.837765,-612.876398,-592.164754,10066.800811
4110.838081,-306.438199,-2146.597232,10140.821405
4110.838396,-383.047749,-1110.308913,9918.759623
4110.838711,76.609550,-222.061783,10066.800811
4110.839026,229.828649,1332.370696,9326.594869
4110.839342,0.000000,2294.638420,9030.512492
4110.839657,459.657299,1850.514855,9696.697840
4110.839972,76.609550,1628.453072,9696.697840
4110.840287,-306.438199,-0.000000,9992.780217
4110.840603,-536.266849,-296.082377,10362.883188
4110.840918,-536.266849,-1406.391290,10066.800811
4110.841233,153.219100,-1850.514855,9770.718434
4110.841548,995.924147,-518.144159,9622.677246
4110.841864,842.705048,444.123565,9178.553681
4110.842179,459.657299,1628.453072,8660.409521
4110.842494,383.047749,1480.411884,9178.553681
4110.842810,306.438199,814.226536,9548.656652
4110.843125,0.000000,-444.123565,9474.636058
4110.843440,-536.266849,-1110.308913,10288.862594
4110.843755,0.000000,-1924.535449,10362.883188
4110.844071,612.876398,-1702.473667,9696.697840
4110.844386,1225.752797,-888.247130,10140.821405
4110.844701,842.705048,-0.000000,9178.553681
4110.845016,536.266849,1110.308913,8956.491898
4110.845332,459.657299,1628.453072,8660.409521
4110.845647,306.438199,962.267725,9326.594869
4110.845962,383.047749,-0.000000,9918.759623
4110.846277,-229.828649,-814.226536,10066.800811
4110.846593,-459.657299,-1628.453072,10066.800811
4110.846908,0.000000,-1998.556043,9622.677246
4110.847223,612.876398,-1406.391290,9400.615463
4110.847539,536.266849,-0.000000,9030.512492
4110.847854,0.000000,814.226536,8956.491898
4110.848169,0.000000,1554.432478,9178.553681
4110.848484,-153.219100,1184.329507,9252.574275
4110.848800,-459.657299,296.082377,9622.677246
4110.849115,0.000000,-518.144159,10066.800811
4110.849430,-842.705048,-1332.370696,10658.965565
4110.849745,0.000000,-1184.329507,9770.718434
4110.850061,689.485948,-1036.288319,9474.636058
4110.850376,995.924147,-0.000000,9104.533087
4110.850691,383.047749,1554.432478,8734.430116
4110.851006,0.000000,1924.535449,8808.450710
4110.851322,-306.438199,1554.432478,9400.615463
4110.851637,-229.828649,962.267725,9696.697840
4110.851952,-536.266849,-814.226536,10214.842000
4110.852268,-536.266849,-1406.391290,10140.821405
4110.852583,-689.485948,-1258.350101,10214.842000
4110.852898,153.219100,-1258.350101,10140.821405
4110.853213,459.657299,518.144159,9474.636058
4110.853529,536.266849,962.267725,9104.533087
4110.853844,536.266849,1850.514855,9252.574275
4110.854159,766.095498,2220.617826,9178.553681
4110.854474,612.876398,1258.350101,9400.615463
4110.854790,459.657299,-0.000000,9918.759623
4110.855105,0.000000,-814.226536,9844.739029
4110.855420,0.000000,-1332.370696,9770.718434
4110.855735,536.266849,-1332.370696,9844.739029
4110.856051,842.705048,296.082377,9770.718434
4110.856366,1149.143247,1036.288319,8956.491898
4110.856681,612.876398,1776.494261,9474.636058
4110.856997,919.314598,1702.473667,9548.656652
4110.857312,229.828649,1036.288319,9770.718434
4110.857627,76.609550,-0.000000,9844.739029
4110.857942,76.609550,-444.123565,9992.780217
4110.858258,383.047749,-1110.308913,10214.842000
4110.858573,766.095498,-962.267725,10288.862594
4110.858888,766.095498,-296.082377,9548.656652
4110.859203,536.266849,962.267725,9400.615463
4110.859519,383.047749,1850.514855,8586.388927
4110.859834,459.657299,2146.597232,9178.553681
4110.860149,76.609550,1406.391290,9992.780217
4110.860464,-536.266849,-0.000000,10066.800811
4110.860780,-842.705048,-740.205942,10584.944971
4110.861095,-995.924147,-1480.411884,10362.883188
4110.861410,0.000000,-1702.473667,10214.842000
4110.861726,459.657299,-222.061783,9474.636058
4110.862041,0.000000,296.082377,8956.491898
4110.862356,0.000000,1850.514855,8882.471304
4110.862671,0.000000,1924.535449,8956.491898
4110.862987,-153.219100,1480.411884,9030.512492
4110.863302,-766.095498,296.082377,9474.636058
4110.863617,-1072.533697,-592.164754,9992.780217
4110.863932,-1225.752797,-1554.432478,9918.759623
4110.864248,-459.657299,-1554.432478,9474.636058
4110.864563,0.000000,-888.247130,9770.718434
4110.864878,0.000000,444.123565,9252.574275
4110.865193,0.000000,1924.535449,9178.553681
4110.865509,-306.438199,1850.514855,8956.491898
4110.865824,-153.219100,1332.370696,9178.553681
4110.866139,-536.266849,518.144159,9474.636058
4110.866455,-766.095498,-814.226536,9770.718434
4110.866770,-689.485948,-1110.308913,10140.821405
4110.867085,229.828649,-1406.391290,9918.759623
4110.867400,612.876398,-592.164754,9844.739029
4110.867716,1302.362347,518.144159,9178.553681
4110.868031,842.705048,1406.391290,9178.553681
4110.868346,153.219100,1258.350101,9104.533087
4110.868661,153.219100,1480.411884,9326.594869
4110.868977,383.047749,370.102971,9548.656652
4110.869292,0.000000,-666.185348,10214.842000
4110.869607,-919.314598,-1406.391290,10362.883188
4110.869922,0.000000,-1480.411884,10510.924376
4110.870238,766.095498,-962.267725,9474.636058
4110.870553,919.314598,-222.061783,9474.636058
4110.870868,1072.533697,1036.288319,9474.636058
4110.871184,766.095498,1406.391290,9400.615463
4110.871499,689.485948,1406.391290,9844.739029
4110.871814,919.314598,1110.308913,9844.739029
4110.872129,536.266849,370.102971,9770.718434
4110.872445,536.266849,-962.267725,10140.821405
4110.872760,536.266849,-1184.329507,10214.842000
4110.873075,1149.143247,-1628.453072,9918.759623
4110.873390,1225.752797,-74.020594,9178.553681
4110.873706,612.876398,1258.350101,8882.471304
4110.874021,306.438199,1110.308913,9622.677246
4110.874336,0.000000,1406.391290,8956.491898
4110.874651,0.000000,740.205942,9474.636058
4110.874967,0.000000,-592.164754,10066.800811
4110.875282,-536.266849,-1406.391290,10140.821405
4110.875597,-536.266849,-1406.391290,10066.800811
4110.875913,306.438199,-1480.411884,10066.800811
4110.876228,919.314598,-296.082377,8956.491898
4110.876543,536.266849,740.205942,8660.409521
4110.876858,459.657299,1924.535449,8512.368333
4110.877173,306.438199,1554.432478,9030.512492
4110.877489,229.828649,1332.370696,9474.636058
4110.877804,-306.438199,-0.000000,10362.883188
4110.878119,-229.828649,-1110.308913,9918.759623
4110.878434,-306.438199,-1850.514855,10658.965565
4110.878750,0.000000,-1332.370696,9844.739029
4110.879065,229.828649,-740.205942,9474.636058
4110.879380,306.438199,518.144159,8956.491898
4110.879695,-229.828649,1480.411884,9252.574275
4110.880011,0.000000,1332.370696,8956.491898
4110.880326,0.000000,1184.329507,9326.594869
4110.880641,-919.314598,-74.020594,9548.656652
4110.880956,-919.314598,-962.267725,10288.862594
4110.881272,-919.314598,-1110.308913,10214.842000
4110.881587,-153.219100,-1258.350101,10214.842000
4110.881902,229.828649,-518.144159,9622.677246
4110.882217,76.609550,814.226536,9252.574275
4110.882533,0.000000,1924.535449,9252.574275
4110.882848,0.000000,2072.576638,9104.533087
4110.883163,0.000000,1628.453072,9474.636058
4110.883478,-306.438199,666.185348,9918.759623
4110.883794,-766.095498,-962.267725,10214.842000
4110.884109,-919.314598,-1628.453072,10140.821405
4110.884424,0.000000,-1628.453072,10288.862594
4110.884739,229.828649,-814.226536,9992.780217
4110.885055,306.438199,296.082377,9326.594869
4110.885370,306.438199,1110.308913,9030.512492
4110.885685,383.047749,1702.473667,9030.512492
4110.886000,536.266849,1480.411884,9104.533087
4110.886315,459.657299,592.164754,9474.636058
4110.886631,0.000000,-222.061783,9844.739029
4110.886946,0.000000,-1110.308913,9622.677246
4110.887261,306.438199,-1628.453072,9770.718434
4110.887576,536.266849,-1036.288319,9622.677246
4110.887892,766.095498,518.144159,9474.636058
4110.888207,383.047749,1480.411884,9326.594869
4110.888522,76.609550,1776.494261,9400.615463
4110.888837,383.047749,1406.391290,9696.697840
4110.889153,0.000000,666.185348,10362.883188
4110.889468,-689.485948,-222.061783,9992.780217
4110.889783,-689.485948,-740.205942,10510.924376
4110.890098,306.438199,-1036.288319,10066.800811
4110.890414,1149.143247,-666.185348,9696.697840
4110.890729,1225.752797,740.205942,9030.512492
4110.891044,612.876398,1480.411884,8808.450710
4110.891359,153.219100,2294.638420,8882.471304
4110.891675,383.047749,1850.514855,9104.533087
4110.891990,153.219100,962.267725,9474.636058
4110.892305,-229.828649,-148.041188,10214.842000
4110.892620,-766.095498,-1110.308913,10288.862594
4110.892936,-689.485948,-1480.411884,10436.903782
4110.893251,0.000000,-1480.411884,10066.800811
4110.893566,153.219100,-0.000000,9548.656652
4110.893881,306.438199,1406.391290,9030.512492
4110.894197,0.000000,2294.638420,9400.615463
4110.894512,229.828649,2294.638420,9400.615463
4110.894827,306.438199,1332.370696,9104.533087
4110.895142,-229.828649,518.144159,9548.656652
4110.895457,-536.266849,-592.164754,10510.924376
4110.895773,-459.657299,-1258.350101,10140.821405
4110.896088,306.438199,-1258.350101,9992.780217
4110.896403,842.705048,-370.102971,9104.533087
4110.896718,919.314598,740.205942,9548.656652
4110.897034,0.000000,1406.391290,9178.553681
4110.897349,-76.609550,1776.494261,9326.594869
4110.897664,0.000000,1258.350101,9474.636058
4110.897979,-229.828649,518.144159,9474.636058
4110.898295,-459.657299,-1258.350101,10066.800811
4110.898610,-306.438199,-1628.453072,10510.924376
4110.898925,153.219100,-1184.329507,10066.800811
4110.899240,689.485948,-370.102971,9622.677246
4110.899556,1302.362347,666.185348,9178.553681
4110.899871,689.485948,1332.370696,9474.636058
4110.900186,383.047749,1702.473667,9400.615463
4110.900501,306.438199,1332.370696,9400.615463
4110.900817,-229.828649,444.123565,9918.759623
4110.901132,0.000000,-1184.329507,10288.862594
4110.901447,-306.438199,-1850.514855,10066.800811
4110.901762,76.609550,-1628.453072,10066.800811
4110.902078,306.438199,-1036.288319,9770.718434
4110.902393,612.876398,-370.102971,9178.553681
4110.902708,0.000000,1110.308913,9178.553681
4110.903023,459.657299,1406.391290,9474.636058
4110.903338,0.000000,1036.288319,9326.594869
4110.903654,0.000000,-0.000000,9474.636058
4110.903969,-229.828649,-666.185348,9548.656652
4110.904284,76.609550,-1850.514855,10288.862594
4110.904599,0.000000,-1702.473667,9992.780217
4110.904915,306.438199,-814.226536,9474.636058
4110.905230,459.657299,148.041188,8882.471304
4110.905545,612.876398,1110.308913,8660.409521
4110.905860,0.000000,1110.308913,8956.491898
4110.906176,76.609550,1332.370696,9400.615463
4110.906491,-306.438199,444.123565,9548.656652
4110.906806,-919.314598,-592.164754,10066.800811
4110.907121,-1072.533697,-1406.391290,9844.739029
4110.907437,-153.219100,-2220.617826,9844.739029
4110.907752,842.705048,-1406.391290,9844.739029
4110.908067,919.314598,296.082377,9474.636058
4110.908382,689.485948,1258.350101,8512.368333
4110.908698,766.095498,2072.576638,8808.450710
4110.909013,536.266849,1332.370696,8808.450710
4110.909328,612.876398,1258.350101,9104.533087
4110.909643,0.000000,-74.020594,9770.718434
4110.909959,-153.219100,-1110.308913,9770.718434
4110.910274,-383.047749,-1776.494261,9844.739029
4110.910589,153.219100,-1480.411884,9770.718434
4110.910904,383.047749,-0.000000,9474.636058
4110.911220,0.000000,1036.288319,9400.615463
4110.911535,0.000000,1850.514855,9622.677246
4110.911850,0.000000,1554.432478,9918.759623
4110.912165,0.000000,1332.370696,10214.842000
4110.912480,0.000000,222.061783,10807.006753
4110.912796,-383.047749,-296.082377,10214.842000
4110.913111,76.609550,-666.185348,10214.842000
4110.913426,1072.533697,-666.185348,10066.800811
4110.913741,1455.581446,-0.000000,9548.656652
4110.914057,995.924147,1110.308913,8882.471304
4110.914372,459.657299,2146.597232,8586.388927
4110.914687,229.828649,1776.494261,9622.677246
4110.915002,0.000000,1184.329507,9474.636058
4110.915318,-229.828649,-296.082377,9770.718434
4110.915633,-612.876398,-1480.411884,9918.759623
4110.915948,-766.095498,-1924.535449,10066.800811
4110.916263,0.000000,-1702.473667,9992.780217
4110.916579,0.000000,-222.061783,9622.677246
4110.916894,0.000000,888.247130,9326.594869
4110.917209,0.000000,1850.514855,8808.450710
4110.917524,76.609550,2220.617826,9252.574275
4110.917840,0.000000,1702.473667,9252.574275
4110.918155,0.000000,592.164754,9622.677246
4110.918470,-383.047749,-296.082377,10140.821405
4110.918785,-383.047749,-1184.329507,10362.883188
4110.919101,536.266849,-1110.308913,9918.759623
4110.919416,689.485948,-740.205942,9326.594869
4110.919731,0.000000,148.041188,9030.512492
4110.920046,-306.438199,1332.370696,9326.594869
4110.920362,-306.438199,1258.350101,9104.533087
4110.920677,-306.438199,1110.308913,9474.636058
4110.920992,-689.485948,296.082377,9474.636058
4110.921307,-536.266849,-814.226536,10288.862594
4110.921622,-306.438199,-1184.329507,9918.759623
4110.921938,153.219100,-1110.308913,9548.656652
4110.922253,1225.752797,-296.082377,9770.718434
4110.922568,1302.362347,1110.308913,8882.471304
4110.922883,1149.143247,2294.638420,8734.430116
4110.923199,766.095498,2442.679609,8734.430116
4110.923514,766.095498,2146.597232,9252.574275
4110.923829,153.219100,962.267725,9770.718434
4110.924144,-229.828649,-444.123565,10362.883188
4110.924460,-1149.143247,-1628.453072,10584.944971
4110.924775,-766.095498,-2146.597232,10436.903782
4110.925090,-153.219100,-1332.370696,10140.821405
4110.925405,383.047749,-296.082377,9622.677246
4110.925721,0.000000,1406.391290,9622.677246
4110.926036,153.219100,1406.391290,9474.636058
4110.926351,0.000000,1480.411884,9474.636058
4110.926666,612.876398,1258.350101,9104.533087
4110.926982,306.438199,-74.020594,9474.636058
4110.927297,229.828649,-518.144159,9696.697840
4110.927612,919.314598,-888.247130,9696.697840
4110.927927,919.314598,-962.267725,9622.677246
4110.928243,919.314598,444.123565,9252.574275
4110.928558,383.047749,1332.370696,9030.512492
4110.928873,76.609550,1184.329507,9696.697840
4110.929188,0.000000,814.226536,9992.780217
4110.929504,0.000000,-0.000000,10066.800811
4110.929819,-459.657299,-814.226536,10584.944971
4110.930134,-766.095498,-1480.411884,10362.883188
4110.930449,-383.047749,-2220.617826,9918.759623
4110.930764,76.609550,-1184.329507,9918.759623
4110.931080,1149.143247,-74.020594,9252.574275
4110.931395,919.314598,740.205942,8586.388927
4110.931710,766.095498,1258.350101,8882.471304
4110.932025,459.657299,1406.391290,9252.574275
4110.932341,459.657299,1184.329507,9474.636058
4110.932656,-383.047749,-0.000000,9622.677246
4110.932971,-612.876398,-1406.391290,10362.883188
4110.933286,-459.657299,-2072.576638,10066.800811
4110.933602,0.000000,-1776.494261,10066.800811
