#time,accel_x,accel_y,accel_z
3659.263631,2681.334243,2812.782580,9696.697840
3659.263945,2757.943793,2738.761985,9474.636058
3659.264260,2681.334243,2664.741391,9030.512492
3659.264574,1991.848295,2368.659014,9104.533087
3659.264888,1685.410096,2072.576638,9548.656652
3659.265203,842.705048,1850.514855,9474.636058
3659.265517,383.047749,592.164754,9474.636058
3659.265831,0.000000,-148.041188,9918.759623
3659.266146,0.000000,-592.164754,9548.656652
3659.266460,-153.219100,-740.205942,9252.574275
3659.266775,-536.266849,-74.020594,9622.677246
3659.267089,-306.438199,-518.144159,9770.718434
3659.267403,-153.219100,-518.144159,9252.574275
3659.267718,0.000000,-370.102971,8660.409521
3659.268032,383.047749,-370.102971,8660.409521
3659.268346,229.828649,-0.000000,9030.512492
3659.268661,306.438199,148.041188,8882.471304
3659.268975,76.609550,222.061783,9030.512492
3659.269290,0.000000,-74.020594,9400.615463
3659.269604,383.047749,-0.000000,9326.594869
3659.269918,-229.828649,-74.020594,9474.636058
3659.270233,-612.876398,-888.247130,9622.677246
3659.270547,-536.266849,-592.164754,9918.759623
3659.270861,-766.095498,-888.247130,9696.697840
3659.271176,-919.314598,-1480.411884,10066.800811
3659.271490,-842.705048,-1628.453072,10214.842000
3659.271804,-536.266849,-1480.411884,9992.780217
3659.272119,-383.047749,-1406.391290,9992.780217
3659.272433,0.000000,-1184.329507,9844.739029
3659.272748,229.828649,-666.185348,9400.615463
3659.273062,689.485948,-74.020594,9326.594869
3659.273376,766.095498,-74.020594,8882.471304
3659.273691,1072.533697,-370.102971,8734.430116
3659.274005,1378.971896,-296.082377,8808.450710
3659.274319,1532.190996,-444.123565,8882.471304
3659.274634,1302.362347,-814.226536,9474.636058
3659.274948,919.314598,-444.123565,8808.450710
3659.275263,612.876398,-592.164754,9104.533087
3659.275577,689.485948,-814.226536,10288.862594
3659.275891,153.219100,-592.164754,9696.697840
3659.276206,0.000000,-814.226536,9474.636058
3659.276520,0.000000,-814.226536,9400.615463
3659.276834,0.000000,-370.102971,9252.574275
3659.277149,0.000000,-148.041188,8734.430116
3659.277463,0.000000,222.061783,8512.368333
3659.277778,383.047749,148.041188,8586.388927
3659.278092,383.047749,222.061783,8956.491898
3659.278406,383.047749,592.164754,9104.533087
3659.278721,153.219100,-0.000000,9400.615463
3659.279035,153.219100,518.144159,9770.718434
3659.279349,153.219100,666.185348,9770.718434
3659.279664,0.000000,888.247130,9622.677246
3659.279978,536.266849,740.205942,9992.780217
3659.280293,383.047749,962.267725,9770.718434
3659.280607,0.000000,962.267725,9252.574275
3659.280921,76.609550,888.247130,9326.594869
3659.281236,76.609550,888.247130,9400.615463
3659.281550,0.000000,888.247130,9548.656652
3659.281864,306.438199,592.164754,9992.780217
3659.282179,229.828649,518.144159,10140.821405
3659.282493,153.219100,666.185348,10436.903782
3659.282808,153.219100,888.247130,10362.883188
3659.283122,383.047749,888.247130,10288.862594
3659.283436,689.485948,1036.288319,10510.924376
3659.283751,459.657299,1258.350101,10288.862594
3659.284065,689.485948,1332.370696,9992.780217
3659.284379,689.485948,1184.329507,10362.883188
3659.284694,459.657299,1110.308913,10436.903782
3659.285008,0.000000,1332.370696,10807.006753
3659.285322,0.000000,740.205942,10955.047942
3659.285637,-229.828649,666.185348,10955.047942
3659.285951,-383.047749,666.185348,10658.965565
3659.286266,-229.828649,740.205942,10436.903782
3659.286580,229.828649,518.144159,10214.842000
3659.286894,0.000000,370.102971,10140.821405
3659.287209,-536.266849,814.226536,9696.697840
3659.287523,-459.657299,518.144159,9844.739029
3659.287837,-229.828649,370.102971,9770.718434
3659.288152,0.000000,518.144159,9696.697840
3659.288466,0.000000,296.082377,9548.656652
3659.288781,153.219100,-0.000000,9622.677246
3659.289095,306.438199,-0.000000,9918.759623
3659.289409,0.000000,-0.000000,9548.656652
3659.289724,459.657299,222.061783,9622.677246
3659.290038,459.657299,444.123565,9400.615463
3659.290352,612.876398,-0.000000,8808.450710
3659.290667,689.485948,-148.041188,8586.388927
3659.290981,612.876398,-74.020594,8734.430116
3659.291296,459.657299,-296.082377,8882.471304
3659.291610,306.438199,-296.082377,8882.471304
3659.291924,306.438199,-518.144159,9252.574275
3659.292239,76.609550,-814.226536,9178.553681
3659.292553,-229.828649,-962.267725,9474.636058
3659.292867,0.000000,-740.205942,9474.636058
3659.293182,76.609550,-518.144159,9326.594869
3659.293496,306.438199,-296.082377,9030.512492
3659.293811,0.000000,-444.123565,9030.512492
3659.294125,76.609550,-444.123565,9030.512492
3659.294439,0.000000,-370.102971,9548.656652
3659.294754,-306.438199,-370.102971,9104.533087
3659.295068,-459.657299,-370.102971,9474.636058
3659.295382,-229.828649,-592.164754,9622.677246
3659.295697,0.000000,-666.185348,9770.718434
3659.296011,-229.828649,-888.247130,9548.656652
3659.296325,0.000000,-222.061783,9474.636058
3659.296640,-383.047749,-444.123565,9844.739029
3659.296954,-383.047749,-666.185348,9474.636058
3659.297269,-306.438199,-740.205942,9474.636058
3659.297583,-383.047749,-518.144159,9770.718434
3659.297897,-383.047749,-592.164754,9770.718434
3659.298212,-306.438199,-518.144159,9474.636058
3659.298526,-76.609550,-444.123565,9474.636058
3659.298840,0.000000,-592.164754,9770.718434
3659.299155,0.000000,-518.144159,9474.636058
3659.299469,76.609550,-222.061783,9326.594869
3659.299784,459.657299,-0.000000,9474.636058
3659.300098,383.047749,-0.000000,9252.574275
3659.300412,-76.609550,-222.061783,9474.636058
3659.300727,153.219100,-0.000000,9474.636058
3659.301041,76.609550,-0.000000,9252.574275
3659.301355,229.828649,-0.000000,9252.574275
3659.301670,0.000000,296.082377,9400.615463
3659.301984,229.828649,-0.000000,9474.636058
3659.302299,0.000000,-0.000000,9400.615463
3659.302613,0.000000,370.102971,9326.594869
3659.302927,0.000000,518.144159,9104.533087
3659.303242,0.000000,444.123565,9474.636058
3659.303556,612.876398,740.205942,9844.739029
3659.303870,76.609550,444.123565,9548.656652
3659.304185,0.000000,666.185348,9770.718434
3659.304499,306.438199,814.226536,9474.636058
3659.304814,229.828649,888.247130,9696.697840
3659.305128,1149.143247,1036.288319,10066.800811
3659.305442,153.219100,814.226536,9770.718434
3659.305757,229.828649,814.226536,9918.759623
3659.306071,0.000000,814.226536,9770.718434
3659.306385,229.828649,1110.308913,9918.759623
3659.306700,306.438199,1110.308913,10140.821405
3659.307014,306.438199,814.226536,9474.636058
3659.307329,0.000000,740.205942,9992.780217
3659.307643,0.000000,740.205942,9992.780217
3659.307957,229.828649,740.205942,10066.800811
3659.308272,0.000000,666.185348,9918.759623
3659.308586,153.219100,444.123565,9844.739029
3659.308900,0.000000,518.144159,9770.718434
3659.309215,0.000000,740.205942,9844.739029
3659.309529,76.609550,444.123565,10066.800811
3659.309844,153.219100,666.185348,9770.718434
3659.310158,76.609550,444.123565,9252.574275
3659.310472,0.000000,592.164754,9992.780217
3659.310787,0.000000,444.123565,9696.697840
3659.311101,0.000000,222.061783,9770.718434
3659.311415,0.000000,-0.000000,9548.656652
3659.311730,459.657299,148.041188,9548.656652
3659.312044,229.828649,296.082377,9326.594869
3659.312359,153.219100,-0.000000,9474.636058
3659.312673,536.266849,-148.041188,9844.739029
3659.312987,306.438199,-222.061783,9474.636058
3659.313302,0.000000,-0.000000,9400.615463
3659.313616,0.000000,-222.061783,9178.553681
3659.313931,229.828649,-74.020594,9474.636058
3659.314245,229.828649,-148.041188,9548.656652
3659.314559,229.828649,-74.020594,9400.615463
3659.314874,459.657299,-444.123565,9622.677246
3659.315188,229.828649,222.061783,9400.615463
3659.315503,459.657299,-0.000000,8882.471304
3659.315817,229.828649,-74.020594,9474.636058
3659.316131,153.219100,-0.000000,9474.636058
3659.316446,76.609550,-222.061783,9104.533087
3659.316760,0.000000,-296.082377,9400.615463
3659.317075,383.047749,-0.000000,9400.615463
3659.317389,229.828649,-74.020594,9474.636058
3659.317703,0.000000,-74.020594,9178.553681
3659.318018,-306.438199,-370.102971,9400.615463
3659.318332,-306.438199,-370.102971,9622.677246
3659.318647,229.828649,-222.061783,9474.636058
3659.318961,0.000000,-74.020594,9474.636058
3659.319275,0.000000,-222.061783,9474.636058
3659.319590,0.000000,-0.000000,9474.636058
3659.319904,0.000000,-74.020594,9474.636058
3659.320219,153.219100,-0.000000,9474.636058
3659.320533,76.609550,-0.000000,9622.677246
3659.320847,0.000000,-0.000000,9400.615463
3659.321162,0.000000,-0.000000,9548.656652
3659.321476,0.000000,74.020594,9696.697840
3659.321790,76.609550,-0.000000,9622.677246
3659.322105,76.609550,-0.000000,9548.656652
3659.322419,76.609550,-0.000000,9548.656652
3659.322734,76.609550,222.061783,9548.656652
3659.323048,0.000000,148.041188,9548.656652
3659.323362,0.000000,-0.000000,9622.677246
3659.323677,229.828649,-0.000000,9770.718434
3659.323991,0.000000,-0.000000,9622.677246
3659.324306,229.828649,370.102971,9992.780217
3659.324620,383.047749,518.144159,9992.780217
3659.324934,0.000000,444.123565,9844.739029
3659.325249,76.609550,592.164754,9696.697840
3659.325563,153.219100,74.020594,9918.759623
3659.325878,153.219100,444.123565,9844.739029
3659.326192,383.047749,888.247130,9992.780217
3659.326506,229.828649,666.185348,9622.677246
3659.326821,383.047749,740.205942,9770.718434
3659.327135,76.609550,962.267725,9844.739029
3659.327450,0.000000,962.267725,9992.780217
3659.327764,0.000000,814.226536,9918.759623
3659.328078,0.000000,592.164754,10214.842000
3659.328393,76.609550,814.226536,10214.842000
3659.328707,383.047749,518.144159,9770.718434
3659.329022,153.219100,518.144159,9622.677246
3659.329336,229.828649,592.164754,9770.718434
3659.329650,153.219100,666.185348,9770.718434
3659.329965,229.828649,666.185348,9770.718434
3659.330279,153.219100,518.144159,9844.739029
3659.330594,76.609550,740.205942,9622.677246
3659.330908,459.657299,518.144159,9622.677246
3659.331222,76.609550,370.102971,9622.677246
3659.331537,0.000000,370.102971,9622.677246
3659.331851,153.219100,-148.041188,9548.656652
3659.332165,0.000000,370.102971,9548.656652
3659.332480,153.219100,-0.000000,9326.594869
3659.332794,76.609550,-0.000000,9474.636058
3659.333109,153.219100,370.102971,9548.656652
3659.333423,842.705048,222.061783,9474.636058
3659.333737,0.000000,222.061783,9252.574275
3659.334052,229.828649,-148.041188,9400.615463
3659.334366,0.000000,-148.041188,9770.718434
3659.334681,383.047749,-222.061783,9696.697840
3659.334995,0.000000,-370.102971,9326.594869
3659.335309,306.438199,-370.102971,9696.697840
3659.335624,153.219100,-444.123565,9548.656652
3659.335938,153.219100,-222.061783,9622.677246
3659.336253,536.266849,-370.102971,9400.615463
3659.336567,-153.219100,-666.185348,9104.533087
3659.336881,612.876398,-0.000000,9548.656652
3659.337196,306.438199,-74.020594,9178.553681
3659.337510,76.609550,-74.020594,9474.636058
3659.337825,153.219100,-592.164754,9548.656652
3659.338139,76.609550,-518.144159,9326.594869
3659.338453,0.000000,-222.061783,9400.615463
3659.338768,153.219100,-222.061783,9696.697840
3659.339082,0.000000,-296.082377,9918.759623
3659.339397,-383.047749,-222.061783,9474.636058
3659.339711,-229.828649,-296.082377,9252.574275
3659.340025,153.219100,-74.020594,9548.656652
3659.340340,229.828649,-74.020594,9474.636058
3659.340654,0.000000,-296.082377,9474.636058
3659.340969,0.000000,-148.041188,9474.636058
3659.341283,0.000000,-0.000000,9104.533087
3659.341597,0.000000,-148.041188,9696.697840
3659.341912,0.000000,-0.000000,9400.615463
3659.342226,153.219100,-74.020594,9474.636058
3659.342540,0.000000,-148.041188,9474.636058
3659.342855,76.609550,-0.000000,9474.636058
3659.343169,153.219100,74.020594,9178.553681
3659.343484,0.000000,-370.102971,9400.615463
3659.343798,229.828649,-0.000000,9474.636058
3659.344112,153.219100,-148.041188,9474.636058
3659.344427,153.219100,-0.000000,9696.697840
3659.344741,153.219100,-0.000000,9400.615463
3659.345056,229.828649,296.082377,9474.636058
3659.345370,0.000000,-0.000000,9474.636058
3659.345684,153.219100,-0.000000,9548.656652
3659.345999,306.438199,222.061783,9622.677246
3659.346313,76.609550,296.082377,9770.718434
3659.346628,383.047749,370.102971,9844.739029
3659.346942,229.828649,148.041188,9474.636058
3659.347256,459.657299,444.123565,9400.615463
3659.347571,229.828649,370.102971,9770.718434
3659.347885,383.047749,296.082377,9918.759623
3659.348200,153.219100,592.164754,10140.821405
3659.348514,153.219100,-0.000000,9844.739029
3659.348828,306.438199,370.102971,10066.800811
3659.349143,0.000000,296.082377,10140.821405
3659.349457,153.219100,-0.000000,10288.862594
3659.349772,153.219100,296.082377,10214.842000
3659.350086,0.000000,444.123565,9992.780217
3659.350400,0.000000,296.082377,10066.800811
3659.350715,0.000000,370.102971,9918.759623
3659.351029,0.000000,296.082377,9992.780217
3659.351344,76.609550,518.144159,9918.759623
3659.351658,0.000000,370.102971,9622.677246
3659.351972,0.000000,444.123565,9992.780217
3659.352287,-153.219100,370.102971,9770.718434
3659.352601,153.219100,296.082377,9696.697840
3659.352915,-306.438199,-0.000000,9844.739029
3659.353230,0.000000,296.082377,9474.636058
3659.353544,76.609550,-0.000000,9474.636058
3659.353859,0.000000,444.123565,9474.636058
3659.354173,153.219100,296.082377,9400.615463
3659.354487,153.219100,444.123565,9400.615463
3659.354802,459.657299,148.041188,9400.615463
3659.355116,536.266849,-0.000000,10214.842000
3659.355431,0.000000,-0.000000,9252.574275
3659.355745,0.000000,-0.000000,9104.533087
3659.356059,229.828649,-0.000000,9400.615463
3659.356374,229.828649,-0.000000,9104.533087
3659.356688,459.657299,222.061783,9178.553681
3659.357003,0.000000,-0.000000,9252.574275
3659.357317,459.657299,-74.020594,9474.636058
3659.357631,153.219100,222.061783,9474.636058
3659.357946,0.000000,296.082377,9474.636058
3659.358260,153.219100,-0.000000,9696.697840
3659.358575,76.609550,-0.000000,9696.697840
3659.358889,153.219100,-222.061783,9844.739029
3659.359203,0.000000,-0.000000,9474.636058
3659.359518,153.219100,-0.000000,9992.780217
3659.359832,0.000000,-0.000000,9770.718434
3659.360147,0.000000,-0.000000,9696.697840
3659.360461,0.000000,-0.000000,9770.718434
3659.360775,0.000000,-148.041188,9548.656652
3659.361090,153.219100,-222.061783,9770.718434
3659.361404,229.828649,-222.061783,9696.697840
3659.361719,0.000000,-296.082377,9992.780217
3659.362033,0.000000,-74.020594,9696.697840
3659.362347,0.000000,-0.000000,9474.636058
3659.362662,0.000000,-222.061783,9696.697840
3659.362976,-229.828649,-0.000000,9474.636058
3659.363290,0.000000,-148.041188,9474.636058
3659.363605,76.609550,-74.020594,9400.615463
3659.363919,0.000000,-0.000000,9548.656652
3659.364234,0.000000,-0.000000,9474.636058
3659.364548,0.000000,296.082377,9252.574275
3659.364862,383.047749,-0.000000,9474.636058
3659.365177,0.000000,222.061783,9548.656652
3659.365491,153.219100,-0.000000,9326.594869
3659.365806,76.609550,-0.000000,9548.656652
3659.366120,0.000000,370.102971,9474.636058
3659.366434,153.219100,370.102971,9252.574275
3659.366749,153.219100,222.061783,9104.533087
3659.367063,383.047749,296.082377,9474.636058
3659.367378,153.219100,370.102971,9400.615463
3659.367692,383.047749,592.164754,9178.553681
3659.368006,306.438199,-0.000000,9474.636058
3659.368321,383.047749,444.123565,9696.697840
3659.368635,76.609550,592.164754,9622.677246
3659.368950,229.828649,370.102971,9252.574275
3659.369264,153.219100,444.123565,9474.636058
3659.369578,153.219100,444.123565,10140.821405
3659.369893,0.000000,592.164754,9770.718434
3659.370207,76.609550,296.082377,9844.739029
3659.370522,153.219100,370.102971,9918.759623
3659.370836,229.828649,370.102971,9770.718434
3659.371150,383.047749,592.164754,9992.780217
3659.371465,0.000000,296.082377,9992.780217
3659.371779,153.219100,518.144159,9770.718434
3659.372093,383.047749,444.123565,9696.697840
3659.372408,153.219100,370.102971,9696.697840
3659.372722,383.047749,222.061783,9918.759623
3659.373037,153.219100,-0.000000,10140.821405
3659.373351,0.000000,148.041188,9844.739029
3659.373665,0.000000,296.082377,10140.821405
3659.373980,0.000000,222.061783,9992.780217
3659.374294,306.438199,222.061783,9770.718434
3659.374609,0.000000,-0.000000,10140.821405
3659.374923,0.000000,296.082377,9918.759623
3659.375237,76.609550,370.102971,9252.574275
3659.375552,153.219100,222.061783,9474.636058
3659.375866,76.609550,222.061783,9548.656652
3659.376181,0.000000,-0.000000,9474.636058
3659.376495,76.609550,296.082377,9252.574275
3659.376809,153.219100,-0.000000,9474.636058
3659.377124,76.609550,222.061783,9844.739029
3659.377438,0.000000,-0.000000,9400.615463
3659.377753,689.485948,-0.000000,9252.574275
3659.378067,229.828649,-370.102971,9252.574275
3659.378381,76.609550,-0.000000,9474.636058
3659.378696,76.609550,222.061783,9474.636058
3659.379010,153.219100,-0.000000,9474.636058
3659.379325,0.000000,-0.000000,9844.739029
3659.379639,0.000000,-0.000000,9326.594869
3659.379953,76.609550,-0.000000,9104.533087
3659.380268,306.438199,-0.000000,9548.656652
3659.380582,0.000000,-0.000000,9474.636058
3659.380897,306.438199,-222.061783,9400.615463
3659.381211,0.000000,-0.000000,9474.636058
3659.381525,153.219100,-296.082377,9400.615463
3659.381840,229.828649,-0.000000,9474.636058
3659.382154,0.000000,-0.000000,9548.656652
3659.382468,229.828649,-296.082377,9622.677246
3659.382783,0.000000,-0.000000,9474.636058
3659.383097,76.609550,-0.000000,9548.656652
3659.383412,229.828649,-0.000000,9474.636058
3659.383726,229.828649,222.061783,9548.656652
3659.384040,76.609550,-222.061783,9474.636058
3659.384355,0.000000,-0.000000,9918.759623
3659.384669,76.609550,-296.082377,9992.780217
3659.384984,153.219100,-148.041188,9548.656652
3659.385298,0.000000,-74.020594,9400.615463
3659.385612,76.609550,-0.000000,9992.780217
3659.385927,0.000000,-0.000000,9474.636058
3659.386241,0.000000,-74.020594,9548.656652
3659.386556,0.000000,-148.041188,9696.697840
3659.386870,0.000000,-222.061783,9622.677246
3659.387184,153.219100,-0.000000,9326.594869
3659.387499,383.047749,296.082377,9326.594869
3659.387813,306.438199,-0.000000,9918.759623
3659.388128,76.609550,-0.000000,9770.718434
3659.388442,0.000000,-0.000000,9400.615463
3659.388756,0.000000,-0.000000,9400.615463
3659.389071,229.828649,296.082377,9474.636058
3659.389385,76.609550,222.061783,9622.677246
3659.389700,153.219100,148.041188,9474.636058
3659.390014,0.000000,-0.000000,9696.697840
3659.390328,76.609550,370.102971,9770.718434
3659.390643,76.609550,444.123565,9548.656652
3659.390957,153.219100,148.041188,9548.656652
3659.391272,76.609550,518.144159,9696.697840
3659.391586,153.219100,370.102971,9548.656652
3659.391900,229.828649,592.164754,9326.594869
3659.392215,229.828649,444.123565,9474.636058
3659.392529,306.438199,370.102971,9548.656652
3659.392843,229.828649,370.102971,9548.656652
3659.393158,0.000000,-0.000000,9622.677246
3659.393472,153.219100,-0.000000,9548.656652
3659.393787,306.438199,-0.000000,9622.677246
3659.394101,383.047749,444.123565,9474.636058
3659.394415,0.000000,370.102971,9770.718434
3659.394730,153.219100,444.123565,9696.697840
3659.395044,0.000000,-370.102971,9918.759623
3659.395359,383.047749,-0.000000,9770.718434
3659.395673,306.438199,-0.000000,9474.636058
3659.395987,229.828649,-0.000000,9548.656652
3659.396302,76.609550,-0.000000,9326.594869
3659.396616,306.438199,222.061783,9770.718434
3659.396931,306.438199,-0.000000,9622.677246
3659.397245,153.219100,-0.000000,9548.656652
3659.397559,153.219100,-0.000000,9770.718434
3659.397874,153.219100,-0.000000,9918.759623
3659.398188,0.000000,370.102971,9696.697840
3659.398503,76.609550,-222.061783,9622.677246
3659.398817,0.000000,-222.061783,9770.718434
3659.399131,76.609550,222.061783,9622.677246
3659.399446,153.219100,-0.000000,9400.615463
3659.399760,229.828649,-0.000000,9474.636058
3659.400075,383.047749,370.102971,9474.636058
3659.400389,76.609550,222.061783,9548.656652
3659.400703,229.828649,-0.000000,9400.615463
3659.401018,76.609550,-296.082377,9400.615463
3659.401332,306.438199,-0.000000,9474.636058
3659.401647,229.828649,-0.000000,9474.636058
3659.401961,153.219100,-0.000000,9474.636058
3659.402275,153.219100,148.041188,9474.636058
3659.402590,153.219100,-148.041188,9474.636058
3659.402904,306.438199,-0.000000,9474.636058
3659.403218,76.609550,296.082377,9474.636058
3659.403533,0.000000,-0.000000,9622.677246
3659.403847,0.000000,148.041188,9622.677246
3659.404162,306.438199,-0.000000,9622.677246
3659.404476,0.000000,148.041188,9474.636058
3659.404790,76.609550,-0.000000,9548.656652
3659.405105,0.000000,-0.000000,9844.739029
3659.405419,0.000000,-0.000000,9474.636058
3659.405734,0.000000,-0.000000,9252.574275
3659.406048,0.000000,-222.061783,9326.594869
3659.406362,-229.828649,-0.000000,9696.697840
3659.406677,0.000000,-0.000000,9770.718434
3659.406991,0.000000,-0.000000,9252.574275
3659.407306,383.047749,370.102971,9696.697840
3659.407620,0.000000,-0.000000,9548.656652
3659.407934,229.828649,-0.000000,9622.677246
3659.408249,0.000000,-0.000000,9548.656652
3659.408563,306.438199,-0.000000,9474.636058
3659.408878,766.095498,-0.000000,9770.718434
3659.409192,76.609550,222.061783,9622.677246
3659.409506,306.438199,-74.020594,9548.656652
3659.409821,0.000000,-0.000000,9770.718434
3659.410135,0.000000,222.061783,9548.656652
3659.410450,536.266849,-74.020594,10140.821405
3659.410764,383.047749,222.061783,9918.759623
3659.411079,306.438199,148.041188,9696.697840
3659.411393,0.000000,222.061783,9474.636058
3659.411708,76.609550,370.102971,9474.636058
3659.412022,76.609550,444.123565,9918.759623
3659.412337,306.438199,518.144159,9844.739029
3659.412651,0.000000,222.061783,9548.656652
3659.412966,153.219100,-0.000000,9474.636058
3659.413280,459.657299,-0.000000,9918.759623
3659.413595,689.485948,-0.000000,10214.842000
3659.413909,306.438199,444.123565,10214.842000
3659.414224,689.485948,592.164754,9844.739029
3659.414538,766.095498,740.205942,9400.615463
3659.414852,1225.752797,1110.308913,9326.594869
3659.415167,1225.752797,1258.350101,9548.656652
3659.415481,1302.362347,962.267725,8956.491898
3659.415796,1455.581446,888.247130,9252.574275
3659.416110,1225.752797,444.123565,9178.553681
3659.416425,995.924147,518.144159,9400.615463
3659.416739,1072.533697,444.123565,9474.636058
3659.417054,1149.143247,444.123565,9918.759623
3659.417368,919.314598,592.164754,10362.883188
3659.417683,995.924147,666.185348,9992.780217
3659.417997,1608.800546,962.267725,10214.842000
3659.418312,1838.629195,1036.288319,9770.718434
3659.418626,2298.286494,1332.370696,9844.739029
3659.418941,3140.991542,2146.597232,9400.615463
3659.419255,3294.210641,2072.576638,8808.450710
3659.419570,4290.134789,2294.638420,8734.430116
3659.419884,3677.258390,2368.659014,8586.388927
3659.420199,3447.429741,2442.679609,8438.347739
3659.420513,3217.601092,2516.700203,8660.409521
3659.420828,2911.162892,2442.679609,8512.368333
3659.421142,2451.505594,2368.659014,9178.553681
3659.421457,2221.676944,1850.514855,9178.553681
3659.421771,1915.238745,1554.432478,9622.677246
3659.422086,1225.752797,1406.391290,9844.739029
3659.422400,1302.362347,2072.576638,9844.739029
3659.422715,2145.067394,2146.597232,10436.903782
3659.423029,2451.505594,2960.823768,9770.718434
3659.423344,2221.676944,3478.967927,9622.677246
3659.423658,2757.943793,3775.050304,9252.574275
3659.423973,2987.772442,4219.173869,9252.574275
3659.424287,3217.601092,4663.297435,9696.697840
3659.424602,2911.162892,3997.112087,9992.780217
3659.424916,3217.601092,3849.070898,10584.944971
3659.425231,2757.943793,3701.029710,10510.924376
3659.425545,2681.334243,3552.988522,10436.903782
3659.425860,2145.067394,3775.050304,10807.006753
3659.426174,2068.457845,3775.050304,10288.862594
3659.426489,2451.505594,3701.029710,9992.780217
3659.426803,2374.896044,3627.009116,9548.656652
3659.427118,2298.286494,3108.864956,9622.677246
3659.427432,2451.505594,3404.947333,9252.574275
3659.427747,2145.067394,3108.864956,9252.574275
3659.428061,2221.676944,2960.823768,10140.821405
3659.428376,1915.238745,2812.782580,10584.944971
3659.428690,1685.410096,3108.864956,10955.047942
3659.429005,1685.410096,3404.947333,11029.068536
3659.429319,1762.019645,3256.906145,11029.068536
3659.429634,2145.067394,3701.029710,10881.027347
3659.429948,2145.067394,4145.153275,10066.800811
3659.430262,2145.067394,3627.009116,8956.491898
3659.430577,2221.676944,3849.070898,8660.409521
3659.430891,2145.067394,3404.947333,8364.327145
3659.431206,1915.238745,2812.782580,8290.306550
3659.431520,766.095498,1850.514855,8808.450710
3659.431835,0.000000,740.205942,9622.677246
3659.432149,-536.266849,296.082377,10658.965565
3659.432464,-1225.752797,148.041188,11399.171507
3659.432778,-1838.629195,148.041188,11769.274478
3659.433093,-1378.971896,518.144159,11769.274478
3659.433407,-612.876398,1184.329507,11399.171507
3659.433722,459.657299,1480.411884,10584.944971
3659.434036,1072.533697,2516.700203,9400.615463
3659.434351,2298.286494,2812.782580,8660.409521
3659.434665,2911.162892,2368.659014,8216.285956
3659.434980,3064.381992,2146.597232,7624.121203
3659.435294,2834.553343,1850.514855,8068.244768
3659.435609,2145.067394,814.226536,8438.347739
3659.435923,1302.362347,-0.000000,9178.553681
3659.436238,612.876398,-74.020594,9474.636058
3659.436552,-689.485948,-814.226536,9474.636058
3659.436867,-1225.752797,-1480.411884,9696.697840
3659.437181,-1455.581446,-1554.432478,9696.697840
3659.437496,-1302.362347,-1702.473667,9622.677246
3659.437810,-1149.143247,-2072.576638,9622.677246
3659.438125,-459.657299,-1480.411884,9548.656652
3659.438439,0.000000,-592.164754,9252.574275
3659.438754,306.438199,-444.123565,9474.636058
3659.439068,1225.752797,-370.102971,9992.780217
3659.439383,1302.362347,-222.061783,10140.821405
3659.439697,1378.971896,148.041188,9622.677246
3659.440012,1455.581446,-0.000000,10288.862594
3659.440326,1225.752797,-518.144159,9992.780217
3659.440641,1302.362347,-444.123565,9548.656652
3659.440955,766.095498,-814.226536,9178.553681
3659.441270,612.876398,-1110.308913,8882.471304
3659.441584,536.266849,-1332.370696,8512.368333
3659.441899,76.609550,-1554.432478,8364.327145
3659.442213,0.000000,-1776.494261,8956.491898
3659.442528,76.609550,-2368.659014,8586.388927
3659.442842,-153.219100,-2590.720797,9326.594869
3659.443157,-459.657299,-2368.659014,9992.780217
3659.443471,-842.705048,-2368.659014,10732.986159
3659.443786,-612.876398,-1850.514855,11029.068536
3659.444100,383.047749,-1258.350101,10214.842000
3659.444415,842.705048,-0.000000,10140.821405
3659.444729,1225.752797,1110.308913,9400.615463
3659.445043,1838.629195,1480.411884,8290.306550
3659.445358,2298.286494,1184.329507,8068.244768
3659.445672,2221.676944,1036.288319,8216.285956
3659.445987,1685.410096,740.205942,7920.203579
3659.446301,1378.971896,-444.123565,7772.162391
3659.446616,766.095498,-740.205942,8364.327145
3659.446930,229.828649,-1480.411884,9252.574275
3659.447245,-1225.752797,-1480.411884,8956.491898
3659.447559,-1991.848295,-1776.494261,9696.697840
3659.447874,-2298.286494,-2072.576638,10584.944971
3659.448188,-2451.505594,-1480.411884,10510.924376
3659.448503,-2298.286494,-444.123565,9992.780217
3659.448817,-1915.238745,-0.000000,9548.656652
3659.449132,-766.095498,814.226536,10214.842000
3659.449446,76.609550,1628.453072,9622.677246
3659.449761,842.705048,2294.638420,9400.615463
3659.450075,2068.457845,2738.761985,9770.718434
3659.450390,1378.971896,2442.679609,9252.574275
3659.450704,1608.800546,2368.659014,9918.759623
3659.451019,1225.752797,2220.617826,9474.636058
3659.451333,536.266849,1850.514855,9548.656652
3659.451648,-383.047749,666.185348,9252.574275
3659.451962,-842.705048,592.164754,9844.739029
3659.452277,-1302.362347,296.082377,10288.862594
3659.452591,-1378.971896,-296.082377,10066.800811
3659.452906,-1302.362347,-296.082377,10584.944971
3659.453220,-919.314598,-296.082377,10658.965565
3659.453535,-1378.971896,-0.000000,11029.068536
3659.453849,-689.485948,444.123565,11325.150913
3659.454164,229.828649,814.226536,11547.212695
3659.454478,689.485948,1702.473667,11399.171507
3659.454793,1455.581446,2294.638420,10214.842000
3659.455107,2068.457845,3108.864956,9918.759623
3659.455422,2604.724693,3182.885551,9992.780217
3659.455736,2681.334243,3034.844362,9770.718434
3659.456051,2221.676944,2590.720797,9178.553681
3659.456365,1991.848295,2146.597232,8734.430116
3659.456680,766.095498,1110.308913,8956.491898
3659.456994,459.657299,-0.000000,9104.533087
3659.457309,-306.438199,-222.061783,9252.574275
3659.457623,-995.924147,-1332.370696,9918.759623
3659.457938,-1225.752797,-1776.494261,10214.842000
3659.458252,-1378.971896,-1776.494261,10510.924376
3659.458567,-1685.410096,-1258.350101,10658.965565
3659.458881,-1225.752797,-666.185348,10658.965565
3659.459196,-153.219100,-74.020594,10288.862594
3659.459510,383.047749,-0.000000,9918.759623
3659.459825,1455.581446,1628.453072,9548.656652
3659.460139,2145.067394,1850.514855,8438.347739
3659.460453,2528.115143,2220.617826,8068.244768
3659.460768,2911.162892,1628.453072,8216.285956
3659.461082,2374.896044,1406.391290,8068.244768
3659.461397,1915.238745,740.205942,7920.203579
3659.461711,1302.362347,-518.144159,8290.306550
3659.462026,76.609550,-1480.411884,8586.388927
3659.462340,-1302.362347,-2294.638420,9326.594869
3659.462655,-1762.019645,-2664.741391,9474.636058
3659.462969,-2221.676944,-2812.782580,10288.862594
3659.463284,-2298.286494,-3034.844362,10288.862594
3659.463598,-2145.067394,-2294.638420,10140.821405
3659.463913,-1225.752797,-1924.535449,9918.759623
3659.464227,-383.047749,-1036.288319,9770.718434
3659.464542,459.657299,-0.000000,9548.656652
3659.464856,1072.533697,888.247130,9548.656652
3659.465171,1608.800546,1480.411884,8956.491898
3659.465485,2451.505594,1628.453072,8438.347739
3659.465800,2451.505594,1554.432478,8364.327145
3659.466114,1608.800546,962.267725,8290.306550
3659.466429,995.924147,518.144159,8512.368333
3659.466743,76.609550,-518.144159,9030.512492
3659.467058,-1378.971896,-1480.411884,9400.615463
3659.467372,-2374.896044,-1776.494261,9622.677246
3659.467687,-2834.553343,-2442.679609,9770.718434
3659.468001,-3217.601092,-2960.823768,10436.903782
3659.468316,-3370.820191,-3182.885551,11325.150913
3659.468630,-2987.772442,-2590.720797,10955.047942
3659.468945,-2221.676944,-1554.432478,10881.027347
3659.469259,-1378.971896,-740.205942,10584.944971
3659.469574,0.000000,370.102971,10436.903782
3659.469888,919.314598,1702.473667,9696.697840
3659.470203,1608.800546,2220.617826,9474.636058
3659.470517,2298.286494,2220.617826,9326.594869
3659.470832,2221.676944,2294.638420,8734.430116
3659.471146,2145.067394,1924.535449,8660.409521
3659.471461,1302.362347,1258.350101,8586.388927
3659.471775,995.924147,148.041188,8438.347739
3659.472090,0.000000,-518.144159,9104.533087
3659.472404,-919.314598,-1332.370696,9326.594869
3659.472719,-1532.190996,-1850.514855,9770.718434
3659.473033,-1838.629195,-2368.659014,10066.800811
3659.473348,-2068.457845,-2368.659014,10436.903782
3659.473662,-1838.629195,-1776.494261,10658.965565
3659.473977,-1149.143247,-888.247130,10584.944971
3659.474291,0.000000,-0.000000,10584.944971
3659.474606,1149.143247,1258.350101,10140.821405
3659.474920,1838.629195,2664.741391,9770.718434
3659.475234,2681.334243,3478.967927,8956.491898
3659.475549,3217.601092,3404.947333,8512.368333
3659.475863,3294.210641,2812.782580,8882.471304
3659.476178,2451.505594,2738.761985,8660.409521
3659.476492,2068.457845,2146.597232,8512.368333
3659.476807,995.924147,1184.329507,8808.450710
3659.477121,0.000000,-0.000000,9844.739029
3659.477436,-1225.752797,-814.226536,9918.759623
3659.477750,-1991.848295,-1628.453072,10066.800811
3659.478065,-2298.286494,-1406.391290,10066.800811
3659.478379,-2298.286494,-1702.473667,10807.006753
3659.478694,-1762.019645,-962.267725,10881.027347
3659.479008,-995.924147,-296.082377,10362.883188
3659.479323,0.000000,370.102971,9992.780217
3659.479637,1225.752797,1480.411884,9992.780217
3659.479952,1915.238745,2516.700203,9474.636058
3659.480266,2681.334243,3182.885551,9030.512492
3659.480581,2681.334243,3627.009116,8660.409521
3659.480895,3140.991542,3108.864956,9030.512492
3659.481210,2604.724693,2368.659014,8216.285956
3659.481524,1838.629195,1850.514855,8734.430116
3659.481839,383.047749,962.267725,9030.512492
3659.482153,-536.266849,-296.082377,9474.636058
3659.482468,-1378.971896,-1036.288319,9918.759623
3659.482782,-2145.067394,-1628.453072,10066.800811
3659.483097,-2451.505594,-1702.473667,10436.903782
3659.483411,-2221.676944,-1776.494261,10510.924376
3659.483726,-2068.457845,-1184.329507,10510.924376
3659.484040,-1225.752797,-148.041188,10436.903782
3659.484355,0.000000,814.226536,10066.800811
3659.484669,612.876398,1258.350101,10140.821405
3659.484984,1378.971896,2220.617826,9474.636058
3659.485298,1991.848295,2368.659014,8808.450710
3659.485613,2374.896044,2664.741391,8882.471304
3659.485927,2528.115143,2294.638420,9252.574275
3659.486242,1762.019645,2146.597232,9030.512492
3659.486556,1072.533697,888.247130,9178.553681
3659.486871,229.828649,666.185348,9326.594869
3659.487185,-536.266849,-666.185348,9992.780217
3659.487500,-1378.971896,-1406.391290,10066.800811
3659.487814,-2298.286494,-1924.535449,9992.780217
3659.488129,-2451.505594,-2442.679609,10584.944971
3659.488443,-2451.505594,-2368.659014,10436.903782
3659.488758,-1685.410096,-1850.514855,10658.965565
3659.489072,-1302.362347,-962.267725,10584.944971
3659.489387,0.000000,-296.082377,10807.006753
3659.489701,612.876398,296.082377,9918.759623
3659.490016,1455.581446,962.267725,9400.615463
3659.490330,1991.848295,1628.453072,9400.615463
3659.490644,2221.676944,1924.535449,8808.450710
3659.490959,2451.505594,1406.391290,8734.430116
3659.491273,2298.286494,1036.288319,8734.430116
3659.491588,1762.019645,518.144159,8586.388927
3659.491902,459.657299,-518.144159,8808.450710
3659.492217,-306.438199,-1702.473667,9252.574275
3659.492531,-1072.533697,-2590.720797,9770.718434
3659.492846,-2145.067394,-2812.782580,9696.697840
3659.493160,-2451.505594,-2960.823768,10066.800811
3659.493475,-2145.067394,-2960.823768,10362.883188
3659.493789,-1608.800546,-2590.720797,10362.883188
3659.494104,-1378.971896,-2072.576638,9770.718434
3659.494418,-306.438199,-740.205942,10066.800811
3659.494733,536.266849,148.041188,9770.718434
3659.495047,1225.752797,592.164754,8956.491898
3659.495362,2298.286494,1480.411884,8882.471304
3659.495676,2451.505594,1628.453072,9326.594869
3659.495991,2451.505594,1628.453072,8438.347739
3659.496305,2298.286494,1332.370696,8512.368333
3659.496620,1685.410096,518.144159,8438.347739
3659.496934,689.485948,-0.000000,8956.491898
3659.497249,-766.095498,-814.226536,8956.491898
3659.497563,-1378.971896,-1480.411884,9548.656652
3659.497878,-1991.848295,-2220.617826,10214.842000
3659.498192,-2221.676944,-2368.659014,10510.924376
3659.498507,-2145.067394,-2220.617826,10658.965565
3659.498821,-1608.800546,-1850.514855,10362.883188
3659.499136,-995.924147,-740.205942,9992.780217
3659.499450,0.000000,-0.000000,10140.821405
3659.499765,919.314598,1036.288319,9918.759623
3659.500079,1762.019645,1924.535449,9474.636058
3659.500394,2451.505594,2442.679609,8734.430116
3659.500708,2604.724693,2886.803174,8586.388927
3659.501023,2757.943793,2590.720797,8882.471304
3659.501337,2374.896044,2220.617826,9030.512492
3659.501652,1608.800546,1554.432478,8882.471304
3659.501966,383.047749,592.164754,9104.533087
3659.502281,-306.438199,-0.000000,9474.636058
3659.502595,-1302.362347,-518.144159,9918.759623
3659.502910,-1915.238745,-962.267725,10066.800811
3659.503224,-2374.896044,-1110.308913,10510.924376
3659.503539,-2374.896044,-1554.432478,10658.965565
3659.503853,-1685.410096,-1110.308913,10584.944971
3659.504168,-842.705048,-0.000000,10288.862594
3659.504482,0.000000,814.226536,10436.903782
3659.504797,612.876398,1406.391290,10140.821405
3659.505111,1302.362347,2220.617826,10066.800811
3659.505425,2145.067394,3256.906145,9770.718434
3659.505740,2451.505594,3478.967927,9252.574275
3659.506054,2681.334243,3108.864956,8808.450710
3659.506369,2451.505594,2220.617826,9030.512492
3659.506683,1608.800546,1776.494261,8882.471304
3659.506998,1149.143247,962.267725,9030.512492
3659.507312,0.000000,-74.020594,9622.677246
3659.507627,-842.705048,-814.226536,10140.821405
3659.507941,-1838.629195,-1258.350101,9918.759623
3659.508256,-2145.067394,-1332.370696,10214.842000
3659.508570,-1991.848295,-1332.370696,10584.944971
3659.508885,-1532.190996,-1110.308913,10955.047942
3659.509199,-995.924147,-0.000000,10510.924376
3659.509514,-229.828649,370.102971,10066.800811
3659.509828,689.485948,1628.453072,10066.800811
3659.510143,1302.362347,2220.617826,9622.677246
3659.510457,1991.848295,2738.761985,9474.636058
3659.510772,2298.286494,2886.803174,9178.553681
3659.511086,2528.115143,2368.659014,8882.471304
3659.511401,2068.457845,2220.617826,8956.491898
3659.511715,1225.752797,1332.370696,8882.471304
3659.512030,383.047749,370.102971,9252.574275
3659.512344,-536.266849,-740.205942,9400.615463
3659.512659,-1455.581446,-1924.535449,9400.615463
3659.512973,-1762.019645,-1628.453072,9474.636058
3659.513288,-1915.238745,-1850.514855,9474.636058
3659.513602,-1838.629195,-1924.535449,10066.800811
3659.513917,-1608.800546,-1628.453072,10140.821405
3659.514231,-919.314598,-814.226536,10140.821405
3659.514546,-536.266849,-222.061783,9622.677246
3659.514860,229.828649,222.061783,9770.718434
3659.515174,1225.752797,740.205942,9844.739029
3659.515489,1762.019645,1480.411884,8882.471304
3659.515803,2221.676944,1628.453072,9178.553681
3659.516118,2145.067394,1554.432478,8882.471304
3659.516432,1915.238745,1332.370696,8882.471304
3659.516747,1149.143247,444.123565,8512.368333
3659.517061,536.266849,-370.102971,8290.306550
3659.517376,-383.047749,-1184.329507,9104.533087
3659.517690,-1149.143247,-1998.556043,9326.594869
3659.518005,-1608.800546,-2368.659014,9696.697840
3659.518319,-2221.676944,-2738.761985,9992.780217
3659.518634,-2374.896044,-2590.720797,10510.924376
3659.518948,-1762.019645,-2368.659014,10807.006753
3659.519263,-1378.971896,-1554.432478,10362.883188
3659.519577,-919.314598,-962.267725,10214.842000
3659.519892,383.047749,-0.000000,10140.821405
3659.520206,1225.752797,444.123565,10066.800811
3659.520521,1532.190996,1406.391290,9622.677246
3659.520835,1838.629195,1702.473667,9030.512492
3659.521150,2374.896044,1850.514855,8882.471304
3659.521464,2068.457845,1184.329507,8808.450710
3659.521779,1225.752797,888.247130,8808.450710
3659.522093,612.876398,296.082377,9104.533087
3659.522407,-612.876398,-740.205942,9326.594869
3659.522722,-1072.533697,-1480.411884,9474.636058
3659.523036,-1838.629195,-2072.576638,9548.656652
3659.523351,-2451.505594,-2368.659014,9992.780217
3659.523665,-2298.286494,-2368.659014,10436.903782
3659.523980,-2221.676944,-1998.556043,10658.965565
3659.524294,-1608.800546,-1110.308913,10288.862594
3659.524609,-383.047749,-592.164754,10362.883188
3659.524923,306.438199,518.144159,10510.924376
3659.525238,1072.533697,1554.432478,9918.759623
3659.525552,1608.800546,2590.720797,9104.533087
3659.525867,2374.896044,2590.720797,8734.430116
3659.526181,2681.334243,2516.700203,8660.409521
3659.526496,2681.334243,2220.617826,8808.450710
3659.526810,2298.286494,1850.514855,8438.347739
3659.527125,1072.533697,1110.308913,8882.471304
3659.527439,0.000000,-0.000000,9474.636058
3659.527754,-459.657299,-1110.308913,9252.574275
3659.528068,-1532.190996,-1184.329507,9474.636058
3659.528383,-2221.676944,-1702.473667,9918.759623
3659.528697,-2374.896044,-1776.494261,10214.842000
3659.529011,-1762.019645,-1480.411884,10584.944971
3659.529326,-1455.581446,-666.185348,10362.883188
3659.529640,-612.876398,-0.000000,10288.862594
3659.529955,383.047749,814.226536,9992.780217
3659.530269,1455.581446,1850.514855,10214.842000
3659.530584,1915.238745,2960.823768,9918.759623
3659.530898,2451.505594,3256.906145,9400.615463
3659.531213,2451.505594,3034.844362,9178.553681
3659.531527,2374.896044,2516.700203,9178.553681
3659.531842,2068.457845,2368.659014,9030.512492
3659.532156,1455.581446,1258.350101,9104.533087
3659.532471,0.000000,296.082377,9474.636058
3659.532785,-536.266849,-518.144159,9992.780217
3659.533100,-1608.800546,-888.247130,9918.759623
3659.533414,-2221.676944,-1332.370696,10214.842000
3659.533729,-2068.457845,-1184.329507,10881.027347
3659.534043,-2451.505594,-1628.453072,10436.903782
3659.534358,-1455.581446,-444.123565,10584.944971
3659.534672,-689.485948,-0.000000,10510.924376
3659.534987,383.047749,740.205942,10066.800811
3659.535301,1302.362347,1628.453072,9474.636058
3659.535616,1685.410096,2368.659014,8882.471304
3659.535930,2221.676944,3182.885551,9252.574275
3659.536244,2374.896044,2886.803174,8512.368333
3659.536559,2145.067394,2294.638420,8512.368333
3659.536873,1685.410096,1998.556043,8808.450710
3659.537188,536.266849,1628.453072,8956.491898
3659.537502,-306.438199,-0.000000,9030.512492
3659.537817,-995.924147,-1036.288319,9696.697840
3659.538131,-1991.848295,-1480.411884,10510.924376
3659.538446,-2221.676944,-1776.494261,9992.780217
3659.538760,-1685.410096,-1702.473667,9918.759623
3659.539075,-1762.019645,-1850.514855,10510.924376
3659.539389,-1532.190996,-1258.350101,9992.780217
3659.539704,-383.047749,-222.061783,9918.759623
3659.540018,383.047749,-0.000000,9992.780217
3659.540333,842.705048,222.061783,10140.821405
3659.540647,1915.238745,1702.473667,9178.553681
3659.540962,2145.067394,2146.597232,8660.409521
3659.541276,2298.286494,2072.576638,9030.512492
3659.541591,2451.505594,1554.432478,9326.594869
3659.541905,1532.190996,814.226536,9252.574275
3659.542220,842.705048,-0.000000,9104.533087
3659.542534,0.000000,-592.164754,9326.594869
3659.542848,-766.095498,-1406.391290,9548.656652
3659.543163,-1455.581446,-1924.535449,10066.800811
3659.543477,-2068.457845,-2220.617826,10214.842000
3659.543792,-2145.067394,-2516.700203,10214.842000
3659.544106,-1608.800546,-2516.700203,10807.006753
3659.544421,-1378.971896,-1702.473667,10658.965565
3659.544735,-919.314598,-1036.288319,10288.862594
3659.545050,-229.828649,-518.144159,9992.780217
3659.545364,919.314598,-0.000000,9918.759623
3659.545679,1302.362347,1110.308913,9548.656652
3659.545993,1838.629195,1554.432478,8882.471304
3659.546308,2451.505594,1554.432478,8290.306550
3659.546622,2298.286494,1332.370696,8808.450710
3659.546937,1915.238745,1036.288319,8290.306550
3659.547251,1532.190996,296.082377,8290.306550
3659.547566,76.609550,-518.144159,8808.450710
3659.547880,-383.047749,-1628.453072,9400.615463
3659.548195,-1225.752797,-1776.494261,9400.615463
3659.548509,-1838.629195,-2072.576638,9400.615463
3659.548824,-2145.067394,-2368.659014,9918.759623
3659.549138,-1838.629195,-2220.617826,10658.965565
3659.549452,-1302.362347,-1480.411884,10362.883188
3659.549767,-842.705048,-666.185348,9696.697840
3659.550081,0.000000,-0.000000,9992.780217
3659.550396,919.314598,888.247130,9770.718434
3659.550710,1455.581446,1702.473667,9622.677246
3659.551025,2068.457845,1776.494261,9104.533087
3659.551339,2145.067394,2072.576638,8586.388927
3659.551654,2451.505594,1850.514855,8808.450710
3659.551968,1991.848295,1628.453072,9104.533087
3659.552283,1532.190996,1332.370696,9104.533087
3659.552597,306.438199,592.164754,9104.533087
3659.552912,-459.657299,-592.164754,9104.533087
3659.553226,-1302.362347,-1110.308913,9548.656652
3659.553541,-1838.629195,-1184.329507,9622.677246
3659.553855,-2298.286494,-1850.514855,10732.986159
3659.554170,-2068.457845,-1554.432478,10732.986159
3659.554484,-1915.238745,-962.267725,10510.924376
3659.554799,-1149.143247,-148.041188,10807.006753
3659.555113,306.438199,444.123565,11251.130318
3659.555428,612.876398,1332.370696,10807.006753
3659.555742,1455.581446,2294.638420,9844.739029
3659.556057,1915.238745,3034.844362,9104.533087
3659.556371,2451.505594,2886.803174,9104.533087
3659.556685,2451.505594,2886.803174,9326.594869
3659.557000,2068.457845,2368.659014,8734.430116
3659.557314,1378.971896,1554.432478,8660.409521
3659.557629,536.266849,814.226536,9104.533087
3659.557943,-153.219100,-0.000000,9474.636058
3659.558258,-536.266849,-370.102971,9770.718434
3659.558572,-1762.019645,-1036.288319,9918.759623
3659.558887,-1991.848295,-1036.288319,10362.883188
3659.559201,-1608.800546,-1258.350101,10658.965565
3659.559516,-1608.800546,-962.267725,10807.006753
3659.559830,-536.266849,-148.041188,10584.944971
3659.560145,153.219100,518.144159,9992.780217
3659.560459,1072.533697,1258.350101,9770.718434
3659.560774,1838.629195,2368.659014,9474.636058
3659.561088,2298.286494,3108.864956,9400.615463
3659.561403,2604.724693,2590.720797,9178.553681
3659.561717,2451.505594,2368.659014,8734.430116
3659.562032,2374.896044,2368.659014,8808.450710
3659.562346,1455.581446,1776.494261,8882.471304
3659.562661,536.266849,518.144159,9030.512492
3659.562975,-1225.752797,-370.102971,9622.677246
3659.563289,-1455.581446,-1332.370696,10066.800811
3659.563604,-2298.286494,-1850.514855,9696.697840
3659.563918,-2221.676944,-2072.576638,10288.862594
3659.564233,-2298.286494,-1776.494261,10955.047942
3659.564547,-2374.896044,-1998.556043,11177.109724
3659.564862,-1302.362347,-888.247130,10288.862594
3659.565176,-536.266849,-296.082377,10288.862594
3659.565491,919.314598,444.123565,10140.821405
3659.565805,1378.971896,1406.391290,9400.615463
3659.566120,2145.067394,1850.514855,8660.409521
3659.566434,2145.067394,2072.576638,8586.388927
3659.566749,2298.286494,1628.453072,8734.430116
3659.567063,2145.067394,1184.329507,8290.306550
3659.567378,1378.971896,740.205942,8364.327145
3659.567692,229.828649,-148.041188,9252.574275
3659.568007,-536.266849,-1258.350101,9474.636058
3659.568321,-1455.581446,-1924.535449,9326.594869
3659.568636,-2298.286494,-2368.659014,9770.718434
3659.568950,-2145.067394,-2886.803174,10066.800811
3659.569265,-2451.505594,-2516.700203,10436.903782
3659.569579,-1991.848295,-2146.597232,10362.883188
3659.569894,-1072.533697,-1110.308913,9844.739029
3659.570208,-536.266849,-222.061783,9844.739029
3659.570522,612.876398,370.102971,9918.759623
3659.570837,842.705048,1036.288319,9696.697840
3659.571151,1685.410096,1702.473667,9030.512492
3659.571466,2298.286494,2072.576638,8882.471304
3659.571780,2528.115143,1702.473667,8660.409521
3659.572095,2528.115143,1628.453072,8808.450710
3659.572409,1762.019645,1110.308913,8438.347739
3659.572724,689.485948,-0.000000,8956.491898
3659.573038,229.828649,-814.226536,9178.553681
3659.573353,-689.485948,-1554.432478,9474.636058
3659.573667,-1685.410096,-2072.576638,9622.677246
3659.573982,-1991.848295,-2368.659014,9992.780217
3659.574296,-2221.676944,-2368.659014,10362.883188
3659.574611,-1991.848295,-2072.576638,10510.924376
3659.574925,-1455.581446,-1480.411884,10658.965565
3659.575240,-459.657299,-666.185348,10732.986159
3659.575554,612.876398,592.164754,9844.739029
3659.575869,1455.581446,1554.432478,9474.636058
3659.576183,1838.629195,2442.679609,9474.636058
3659.576498,2221.676944,2590.720797,8956.491898
3659.576812,2911.162892,2294.638420,8882.471304
3659.577126,2145.067394,1998.556043,8882.471304
3659.577441,1608.800546,1184.329507,8882.471304
3659.577755,689.485948,370.102971,9030.512492
3659.578070,0.000000,-592.164754,9474.636058
3659.578384,-1149.143247,-1332.370696,10288.862594
3659.578699,-1915.238745,-1332.370696,9992.780217
3659.579013,-2451.505594,-1628.453072,10214.842000
3659.579328,-2374.896044,-1702.473667,10510.924376
3659.579642,-1608.800546,-1406.391290,10807.006753
3659.579957,-1072.533697,-814.226536,10140.821405
3659.580271,-536.266849,-0.000000,10214.842000
3659.580586,766.095498,1110.308913,10140.821405
3659.580900,1455.581446,2072.576638,9770.718434
3659.581215,1915.238745,2960.823768,9474.636058
3659.581529,2374.896044,3034.844362,8882.471304
3659.581844,2145.067394,2812.782580,8882.471304
3659.582158,2451.505594,2516.700203,8956.491898
3659.582473,1685.410096,1850.514855,8660.409521
3659.582787,1072.533697,740.205942,8808.450710
3659.583102,-153.219100,-222.061783,9474.636058
3659.583416,-995.924147,-962.267725,9696.697840
3659.583730,-1608.800546,-814.226536,9918.759623
3659.584045,-2145.067394,-1184.329507,10214.842000
3659.584359,-1915.238745,-1184.329507,10807.006753
3659.584674,-1915.238745,-1184.329507,10732.986159
3659.584988,-1532.190996,-296.082377,10288.862594
3659.585303,-536.266849,370.102971,9770.718434
3659.585617,459.657299,814.226536,10436.903782
3659.585932,1225.752797,1702.473667,10584.944971
3659.586246,1762.019645,2590.720797,9474.636058
3659.586561,2221.676944,2738.761985,8808.450710
3659.586875,2451.505594,2590.720797,9104.533087
3659.587190,2451.505594,1924.535449,9178.553681
3659.587504,1455.581446,1406.391290,8956.491898
3659.587819,689.485948,592.164754,8808.450710
3659.588133,0.000000,-296.082377,9104.533087
3659.588448,-766.095498,-1258.350101,9548.656652
3659.588762,-1455.581446,-1850.514855,9548.656652
3659.589077,-1991.848295,-2146.597232,9992.780217
3659.589391,-2145.067394,-2146.597232,10288.862594
3659.589706,-1762.019645,-1776.494261,10436.903782
3659.590020,-1378.971896,-1184.329507,10732.986159
3659.590335,-459.657299,-592.164754,10288.862594
3659.590649,459.657299,592.164754,10066.800811
3659.590963,1072.533697,814.226536,9844.739029
3659.591278,1838.629195,1628.453072,9326.594869
3659.591592,1991.848295,2220.617826,9030.512492
3659.591907,2145.067394,1998.556043,8808.450710
3659.592221,1991.848295,1480.411884,8956.491898
3659.592536,1608.800546,1110.308913,8364.327145
3659.592850,919.314598,444.123565,8512.368333
3659.593165,76.609550,-666.185348,9252.574275
3659.593479,-612.876398,-1776.494261,9474.636058
3659.593794,-1608.800546,-1998.556043,9622.677246
3659.594108,-2145.067394,-2294.638420,9622.677246
3659.594423,-1991.848295,-2368.659014,10510.924376
3659.594737,-1685.410096,-2368.659014,10362.883188
3659.595052,-1685.410096,-1776.494261,10288.862594
3659.595366,-459.657299,-592.164754,10436.903782
3659.595681,0.000000,-222.061783,10066.800811
3659.595995,919.314598,888.247130,9844.739029
3659.596310,1455.581446,1850.514855,9548.656652
3659.596624,1685.410096,1702.473667,9326.594869
3659.596939,1915.238745,1332.370696,8882.471304
3659.597253,1991.848295,1258.350101,8660.409521
3659.597567,1608.800546,1036.288319,8438.347739
3659.597882,536.266849,-74.020594,8956.491898
3659.598196,0.000000,-592.164754,9474.636058
3659.598511,-1149.143247,-1406.391290,9326.594869
3659.598825,-1762.019645,-1924.535449,9326.594869
3659.599140,-2298.286494,-2146.597232,10066.800811
3659.599454,-2298.286494,-2368.659014,10362.883188
3659.599769,-2221.676944,-2220.617826,10510.924376
3659.600083,-1532.190996,-1702.473667,10362.883188
3659.600398,-689.485948,-592.164754,10288.862594
3659.600712,229.828649,518.144159,10066.800811
3659.601027,1225.752797,1258.350101,9992.780217
3659.601341,1915.238745,1998.556043,9474.636058
3659.601656,1762.019645,2146.597232,8660.409521
3659.601970,2451.505594,2072.576638,8586.388927
3659.602285,2604.724693,1776.494261,8808.450710
3659.602599,1838.629195,1406.391290,8734.430116
3659.602914,1455.581446,740.205942,8660.409521
3659.603228,76.609550,-74.020594,8808.450710
3659.603543,-919.314598,-814.226536,9548.656652
3659.603857,-1762.019645,-1332.370696,9696.697840
3659.604172,-1991.848295,-1628.453072,9992.780217
3659.604486,-1762.019645,-2146.597232,10066.800811
3659.604800,-1532.190996,-1702.473667,10658.965565
3659.605115,-1149.143247,-962.267725,10510.924376
3659.605429,-689.485948,-222.061783,10362.883188
3659.605744,536.266849,888.247130,10658.965565
3659.606058,1378.971896,1406.391290,9992.780217
3659.606373,1915.238745,2664.741391,9474.636058
3659.606687,2145.067394,2886.803174,8808.450710
3659.607002,2528.115143,2886.803174,9030.512492
3659.607316,3064.381992,2442.679609,8956.491898
3659.607631,2145.067394,2368.659014,8882.471304
3659.607945,1072.533697,1554.432478,9178.553681
3659.608260,306.438199,222.061783,9252.574275
3659.608574,-459.657299,-444.123565,9844.739029
3659.608889,-1378.971896,-888.247130,9992.780217
3659.609203,-2298.286494,-1332.370696,10214.842000
3659.609518,-2298.286494,-1628.453072,10362.883188
3659.609832,-2298.286494,-1406.391290,10658.965565
3659.610147,-1838.629195,-740.205942,10288.862594
3659.610461,-689.485948,-222.061783,10510.924376
3659.610776,0.000000,814.226536,10066.800811
3659.611090,766.095498,1184.329507,10066.800811
3659.611404,1378.971896,2220.617826,9548.656652
3659.611722,1991.848295,2738.761985,9252.574275
3659.612036,2068.457845,2664.741391,8882.471304
3659.612351,2451.505594,2738.761985,9252.574275
3659.612665,1991.848295,2220.617826,8660.409521
3659.612979,1072.533697,1480.411884,8808.450710
3659.613294,383.047749,370.102971,9104.533087
3659.613608,-459.657299,-888.247130,8956.491898
3659.613922,-1378.971896,-1110.308913,9474.636058
3659.614237,-2068.457845,-1998.556043,9992.780217
3659.614551,-2374.896044,-2146.597232,10214.842000
3659.614865,-2451.505594,-2294.638420,10955.047942
3659.615180,-1838.629195,-1406.391290,11325.150913
3659.615494,-995.924147,-814.226536,10881.027347
3659.615808,0.000000,148.041188,10214.842000
3659.616122,612.876398,814.226536,9622.677246
3659.616437,2145.067394,2146.597232,9326.594869
3659.616751,2145.067394,2220.617826,8660.409521
3659.617065,2451.505594,2072.576638,8586.388927
3659.617380,2604.724693,1776.494261,8808.450710
3659.617694,2451.505594,1628.453072,8586.388927
3659.618008,1302.362347,666.185348,8586.388927
3659.618323,536.266849,-296.082377,8882.471304
3659.618637,-536.266849,-1258.350101,9770.718434
3659.618951,-1225.752797,-1850.514855,9474.636058
3659.619266,-1991.848295,-2294.638420,9548.656652
3659.619580,-2221.676944,-2960.823768,10214.842000
3659.619894,-2221.676944,-3182.885551,10288.862594
3659.620208,-1915.238745,-1998.556043,10214.842000
3659.620523,-1072.533697,-1258.350101,10214.842000
3659.620837,0.000000,-444.123565,10140.821405
3659.621151,995.924147,370.102971,10214.842000
3659.621466,1608.800546,1554.432478,9400.615463
3659.621780,1991.848295,1924.535449,8956.491898
3659.622094,2451.505594,2368.659014,8512.368333
3659.622409,2528.115143,1258.350101,8512.368333
3659.622723,2221.676944,1332.370696,8364.327145
3659.623037,1608.800546,666.185348,8660.409521
3659.623352,383.047749,-296.082377,8882.471304
3659.623666,-689.485948,-1110.308913,9326.594869
3659.623980,-1302.362347,-1850.514855,9918.759623
3659.624295,-1991.848295,-2368.659014,9770.718434
3659.624609,-2451.505594,-2664.741391,10362.883188
3659.624923,-2451.505594,-2368.659014,10881.027347
3659.625237,-2145.067394,-1850.514855,10584.944971
3659.625552,-1072.533697,-888.247130,10510.924376
3659.625866,0.000000,148.041188,10436.903782
3659.626180,689.485948,888.247130,10362.883188
3659.626495,1532.190996,2072.576638,9474.636058
3659.626809,2451.505594,2738.761985,8660.409521
3659.627123,3140.991542,2960.823768,8956.491898
3659.627438,2604.724693,2516.700203,8808.450710
3659.627752,2221.676944,1924.535449,8512.368333
3659.628066,1149.143247,1184.329507,8512.368333
3659.628381,383.047749,370.102971,9030.512492
3659.628695,-842.705048,-814.226536,9844.739029
3659.629009,-2068.457845,-1332.370696,10288.862594
3659.629324,-2374.896044,-1776.494261,10510.924376
3659.629638,-2911.162892,-2368.659014,10658.965565
3659.629952,-2757.943793,-2072.576638,11103.089130
3659.630266,-2374.896044,-1628.453072,11325.150913
3659.630581,-1225.752797,-296.082377,10732.986159
3659.630895,-306.438199,444.123565,10214.842000
3659.631209,919.314598,1480.411884,9918.759623
3659.631524,1608.800546,2368.659014,9400.615463
3659.631838,2528.115143,2886.803174,8882.471304
3659.632152,2681.334243,3256.906145,8586.388927
3659.632467,2604.724693,2886.803174,8882.471304
3659.632781,2298.286494,2368.659014,8512.368333
3659.633095,1302.362347,1332.370696,8586.388927
3659.633410,229.828649,-0.000000,8882.471304
3659.633724,-612.876398,-814.226536,9474.636058
3659.634038,-1378.971896,-1332.370696,9548.656652
3659.634352,-1991.848295,-1776.494261,9844.739029
3659.634667,-1991.848295,-2220.617826,10807.006753
3659.634981,-2145.067394,-1702.473667,10584.944971
3659.635295,-1915.238745,-1332.370696,10510.924376
3659.635610,-842.705048,-518.144159,10288.862594
3659.635924,153.219100,444.123565,10362.883188
3659.636238,1991.848295,1406.391290,9992.780217
3659.636553,2374.896044,2368.659014,9326.594869
3659.636867,2757.943793,2886.803174,8586.388927
3659.637181,3370.820191,3256.906145,8290.306550
3659.637496,3447.429741,3034.844362,8512.368333
3659.637810,2451.505594,2368.659014,8364.327145
3659.638124,1838.629195,1258.350101,9030.512492
3659.638439,536.266849,-0.000000,9178.553681
3659.638753,-536.266849,-888.247130,9622.677246
3659.639067,-1455.581446,-1628.453072,9770.718434
3659.639381,-2451.505594,-1998.556043,10288.862594
3659.639696,-2451.505594,-2590.720797,10658.965565
3659.640010,-2374.896044,-2072.576638,11029.068536
3659.640324,-2068.457845,-1628.453072,10658.965565
3659.640639,-1072.533697,-592.164754,10658.965565
3659.640953,-153.219100,222.061783,10362.883188
3659.641267,536.266849,814.226536,10288.862594
3659.641582,1685.410096,1702.473667,9696.697840
3659.641896,1991.848295,2368.659014,9104.533087
3659.642210,2451.505594,2442.679609,8734.430116
3659.642525,2374.896044,2368.659014,9030.512492
3659.642839,2145.067394,1924.535449,8586.388927
3659.643153,1225.752797,814.226536,8586.388927
3659.643468,0.000000,-148.041188,8882.471304
3659.643782,-919.314598,-1258.350101,9474.636058
3659.644096,-1915.238745,-2442.679609,9696.697840
3659.644410,-2528.115143,-2886.803174,9992.780217
3659.644725,-2604.724693,-2886.803174,10436.903782
3659.645039,-2451.505594,-2664.741391,10362.883188
3659.645353,-1915.238745,-2072.576638,10658.965565
3659.645668,-1149.143247,-1258.350101,10584.944971
3659.645982,-229.828649,-74.020594,9992.780217
3659.646296,612.876398,740.205942,9548.656652
3659.646611,1455.581446,1554.432478,9474.636058
3659.646925,2145.067394,2368.659014,8956.491898
3659.647239,2834.553343,2072.576638,8660.409521
3659.647554,2451.505594,2146.597232,8512.368333
3659.647868,2221.676944,1406.391290,8438.347739
3659.648182,1149.143247,814.226536,9326.594869
3659.648496,0.000000,-296.082377,9178.553681
3659.648811,-995.924147,-1184.329507,9696.697840
3659.649125,-1915.238745,-1998.556043,9918.759623
3659.649439,-2604.724693,-2294.638420,9696.697840
3659.649754,-2604.724693,-2368.659014,9992.780217
3659.650068,-2221.676944,-2516.700203,10732.986159
3659.650382,-2068.457845,-2146.597232,10510.924376
3659.650697,-1302.362347,-888.247130,10066.800811
3659.651011,0.000000,-74.020594,9770.718434
3659.651325,919.314598,592.164754,9696.697840
3659.651640,1302.362347,1924.535449,9622.677246
3659.651954,1915.238745,2294.638420,8956.491898
3659.652268,2221.676944,2294.638420,8956.491898
3659.652583,2451.505594,1998.556043,8660.409521
3659.652897,2068.457845,1554.432478,8438.347739
3659.653211,1685.410096,1036.288319,8734.430116
3659.653525,612.876398,-0.000000,9178.553681
3659.653840,-383.047749,-740.205942,9104.533087
3659.654154,-1072.533697,-1258.350101,9622.677246
3659.654468,-1532.190996,-1776.494261,9696.697840
3659.654783,-1915.238745,-1998.556043,10288.862594
3659.655097,-1838.629195,-1998.556043,10510.924376
3659.655411,-919.314598,-1258.350101,10732.986159
3659.655726,-612.876398,-296.082377,10436.903782
3659.656040,383.047749,222.061783,9548.656652
3659.656354,1225.752797,962.267725,10066.800811
3659.656669,1991.848295,1998.556043,9770.718434
3659.656983,2068.457845,2738.761985,8734.430116
3659.657297,2987.772442,2738.761985,9030.512492
3659.657612,3140.991542,2886.803174,9030.512492
3659.657926,2834.553343,2294.638420,8956.491898
3659.658240,1838.629195,1332.370696,8808.450710
3659.658554,689.485948,666.185348,8956.491898
3659.658869,-612.876398,-222.061783,10362.883188
3659.659183,-919.314598,-740.205942,10362.883188
3659.659497,-1532.190996,-1036.288319,10140.821405
3659.659812,-2221.676944,-1036.288319,10510.924376
3659.660126,-1685.410096,-1110.308913,10214.842000
3659.660440,-612.876398,-592.164754,10955.047942
3659.660755,-1072.533697,296.082377,10140.821405
3659.661069,0.000000,592.164754,10510.924376
3659.661383,842.705048,1406.391290,9918.759623
3659.661698,1302.362347,1998.556043,9622.677246
3659.662012,1685.410096,2590.720797,9622.677246
3659.662326,1991.848295,2664.741391,9400.615463
3659.662641,2145.067394,2368.659014,9030.512492
3659.662955,2068.457845,1998.556043,8882.471304
3659.663269,1762.019645,740.205942,8586.388927
3659.663583,1072.533697,-148.041188,8882.471304
3659.663898,0.000000,-296.082377,9474.636058
3659.664212,-689.485948,-962.267725,9548.656652
3659.664526,-1762.019645,-1184.329507,9252.574275
3659.664841,-1838.629195,-1480.411884,9918.759623
3659.665155,-2145.067394,-1628.453072,10658.965565
3659.665469,-1762.019645,-1258.350101,10584.944971
3659.665784,-1302.362347,-814.226536,10362.883188
3659.666098,-536.266849,-74.020594,10214.842000
3659.666412,0.000000,518.144159,10510.924376
3659.666727,995.924147,1480.411884,9622.677246
3659.667041,1149.143247,1850.514855,8956.491898
3659.667355,1685.410096,1850.514855,9178.553681
3659.667669,1991.848295,1776.494261,8808.450710
3659.667984,2068.457845,1480.411884,8808.450710
3659.668298,1302.362347,962.267725,8882.471304
3659.668612,459.657299,222.061783,9104.533087
3659.668927,0.000000,-740.205942,9030.512492
3659.669241,-842.705048,-1184.329507,9030.512492
3659.669555,-1225.752797,-2072.576638,9770.718434
3659.669870,-1838.629195,-2146.597232,10066.800811
3659.670184,-1838.629195,-2072.576638,10140.821405
3659.670498,-1838.629195,-1850.514855,10584.944971
3659.670813,-1302.362347,-1258.350101,10214.842000
3659.671127,-536.266849,-666.185348,10288.862594
3659.671441,153.219100,-0.000000,10214.842000
3659.671756,766.095498,740.205942,9992.780217
3659.672070,1225.752797,1480.411884,9178.553681
3659.672384,2145.067394,1850.514855,8512.368333
3659.672698,2068.457845,1628.453072,8882.471304
3659.673013,1838.629195,1480.411884,9178.553681
3659.673327,1455.581446,1110.308913,8808.450710
3659.673641,842.705048,-0.000000,8586.388927
3659.673956,459.657299,-888.247130,8956.491898
3659.674270,-689.485948,-1480.411884,9474.636058
3659.674584,-1149.143247,-1702.473667,9622.677246
3659.674899,-1838.629195,-2146.597232,10140.821405
3659.675213,-1915.238745,-2368.659014,10362.883188
3659.675527,-1455.581446,-2220.617826,10658.965565
3659.675842,-919.314598,-1110.308913,10362.883188
3659.676156,-153.219100,-444.123565,10140.821405
3659.676470,459.657299,222.061783,10066.800811
3659.676785,1072.533697,1110.308913,9918.759623
3659.677099,2451.505594,1332.370696,9548.656652
3659.677413,2145.067394,2072.576638,9030.512492
3659.677727,2451.505594,1776.494261,8734.430116
3659.678042,2145.067394,1332.370696,8956.491898
3659.678356,1685.410096,1110.308913,8512.368333
3659.678670,689.485948,666.185348,8956.491898
3659.678985,229.828649,-444.123565,9400.615463
3659.679299,-536.266849,-888.247130,9622.677246
3659.679613,-1302.362347,-1110.308913,9992.780217
3659.679928,-1838.629195,-1480.411884,9548.656652
3659.680242,-1838.629195,-1628.453072,10436.903782
3659.680556,-1608.800546,-1406.391290,10584.944971
3659.680871,-1302.362347,-666.185348,10288.862594
3659.681185,-689.485948,-74.020594,10140.821405
3659.681499,0.000000,444.123565,10140.821405
3659.681813,919.314598,1258.350101,9918.759623
3659.682128,1685.410096,2146.597232,9474.636058
3659.682442,1762.019645,2664.741391,9252.574275
3659.682756,1991.848295,2812.782580,9104.533087
3659.683071,2068.457845,2664.741391,8956.491898
3659.683385,1532.190996,1850.514855,8808.450710
3659.683699,612.876398,1036.288319,9030.512492
3659.684014,0.000000,222.061783,9326.594869
3659.684328,-766.095498,-444.123565,9178.553681
3659.684642,-1838.629195,-962.267725,9844.739029
3659.684957,-1915.238745,-1258.350101,9696.697840
3659.685271,-2298.286494,-1406.391290,10140.821405
3659.685585,-2068.457845,-1258.350101,10362.883188
3659.685900,-1608.800546,-740.205942,10510.924376
3659.686214,-766.095498,148.041188,10140.821405
3659.686528,0.000000,888.247130,9770.718434
3659.686842,842.705048,1480.411884,9992.780217
3659.687157,1762.019645,2590.720797,9474.636058
3659.687471,2068.457845,2664.741391,8956.491898
3659.687785,2298.286494,2516.700203,8956.491898
3659.688100,2145.067394,2368.659014,9326.594869
3659.688414,1762.019645,2072.576638,9030.512492
3659.688728,919.314598,888.247130,8956.491898
3659.689043,153.219100,-0.000000,9622.677246
3659.689357,-842.705048,-592.164754,9770.718434
3659.689671,-1149.143247,-1110.308913,9770.718434
3659.689986,-1608.800546,-1406.391290,9844.739029
3659.690300,-1532.190996,-1480.411884,10510.924376
3659.690614,-1455.581446,-1258.350101,10584.944971
3659.690929,-766.095498,-740.205942,10140.821405
3659.691243,-153.219100,-222.061783,10362.883188
3659.691557,536.266849,370.102971,10436.903782
3659.691871,1225.752797,1036.288319,10214.842000
3659.692186,1762.019645,1776.494261,9326.594869
3659.692500,2374.896044,2368.659014,9104.533087
3659.692814,2451.505594,2368.659014,8808.450710
3659.693129,2604.724693,1924.535449,9326.594869
3659.693443,1991.848295,1184.329507,9178.553681
3659.693757,919.314598,666.185348,8882.471304
3659.694072,306.438199,-592.164754,9252.574275
3659.694386,-383.047749,-1258.350101,9844.739029
3659.694700,-1455.581446,-1776.494261,9918.759623
3659.695015,-1915.238745,-2516.700203,9622.677246
3659.695329,-1838.629195,-2220.617826,10510.924376
3659.695643,-1532.190996,-2294.638420,10584.944971
3659.695957,-1455.581446,-1406.391290,10288.862594
3659.696272,-995.924147,-962.267725,10140.821405
3659.696586,76.609550,-444.123565,10140.821405
3659.696900,995.924147,296.082377,9770.718434
3659.697215,1455.581446,1332.370696,8882.471304
3659.697529,2145.067394,1702.473667,8734.430116
3659.697843,2221.676944,1406.391290,8734.430116
3659.698158,2374.896044,962.267725,8438.347739
3659.698472,1608.800546,518.144159,8290.306550
3659.698786,919.314598,-0.000000,8438.347739
3659.699101,0.000000,-1036.288319,9326.594869
3659.699415,-919.314598,-1776.494261,9178.553681
3659.699729,-1915.238745,-2220.617826,9400.615463
3659.700044,-2374.896044,-2442.679609,9474.636058
3659.700358,-2451.505594,-2738.761985,9918.759623
3659.700672,-2145.067394,-2368.659014,10436.903782
3659.700986,-1838.629195,-1924.535449,10288.862594
3659.701301,-766.095498,-814.226536,9844.739029
3659.701615,-153.219100,-148.041188,9622.677246
3659.701929,383.047749,666.185348,9696.697840
3659.702244,995.924147,1702.473667,9622.677246
3659.702558,1455.581446,2146.597232,9252.574275
3659.702872,1991.848295,1924.535449,8660.409521
3659.703187,1685.410096,1776.494261,9030.512492
3659.703501,1532.190996,1332.370696,8808.450710
3659.703815,995.924147,962.267725,8734.430116
3659.704130,229.828649,-0.000000,8882.471304
3659.704444,-459.657299,-740.205942,9474.636058
3659.704758,-1149.143247,-1110.308913,9104.533087
3659.705073,-1838.629195,-1332.370696,9844.739029
3659.705387,-2068.457845,-1554.432478,10362.883188
3659.705701,-2068.457845,-1480.411884,10584.944971
3659.706015,-1532.190996,-740.205942,10140.821405
3659.706330,-1225.752797,-0.000000,10436.903782
3659.706644,0.000000,666.185348,10658.965565
3659.706958,842.705048,1184.329507,9992.780217
3659.707273,1991.848295,2368.659014,9252.574275
3659.707587,1991.848295,2812.782580,9252.574275
3659.707901,2068.457845,2812.782580,9104.533087
3659.708216,2528.115143,2368.659014,9400.615463
3659.708530,2068.457845,1998.556043,9030.512492
3659.708844,1532.190996,1406.391290,9178.553681
3659.709159,612.876398,444.123565,9400.615463
3659.709473,0.000000,-0.000000,9696.697840
3659.709787,-995.924147,-888.247130,10288.862594
3659.710101,-1762.019645,-1036.288319,9918.759623
3659.710416,-1838.629195,-1554.432478,10214.842000
3659.710730,-1532.190996,-1258.350101,10807.006753
3659.711044,-1072.533697,-888.247130,10584.944971
3659.711359,-229.828649,-74.020594,10288.862594
3659.711673,536.266849,666.185348,10658.965565
3659.711987,1302.362347,1184.329507,10362.883188
3659.712302,1991.848295,2072.576638,9696.697840
3659.712616,2145.067394,2886.803174,9104.533087
3659.712930,1762.019645,2960.823768,9326.594869
3659.713245,2374.896044,2516.700203,9474.636058
3659.713559,1991.848295,1850.514855,9178.553681
3659.713873,1302.362347,1184.329507,9030.512492
3659.714188,383.047749,444.123565,9252.574275
3659.714502,-229.828649,-0.000000,9178.553681
3659.714816,-995.924147,-888.247130,9992.780217
3659.715131,-1915.238745,-1480.411884,10658.965565
3659.715445,-2068.457845,-1924.535449,10140.821405
3659.715759,-1915.238745,-1702.473667,10288.862594
3659.716073,-1991.848295,-1110.308913,10436.903782
3659.716388,-1302.362347,-518.144159,10066.800811
3659.716702,-536.266849,74.020594,9844.739029
3659.717016,536.266849,666.185348,9696.697840
3659.717331,1149.143247,1332.370696,9918.759623
3659.717645,1378.971896,1998.556043,8956.491898
3659.717959,1838.629195,2072.576638,8290.306550
3659.718274,1991.848295,1850.514855,8660.409521
3659.718588,1762.019645,1628.453072,8808.450710
3659.718902,1072.533697,888.247130,8438.347739
3659.719217,612.876398,-74.020594,8956.491898
3659.719531,-306.438199,-1332.370696,9178.553681
3659.719845,-1302.362347,-1332.370696,9474.636058
3659.720160,-2298.286494,-1850.514855,9178.553681
3659.720474,-2298.286494,-2590.720797,10214.842000
3659.720788,-2221.676944,-2442.679609,10510.924376
3659.721103,-1991.848295,-2220.617826,10288.862594
3659.721417,-1302.362347,-1332.370696,9918.759623
3659.721731,-153.219100,-222.061783,10362.883188
3659.722045,919.314598,148.041188,10066.800811
3659.722360,1378.971896,1628.453072,9696.697840
3659.722674,1762.019645,1776.494261,8808.450710
3659.722988,2298.286494,1924.535449,8364.327145
3659.723303,2604.724693,1702.473667,8586.388927
3659.723617,2374.896044,1480.411884,8882.471304
3659.723931,1685.410096,1036.288319,8808.450710
3659.724246,536.266849,296.082377,8882.471304
3659.724560,0.000000,-518.144159,9178.553681
3659.724874,-1302.362347,-1628.453072,9696.697840
3659.725189,-1762.019645,-1776.494261,10288.862594
3659.725503,-1991.848295,-2072.576638,10288.862594
3659.725817,-1991.848295,-2146.597232,10955.047942
3659.726132,-1915.238745,-1554.432478,10881.027347
3659.726446,-689.485948,-814.226536,10732.986159
3659.726760,-383.047749,-148.041188,10288.862594
3659.727075,229.828649,222.061783,10436.903782
3659.727389,1149.143247,1628.453072,9844.739029
3659.727703,1762.019645,2368.659014,8956.491898
3659.728017,2528.115143,2294.638420,9104.533087
3659.728332,2834.553343,1998.556043,8808.450710
3659.728646,2604.724693,1554.432478,8882.471304
3659.728960,1608.800546,1184.329507,8586.388927
3659.729275,995.924147,444.123565,9104.533087
3659.729589,76.609550,-518.144159,9030.512492
3659.729903,-612.876398,-1332.370696,9178.553681
3659.730218,-995.924147,-1480.411884,9696.697840
3659.730532,-1838.629195,-1628.453072,9992.780217
3659.730846,-1838.629195,-2294.638420,9844.739029
3659.731161,-1455.581446,-1850.514855,10584.944971
3659.731475,-689.485948,-1036.288319,10732.986159
3659.731789,-383.047749,-0.000000,10362.883188
3659.732104,536.266849,666.185348,9992.780217
3659.732418,1378.971896,1554.432478,9770.718434
3659.732732,1991.848295,2516.700203,9474.636058
3659.733047,2528.115143,2590.720797,9474.636058
3659.733361,2681.334243,2516.700203,9030.512492
3659.733675,2451.505594,2368.659014,8512.368333
3659.733989,1762.019645,2072.576638,8660.409521
3659.734304,1149.143247,592.164754,8808.450710
3659.734618,0.000000,-148.041188,9548.656652
3659.734932,-919.314598,-814.226536,9548.656652
3659.735247,-1762.019645,-1258.350101,9178.553681
3659.735561,-2145.067394,-1554.432478,9918.759623
3659.735875,-2528.115143,-2220.617826,10807.006753
3659.736190,-2451.505594,-1628.453072,11029.068536
3659.736504,-2221.676944,-814.226536,10288.862594
3659.736818,-1072.533697,-74.020594,10214.842000
3659.737133,0.000000,888.247130,10362.883188
3659.737447,612.876398,1554.432478,10214.842000
3659.737761,1455.581446,2590.720797,9326.594869
3659.738076,1915.238745,2960.823768,8734.430116
3659.738390,2298.286494,2516.700203,8734.430116
3659.738704,2068.457845,2368.659014,8512.368333
3659.739019,1762.019645,1924.535449,8882.471304
3659.739333,383.047749,666.185348,9104.533087
3659.739647,-536.266849,-370.102971,9104.533087
3659.739962,-1608.800546,-1258.350101,9474.636058
3659.740276,-2145.067394,-1776.494261,9844.739029
3659.740590,-3140.991542,-2368.659014,10362.883188
3659.740904,-2681.334243,-2220.617826,10436.903782
3659.741219,-2145.067394,-1776.494261,10658.965565
3659.741533,-1532.190996,-814.226536,10510.924376
3659.741847,-1072.533697,-0.000000,10436.903782
3659.742162,612.876398,370.102971,10288.862594
3659.742476,1149.143247,1258.350101,9992.780217
3659.742790,1762.019645,2294.638420,9474.636058
3659.743105,2681.334243,2516.700203,8956.491898
3659.743419,3064.381992,2294.638420,9030.512492
3659.743733,3064.381992,2220.617826,9104.533087
3659.744048,2374.896044,1332.370696,8364.327145
3659.744362,1455.581446,444.123565,8882.471304
3659.744676,229.828649,-370.102971,9326.594869
3659.744991,-612.876398,-1850.514855,9474.636058
3659.745305,-1455.581446,-1998.556043,9770.718434
3659.745619,-1915.238745,-2516.700203,10214.842000
3659.745934,-2221.676944,-2516.700203,10362.883188
3659.746248,-1762.019645,-2146.597232,10955.047942
3659.746562,-1455.581446,-1184.329507,10584.944971
3659.746876,-383.047749,-370.102971,10881.027347
3659.747191,689.485948,444.123565,9918.759623
3659.747505,1532.190996,962.267725,9474.636058
3659.747819,2298.286494,1924.535449,9400.615463
3659.748134,2757.943793,2368.659014,8956.491898
3659.748448,2987.772442,2368.659014,8734.430116
3659.748762,2757.943793,1998.556043,8438.347739
3659.749077,2145.067394,1480.411884,8586.388927
3659.749391,1072.533697,-0.000000,8438.347739
3659.749705,-306.438199,-1184.329507,9030.512492
3659.750020,-995.924147,-1776.494261,9696.697840
3659.750334,-1838.629195,-2294.638420,9474.636058
3659.750648,-2374.896044,-2664.741391,9548.656652
3659.750963,-2145.067394,-2590.720797,10140.821405
3659.751277,-1762.019645,-2368.659014,10584.944971
3659.751591,-1225.752797,-1258.350101,9696.697840
3659.751906,-612.876398,-370.102971,9696.697840
3659.752220,612.876398,518.144159,9474.636058
3659.752534,1149.143247,1332.370696,9474.636058
3659.752848,1838.629195,1924.535449,9178.553681
3659.753163,1915.238745,2368.659014,8734.430116
3659.753477,2068.457845,2220.617826,8882.471304
3659.753791,2145.067394,1776.494261,8956.491898
3659.754106,1378.971896,888.247130,9474.636058
3659.754420,536.266849,666.185348,9030.512492
3659.754734,-229.828649,-148.041188,9030.512492
3659.755049,-1378.971896,-888.247130,9770.718434
3659.755363,-1991.848295,-1332.370696,10362.883188
3659.755677,-2604.724693,-1998.556043,10436.903782
3659.755992,-2298.286494,-1776.494261,10214.842000
3659.756306,-1915.238745,-1406.391290,10732.986159
3659.756620,-1532.190996,-592.164754,10140.821405
3659.756935,-459.657299,296.082377,9844.739029
3659.757249,306.438199,888.247130,9992.780217
3659.757563,1378.971896,1628.453072,10140.821405
3659.757878,1991.848295,2442.679609,9326.594869
3659.758192,1991.848295,2738.761985,8734.430116
3659.758506,2068.457845,2368.659014,9326.594869
3659.758820,2068.457845,1850.514855,9104.533087
3659.759135,1378.971896,1702.473667,9178.553681
3659.759449,459.657299,666.185348,9252.574275
3659.759763,-229.828649,-296.082377,9622.677246
3659.760078,-842.705048,-370.102971,9770.718434
3659.760392,-1608.800546,-1332.370696,9918.759623
3659.760706,-2221.676944,-1184.329507,10288.862594
3659.761021,-1915.238745,-1406.391290,10288.862594
3659.761335,-1532.190996,-1258.350101,10436.903782
3659.761649,-1072.533697,-222.061783,10066.800811
3659.761964,-229.828649,-0.000000,10066.800811
3659.762278,842.705048,962.267725,9918.759623
3659.762592,1608.800546,1406.391290,9770.718434
3659.762907,2068.457845,2368.659014,9030.512492
3659.763221,2451.505594,1850.514855,8956.491898
3659.763535,2528.115143,2294.638420,8512.368333
3659.763850,2374.896044,2072.576638,9030.512492
3659.764164,2221.676944,1332.370696,8364.327145
3659.764478,1225.752797,370.102971,8586.388927
3659.764792,459.657299,-518.144159,9252.574275
3659.765107,-229.828649,-1480.411884,9918.759623
3659.765421,-842.705048,-1406.391290,9474.636058
3659.765735,-1302.362347,-1554.432478,9696.697840
3659.766050,-1225.752797,-1776.494261,10140.821405
3659.766364,-1072.533697,-1332.370696,10510.924376
3659.766678,-612.876398,-370.102971,10214.842000
3659.766993,-383.047749,-0.000000,9844.739029
3659.767307,459.657299,296.082377,9548.656652
3659.767621,842.705048,1628.453072,10140.821405
3659.767936,1685.410096,2220.617826,9474.636058
3659.768250,1915.238745,2072.576638,9326.594869
3659.768564,1608.800546,1924.535449,9104.533087
3659.768879,1762.019645,1554.432478,8808.450710
3659.769193,1072.533697,888.247130,9326.594869
3659.769507,153.219100,-0.000000,8956.491898
3659.769822,-459.657299,-666.185348,9400.615463
3659.770136,-1072.533697,-1258.350101,9474.636058
3659.770450,-1532.190996,-1628.453072,9548.656652
3659.770764,-2145.067394,-1776.494261,9474.636058
3659.771079,-2145.067394,-1628.453072,9770.718434
3659.771393,-1838.629195,-1554.432478,10288.862594
3659.771707,-1532.190996,-888.247130,9770.718434
3659.772022,-995.924147,-666.185348,9992.780217
3659.772336,0.000000,370.102971,9844.739029
3659.772650,612.876398,740.205942,10066.800811
3659.772965,1072.533697,1628.453072,9474.636058
3659.773279,1225.752797,2146.597232,9030.512492
3659.773593,1608.800546,1702.473667,9104.533087
3659.773908,1685.410096,1406.391290,8882.471304
3659.774222,1149.143247,740.205942,8956.491898
3659.774536,153.219100,-148.041188,8882.471304
3659.774851,-229.828649,-740.205942,9474.636058
3659.775165,-995.924147,-1258.350101,9474.636058
3659.775479,-1455.581446,-1702.473667,9400.615463
3659.775794,-1455.581446,-1628.453072,10066.800811
3659.776108,-1685.410096,-1702.473667,10288.862594
3659.776422,-1532.190996,-1110.308913,10214.842000
3659.776736,-995.924147,-814.226536,9918.759623
3659.777051,-842.705048,-370.102971,10436.903782
3659.777365,229.828649,370.102971,10436.903782
3659.777679,919.314598,888.247130,9770.718434
3659.777994,1532.190996,1184.329507,9770.718434
3659.778308,1532.190996,1554.432478,9474.636058
3659.778622,1608.800546,1924.535449,9326.594869
3659.778937,2145.067394,1332.370696,9400.615463
3659.779251,1685.410096,1184.329507,9104.533087
3659.779565,1072.533697,962.267725,8586.388927
3659.779880,306.438199,-0.000000,9030.512492
3659.780194,-612.876398,-666.185348,9548.656652
3659.780508,-842.705048,-962.267725,9918.759623
3659.780823,-1532.190996,-1406.391290,9474.636058
3659.781137,-1149.143247,-1702.473667,9844.739029
3659.781451,-1149.143247,-1480.411884,10362.883188
3659.781766,-766.095498,-740.205942,10288.862594
3659.782080,-229.828649,-0.000000,9918.759623
3659.782394,306.438199,444.123565,9992.780217
3659.782709,1072.533697,962.267725,9844.739029
3659.783023,1378.971896,1998.556043,9400.615463
3659.783337,1991.848295,2368.659014,9252.574275
3659.783651,2298.286494,2146.597232,9104.533087
3659.783966,2451.505594,1702.473667,8882.471304
3659.784280,2221.676944,888.247130,8956.491898
3659.784594,1378.971896,962.267725,9030.512492
3659.784909,153.219100,-0.000000,9252.574275
3659.785223,-383.047749,-592.164754,9474.636058
3659.785537,-919.314598,-1110.308913,9622.677246
3659.785852,-1455.581446,-1554.432478,9696.697840
3659.786166,-1838.629195,-1554.432478,9918.759623
3659.786480,-1532.190996,-1258.350101,10658.965565
3659.786795,-1149.143247,-888.247130,10362.883188
3659.787109,-689.485948,-148.041188,10362.883188
3659.787423,76.609550,666.185348,9992.780217
3659.787738,995.924147,962.267725,10140.821405
3659.788052,1072.533697,1924.535449,10140.821405
3659.788366,1455.581446,2368.659014,9326.594869
3659.788681,2298.286494,2368.659014,9104.533087
3659.788995,2068.457845,1850.514855,9326.594869
3659.789309,1532.190996,1776.494261,8808.450710
3659.789623,612.876398,1110.308913,8734.430116
3659.789938,0.000000,-0.000000,9474.636058
3659.790252,-842.705048,-666.185348,9844.739029
3659.790566,-1532.190996,-1184.329507,9622.677246
3659.790881,-1838.629195,-1258.350101,9770.718434
3659.791195,-2374.896044,-1554.432478,10214.842000
3659.791509,-2221.676944,-1628.453072,10288.862594
3659.791824,-1685.410096,-1036.288319,10510.924376
3659.792138,-1149.143247,-0.000000,10288.862594
3659.792452,-229.828649,370.102971,10140.821405
3659.792767,689.485948,962.267725,9844.739029
3659.793081,1072.533697,1702.473667,9474.636058
3659.793395,1685.410096,2368.659014,9474.636058
3659.793710,2145.067394,2368.659014,8956.491898
3659.794024,2068.457845,1998.556043,8882.471304
3659.794338,1685.410096,1406.391290,8882.471304
3659.794653,919.314598,814.226536,9104.533087
3659.794967,612.876398,-222.061783,8882.471304
3659.795281,-459.657299,-962.267725,9548.656652
3659.795595,-1302.362347,-1406.391290,9992.780217
3659.795910,-1762.019645,-1924.535449,9474.636058
3659.796224,-1838.629195,-1998.556043,10214.842000
3659.796538,-1685.410096,-1998.556043,10436.903782
3659.796853,-1532.190996,-1702.473667,10362.883188
3659.797167,-612.876398,-518.144159,10140.821405
3659.797481,306.438199,-0.000000,10214.842000
3659.797796,1225.752797,222.061783,10140.821405
3659.798110,1685.410096,1480.411884,9326.594869
3659.798424,2221.676944,2146.597232,8882.471304
3659.798739,2451.505594,2072.576638,8882.471304
3659.799053,2451.505594,1628.453072,9030.512492
3659.799367,1915.238745,1110.308913,8586.388927
3659.799682,1378.971896,592.164754,8660.409521
3659.799996,459.657299,-296.082377,9326.594869
3659.800310,-536.266849,-1258.350101,9400.615463
3659.800625,-1302.362347,-1702.473667,9622.677246
3659.800939,-2145.067394,-1998.556043,10140.821405
3659.801253,-2298.286494,-2294.638420,10140.821405
3659.801567,-1915.238745,-2220.617826,10510.924376
3659.801882,-1762.019645,-1258.350101,10658.965565
3659.802196,-1378.971896,-296.082377,10510.924376
3659.802510,0.000000,222.061783,10066.800811
3659.802825,689.485948,1036.288319,9918.759623
3659.803139,1455.581446,1628.453072,9696.697840
3659.803453,1915.238745,2146.597232,8956.491898
3659.803768,1915.238745,1850.514855,8216.285956
3659.804082,2068.457845,2072.576638,8882.471304
3659.804396,1685.410096,1850.514855,8734.430116
3659.804711,1149.143247,740.205942,8586.388927
3659.805025,0.000000,-74.020594,8956.491898
3659.805339,-612.876398,-592.164754,9696.697840
3659.805654,-1455.581446,-1406.391290,9400.615463
3659.805968,-2145.067394,-1406.391290,9474.636058
3659.806282,-2145.067394,-1628.453072,10288.862594
3659.806597,-2145.067394,-1628.453072,10214.842000
3659.806911,-1455.581446,-1184.329507,10510.924376
3659.807225,-1149.143247,-370.102971,9992.780217
3659.807539,-153.219100,518.144159,10140.821405
3659.807854,842.705048,1480.411884,9992.780217
3659.808168,1762.019645,2368.659014,9918.759623
3659.808482,1915.238745,2368.659014,9844.739029
3659.808797,2604.724693,2738.761985,8808.450710
3659.809111,2451.505594,2368.659014,8734.430116
3659.809425,1991.848295,1998.556043,9326.594869
3659.809740,1149.143247,1554.432478,9252.574275
3659.810054,229.828649,666.185348,9326.594869
3659.810368,-689.485948,-296.082377,9770.718434
3659.810683,-1378.971896,-1184.329507,9992.780217
3659.810997,-2068.457845,-1776.494261,10066.800811
3659.811311,-2528.115143,-1702.473667,10362.883188
3659.811626,-1762.019645,-1924.535449,11103.089130
3659.811940,-1762.019645,-1554.432478,10584.944971
3659.812254,-919.314598,-148.041188,10584.944971
3659.812569,0.000000,222.061783,10362.883188
3659.812883,842.705048,962.267725,10214.842000
3659.813197,1532.190996,1850.514855,9622.677246
3659.813512,2145.067394,2294.638420,9178.553681
3659.813826,2374.896044,2220.617826,9030.512492
3659.814141,2604.724693,2072.576638,8882.471304
3659.814455,1608.800546,1554.432478,8586.388927
3659.814770,1378.971896,1036.288319,8956.491898
3659.815084,919.314598,-0.000000,9030.512492
3659.815399,0.000000,-814.226536,9400.615463
3659.815713,-1072.533697,-1258.350101,9770.718434
3659.816028,-1455.581446,-1480.411884,9474.636058
3659.816342,-1685.410096,-2146.597232,9474.636058
3659.816657,-1762.019645,-1998.556043,10214.842000
3659.816971,-1072.533697,-1702.473667,10362.883188
3659.817285,-1072.533697,-962.267725,9992.780217
3659.817600,0.000000,-148.041188,9696.697840
3659.817914,995.924147,370.102971,9696.697840
3659.818229,1532.190996,1258.350101,9326.594869
3659.818543,2145.067394,2294.638420,8882.471304
3659.818858,2374.896044,2220.617826,8660.409521
3659.819172,2451.505594,1850.514855,8956.491898
3659.819487,2068.457845,1184.329507,8734.430116
3659.819801,1302.362347,740.205942,8290.306550
3659.820116,383.047749,-0.000000,9178.553681
3659.820430,0.000000,-888.247130,9770.718434
3659.820744,-1225.752797,-1332.370696,9992.780217
3659.821059,-1532.190996,-1998.556043,10140.821405
3659.821373,-2374.896044,-2146.597232,9992.780217
3659.821688,-2221.676944,-2146.597232,10436.903782
3659.822002,-2068.457845,-1332.370696,10881.027347
3659.822317,-1532.190996,-666.185348,10362.883188
3659.822631,-383.047749,-0.000000,10436.903782
3659.822946,383.047749,666.185348,10214.842000
3659.823260,919.314598,1258.350101,9770.718434
3659.823575,1149.143247,1924.535449,9252.574275
3659.823889,1225.752797,2220.617826,9030.512492
3659.824204,1685.410096,1850.514855,9252.574275
3659.824518,1532.190996,1184.329507,9104.533087
3659.824832,1072.533697,1036.288319,9030.512492
3659.825147,229.828649,-0.000000,8734.430116
3659.825461,-383.047749,-518.144159,9326.594869
3659.825776,-1302.362347,-1258.350101,9474.636058
3659.826090,-1915.238745,-1924.535449,9844.739029
3659.826405,-2068.457845,-1924.535449,9918.759623
3659.826719,-2068.457845,-1850.514855,10362.883188
3659.827034,-1455.581446,-1406.391290,9992.780217
3659.827348,-306.438199,-0.000000,10140.821405
3659.827663,-536.266849,-0.000000,10214.842000
3659.827977,689.485948,666.185348,10362.883188
3659.828291,1225.752797,1628.453072,9474.636058
3659.828606,1915.238745,2220.617826,9400.615463
3659.828920,2451.505594,2368.659014,8808.450710
3659.829235,2451.505594,2072.576638,9104.533087
3659.829549,2145.067394,1850.514855,9030.512492
3659.829864,1378.971896,962.267725,8956.491898
3659.830178,459.657299,296.082377,9104.533087
3659.830493,0.000000,-370.102971,9770.718434
3659.830807,-919.314598,-1406.391290,9622.677246
3659.831122,-1072.533697,-1554.432478,9992.780217
3659.831436,-1608.800546,-1406.391290,9992.780217
3659.831751,-1378.971896,-1554.432478,9696.697840
3659.832065,-1149.143247,-1036.288319,10510.924376
3659.832379,-612.876398,-222.061783,9918.759623
3659.832694,153.219100,518.144159,9992.780217
3659.833008,919.314598,888.247130,9918.759623
3659.833323,1991.848295,1480.411884,9548.656652
3659.833637,2145.067394,2368.659014,9474.636058
3659.833952,2221.676944,2368.659014,8956.491898
3659.834266,2374.896044,1850.514855,9030.512492
3659.834581,2145.067394,1554.432478,9252.574275
3659.834895,1455.581446,1332.370696,8734.430116
3659.835210,459.657299,518.144159,9104.533087
3659.835524,-383.047749,-370.102971,9474.636058
3659.835839,-1072.533697,-1554.432478,9696.697840
3659.836153,-1762.019645,-1850.514855,9474.636058
3659.836467,-2068.457845,-2072.576638,9844.739029
3659.836782,-2221.676944,-1702.473667,10436.903782
3659.837096,-1685.410096,-1406.391290,10584.944971
3659.837411,-1149.143247,-518.144159,10140.821405
3659.837725,-306.438199,-0.000000,9844.739029
3659.838040,995.924147,518.144159,9844.739029
3659.838354,1072.533697,1184.329507,9770.718434
3659.838669,1532.190996,1998.556043,9622.677246
3659.838983,1608.800546,2368.659014,8808.450710
3659.839298,1991.848295,1998.556043,8586.388927
3659.839612,1838.629195,1554.432478,8512.368333
3659.839926,1225.752797,1036.288319,9030.512492
3659.840241,229.828649,74.020594,9104.533087
3659.840555,-766.095498,-518.144159,9178.553681
3659.840870,-1532.190996,-888.247130,9474.636058
3659.841184,-2068.457845,-1184.329507,9548.656652
3659.841499,-2374.896044,-1406.391290,10140.821405
3659.841813,-2451.505594,-1332.370696,10510.924376
3659.842128,-1915.238745,-1480.411884,10658.965565
3659.842442,-1302.362347,-962.267725,10214.842000
3659.842757,-995.924147,-74.020594,10362.883188
3659.843071,-229.828649,592.164754,10584.944971
3659.843386,459.657299,1332.370696,10362.883188
3659.843700,1225.752797,1924.535449,9474.636058
3659.844014,1915.238745,2294.638420,9326.594869
3659.844329,1991.848295,2146.597232,9326.594869
3659.844643,1762.019645,1702.473667,9178.553681
3659.844958,1302.362347,1110.308913,8512.368333
3659.845272,919.314598,222.061783,8808.450710
3659.845587,383.047749,-1036.288319,9104.533087
3659.845901,-536.266849,-1628.453072,9474.636058
3659.846216,-1302.362347,-1924.535449,9770.718434
3659.846530,-1608.800546,-2146.597232,9844.739029
3659.846845,-1685.410096,-1924.535449,9622.677246
3659.847159,-1302.362347,-1924.535449,10436.903782
3659.847473,-766.095498,-1036.288319,10140.821405
3659.847788,0.000000,-666.185348,10066.800811
3659.848102,842.705048,296.082377,9918.759623
3659.848417,1532.190996,666.185348,9622.677246
3659.848731,2374.896044,1850.514855,9474.636058
3659.849046,2451.505594,2146.597232,9104.533087
3659.849360,2451.505594,1628.453072,9326.594869
3659.849675,2298.286494,1332.370696,9104.533087
3659.849989,1991.848295,1110.308913,8512.368333
3659.850304,1532.190996,666.185348,8364.327145
3659.850618,919.314598,-0.000000,9474.636058
3659.850933,0.000000,-962.267725,9474.636058
3659.851247,-766.095498,-1406.391290,9252.574275
3659.851561,-1762.019645,-1924.535449,9696.697840
3659.851876,-1838.629195,-1776.494261,10288.862594
3659.852190,-1532.190996,-1628.453072,10658.965565
3659.852505,-1149.143247,-888.247130,10214.842000
3659.852819,-919.314598,-444.123565,10214.842000
3659.853134,76.609550,148.041188,10288.862594
3659.853448,612.876398,962.267725,9992.780217
3659.853763,1302.362347,2146.597232,9844.739029
3659.854077,1762.019645,2220.617826,9178.553681
3659.854392,2221.676944,2442.679609,9104.533087
3659.854706,2068.457845,2146.597232,9178.553681
3659.855020,1455.581446,1480.411884,8956.491898
3659.855335,766.095498,1036.288319,9252.574275
3659.855649,0.000000,-0.000000,9400.615463
3659.855964,-1302.362347,-666.185348,9474.636058
3659.856278,-1532.190996,-1776.494261,10066.800811
3659.856593,-2221.676944,-1702.473667,10140.821405
3659.856907,-2528.115143,-1776.494261,10436.903782
3659.857222,-2221.676944,-1480.411884,10658.965565
3659.857536,-2068.457845,-814.226536,10140.821405
3659.857851,-1149.143247,-148.041188,10436.903782
3659.858165,0.000000,740.205942,10214.842000
3659.858480,229.828649,1184.329507,9918.759623
3659.858794,1149.143247,2368.659014,9178.553681
3659.859108,1685.410096,2738.761985,8660.409521
3659.859423,2068.457845,2590.720797,8882.471304
3659.859737,2145.067394,2072.576638,8586.388927
3659.860052,1532.190996,1184.329507,8882.471304
3659.860366,842.705048,740.205942,8882.471304
3659.860681,0.000000,-148.041188,8882.471304
3659.860995,-766.095498,-740.205942,9844.739029
3659.861310,-1378.971896,-1258.350101,9844.739029
3659.861624,-1378.971896,-1480.411884,9918.759623
3659.861939,-2068.457845,-1850.514855,9918.759623
3659.862253,-1685.410096,-1110.308913,10214.842000
3659.862568,-1149.143247,-666.185348,10288.862594
3659.862882,-383.047749,-74.020594,9992.780217
3659.863196,459.657299,592.164754,9918.759623
3659.863511,1149.143247,1184.329507,9770.718434
3659.863825,2068.457845,2072.576638,9474.636058
3659.864140,2068.457845,2072.576638,9326.594869
3659.864454,2604.724693,2590.720797,9104.533087
3659.864769,2451.505594,1924.535449,9400.615463
3659.865083,2451.505594,1258.350101,9252.574275
3659.865398,1302.362347,1036.288319,8956.491898
3659.865712,153.219100,-0.000000,9400.615463
3659.866027,-383.047749,-888.247130,9474.636058
3659.866341,-995.924147,-1332.370696,9770.718434
3659.866655,-1608.800546,-1850.514855,9992.780217
3659.866970,-1991.848295,-2072.576638,10140.821405
3659.867284,-1455.581446,-1850.514855,10214.842000
3659.867599,-1149.143247,-1184.329507,10214.842000
3659.867913,-153.219100,-518.144159,10658.965565
3659.868228,689.485948,-0.000000,10510.924376
3659.868542,1455.581446,888.247130,9622.677246
3659.868857,1838.629195,1998.556043,9178.553681
3659.869171,2068.457845,2368.659014,8808.450710
3659.869486,2451.505594,2220.617826,8660.409521
3659.869800,2298.286494,1554.432478,8512.368333
3659.870115,1608.800546,1258.350101,8734.430116
3659.870429,1072.533697,370.102971,8734.430116
3659.870743,0.000000,-740.205942,9178.553681
3659.871058,-1072.533697,-1332.370696,9696.697840
3659.871372,-1991.848295,-1998.556043,9992.780217
3659.871687,-2374.896044,-1998.556043,9918.759623
3659.872001,-2298.286494,-1998.556043,10362.883188
3659.872316,-1915.238745,-1776.494261,10288.862594
3659.872630,-1455.581446,-1036.288319,10140.821405
3659.872945,-842.705048,-222.061783,9992.780217
3659.873259,-153.219100,222.061783,10140.821405
3659.873574,612.876398,814.226536,9696.697840
3659.873888,1378.971896,1628.453072,9548.656652
3659.874202,1991.848295,2072.576638,8956.491898
3659.874517,1838.629195,2072.576638,9178.553681
3659.874831,1532.190996,1924.535449,9326.594869
3659.875146,1608.800546,1406.391290,9178.553681
3659.875460,536.266849,444.123565,9030.512492
3659.875775,-229.828649,-370.102971,9326.594869
3659.876089,-842.705048,-1258.350101,9252.574275
3659.876404,-1608.800546,-1702.473667,9400.615463
3659.876718,-2374.896044,-1776.494261,9548.656652
3659.877033,-2374.896044,-1702.473667,10140.821405
3659.877347,-2145.067394,-1924.535449,10510.924376
3659.877662,-1608.800546,-962.267725,10436.903782
3659.877976,-766.095498,-370.102971,9696.697840
3659.878290,0.000000,592.164754,9918.759623
3659.878605,842.705048,962.267725,10140.821405
3659.878919,1532.190996,1850.514855,9844.739029
3659.879234,1991.848295,2368.659014,9252.574275
3659.879548,2298.286494,2220.617826,8882.471304
3659.879863,2374.896044,1702.473667,8734.430116
3659.880177,2221.676944,1480.411884,8808.450710
3659.880492,1302.362347,888.247130,8734.430116
3659.880806,536.266849,-148.041188,8808.450710
3659.881121,-306.438199,-888.247130,9474.636058
3659.881435,-1378.971896,-1628.453072,9548.656652
3659.881750,-1685.410096,-1850.514855,9696.697840
3659.882064,-1915.238745,-2442.679609,10584.944971
3659.882378,-1762.019645,-1850.514855,10288.862594
3659.882693,-1072.533697,-1258.350101,10510.924376
3659.883007,0.000000,-296.082377,9992.780217
3659.883322,153.219100,444.123565,9918.759623
3659.883636,1762.019645,1184.329507,9770.718434
3659.883951,2068.457845,1924.535449,9474.636058
3659.884265,2298.286494,2590.720797,8956.491898
3659.884580,2451.505594,2442.679609,9326.594869
3659.884894,2451.505594,2294.638420,9326.594869
3659.885209,2221.676944,1554.432478,9104.533087
3659.885523,1149.143247,1184.329507,9104.533087
3659.885837,383.047749,-0.000000,9474.636058
3659.886152,-459.657299,-666.185348,9844.739029
3659.886466,-1225.752797,-962.267725,9770.718434
3659.886781,-1762.019645,-1406.391290,9400.615463
3659.887095,-1838.629195,-1554.432478,9918.759623
3659.887410,-1455.581446,-1406.391290,10288.862594
3659.887724,-919.314598,-1036.288319,10288.862594
3659.888039,-995.924147,-0.000000,9918.759623
3659.888353,0.000000,444.123565,9992.780217
3659.888668,766.095498,1258.350101,9770.718434
3659.888982,1608.800546,2072.576638,9474.636058
3659.889297,1608.800546,2294.638420,9326.594869
3659.889611,2221.676944,1850.514855,9178.553681
3659.889925,1915.238745,1480.411884,9104.533087
3659.890240,1225.752797,1480.411884,9252.574275
3659.890554,995.924147,962.267725,9252.574275
3659.890869,0.000000,-0.000000,9178.553681
3659.891183,-689.485948,-1332.370696,9548.656652
3659.891498,-1225.752797,-1702.473667,9696.697840
3659.891812,-1915.238745,-1406.391290,9696.697840
3659.892127,-2145.067394,-1924.535449,9844.739029
3659.892441,-2068.457845,-1998.556043,10140.821405
3659.892756,-1225.752797,-1406.391290,10288.862594
3659.893070,-766.095498,-518.144159,9844.739029
3659.893384,0.000000,-0.000000,9622.677246
3659.893699,995.924147,592.164754,9918.759623
3659.894013,1532.190996,1628.453072,9696.697840
3659.894328,1762.019645,2072.576638,9474.636058
3659.894642,1991.848295,2220.617826,8734.430116
3659.894957,2298.286494,1924.535449,8660.409521
3659.895271,2145.067394,1258.350101,9030.512492
3659.895586,919.314598,888.247130,8956.491898
3659.895900,-306.438199,-74.020594,9400.615463
3659.896215,-689.485948,-888.247130,9622.677246
3659.896529,-1455.581446,-1184.329507,9770.718434
3659.896844,-1762.019645,-1998.556043,9622.677246
3659.897158,-2451.505594,-1628.453072,10140.821405
3659.897472,-2221.676944,-2072.576638,10288.862594
3659.897787,-1455.581446,-1554.432478,10066.800811
3659.898101,-1072.533697,-814.226536,10066.800811
3659.898416,-612.876398,-148.041188,10362.883188
3659.898730,459.657299,518.144159,10510.924376
3659.899045,1072.533697,1332.370696,9548.656652
3659.899359,1685.410096,1850.514855,8956.491898
3659.899674,1991.848295,1924.535449,9104.533087
3659.899988,1991.848295,1554.432478,9104.533087
3659.900303,1915.238745,1110.308913,8956.491898
3659.900617,1225.752797,1110.308913,8956.491898
3659.900932,1072.533697,370.102971,9178.553681
3659.901246,0.000000,-592.164754,9178.553681
3659.901560,-766.095498,-1406.391290,9696.697840
3659.901875,-1225.752797,-1776.494261,9400.615463
3659.902189,-1762.019645,-1998.556043,9844.739029
3659.902504,-1762.019645,-2072.576638,9918.759623
3659.902818,-1072.533697,-1480.411884,10288.862594
3659.903133,-766.095498,-592.164754,10066.800811
3659.903447,0.000000,-0.000000,10066.800811
3659.903762,383.047749,592.164754,9918.759623
3659.904076,1149.143247,1258.350101,9918.759623
3659.904391,1915.238745,2072.576638,9622.677246
3659.904705,1915.238745,2368.659014,9104.533087
3659.905019,2221.676944,2294.638420,9104.533087
3659.905334,1991.848295,1702.473667,9178.553681
3659.905648,1532.190996,1258.350101,9178.553681
3659.905963,766.095498,666.185348,9474.636058
3659.906277,-306.438199,-222.061783,9474.636058
3659.906592,-842.705048,-814.226536,9844.739029
3659.906906,-1762.019645,-1110.308913,9548.656652
3659.907221,-2068.457845,-1480.411884,9918.759623
3659.907535,-2298.286494,-2146.597232,10362.883188
3659.907850,-1685.410096,-1406.391290,10732.986159
3659.908164,-1149.143247,-518.144159,10510.924376
3659.908479,-612.876398,-148.041188,9918.759623
3659.908793,766.095498,814.226536,10214.842000
3659.909107,1378.971896,1628.453072,9844.739029
3659.909422,1532.190996,2516.700203,8882.471304
3659.909736,2221.676944,2664.741391,8734.430116
3659.910051,2451.505594,2368.659014,8660.409521
3659.910365,2451.505594,1924.535449,8660.409521
3659.910680,1608.800546,1480.411884,8882.471304
3659.910994,459.657299,814.226536,9104.533087
3659.911309,-306.438199,-0.000000,9326.594869
3659.911623,-612.876398,-740.205942,9844.739029
3659.911938,-1532.190996,-1332.370696,9844.739029
3659.912252,-1991.848295,-1480.411884,10288.862594
3659.912566,-1991.848295,-1628.453072,10140.821405
3659.912881,-1455.581446,-1406.391290,10288.862594
3659.913195,-1302.362347,-370.102971,9696.697840
3659.913510,-383.047749,-0.000000,10066.800811
3659.913824,459.657299,518.144159,9918.759623
3659.914139,1149.143247,1258.350101,9548.656652
3659.914453,1838.629195,2146.597232,8956.491898
3659.914768,2374.896044,2516.700203,8882.471304
3659.915082,2298.286494,2368.659014,9400.615463
3659.915396,1838.629195,2072.576638,9400.615463
3659.915711,1455.581446,1332.370696,9178.553681
3659.916025,536.266849,592.164754,8956.491898
3659.916340,-383.047749,-592.164754,9548.656652
3659.916654,-842.705048,-1036.288319,10436.903782
3659.916969,-1915.238745,-1480.411884,9918.759623
3659.917283,-2145.067394,-1702.473667,10288.862594
3659.917597,-2374.896044,-1998.556043,10362.883188
3659.917912,-1915.238745,-1554.432478,11103.089130
3659.918226,-1378.971896,-1258.350101,10584.944971
3659.918541,-383.047749,-222.061783,10362.883188
3659.918855,459.657299,592.164754,10288.862594
3659.919170,995.924147,1258.350101,9622.677246
3659.919484,1762.019645,2220.617826,9326.594869
3659.919798,2145.067394,2220.617826,8586.388927
3659.920113,2451.505594,1850.514855,8364.327145
3659.920427,1991.848295,1406.391290,8660.409521
3659.920742,1378.971896,814.226536,8734.430116
3659.921056,842.705048,296.082377,9178.553681
3659.921371,0.000000,-666.185348,9474.636058
3659.921685,-842.705048,-1406.391290,9474.636058
3659.921999,-1608.800546,-1628.453072,9474.636058
3659.922314,-2145.067394,-1850.514855,9918.759623
3659.922628,-1991.848295,-1850.514855,10362.883188
3659.922943,-1838.629195,-1628.453072,10288.862594
3659.923257,-1225.752797,-814.226536,9844.739029
3659.923571,-459.657299,-222.061783,9918.759623
3659.923886,689.485948,666.185348,9918.759623
3659.924200,1378.971896,1110.308913,9696.697840
3659.924515,1455.581446,1776.494261,8882.471304
3659.924829,1685.410096,1850.514855,9178.553681
3659.925144,1991.848295,1998.556043,9030.512492
3659.925458,2221.676944,1406.391290,8734.430116
3659.925772,1685.410096,962.267725,8956.491898
3659.926087,612.876398,370.102971,8882.471304
3659.926401,76.609550,-296.082377,9104.533087
3659.926716,-383.047749,-1406.391290,9474.636058
3659.927030,-1455.581446,-1776.494261,9474.636058
3659.927345,-1915.238745,-1776.494261,10584.944971
3659.927659,-2145.067394,-1998.556043,10140.821405
3659.927973,-1608.800546,-1702.473667,10362.883188
3659.928288,-1072.533697,-1036.288319,10436.903782
3659.928602,-306.438199,-370.102971,10510.924376
3659.928917,459.657299,222.061783,10436.903782
3659.929231,919.314598,1184.329507,9770.718434
3659.929546,1685.410096,2072.576638,9548.656652
3659.929860,1991.848295,2072.576638,8956.491898
3659.930174,2451.505594,2294.638420,8882.471304
3659.930489,2221.676944,1702.473667,9178.553681
3659.930803,1455.581446,1258.350101,8734.430116
3659.931118,766.095498,518.144159,8808.450710
3659.931432,0.000000,-370.102971,9474.636058
3659.931747,-1149.143247,-1184.329507,9918.759623
3659.932061,-1608.800546,-1776.494261,9844.739029
3659.932375,-1685.410096,-1554.432478,9844.739029
3659.932690,-1991.848295,-1554.432478,10288.862594
3659.933004,-1762.019645,-1184.329507,10658.965565
3659.933319,-1225.752797,-518.144159,10362.883188
3659.933633,-612.876398,-0.000000,9918.759623
3659.933948,383.047749,518.144159,9918.759623
3659.934262,1225.752797,1184.329507,9696.697840
3659.934576,1532.190996,2146.597232,9474.636058
3659.934891,1838.629195,2516.700203,9252.574275
3659.935205,1915.238745,2146.597232,9104.533087
3659.935520,1762.019645,1406.391290,9104.533087
3659.935834,1455.581446,1110.308913,9178.553681
3659.936149,766.095498,518.144159,9252.574275
3659.936463,76.609550,-296.082377,9474.636058
3659.936777,-766.095498,-1036.288319,9548.656652
3659.937092,-1302.362347,-1332.370696,9548.656652
3659.937406,-2068.457845,-1554.432478,9474.636058
3659.937721,-1685.410096,-1554.432478,9474.636058
3659.938035,-1685.410096,-1702.473667,10288.862594
3659.938350,-1149.143247,-962.267725,9918.759623
3659.938664,-229.828649,-444.123565,10140.821405
3659.938978,0.000000,444.123565,10140.821405
3659.939293,842.705048,962.267725,9844.739029
3659.939607,1149.143247,1924.535449,9622.677246
3659.939922,1608.800546,2146.597232,9178.553681
3659.940236,2298.286494,1998.556043,9178.553681
3659.940551,1838.629195,1554.432478,9104.533087
3659.940865,1225.752797,1628.453072,9104.533087
3659.941179,383.047749,740.205942,8882.471304
3659.941494,0.000000,-222.061783,9252.574275
3659.941808,-536.266849,-1480.411884,9474.636058
3659.942123,-1378.971896,-1110.308913,9474.636058
3659.942437,-1762.019645,-1554.432478,9844.739029
3659.942752,-1991.848295,-1554.432478,10066.800811
3659.943066,-1838.629195,-1332.370696,10214.842000
3659.943380,-1149.143247,-740.205942,10066.800811
3659.943695,-459.657299,296.082377,10436.903782
3659.944009,229.828649,740.205942,9770.718434
3659.944324,1149.143247,888.247130,9918.759623
3659.944638,1532.190996,1628.453072,9770.718434
3659.944953,2068.457845,2294.638420,8586.388927
3659.945267,2145.067394,2368.659014,8882.471304
3659.945581,2145.067394,2146.597232,9474.636058
3659.945896,1532.190996,1702.473667,8882.471304
3659.946210,1072.533697,1036.288319,8808.450710
3659.946525,612.876398,370.102971,9030.512492
3659.946839,-306.438199,-814.226536,9622.677246
3659.947154,-919.314598,-1036.288319,9992.780217
3659.947468,-1685.410096,-1332.370696,9992.780217
3659.947782,-1915.238745,-1924.535449,10510.924376
3659.948097,-1378.971896,-1776.494261,10066.800811
3659.948411,-995.924147,-592.164754,9992.780217
3659.948726,-536.266849,-74.020594,10362.883188
3659.949040,0.000000,592.164754,10510.924376
3659.949355,919.314598,592.164754,10510.924376
3659.949669,1149.143247,1924.535449,9918.759623
3659.949983,1608.800546,2072.576638,9622.677246
3659.950298,1915.238745,1998.556043,9400.615463
3659.950612,1991.848295,1480.411884,9178.553681
3659.950927,1455.581446,1332.370696,9326.594869
3659.951241,919.314598,592.164754,9178.553681
3659.951556,76.609550,-0.000000,9326.594869
3659.951870,-536.266849,-888.247130,9474.636058
3659.952184,-1225.752797,-1480.411884,9548.656652
3659.952499,-1915.238745,-1850.514855,9474.636058
3659.952813,-1991.848295,-2220.617826,9844.739029
3659.953128,-1838.629195,-2368.659014,10584.944971
3659.953442,-1455.581446,-1628.453072,10362.883188
3659.953756,-919.314598,-666.185348,10288.862594
3659.954071,0.000000,-222.061783,9770.718434
3659.954385,995.924147,962.267725,10066.800811
3659.954700,1149.143247,1406.391290,9474.636058
3659.955014,1762.019645,1776.494261,8586.388927
3659.955329,1915.238745,1850.514855,8808.450710
3659.955643,2451.505594,1332.370696,8290.306550
3659.955957,1455.581446,1036.288319,8586.388927
3659.956272,842.705048,592.164754,9400.615463
3659.956586,229.828649,-296.082377,9104.533087
3659.956901,-612.876398,-888.247130,9030.512492
3659.957215,-1225.752797,-1554.432478,9474.636058
3659.957530,-1991.848295,-1628.453072,9770.718434
3659.957844,-1685.410096,-1850.514855,10140.821405
3659.958158,-1532.190996,-1702.473667,10436.903782
3659.958473,-1072.533697,-1554.432478,10288.862594
3659.958787,-536.266849,-740.205942,9992.780217
3659.959102,383.047749,-0.000000,9622.677246
3659.959416,1072.533697,888.247130,9622.677246
3659.959731,1685.410096,1776.494261,9696.697840
3659.960045,1915.238745,2220.617826,8882.471304
3659.960359,1991.848295,2590.720797,8512.368333
3659.960674,2374.896044,2072.576638,8808.450710
3659.960988,1991.848295,1480.411884,8808.450710
3659.961303,919.314598,814.226536,8808.450710
3659.961617,229.828649,-0.000000,9474.636058
3659.961932,-536.266849,-888.247130,9548.656652
3659.962246,-1532.190996,-1332.370696,10214.842000
3659.962560,-1838.629195,-1184.329507,10214.842000
3659.962875,-2221.676944,-1554.432478,10362.883188
3659.963189,-1302.362347,-2146.597232,10510.924376
3659.963504,-1608.800546,-1110.308913,10436.903782
3659.963818,-766.095498,-444.123565,10362.883188
3659.964133,153.219100,518.144159,10066.800811
3659.964447,842.705048,1184.329507,9992.780217
3659.964761,1455.581446,1776.494261,9696.697840
3659.965076,1838.629195,2072.576638,9400.615463
3659.965390,2068.457845,2294.638420,9326.594869
3659.965705,2145.067394,2220.617826,9400.615463
3659.966019,1838.629195,1628.453072,9252.574275
3659.966334,919.314598,1406.391290,9104.533087
3659.966648,229.828649,592.164754,9326.594869
3659.966962,-612.876398,-666.185348,9622.677246
3659.967277,-1225.752797,-1480.411884,10140.821405
3659.967591,-2068.457845,-1332.370696,10362.883188
3659.967906,-2145.067394,-1554.432478,10436.903782
3659.968220,-1991.848295,-1332.370696,10510.924376
3659.968535,-1455.581446,-888.247130,11029.068536
3659.968849,-842.705048,296.082377,10436.903782
3659.969163,0.000000,444.123565,10066.800811
3659.969478,766.095498,1332.370696,9918.759623
3659.969792,1149.143247,2072.576638,9474.636058
3659.970107,1915.238745,2664.741391,8882.471304
3659.970421,2298.286494,2516.700203,9104.533087
3659.970736,2528.115143,1924.535449,9030.512492
3659.971050,1762.019645,1554.432478,8734.430116
3659.971364,919.314598,814.226536,8586.388927
3659.971679,0.000000,148.041188,8882.471304
3659.971993,-306.438199,-666.185348,9844.739029
3659.972308,-1149.143247,-1110.308913,9696.697840
3659.972622,-1991.848295,-1480.411884,9548.656652
3659.972937,-1685.410096,-1406.391290,9918.759623
3659.973251,-1378.971896,-1776.494261,10288.862594
3659.973565,-1455.581446,-1258.350101,10362.883188
3659.973880,-1149.143247,-666.185348,9992.780217
3659.974194,-306.438199,-0.000000,9992.780217
3659.974509,536.266849,148.041188,9696.697840
3659.974823,1685.410096,1406.391290,10066.800811
3659.975138,1991.848295,1850.514855,9178.553681
3659.975452,1608.800546,1480.411884,8438.347739
3659.975766,2298.286494,1702.473667,9104.533087
3659.976081,2221.676944,1332.370696,8808.450710
3659.976395,1072.533697,814.226536,8882.471304
3659.976710,842.705048,-148.041188,8808.450710
3659.977024,0.000000,-888.247130,9548.656652
3659.977339,-536.266849,-1184.329507,9400.615463
3659.977653,-1149.143247,-1628.453072,9474.636058
3659.977967,-1608.800546,-2294.638420,9992.780217
3659.978282,-1608.800546,-2294.638420,10214.842000
3659.978596,-1225.752797,-1702.473667,10436.903782
3659.978911,-766.095498,-962.267725,9992.780217
3659.979225,76.609550,-222.061783,10510.924376
3659.979540,995.924147,814.226536,10214.842000
3659.979854,1149.143247,1332.370696,9474.636058
3659.980168,1608.800546,2146.597232,9030.512492
3659.980483,1991.848295,2368.659014,9030.512492
3659.980797,1991.848295,1628.453072,8956.491898
3659.981112,2374.896044,962.267725,9030.512492
3659.981426,1149.143247,814.226536,8882.471304
3659.981741,0.000000,296.082377,8956.491898
3659.982055,-766.095498,-222.061783,9622.677246
3659.982369,-1302.362347,-888.247130,9770.718434
3659.982684,-1838.629195,-1554.432478,10288.862594
3659.982998,-2221.676944,-1628.453072,9918.759623
3659.983313,-2068.457845,-1406.391290,10436.903782
3659.983627,-1608.800546,-1332.370696,10732.986159
3659.983941,-842.705048,-74.020594,10066.800811
3659.984256,0.000000,-0.000000,10066.800811
3659.984570,536.266849,740.205942,9992.780217
3659.984885,1149.143247,1258.350101,9622.677246
3659.985199,1608.800546,1924.535449,8660.409521
3659.985514,1762.019645,2146.597232,8956.491898
3659.985828,1915.238745,2072.576638,9178.553681
3659.986142,1532.190996,1332.370696,8660.409521
3659.986457,766.095498,962.267725,8808.450710
3659.986771,229.828649,296.082377,9252.574275
3659.987086,-459.657299,-370.102971,9548.656652
3659.987400,-689.485948,-1184.329507,9844.739029
3659.987715,-1532.190996,-1258.350101,9474.636058
3659.988029,-2068.457845,-1332.370696,10288.862594
3659.988343,-1608.800546,-1776.494261,10140.821405
3659.988658,-766.095498,-1110.308913,10584.944971
3659.988972,-1225.752797,-518.144159,10510.924376
3659.989287,-612.876398,-0.000000,9992.780217
3659.989601,612.876398,518.144159,10140.821405
3659.989916,1225.752797,1110.308913,10066.800811
3659.990230,1838.629195,1554.432478,9696.697840
3659.990544,2451.505594,2368.659014,8882.471304
3659.990859,2757.943793,2220.617826,8512.368333
3659.991173,2451.505594,1850.514855,8882.471304
3659.991488,1991.848295,1480.411884,8364.327145
3659.991802,689.485948,666.185348,9252.574275
3659.992117,0.000000,-74.020594,9178.553681
3659.992431,-842.705048,-888.247130,9326.594869
3659.992745,-1455.581446,-1258.350101,9622.677246
3659.993060,-1838.629195,-1776.494261,10362.883188
3659.993374,-1608.800546,-1702.473667,10214.842000
3659.993689,-1685.410096,-1554.432478,10510.924376
3659.994003,-1225.752797,-444.123565,9918.759623
3659.994318,-383.047749,-0.000000,10288.862594
3659.994632,153.219100,1036.288319,9918.759623
3659.994946,1302.362347,1332.370696,9770.718434
3659.995261,1762.019645,2368.659014,8808.450710
3659.995575,1838.629195,2072.576638,8660.409521
3659.995890,2604.724693,2146.597232,8216.285956
3659.996204,2374.896044,1702.473667,9030.512492
3659.996519,1532.190996,1702.473667,9030.512492
3659.996833,766.095498,592.164754,8808.450710
3659.997147,-229.828649,-148.041188,8956.491898
3659.997462,-995.924147,-1406.391290,9770.718434
3659.997776,-1991.848295,-1998.556043,9770.718434
3659.998091,-1915.238745,-1850.514855,10214.842000
3659.998405,-1991.848295,-1776.494261,10584.944971
3659.998720,-1532.190996,-1332.370696,10807.006753
3659.999034,-995.924147,-296.082377,10362.883188
3659.999348,-229.828649,-0.000000,10436.903782
3659.999663,229.828649,518.144159,10658.965565
3659.999977,1225.752797,1332.370696,10288.862594
3660.000292,1838.629195,1924.535449,9474.636058
3660.000606,1991.848295,1998.556043,9400.615463
3660.000921,2221.676944,1702.473667,9252.574275
3660.001235,2068.457845,1332.370696,9104.533087
3660.001549,1225.752797,814.226536,8586.388927
3660.001864,383.047749,-0.000000,9178.553681
3660.002178,0.000000,-814.226536,9918.759623
3660.002493,-995.924147,-1702.473667,9844.739029
3660.002807,-1915.238745,-2294.638420,9696.697840
3660.003122,-1991.848295,-1850.514855,9918.759623
3660.003436,-1991.848295,-2368.659014,10288.862594
3660.003750,-1685.410096,-1850.514855,10584.944971
3660.004065,-1302.362347,-1110.308913,10362.883188
3660.004379,-459.657299,-74.020594,10140.821405
3660.004694,459.657299,518.144159,9844.739029
3660.005008,1302.362347,1554.432478,9474.636058
3660.005323,1532.190996,2072.576638,8956.491898
3660.005637,2068.457845,2146.597232,8808.450710
3660.005951,1991.848295,1850.514855,8734.430116
3660.006266,2298.286494,1258.350101,8586.388927
3660.006580,1762.019645,444.123565,8364.327145
3660.006895,919.314598,518.144159,8290.306550
3660.007209,-153.219100,-518.144159,9030.512492
3660.007524,-995.924147,-1258.350101,9178.553681
3660.007838,-1685.410096,-1628.453072,9400.615463
3660.008152,-2221.676944,-1702.473667,9622.677246
3660.008467,-1685.410096,-2072.576638,9844.739029
3660.008781,-1378.971896,-1628.453072,10140.821405
3660.009096,-1225.752797,-814.226536,9918.759623
3660.009410,-383.047749,-148.041188,10066.800811
3660.009725,0.000000,296.082377,9918.759623
3660.010039,1149.143247,962.267725,9474.636058
3660.010353,1762.019645,2146.597232,9474.636058
3660.010668,2068.457845,2368.659014,9030.512492
3660.010982,2374.896044,2442.679609,9178.553681
3660.011297,2298.286494,1480.411884,9178.553681
3660.011611,1838.629195,1480.411884,9104.533087
3660.011926,842.705048,518.144159,8956.491898
3660.012240,0.000000,-74.020594,9326.594869
3660.012554,-919.314598,-814.226536,10066.800811
3660.012869,-1149.143247,-1258.350101,10510.924376
3660.013183,-1991.848295,-1776.494261,10214.842000
3660.013498,-2298.286494,-1702.473667,10214.842000
3660.013812,-1915.238745,-1554.432478,10807.006753
3660.014126,-1225.752797,-518.144159,10436.903782
3660.014441,-919.314598,-0.000000,10510.924376
3660.014755,229.828649,592.164754,10584.944971
3660.015070,995.924147,1332.370696,10288.862594
3660.015384,1532.190996,2516.700203,9400.615463
3660.015699,2068.457845,2516.700203,9548.656652
3660.016013,2221.676944,2738.761985,9252.574275
3660.016327,2221.676944,1776.494261,9474.636058
3660.016642,1378.971896,1850.514855,9326.594869
3660.016956,766.095498,814.226536,9030.512492
3660.017271,0.000000,-148.041188,9400.615463
3660.017585,-766.095498,-814.226536,9548.656652
3660.017900,-1302.362347,-1332.370696,9844.739029
3660.018214,-1915.238745,-1924.535449,9844.739029
3660.018528,-2145.067394,-1776.494261,9622.677246
3660.018843,-1838.629195,-1258.350101,10214.842000
3660.019157,-1302.362347,-666.185348,9844.739029
3660.019471,-229.828649,-74.020594,10066.800811
3660.019786,229.828649,1036.288319,9696.697840
3660.020100,1149.143247,1184.329507,9474.636058
3660.020415,1838.629195,2220.617826,9178.553681
3660.020729,2145.067394,2590.720797,8660.409521
3660.021043,2451.505594,2516.700203,8808.450710
3660.021358,2145.067394,1406.391290,8734.430116
3660.021672,1685.410096,1554.432478,8586.388927
3660.021987,1302.362347,518.144159,9030.512492
3660.022301,229.828649,-148.041188,9104.533087
3660.022615,-612.876398,-962.267725,9400.615463
3660.022930,-1532.190996,-1258.350101,9548.656652
3660.023244,-1762.019645,-1554.432478,9844.739029
3660.023559,-1991.848295,-1850.514855,10584.944971
3660.023873,-1608.800546,-1924.535449,10584.944971
3660.024187,-1455.581446,-1184.329507,10066.800811
3660.024502,-766.095498,-296.082377,9918.759623
3660.024816,229.828649,222.061783,10214.842000
3660.025131,766.095498,888.247130,10436.903782
3660.025445,1838.629195,1850.514855,9992.780217
3660.025759,1915.238745,2146.597232,9400.615463
3660.026074,2068.457845,2368.659014,8438.347739
3660.026388,2374.896044,1628.453072,8956.491898
3660.026703,2068.457845,1332.370696,8956.491898
3660.027017,995.924147,-74.020594,9252.574275
3660.027331,153.219100,-370.102971,9178.553681
3660.027646,-612.876398,-1184.329507,9548.656652
3660.027960,-1225.752797,-1628.453072,9844.739029
3660.028274,-1762.019645,-1850.514855,9918.759623
3660.028589,-2145.067394,-2072.576638,10214.842000
3660.028903,-2145.067394,-2072.576638,10732.986159
3660.029218,-1532.190996,-1110.308913,10288.862594
3660.029532,-766.095498,-370.102971,10288.862594
3660.029846,229.828649,222.061783,9918.759623
3660.030161,1302.362347,592.164754,9992.780217
3660.030475,1608.800546,2072.576638,9400.615463
3660.030790,2145.067394,2220.617826,8734.430116
3660.031104,2221.676944,2146.597232,8586.388927
3660.031418,2604.724693,1480.411884,9030.512492
3660.031733,1378.971896,1258.350101,8956.491898
3660.032047,842.705048,444.123565,8734.430116
3660.032362,0.000000,-0.000000,9252.574275
3660.032676,-459.657299,-888.247130,9548.656652
3660.032990,-1302.362347,-1184.329507,9770.718434
3660.033305,-1762.019645,-1628.453072,9992.780217
3660.033619,-2068.457845,-1702.473667,10140.821405
3660.033934,-1838.629195,-1776.494261,10362.883188
3660.034248,-1225.752797,-1184.329507,10436.903782
3660.034562,-689.485948,-222.061783,10362.883188
3660.034877,0.000000,370.102971,9992.780217
3660.035191,766.095498,814.226536,9992.780217
3660.035506,1455.581446,1702.473667,9400.615463
3660.035820,1991.848295,1998.556043,9252.574275
3660.036134,2068.457845,1998.556043,9178.553681
3660.036449,1915.238745,1776.494261,8882.471304
3660.036763,1685.410096,1628.453072,8882.471304
3660.037077,766.095498,740.205942,8512.368333
3660.037392,0.000000,-222.061783,9326.594869
3660.037706,-919.314598,-1554.432478,9548.656652
3660.038021,-1838.629195,-2072.576638,9696.697840
3660.038335,-2221.676944,-1776.494261,9770.718434
3660.038649,-2068.457845,-1850.514855,10066.800811
3660.038964,-2145.067394,-1554.432478,10436.903782
3660.039278,-1991.848295,-1258.350101,9992.780217
3660.039593,-1072.533697,-296.082377,10066.800811
3660.039907,0.000000,148.041188,9992.780217
3660.040221,766.095498,1110.308913,9918.759623
3660.040536,1762.019645,1998.556043,9696.697840
3660.040850,2221.676944,2516.700203,8882.471304
3660.041165,2068.457845,2368.659014,8512.368333
3660.041479,2374.896044,1924.535449,8734.430116
3660.041793,1762.019645,1702.473667,8660.409521
3660.042108,1072.533697,666.185348,8808.450710
3660.042422,-229.828649,-148.041188,9030.512492
3660.042737,-536.266849,-740.205942,9548.656652
3660.043051,-1225.752797,-1258.350101,9696.697840
3660.043365,-1762.019645,-1628.453072,9844.739029
3660.043680,-2068.457845,-1554.432478,10584.944971
3660.043994,-1302.362347,-1702.473667,10436.903782
3660.044308,-1225.752797,-740.205942,10584.944971
3660.044623,-612.876398,-0.000000,9918.759623
3660.044937,383.047749,888.247130,10140.821405
3660.045252,1225.752797,1480.411884,9918.759623
3660.045566,1302.362347,1998.556043,9548.656652
3660.045880,1991.848295,2146.597232,9548.656652
3660.046195,1991.848295,2294.638420,9326.594869
3660.046509,1838.629195,2220.617826,9326.594869
3660.046824,1762.019645,1406.391290,9474.636058
3660.047138,1685.410096,888.247130,9474.636058
3660.047452,383.047749,-0.000000,9400.615463
3660.047767,-536.266849,-740.205942,9474.636058
3660.048081,-766.095498,-1332.370696,9844.739029
3660.048396,-1532.190996,-1702.473667,9992.780217
3660.048710,-1762.019645,-2294.638420,10214.842000
3660.049024,-1762.019645,-1850.514855,10288.862594
3660.049339,-1072.533697,-1110.308913,10140.821405
3660.049653,-306.438199,-370.102971,10140.821405
3660.049968,0.000000,-74.020594,9992.780217
3660.050282,306.438199,148.041188,9770.718434
3660.050596,842.705048,1110.308913,9844.739029
3660.050911,1608.800546,1702.473667,9178.553681
3660.051225,1915.238745,1702.473667,9104.533087
3660.051540,1991.848295,1184.329507,9104.533087
3660.051854,1378.971896,1110.308913,8882.471304
