#time,accel_x,accel_y,accel_z
3965.318555,-919.314598,1406.391290,8068.244768
3965.318870,-1149.143247,1332.370696,8216.285956
3965.319185,-842.705048,1036.288319,8438.347739
3965.319500,-766.095498,814.226536,8882.471304
3965.319815,-1302.362347,370.102971,9474.636058
3965.320130,-995.924147,-370.102971,9252.574275
3965.320445,-1149.143247,-370.102971,9992.780217
3965.320760,-995.924147,-814.226536,10140.821405
3965.321075,-766.095498,-888.247130,9844.739029
3965.321390,-536.266849,-370.102971,9622.677246
3965.321705,-919.314598,-0.000000,9178.553681
3965.322020,-229.828649,148.041188,9252.574275
3965.322335,0.000000,148.041188,8808.450710
3965.322650,229.828649,-0.000000,8808.450710
3965.322965,306.438199,-444.123565,9104.533087
3965.323280,0.000000,-962.267725,8956.491898
3965.323595,0.000000,-962.267725,9326.594869
3965.323910,306.438199,-1332.370696,9770.718434
3965.324225,229.828649,-1480.411884,9770.718434
3965.324540,536.266849,-1924.535449,8956.491898
3965.324855,229.828649,-1406.391290,8660.409521
3965.325170,306.438199,-962.267725,9326.594869
3965.325485,306.438199,-814.226536,8808.450710
3965.325800,306.438199,-518.144159,8586.388927
3965.326115,229.828649,-74.020594,8956.491898
3965.326430,-306.438199,-592.164754,8882.471304
3965.326745,-536.266849,-814.226536,9400.615463
3965.327060,-766.095498,-814.226536,9918.759623
3965.327375,-842.705048,-1036.288319,10362.883188
3965.327690,-459.657299,-888.247130,10362.883188
3965.328005,-612.876398,-814.226536,10140.821405
3965.328320,-842.705048,-740.205942,10584.944971
3965.328635,-919.314598,-74.020594,10140.821405
3965.328950,-919.314598,-0.000000,9770.718434
3965.329265,-919.314598,518.144159,9104.533087
3965.329580,-536.266849,592.164754,9104.533087
3965.329895,-459.657299,370.102971,9400.615463
3965.330210,-612.876398,518.144159,9474.636058
3965.330525,-689.485948,-74.020594,9918.759623
3965.330841,0.000000,-0.000000,9400.615463
3965.331156,0.000000,518.144159,9622.677246
3965.331471,536.266849,666.185348,9474.636058
3965.331786,1149.143247,814.226536,8882.471304
3965.332101,1378.971896,1554.432478,9030.512492
3965.332416,919.314598,1554.432478,8808.450710
3965.332731,842.705048,1998.556043,9030.512492
3965.333046,842.705048,1628.453072,8882.471304
3965.333361,612.876398,1480.411884,8956.491898
3965.333676,536.266849,1332.370696,9548.656652
3965.333991,76.609550,1332.370696,9400.615463
3965.334306,0.000000,1184.329507,9770.718434
3965.334621,383.047749,888.247130,10436.903782
3965.334936,383.047749,1258.350101,10658.965565
3965.335251,229.828649,1258.350101,9696.697840
3965.335566,229.828649,1554.432478,9548.656652
3965.335881,0.000000,1776.494261,10288.862594
3965.336196,-306.438199,1332.370696,9918.759623
3965.336511,-229.828649,962.267725,10288.862594
3965.336826,-459.657299,1184.329507,10214.842000
3965.337141,-383.047749,740.205942,10140.821405
3965.337456,0.000000,740.205942,10214.842000
3965.337771,0.000000,444.123565,10658.965565
3965.338086,0.000000,666.185348,11029.068536
3965.338401,76.609550,-74.020594,10288.862594
3965.338716,306.438199,148.041188,10214.842000
3965.339031,383.047749,-0.000000,10362.883188
3965.339346,536.266849,-74.020594,10288.862594
3965.339661,383.047749,-0.000000,9992.780217
3965.339976,383.047749,-148.041188,9548.656652
3965.340291,612.876398,-0.000000,9474.636058
3965.340606,459.657299,-148.041188,9326.594869
3965.340921,536.266849,-222.061783,9400.615463
3965.341236,919.314598,-370.102971,9770.718434
3965.341551,612.876398,-296.082377,9474.636058
3965.341866,306.438199,-222.061783,9252.574275
3965.342181,536.266849,-444.123565,9178.553681
3965.342496,766.095498,-666.185348,9474.636058
3965.342811,536.266849,-74.020594,9252.574275
3965.343126,153.219100,-296.082377,8882.471304
3965.343441,153.219100,-296.082377,9104.533087
3965.343756,306.438199,-518.144159,8438.347739
3965.344071,-612.876398,-592.164754,8882.471304
3965.344386,-459.657299,-592.164754,9178.553681
3965.344701,-229.828649,-592.164754,8882.471304
3965.345017,0.000000,-888.247130,9104.533087
3965.345332,76.609550,-666.185348,9400.615463
3965.345647,153.219100,-666.185348,9400.615463
3965.345962,229.828649,-444.123565,9400.615463
3965.346277,0.000000,-740.205942,9104.533087
3965.346592,0.000000,-518.144159,9474.636058
3965.346907,0.000000,-592.164754,9326.594869
3965.347222,0.000000,-666.185348,9326.594869
3965.347537,229.828649,-444.123565,9326.594869
3965.347852,383.047749,-444.123565,8956.491898
3965.348167,0.000000,-222.061783,9400.615463
3965.348482,153.219100,-518.144159,9770.718434
3965.348797,0.000000,-814.226536,9770.718434
3965.349112,0.000000,-296.082377,9622.677246
3965.349427,76.609550,-592.164754,9622.677246
3965.349742,0.000000,-74.020594,9992.780217
3965.350057,-383.047749,-222.061783,9918.759623
3965.350372,0.000000,-222.061783,9918.759623
3965.350687,0.000000,-0.000000,9918.759623
3965.351002,0.000000,-0.000000,9770.718434
3965.351317,-383.047749,-74.020594,9400.615463
3965.351632,0.000000,-0.000000,9696.697840
3965.351947,0.000000,444.123565,9918.759623
3965.352262,0.000000,296.082377,9992.780217
3965.352577,76.609550,518.144159,9770.718434
3965.352892,0.000000,518.144159,9918.759623
3965.353207,306.438199,222.061783,9844.739029
3965.353522,0.000000,592.164754,9696.697840
3965.353837,0.000000,1036.288319,9770.718434
3965.354152,536.266849,888.247130,10436.903782
3965.354467,306.438199,888.247130,9548.656652
3965.354782,76.609550,814.226536,9474.636058
3965.355097,383.047749,888.247130,9696.697840
3965.355412,229.828649,1036.288319,9770.718434
3965.355727,229.828649,1036.288319,9992.780217
3965.356042,459.657299,1110.308913,10066.800811
3965.356357,229.828649,592.164754,10066.800811
3965.356672,229.828649,592.164754,9474.636058
3965.356987,0.000000,1036.288319,9104.533087
3965.357302,306.438199,740.205942,9696.697840
3965.357617,153.219100,962.267725,9622.677246
3965.357932,0.000000,888.247130,9844.739029
3965.358247,76.609550,814.226536,9474.636058
3965.358562,0.000000,592.164754,9844.739029
3965.358878,0.000000,518.144159,9696.697840
3965.359193,0.000000,592.164754,9696.697840
3965.359508,0.000000,222.061783,9770.718434
3965.359823,-229.828649,222.061783,9474.636058
3965.360138,-229.828649,518.144159,9474.636058
3965.360453,229.828649,-0.000000,9252.574275
3965.360768,229.828649,370.102971,9474.636058
3965.361083,229.828649,-0.000000,9548.656652
3965.361398,76.609550,-148.041188,9696.697840
3965.361713,0.000000,-148.041188,9548.656652
3965.362028,0.000000,-296.082377,9178.553681
3965.362343,0.000000,-0.000000,9326.594869
3965.362658,919.314598,-444.123565,9548.656652
3965.362973,536.266849,-296.082377,9548.656652
3965.363288,153.219100,-222.061783,9104.533087
3965.363603,153.219100,-222.061783,9326.594869
3965.363918,229.828649,-370.102971,9104.533087
3965.364233,229.828649,-222.061783,9252.574275
3965.364548,0.000000,-666.185348,9104.533087
3965.364863,76.609550,-740.205942,9474.636058
3965.365178,0.000000,-444.123565,9030.512492
3965.365493,229.828649,-962.267725,8882.471304
3965.365808,306.438199,-666.185348,9400.615463
3965.366123,0.000000,-222.061783,9104.533087
3965.366438,229.828649,-148.041188,9326.594869
3965.366753,153.219100,-518.144159,9326.594869
3965.367068,306.438199,-222.061783,9252.574275
3965.367384,0.000000,-148.041188,9178.553681
3965.367699,0.000000,-222.061783,8882.471304
3965.368014,383.047749,-0.000000,9252.574275
3965.368329,459.657299,-74.020594,9252.574275
3965.368644,76.609550,-148.041188,9474.636058
3965.368959,0.000000,-0.000000,9252.574275
3965.369274,0.000000,-0.000000,9178.553681
3965.369589,0.000000,-0.000000,9474.636058
3965.369904,0.000000,-0.000000,9548.656652
3965.370219,76.609550,222.061783,9548.656652
3965.370534,0.000000,-0.000000,9474.636058
3965.370849,0.000000,222.061783,9252.574275
3965.371164,76.609550,296.082377,9844.739029
3965.371479,153.219100,444.123565,9992.780217
3965.371794,76.609550,222.061783,9474.636058
3965.372109,0.000000,-0.000000,9918.759623
3965.372424,76.609550,518.144159,9770.718434
3965.372739,0.000000,740.205942,9622.677246
3965.373054,76.609550,888.247130,9696.697840
3965.373369,-229.828649,296.082377,10066.800811
3965.373684,153.219100,296.082377,10066.800811
3965.373999,76.609550,444.123565,9918.759623
3965.374314,0.000000,666.185348,9770.718434
3965.374629,229.828649,-0.000000,10140.821405
3965.374944,76.609550,814.226536,10214.842000
3965.375259,306.438199,814.226536,9844.739029
3965.375574,-153.219100,370.102971,10066.800811
3965.375890,153.219100,740.205942,9844.739029
3965.376205,-76.609550,740.205942,9622.677246
3965.376520,153.219100,740.205942,9918.759623
3965.376835,306.438199,740.205942,9844.739029
3965.377150,0.000000,370.102971,9548.656652
3965.377465,306.438199,444.123565,10066.800811
3965.377780,0.000000,296.082377,10140.821405
3965.378095,306.438199,296.082377,9696.697840
3965.378410,306.438199,518.144159,9770.718434
3965.378725,229.828649,592.164754,10066.800811
3965.379040,229.828649,592.164754,9992.780217
3965.379355,383.047749,444.123565,10066.800811
3965.379670,76.609550,444.123565,9770.718434
3965.379985,229.828649,444.123565,9696.697840
3965.380300,0.000000,222.061783,9696.697840
3965.380615,153.219100,-148.041188,9622.677246
3965.380930,76.609550,296.082377,10066.800811
3965.381245,0.000000,296.082377,9548.656652
3965.381560,0.000000,296.082377,9178.553681
3965.381875,-153.219100,148.041188,9326.594869
3965.382190,153.219100,370.102971,9844.739029
3965.382505,0.000000,-148.041188,9548.656652
3965.382820,0.000000,-0.000000,9474.636058
3965.383135,76.609550,-74.020594,9474.636058
3965.383450,76.609550,-74.020594,9326.594869
3965.383765,229.828649,-0.000000,9548.656652
3965.384080,459.657299,-0.000000,9252.574275
3965.384395,-229.828649,-370.102971,9400.615463
3965.384711,0.000000,-444.123565,9400.615463
3965.385026,76.609550,-74.020594,9178.553681
3965.385341,306.438199,-296.082377,9326.594869
3965.385656,229.828649,-148.041188,9400.615463
3965.385971,76.609550,-148.041188,9104.533087
3965.386286,153.219100,-444.123565,9474.636058
3965.386601,229.828649,-666.185348,9252.574275
3965.386916,153.219100,-370.102971,9474.636058
3965.387231,153.219100,-296.082377,9252.574275
3965.387546,0.000000,-296.082377,9178.553681
3965.387861,0.000000,-222.061783,9474.636058
3965.388176,229.828649,-0.000000,9474.636058
3965.388491,459.657299,-148.041188,9548.656652
3965.388806,153.219100,-74.020594,9252.574275
3965.389121,0.000000,-148.041188,9326.594869
3965.389436,229.828649,-148.041188,9474.636058
3965.389751,459.657299,-296.082377,9474.636058
3965.390066,229.828649,-0.000000,9918.759623
3965.390381,0.000000,148.041188,9474.636058
3965.390696,76.609550,-0.000000,9696.697840
3965.391011,153.219100,-0.000000,9622.677246
3965.391326,76.609550,-0.000000,9622.677246
3965.391641,153.219100,-74.020594,9548.656652
3965.391956,0.000000,222.061783,9622.677246
3965.392271,229.828649,444.123565,9696.697840
3965.392586,153.219100,370.102971,9474.636058
3965.392901,76.609550,296.082377,9918.759623
3965.393217,459.657299,370.102971,9844.739029
3965.393532,0.000000,296.082377,9622.677246
3965.393847,153.219100,370.102971,9696.697840
3965.394162,612.876398,518.144159,9622.677246
3965.394477,153.219100,888.247130,9770.718434
3965.394792,459.657299,518.144159,9326.594869
3965.395107,0.000000,222.061783,9548.656652
3965.395422,76.609550,518.144159,9770.718434
3965.395737,0.000000,296.082377,9548.656652
3965.396052,0.000000,666.185348,9548.656652
3965.396367,153.219100,444.123565,10066.800811
3965.396682,0.000000,592.164754,9622.677246
3965.396997,0.000000,148.041188,9548.656652
3965.397312,-229.828649,148.041188,9474.636058
3965.397627,383.047749,444.123565,9770.718434
3965.397942,-153.219100,296.082377,9992.780217
3965.398257,76.609550,370.102971,9622.677246
3965.398572,153.219100,296.082377,9696.697840
3965.398887,0.000000,222.061783,9474.636058
3965.399202,0.000000,148.041188,9770.718434
3965.399517,153.219100,296.082377,9696.697840
3965.399832,229.828649,444.123565,9622.677246
3965.400147,76.609550,296.082377,9548.656652
3965.400462,306.438199,-0.000000,9696.697840
3965.400777,383.047749,222.061783,9918.759623
3965.401092,76.609550,296.082377,9474.636058
3965.401407,76.609550,-0.000000,9696.697840
3965.401723,76.609550,-0.000000,9696.697840
3965.402038,0.000000,-0.000000,9918.759623
3965.402353,76.609550,-0.000000,9770.718434
3965.402668,0.000000,-0.000000,9696.697840
3965.402983,306.438199,-0.000000,9696.697840
3965.403298,306.438199,-0.000000,9326.594869
3965.403613,306.438199,-222.061783,9548.656652
3965.403928,0.000000,-0.000000,9770.718434
3965.404243,0.000000,-74.020594,9548.656652
3965.404558,0.000000,-0.000000,9474.636058
3965.404873,153.219100,-74.020594,9474.636058
3965.405188,689.485948,-0.000000,9992.780217
3965.405503,76.609550,-74.020594,9326.594869
3965.405818,0.000000,-444.123565,9400.615463
3965.406133,76.609550,-148.041188,9326.594869
3965.406448,0.000000,-0.000000,9474.636058
3965.406763,229.828649,-148.041188,9474.636058
3965.407078,0.000000,-74.020594,9326.594869
3965.407393,0.000000,-0.000000,9548.656652
3965.407708,0.000000,-296.082377,9178.553681
3965.408023,76.609550,-222.061783,9104.533087
3965.408338,76.609550,296.082377,9844.739029
3965.408653,0.000000,-74.020594,9326.594869
3965.408968,0.000000,-0.000000,9474.636058
3965.409283,-153.219100,-74.020594,9252.574275
3965.409598,0.000000,-0.000000,9844.739029
3965.409913,0.000000,-0.000000,9474.636058
3965.410229,0.000000,148.041188,9622.677246
3965.410544,229.828649,370.102971,9400.615463
3965.410859,-229.828649,370.102971,9326.594869
3965.411174,536.266849,-0.000000,9770.718434
3965.411489,0.000000,148.041188,9844.739029
3965.411804,0.000000,518.144159,9474.636058
3965.412119,0.000000,148.041188,9474.636058
3965.412434,0.000000,444.123565,9548.656652
3965.412749,306.438199,296.082377,9622.677246
3965.413064,383.047749,-74.020594,9622.677246
3965.413379,0.000000,370.102971,9770.718434
3965.413694,459.657299,518.144159,9918.759623
3965.414009,229.828649,592.164754,9622.677246
3965.414324,229.828649,518.144159,9622.677246
3965.414639,76.609550,296.082377,9770.718434
3965.414954,0.000000,296.082377,9696.697840
3965.415269,0.000000,370.102971,9770.718434
3965.415584,76.609550,370.102971,9770.718434
3965.415899,459.657299,296.082377,9770.718434
3965.416214,306.438199,444.123565,9918.759623
3965.416529,306.438199,-0.000000,9548.656652
3965.416844,153.219100,296.082377,9918.759623
3965.417159,0.000000,-0.000000,9696.697840
3965.417474,612.876398,370.102971,9844.739029
3965.417789,76.609550,444.123565,9844.739029
3965.418104,0.000000,370.102971,9622.677246
3965.418419,229.828649,296.082377,9400.615463
3965.418734,229.828649,518.144159,9474.636058
3965.419050,0.000000,444.123565,9622.677246
3965.419365,0.000000,296.082377,9474.636058
3965.419680,306.438199,74.020594,9696.697840
3965.419995,153.219100,370.102971,9474.636058
3965.420310,0.000000,370.102971,9474.636058
3965.420625,229.828649,296.082377,9548.656652
3965.420940,229.828649,-0.000000,9696.697840
3965.421255,229.828649,370.102971,9474.636058
3965.421570,383.047749,148.041188,9030.512492
3965.421885,0.000000,-0.000000,9400.615463
3965.422200,229.828649,-0.000000,9622.677246
3965.422515,0.000000,-0.000000,9770.718434
3965.422830,0.000000,-0.000000,9326.594869
3965.423145,153.219100,-0.000000,9474.636058
3965.423460,229.828649,-0.000000,9548.656652
3965.423775,0.000000,-0.000000,9474.636058
3965.424090,0.000000,-0.000000,9252.574275
3965.424405,0.000000,-0.000000,9622.677246
3965.424720,383.047749,-0.000000,9178.553681
3965.425035,153.219100,-0.000000,9400.615463
3965.425350,0.000000,-0.000000,9400.615463
3965.425665,76.609550,-74.020594,9474.636058
3965.425980,306.438199,-0.000000,9178.553681
3965.426295,0.000000,-148.041188,9548.656652
3965.426610,0.000000,-0.000000,9548.656652
3965.426925,76.609550,-0.000000,9400.615463
3965.427240,0.000000,-0.000000,9548.656652
3965.427556,0.000000,-0.000000,9474.636058
3965.427871,0.000000,-0.000000,9474.636058
3965.428186,153.219100,-0.000000,9474.636058
3965.428501,229.828649,-296.082377,9696.697840
3965.428816,0.000000,-74.020594,9474.636058
3965.429131,229.828649,-0.000000,9474.636058
3965.429446,153.219100,296.082377,9548.656652
3965.429761,76.609550,148.041188,9918.759623
3965.430076,-459.657299,148.041188,9770.718434
3965.430391,76.609550,-0.000000,9474.636058
3965.430706,0.000000,-0.000000,9696.697840
3965.431021,153.219100,-0.000000,9696.697840
3965.431336,459.657299,-0.000000,9622.677246
3965.431651,0.000000,-0.000000,9918.759623
3965.431966,153.219100,370.102971,10288.862594
3965.432281,76.609550,444.123565,9474.636058
3965.432596,153.219100,148.041188,9548.656652
3965.432911,153.219100,296.082377,9992.780217
3965.433226,76.609550,296.082377,9622.677246
3965.433541,0.000000,444.123565,9474.636058
3965.433856,0.000000,518.144159,9548.656652
3965.434171,229.828649,370.102971,9770.718434
3965.434486,0.000000,148.041188,9474.636058
3965.434801,-306.438199,296.082377,9474.636058
3965.435116,0.000000,296.082377,9918.759623
3965.435431,0.000000,-0.000000,9696.697840
3965.435746,76.609550,370.102971,9622.677246
3965.436062,0.000000,296.082377,9696.697840
3965.436377,-153.219100,444.123565,9622.677246
3965.436692,0.000000,148.041188,9474.636058
3965.437007,229.828649,370.102971,9548.656652
3965.437322,153.219100,222.061783,9696.697840
3965.437637,0.000000,222.061783,9696.697840
3965.437952,612.876398,-0.000000,9548.656652
3965.438267,306.438199,-0.000000,9622.677246
3965.438582,383.047749,-0.000000,9622.677246
3965.438897,153.219100,222.061783,9770.718434
3965.439212,76.609550,-0.000000,9474.636058
3965.439527,229.828649,-74.020594,9474.636058
3965.439842,383.047749,-74.020594,9548.656652
3965.440157,76.609550,-0.000000,9696.697840
3965.440472,0.000000,-74.020594,9696.697840
3965.440787,0.000000,-74.020594,9474.636058
3965.441102,0.000000,-0.000000,9622.677246
3965.441417,0.000000,-148.041188,9844.739029
3965.441732,0.000000,-148.041188,9696.697840
3965.442047,383.047749,-222.061783,9770.718434
3965.442362,0.000000,296.082377,9548.656652
3965.442677,383.047749,-0.000000,9696.697840
3965.442992,229.828649,-0.000000,9252.574275
3965.443307,153.219100,-0.000000,9326.594869
3965.443622,383.047749,-0.000000,10362.883188
3965.443937,0.000000,-0.000000,9474.636058
3965.444252,0.000000,-0.000000,9548.656652
3965.444568,0.000000,-74.020594,9474.636058
3965.444883,459.657299,-0.000000,9474.636058
3965.445198,0.000000,-0.000000,9474.636058
3965.445513,0.000000,296.082377,9474.636058
3965.445828,153.219100,-0.000000,9770.718434
3965.446143,229.828649,222.061783,9252.574275
3965.446458,76.609550,222.061783,9326.594869
3965.446773,612.876398,-74.020594,9474.636058
3965.447088,76.609550,-0.000000,9252.574275
3965.447403,76.609550,222.061783,9326.594869
3965.447718,229.828649,-0.000000,9400.615463
3965.448033,229.828649,222.061783,9548.656652
3965.448348,383.047749,-0.000000,9474.636058
3965.448663,0.000000,-0.000000,9474.636058
3965.448978,0.000000,-0.000000,9326.594869
3965.449293,229.828649,-0.000000,9474.636058
3965.449608,306.438199,-0.000000,9400.615463
3965.449923,0.000000,-0.000000,9696.697840
3965.450238,0.000000,-0.000000,9696.697840
3965.450553,0.000000,-0.000000,9548.656652
3965.450868,153.219100,222.061783,9548.656652
3965.451183,0.000000,148.041188,9770.718434
3965.451498,229.828649,-0.000000,9696.697840
3965.451813,0.000000,-0.000000,9548.656652
3965.452128,229.828649,-0.000000,9474.636058
3965.452443,76.609550,-0.000000,9696.697840
3965.452758,306.438199,296.082377,10214.842000
3965.453073,0.000000,222.061783,9770.718434
3965.453389,0.000000,-0.000000,9918.759623
3965.453704,0.000000,-0.000000,9474.636058
3965.454019,153.219100,370.102971,9548.656652
3965.454334,0.000000,222.061783,10288.862594
3965.454649,306.438199,444.123565,9696.697840
3965.454964,-229.828649,222.061783,9548.656652
3965.455279,0.000000,370.102971,9548.656652
3965.455594,153.219100,592.164754,9992.780217
3965.455909,306.438199,296.082377,9844.739029
3965.456224,76.609550,370.102971,9622.677246
3965.456539,0.000000,518.144159,9770.718434
3965.456854,0.000000,222.061783,9548.656652
3965.457169,0.000000,296.082377,9474.636058
3965.457484,-153.219100,-0.000000,9474.636058
3965.457799,-229.828649,222.061783,9474.636058
3965.458114,0.000000,148.041188,9400.615463
3965.458429,0.000000,296.082377,9474.636058
3965.458744,76.609550,296.082377,9548.656652
3965.459059,229.828649,370.102971,9252.574275
3965.459374,0.000000,-0.000000,9326.594869
3965.459689,0.000000,-0.000000,9474.636058
3965.460004,0.000000,370.102971,9474.636058
3965.460319,229.828649,296.082377,9474.636058
3965.460634,76.609550,148.041188,9622.677246
3965.460949,459.657299,222.061783,9770.718434
3965.461264,383.047749,-0.000000,9104.533087
3965.461579,229.828649,296.082377,9178.553681
3965.461894,76.609550,-0.000000,9918.759623
3965.462209,229.828649,-0.000000,9474.636058
3965.462524,153.219100,-148.041188,9622.677246
3965.462839,0.000000,-74.020594,9548.656652
3965.463154,306.438199,-0.000000,9474.636058
3965.463469,229.828649,-0.000000,9696.697840
3965.463784,536.266849,-0.000000,9770.718434
3965.464099,766.095498,-0.000000,9844.739029
3965.464414,229.828649,-0.000000,9548.656652
3965.464729,383.047749,-0.000000,9474.636058
3965.465044,0.000000,-0.000000,9918.759623
3965.465359,306.438199,-0.000000,9844.739029
3965.465674,0.000000,296.082377,9622.677246
3965.465989,0.000000,-0.000000,9844.739029
3965.466304,0.000000,-0.000000,9918.759623
3965.466618,153.219100,222.061783,9622.677246
3965.466933,0.000000,444.123565,9622.677246
3965.467248,0.000000,-0.000000,9622.677246
3965.467563,-229.828649,444.123565,9622.677246
3965.467878,0.000000,444.123565,9474.636058
3965.468193,-612.876398,666.185348,9400.615463
3965.468508,76.609550,444.123565,9548.656652
3965.468823,-766.095498,518.144159,9548.656652
3965.469138,-689.485948,518.144159,9548.656652
3965.469453,-536.266849,444.123565,9918.759623
3965.469768,-689.485948,444.123565,9474.636058
3965.470083,-229.828649,814.226536,9326.594869
3965.470398,-306.438199,740.205942,9548.656652
3965.470713,-536.266849,1110.308913,9400.615463
3965.471028,-689.485948,1184.329507,9178.553681
3965.471343,-612.876398,1184.329507,8438.347739
3965.471658,-766.095498,1184.329507,9326.594869
3965.471973,-919.314598,1258.350101,9030.512492
3965.472288,-1378.971896,1036.288319,9030.512492
3965.472603,-1685.410096,962.267725,10066.800811
3965.472918,-1762.019645,666.185348,10140.821405
3965.473233,-1991.848295,740.205942,10066.800811
3965.473548,-1915.238745,370.102971,9770.718434
3965.473863,-1915.238745,1110.308913,10066.800811
3965.474178,-1225.752797,1702.473667,9918.759623
3965.474493,-1149.143247,1850.514855,9696.697840
3965.474808,-842.705048,2072.576638,9918.759623
3965.475123,-995.924147,2220.617826,9400.615463
3965.475438,-1149.143247,2220.617826,9178.553681
3965.475753,-919.314598,1998.556043,9622.677246
3965.476068,-1149.143247,1924.535449,9770.718434
3965.476383,-1378.971896,1480.411884,9696.697840
3965.476698,-1685.410096,1110.308913,10214.842000
3965.477013,-1685.410096,1036.288319,10288.862594
3965.477328,-1455.581446,1184.329507,10288.862594
3965.477643,-1225.752797,1554.432478,10140.821405
3965.477958,-1072.533697,1332.370696,9918.759623
3965.478273,-842.705048,2146.597232,9770.718434
3965.478587,-459.657299,2146.597232,9474.636058
3965.478902,-153.219100,2146.597232,9548.656652
3965.479217,459.657299,2368.659014,9622.677246
3965.479532,306.438199,1998.556043,9474.636058
3965.479847,536.266849,1702.473667,9622.677246
3965.480162,459.657299,1628.453072,10066.800811
3965.480477,536.266849,1480.411884,9918.759623
3965.480792,612.876398,1332.370696,9844.739029
3965.481107,612.876398,1184.329507,10140.821405
3965.481422,766.095498,888.247130,9918.759623
3965.481737,1149.143247,962.267725,9918.759623
3965.482052,1149.143247,592.164754,9474.636058
3965.482367,1072.533697,296.082377,9178.553681
3965.482682,842.705048,1036.288319,9178.553681
3965.482997,689.485948,814.226536,9030.512492
3965.483312,842.705048,888.247130,9622.677246
3965.483627,153.219100,518.144159,9622.677246
3965.483942,229.828649,296.082377,9474.636058
3965.484257,0.000000,-0.000000,9992.780217
3965.484572,76.609550,-370.102971,9918.759623
3965.484887,153.219100,-518.144159,10362.883188
3965.485202,153.219100,-222.061783,10288.862594
3965.485517,153.219100,-444.123565,10140.821405
3965.485832,383.047749,-0.000000,9844.739029
3965.486147,459.657299,148.041188,8882.471304
3965.486462,383.047749,370.102971,8882.471304
3965.486777,229.828649,370.102971,9104.533087
3965.487092,153.219100,148.041188,8660.409521
3965.487407,-383.047749,-296.082377,8956.491898
3965.487722,-766.095498,-814.226536,9252.574275
3965.488037,-842.705048,-814.226536,9548.656652
3965.488352,-1149.143247,-1184.329507,10140.821405
3965.488667,-919.314598,-1628.453072,9844.739029
3965.488982,-1072.533697,-1110.308913,10066.800811
3965.489297,-612.876398,-962.267725,9474.636058
3965.489612,-459.657299,-444.123565,9474.636058
3965.489927,-153.219100,-222.061783,9030.512492
3965.490242,153.219100,-222.061783,8586.388927
3965.490556,0.000000,370.102971,8438.347739
3965.490871,-229.828649,-0.000000,8882.471304
3965.491186,-612.876398,222.061783,8808.450710
3965.491501,-612.876398,-444.123565,8438.347739
3965.491816,-1302.362347,-962.267725,9474.636058
3965.492131,-1608.800546,-1036.288319,9474.636058
3965.492446,-1302.362347,-1110.308913,10066.800811
3965.492761,-1378.971896,-1406.391290,10288.862594
3965.493076,-1455.581446,-1110.308913,10140.821405
3965.493391,-919.314598,-814.226536,9696.697840
3965.493706,-536.266849,-148.041188,9326.594869
3965.494021,0.000000,-74.020594,9474.636058
3965.494336,383.047749,-0.000000,9252.574275
3965.494651,689.485948,148.041188,8734.430116
3965.494966,689.485948,148.041188,9104.533087
3965.495281,919.314598,296.082377,9400.615463
3965.495596,919.314598,296.082377,9474.636058
3965.495911,1378.971896,-0.000000,9992.780217
3965.496226,1225.752797,-888.247130,10362.883188
3965.496541,1302.362347,-592.164754,10510.924376
3965.496856,1225.752797,-444.123565,10436.903782
3965.497171,1685.410096,-518.144159,10362.883188
3965.497486,1838.629195,-370.102971,9992.780217
3965.497801,2221.676944,-0.000000,9696.697840
3965.498116,2068.457845,444.123565,8882.471304
3965.498431,1991.848295,962.267725,8882.471304
3965.498746,1762.019645,1036.288319,8660.409521
3965.499061,1915.238745,814.226536,9474.636058
3965.499376,1149.143247,592.164754,9474.636058
3965.499691,689.485948,148.041188,9770.718434
3965.500006,536.266849,-148.041188,10362.883188
3965.500321,229.828649,-296.082377,10362.883188
3965.500636,76.609550,-0.000000,10510.924376
3965.500951,0.000000,-148.041188,10436.903782
3965.501266,76.609550,518.144159,9622.677246
3965.501581,383.047749,888.247130,9696.697840
3965.501896,0.000000,1184.329507,9104.533087
3965.502211,0.000000,1406.391290,8438.347739
3965.502525,0.000000,1110.308913,8734.430116
3965.502840,-612.876398,666.185348,8808.450710
3965.503155,-766.095498,518.144159,9474.636058
3965.503470,-766.095498,-222.061783,9696.697840
3965.503785,-1302.362347,-296.082377,9992.780217
3965.504100,-995.924147,-148.041188,10214.842000
3965.504415,-1225.752797,-0.000000,10140.821405
3965.504730,-1149.143247,74.020594,10436.903782
3965.505045,-766.095498,-0.000000,9844.739029
3965.505360,-383.047749,888.247130,9104.533087
3965.505675,-306.438199,1332.370696,8734.430116
3965.505990,-229.828649,1480.411884,8586.388927
3965.506305,0.000000,1776.494261,8882.471304
3965.506620,-459.657299,1406.391290,8956.491898
3965.506935,-766.095498,1036.288319,9326.594869
3965.507250,-1149.143247,518.144159,9474.636058
3965.507565,-1455.581446,296.082377,9696.697840
3965.507880,-1455.581446,-0.000000,10362.883188
3965.508195,-1532.190996,-74.020594,10214.842000
3965.508510,-1455.581446,-0.000000,10658.965565
3965.508825,-995.924147,518.144159,9992.780217
3965.509140,-689.485948,888.247130,9696.697840
3965.509455,-153.219100,1406.391290,9474.636058
3965.509770,0.000000,1406.391290,9474.636058
3965.510085,306.438199,1554.432478,9104.533087
3965.510400,229.828649,1332.370696,9326.594869
3965.510715,612.876398,1184.329507,9696.697840
3965.511030,153.219100,740.205942,9992.780217
3965.511345,0.000000,-0.000000,10362.883188
3965.511660,229.828649,-444.123565,10510.924376
3965.511975,842.705048,-518.144159,10955.047942
3965.512290,842.705048,-814.226536,11029.068536
3965.512605,919.314598,-518.144159,10881.027347
3965.512920,1532.190996,-296.082377,9622.677246
3965.513235,1991.848295,-148.041188,9400.615463
3965.513550,2374.896044,296.082377,9030.512492
3965.513865,2451.505594,370.102971,9104.533087
3965.514180,2681.334243,-0.000000,9030.512492
3965.514494,1991.848295,-148.041188,8734.430116
3965.514809,1915.238745,-148.041188,9104.533087
3965.515124,1455.581446,-296.082377,9178.553681
3965.515439,919.314598,-962.267725,10140.821405
3965.515754,766.095498,-1850.514855,10658.965565
3965.516069,612.876398,-1258.350101,10288.862594
3965.516384,612.876398,-1480.411884,10140.821405
3965.516699,689.485948,-1332.370696,9770.718434
3965.517014,1225.752797,-666.185348,9474.636058
3965.517329,842.705048,-0.000000,9474.636058
3965.517644,842.705048,-0.000000,8808.450710
3965.517959,536.266849,-0.000000,8364.327145
3965.518274,229.828649,222.061783,8438.347739
3965.518589,0.000000,-296.082377,9030.512492
3965.518904,-153.219100,-666.185348,9400.615463
3965.519219,-919.314598,-1036.288319,9548.656652
3965.519534,-1225.752797,-1406.391290,9918.759623
3965.519849,-1378.971896,-1258.350101,10140.821405
3965.520164,-1378.971896,-1036.288319,9918.759623
3965.520479,-1072.533697,-888.247130,10140.821405
3965.520794,-1225.752797,-444.123565,9326.594869
3965.521109,-919.314598,-148.041188,9104.533087
3965.521424,-766.095498,-0.000000,9030.512492
3965.521739,-842.705048,-0.000000,8586.388927
3965.522054,-1072.533697,518.144159,8586.388927
3965.522369,-1149.143247,518.144159,8734.430116
3965.522684,-1225.752797,444.123565,9104.533087
3965.522999,-1685.410096,-148.041188,9474.636058
3965.523314,-1685.410096,-518.144159,9918.759623
3965.523629,-1532.190996,-222.061783,9622.677246
3965.523944,-1991.848295,-444.123565,9918.759623
3965.524259,-1532.190996,-0.000000,9992.780217
3965.524574,-1225.752797,148.041188,9696.697840
3965.524889,-1072.533697,666.185348,9474.636058
3965.525204,-612.876398,1184.329507,9104.533087
3965.525519,-229.828649,1480.411884,8956.491898
3965.525834,0.000000,1850.514855,8660.409521
3965.526149,459.657299,1332.370696,9400.615463
3965.526463,306.438199,1628.453072,9918.759623
3965.526778,153.219100,814.226536,9474.636058
3965.527093,383.047749,888.247130,10066.800811
3965.527408,842.705048,592.164754,10288.862594
3965.527723,1149.143247,518.144159,11103.089130
3965.528038,1455.581446,370.102971,10881.027347
3965.528353,1302.362347,592.164754,10510.924376
3965.528668,1838.629195,814.226536,10066.800811
3965.528983,2374.896044,1332.370696,9696.697840
3965.529298,2451.505594,1480.411884,9474.636058
3965.529613,2681.334243,1628.453072,9622.677246
3965.529928,2528.115143,1554.432478,9326.594869
3965.530243,2068.457845,1258.350101,9474.636058
3965.530558,1838.629195,962.267725,9844.739029
3965.530873,1608.800546,518.144159,10362.883188
3965.531188,1225.752797,296.082377,10955.047942
3965.531503,995.924147,-0.000000,10807.006753
3965.531818,612.876398,-296.082377,10584.944971
3965.532133,766.095498,-0.000000,10807.006753
3965.532448,536.266849,-0.000000,10362.883188
3965.532763,842.705048,814.226536,9622.677246
3965.533078,1225.752797,740.205942,9326.594869
3965.533393,919.314598,962.267725,8956.491898
3965.533708,536.266849,444.123565,8882.471304
3965.534023,229.828649,370.102971,9030.512492
3965.534338,0.000000,370.102971,8586.388927
3965.534653,-459.657299,-222.061783,9104.533087
3965.534968,-459.657299,-296.082377,9474.636058
3965.535283,-612.876398,-888.247130,9622.677246
3965.535598,-1072.533697,-888.247130,9622.677246
3965.535913,-919.314598,-1110.308913,9474.636058
3965.536228,-1072.533697,-814.226536,9474.636058
3965.536543,-995.924147,-370.102971,9030.512492
3965.536858,-842.705048,-222.061783,8956.491898
3965.537173,-689.485948,-0.000000,8290.306550
3965.537488,-459.657299,222.061783,7994.224174
3965.537803,-536.266849,370.102971,8142.265362
3965.538118,-995.924147,148.041188,8290.306550
3965.538432,-995.924147,-0.000000,8660.409521
3965.538747,-1225.752797,-296.082377,9030.512492
3965.539062,-1455.581446,-370.102971,9474.636058
3965.539377,-1608.800546,-962.267725,9474.636058
3965.539692,-1685.410096,-1628.453072,9918.759623
3965.540007,-1685.410096,-962.267725,9844.739029
3965.540322,-1608.800546,-444.123565,10066.800811
3965.540637,-1225.752797,-0.000000,9622.677246
3965.540952,-842.705048,-0.000000,9548.656652
3965.541267,-612.876398,592.164754,9326.594869
3965.541582,-306.438199,740.205942,8882.471304
3965.541897,-229.828649,370.102971,9326.594869
3965.542212,-229.828649,296.082377,9622.677246
3965.542527,0.000000,-74.020594,10214.842000
3965.542842,229.828649,-74.020594,10584.944971
3965.543157,536.266849,-370.102971,10658.965565
3965.543472,536.266849,-592.164754,10807.006753
3965.543787,842.705048,-740.205942,10584.944971
3965.544102,766.095498,-296.082377,10436.903782
3965.544417,1378.971896,-296.082377,10362.883188
3965.544732,1838.629195,-74.020594,9548.656652
3965.545047,1991.848295,518.144159,9252.574275
3965.545362,1915.238745,296.082377,8956.491898
3965.545677,1762.019645,148.041188,9178.553681
3965.545992,1991.848295,148.041188,9622.677246
3965.546307,1991.848295,-0.000000,9696.697840
3965.546622,1302.362347,-74.020594,9918.759623
3965.546937,919.314598,-518.144159,10288.862594
3965.547252,842.705048,-666.185348,10510.924376
3965.547567,1149.143247,-888.247130,10807.006753
3965.547882,612.876398,-370.102971,10510.924376
3965.548197,1072.533697,-74.020594,9992.780217
3965.548512,1072.533697,518.144159,9548.656652
3965.548827,1532.190996,740.205942,9104.533087
3965.549142,1455.581446,370.102971,9030.512492
3965.549457,766.095498,666.185348,9030.512492
3965.549772,383.047749,814.226536,9178.553681
3965.550087,76.609550,370.102971,9030.512492
3965.550401,-229.828649,-0.000000,9400.615463
3965.550716,-536.266849,-74.020594,9992.780217
3965.551031,-689.485948,-518.144159,9918.759623
3965.551346,-919.314598,-666.185348,9918.759623
3965.551661,-842.705048,-592.164754,9992.780217
3965.551976,-766.095498,-444.123565,9770.718434
3965.552291,-536.266849,-0.000000,9178.553681
3965.552606,0.000000,814.226536,9104.533087
3965.552921,-383.047749,1036.288319,8586.388927
3965.553236,-383.047749,592.164754,8364.327145
3965.553551,-306.438199,1036.288319,8438.347739
3965.553866,-766.095498,740.205942,8956.491898
3965.554181,-842.705048,666.185348,9400.615463
3965.554496,-1225.752797,-0.000000,9400.615463
3965.554811,-1455.581446,222.061783,9474.636058
3965.555126,-1685.410096,-296.082377,10140.821405
3965.555441,-1302.362347,-518.144159,9992.780217
3965.555756,-1762.019645,-0.000000,9992.780217
3965.556071,-1302.362347,740.205942,9400.615463
3965.556386,-1149.143247,1036.288319,9104.533087
3965.556701,-459.657299,1332.370696,9252.574275
3965.557016,0.000000,1332.370696,9030.512492
3965.557331,0.000000,1406.391290,8956.491898
3965.557647,0.000000,1258.350101,9030.512492
3965.557962,0.000000,1110.308913,9474.636058
3965.558277,153.219100,1036.288319,10140.821405
3965.558592,0.000000,518.144159,10362.883188
3965.558907,153.219100,-0.000000,10510.924376
3965.559222,459.657299,370.102971,10510.924376
3965.559538,612.876398,296.082377,10584.944971
3965.559853,536.266849,148.041188,10881.027347
3965.560168,1225.752797,222.061783,10510.924376
3965.560483,1685.410096,518.144159,9770.718434
3965.560798,2221.676944,1036.288319,9474.636058
3965.561113,2068.457845,1110.308913,9326.594869
3965.561429,1991.848295,666.185348,9622.677246
3965.561744,2068.457845,592.164754,9548.656652
3965.562059,1838.629195,296.082377,9918.759623
3965.562374,995.924147,-0.000000,10214.842000
3965.562689,842.705048,-296.082377,10436.903782
3965.563004,842.705048,-592.164754,10955.047942
3965.563319,459.657299,-814.226536,11029.068536
3965.563635,459.657299,-888.247130,10362.883188
3965.563950,459.657299,-370.102971,10214.842000
3965.564265,689.485948,-0.000000,9918.759623
3965.564580,842.705048,296.082377,9474.636058
3965.564895,612.876398,370.102971,9030.512492
3965.565210,306.438199,444.123565,9030.512492
3965.565526,612.876398,-0.000000,8808.450710
3965.565841,153.219100,-296.082377,8882.471304
3965.566156,-383.047749,-814.226536,9400.615463
3965.566471,-383.047749,-962.267725,9474.636058
3965.566786,-459.657299,-1110.308913,9992.780217
3965.567101,-612.876398,-1110.308913,9474.636058
3965.567417,-919.314598,-1258.350101,9474.636058
3965.567732,-842.705048,-1036.288319,9400.615463
3965.568047,-536.266849,-740.205942,8808.450710
3965.568362,-306.438199,-370.102971,7920.203579
3965.568677,0.000000,-0.000000,8068.244768
3965.568992,0.000000,-0.000000,8216.285956
3965.569307,-383.047749,222.061783,8364.327145
3965.569623,-383.047749,-74.020594,8216.285956
3965.569938,-919.314598,-74.020594,8512.368333
3965.570253,-995.924147,-148.041188,9178.553681
3965.570568,-1532.190996,-666.185348,9548.656652
3965.570883,-1072.533697,-888.247130,9696.697840
3965.571198,-1378.971896,-814.226536,9844.739029
3965.571514,-1378.971896,-148.041188,9548.656652
3965.571829,-1149.143247,-0.000000,9474.636058
3965.572144,-842.705048,296.082377,9474.636058
3965.572459,-383.047749,296.082377,9474.636058
3965.572774,-383.047749,888.247130,8882.471304
3965.573089,-383.047749,1036.288319,9030.512492
3965.573405,0.000000,962.267725,9326.594869
3965.573720,0.000000,962.267725,9844.739029
3965.574035,383.047749,666.185348,10140.821405
3965.574350,229.828649,518.144159,10066.800811
3965.574665,459.657299,-0.000000,10584.944971
3965.574980,766.095498,370.102971,11029.068536
3965.575296,612.876398,444.123565,11103.089130
3965.575611,842.705048,666.185348,10732.986159
3965.575926,1302.362347,666.185348,10362.883188
3965.576241,1685.410096,814.226536,9770.718434
3965.576556,1838.629195,814.226536,9548.656652
3965.576871,1532.190996,962.267725,9918.759623
3965.577186,1149.143247,1184.329507,9400.615463
3965.577502,1225.752797,740.205942,9992.780217
3965.577817,1072.533697,888.247130,10362.883188
3965.578132,919.314598,444.123565,10510.924376
3965.578447,689.485948,-0.000000,10807.006753
3965.578762,536.266849,-518.144159,10732.986159
3965.579077,383.047749,-0.000000,10807.006753
3965.579393,536.266849,-0.000000,10584.944971
3965.579708,459.657299,296.082377,10140.821405
3965.580023,766.095498,666.185348,9918.759623
3965.580338,1072.533697,962.267725,9104.533087
3965.580653,536.266849,1036.288319,9030.512492
3965.580968,536.266849,888.247130,9104.533087
3965.581284,76.609550,518.144159,8882.471304
3965.581599,0.000000,370.102971,9252.574275
3965.581914,-766.095498,-74.020594,9474.636058
3965.582229,-842.705048,-222.061783,9622.677246
3965.582544,-612.876398,-370.102971,9696.697840
3965.582859,-919.314598,-518.144159,9622.677246
3965.583174,-766.095498,-592.164754,9918.759623
3965.583490,-842.705048,-0.000000,9326.594869
3965.583805,-459.657299,222.061783,8586.388927
3965.584120,0.000000,222.061783,8808.450710
3965.584435,0.000000,592.164754,8364.327145
3965.584750,0.000000,814.226536,8586.388927
3965.585065,-229.828649,814.226536,8142.265362
3965.585381,-536.266849,444.123565,8438.347739
3965.585696,-842.705048,-0.000000,8956.491898
3965.586011,-995.924147,-0.000000,9326.594869
3965.586326,-1072.533697,-592.164754,9696.697840
3965.586641,-1378.971896,-1036.288319,9696.697840
3965.586956,-1378.971896,-740.205942,9770.718434
3965.587272,-1378.971896,-296.082377,9696.697840
3965.587587,-919.314598,-74.020594,9400.615463
3965.587902,-842.705048,370.102971,9622.677246
3965.588217,-306.438199,296.082377,9030.512492
3965.588532,0.000000,888.247130,8808.450710
3965.588847,153.219100,814.226536,8956.491898
3965.589162,0.000000,592.164754,9178.553681
3965.589478,766.095498,370.102971,9844.739029
3965.589793,536.266849,444.123565,9918.759623
3965.590108,229.828649,-0.000000,10362.883188
3965.590423,689.485948,-370.102971,10436.903782
3965.590738,536.266849,-592.164754,10955.047942
3965.591053,459.657299,-148.041188,10807.006753
3965.591369,842.705048,-370.102971,10436.903782
3965.591684,1608.800546,-222.061783,10288.862594
3965.591999,1915.238745,222.061783,9844.739029
3965.592314,1762.019645,370.102971,10066.800811
3965.592629,1991.848295,370.102971,9474.636058
3965.592944,2068.457845,888.247130,9326.594869
3965.593260,1608.800546,148.041188,9548.656652
3965.593575,1225.752797,296.082377,9918.759623
3965.593890,919.314598,-296.082377,10584.944971
3965.594205,689.485948,-444.123565,10881.027347
3965.594520,306.438199,-518.144159,11029.068536
3965.594835,153.219100,-592.164754,10436.903782
3965.595150,229.828649,-592.164754,10584.944971
3965.595466,459.657299,-222.061783,10436.903782
3965.595781,459.657299,-0.000000,9474.636058
3965.596096,306.438199,296.082377,9252.574275
3965.596411,612.876398,888.247130,9326.594869
3965.596726,306.438199,444.123565,8734.430116
3965.597041,0.000000,148.041188,9326.594869
3965.597357,-229.828649,-148.041188,9178.553681
3965.597672,-766.095498,-518.144159,9400.615463
3965.597987,-1072.533697,-814.226536,9474.636058
3965.598302,-766.095498,-888.247130,9770.718434
3965.598617,-1225.752797,-740.205942,9622.677246
3965.598932,-995.924147,-740.205942,9622.677246
3965.599248,-459.657299,-74.020594,9178.553681
3965.599563,-536.266849,-0.000000,8882.471304
3965.599878,-306.438199,148.041188,8512.368333
3965.600193,-229.828649,666.185348,8216.285956
3965.600508,0.000000,814.226536,8142.265362
3965.600823,-306.438199,518.144159,8216.285956
3965.601138,-842.705048,222.061783,8734.430116
3965.601454,-995.924147,-0.000000,8808.450710
3965.601769,-1225.752797,-0.000000,9474.636058
3965.602084,-1225.752797,-370.102971,9548.656652
3965.602399,-1149.143247,-444.123565,9696.697840
3965.602714,-1149.143247,-148.041188,10288.862594
3965.603029,-842.705048,148.041188,9770.718434
3965.603345,-919.314598,370.102971,9326.594869
3965.603660,-459.657299,666.185348,9030.512492
3965.603975,-229.828649,1258.350101,9474.636058
3965.604290,76.609550,1258.350101,8882.471304
3965.604605,383.047749,1332.370696,9104.533087
3965.604920,153.219100,1184.329507,9400.615463
3965.605236,153.219100,1036.288319,9548.656652
3965.605551,229.828649,740.205942,10066.800811
3965.605866,383.047749,518.144159,10807.006753
3965.606181,383.047749,-0.000000,11029.068536
3965.606496,919.314598,296.082377,11029.068536
3965.606811,842.705048,296.082377,10732.986159
3965.607127,1149.143247,370.102971,10732.986159
3965.607442,1608.800546,444.123565,10362.883188
3965.607757,1991.848295,814.226536,9992.780217
3965.608072,1915.238745,1184.329507,9622.677246
3965.608387,1915.238745,1110.308913,9400.615463
3965.608702,1915.238745,518.144159,9400.615463
3965.609017,1685.410096,888.247130,10362.883188
3965.609333,1455.581446,666.185348,10288.862594
3965.609648,766.095498,-148.041188,10436.903782
3965.609963,536.266849,-148.041188,10807.006753
3965.610278,689.485948,-296.082377,11251.130318
3965.610593,459.657299,-740.205942,10955.047942
3965.610908,536.266849,-370.102971,10658.965565
3965.611224,766.095498,222.061783,10362.883188
3965.611539,1072.533697,518.144159,9474.636058
3965.611854,919.314598,740.205942,8808.450710
3965.612169,612.876398,518.144159,9252.574275
3965.612484,153.219100,296.082377,8882.471304
3965.612799,76.609550,-0.000000,8808.450710
3965.613115,0.000000,-74.020594,9252.574275
3965.613430,-689.485948,-740.205942,9622.677246
3965.613745,-919.314598,-1110.308913,9622.677246
3965.614060,-919.314598,-1184.329507,9474.636058
3965.614375,-1072.533697,-814.226536,9474.636058
3965.614690,-842.705048,-740.205942,10066.800811
3965.615005,-689.485948,-444.123565,9474.636058
3965.615321,-689.485948,-148.041188,8956.491898
3965.615636,-766.095498,-222.061783,8216.285956
3965.615951,-306.438199,296.082377,8068.244768
3965.616266,-383.047749,444.123565,7920.203579
3965.616581,-306.438199,222.061783,8364.327145
3965.616896,-842.705048,148.041188,8734.430116
3965.617212,-1149.143247,-148.041188,8660.409521
3965.617527,-1302.362347,-518.144159,8808.450710
3965.617842,-1378.971896,-740.205942,9548.656652
3965.618157,-1762.019645,-888.247130,9474.636058
3965.618472,-1685.410096,-814.226536,9844.739029
3965.618787,-1608.800546,-518.144159,9474.636058
3965.619103,-1225.752797,-222.061783,9474.636058
3965.619418,-995.924147,-0.000000,9178.553681
3965.619733,76.609550,444.123565,9178.553681
3965.620048,-306.438199,666.185348,8882.471304
3965.620363,0.000000,888.247130,8808.450710
3965.620678,76.609550,962.267725,9252.574275
3965.620993,383.047749,666.185348,9696.697840
3965.621309,306.438199,444.123565,9622.677246
3965.621624,383.047749,-0.000000,10140.821405
3965.621939,459.657299,-0.000000,10584.944971
3965.622254,995.924147,-74.020594,11029.068536
3965.622569,766.095498,-0.000000,10658.965565
3965.622884,1149.143247,222.061783,10584.944971
3965.623200,1762.019645,222.061783,10510.924376
3965.623515,1762.019645,740.205942,9548.656652
3965.623830,2374.896044,1036.288319,9474.636058
3965.624145,1991.848295,1258.350101,9770.718434
3965.624460,2068.457845,888.247130,9696.697840
3965.624775,1685.410096,814.226536,9622.677246
3965.625091,1302.362347,740.205942,9844.739029
3965.625406,1149.143247,666.185348,10955.047942
3965.625721,689.485948,-0.000000,11029.068536
3965.626036,919.314598,-148.041188,10955.047942
3965.626351,536.266849,-0.000000,10881.027347
3965.626666,536.266849,370.102971,10288.862594
3965.626981,919.314598,888.247130,10066.800811
3965.627297,536.266849,1184.329507,10214.842000
3965.627612,766.095498,1258.350101,9474.636058
3965.627927,459.657299,888.247130,9104.533087
3965.628242,383.047749,962.267725,8882.471304
3965.628557,76.609550,592.164754,9400.615463
3965.628872,-383.047749,-222.061783,9252.574275
3965.629188,-536.266849,-296.082377,9474.636058
3965.629503,-842.705048,-444.123565,9548.656652
3965.629818,-1072.533697,-814.226536,9918.759623
3965.630133,-1225.752797,-592.164754,9992.780217
3965.630448,-995.924147,-444.123565,9844.739029
3965.630763,-766.095498,-148.041188,9474.636058
3965.631079,-459.657299,-0.000000,8808.450710
3965.631394,-306.438199,296.082377,8586.388927
3965.631709,-459.657299,296.082377,8512.368333
3965.632024,-612.876398,370.102971,8586.388927
3965.632339,-612.876398,518.144159,8290.306550
3965.632654,-766.095498,444.123565,8882.471304
3965.632969,-1072.533697,-0.000000,9178.553681
3965.633285,-1225.752797,-296.082377,9178.553681
3965.633600,-1685.410096,-1036.288319,9474.636058
3965.633915,-1608.800546,-814.226536,9770.718434
3965.634230,-1685.410096,-666.185348,9696.697840
3965.634545,-1302.362347,-296.082377,9548.656652
3965.634860,-842.705048,-0.000000,9474.636058
3965.635176,-536.266849,444.123565,9104.533087
3965.635491,-306.438199,666.185348,8512.368333
3965.635806,0.000000,962.267725,8512.368333
3965.636121,76.609550,888.247130,9252.574275
3965.636436,306.438199,814.226536,9474.636058
3965.636751,76.609550,592.164754,9548.656652
3965.637067,0.000000,148.041188,10214.842000
3965.637382,536.266849,-148.041188,10214.842000
3965.637697,612.876398,-0.000000,10658.965565
3965.638012,536.266849,-74.020594,11029.068536
3965.638327,919.314598,-74.020594,10732.986159
3965.638642,1225.752797,-0.000000,10214.842000
3965.638958,1991.848295,444.123565,9844.739029
3965.639273,1762.019645,666.185348,9474.636058
3965.639588,2298.286494,962.267725,9474.636058
3965.639903,2068.457845,592.164754,9474.636058
3965.640218,1225.752797,888.247130,9844.739029
3965.640533,1608.800546,666.185348,9770.718434
3965.640848,1455.581446,148.041188,9548.656652
3965.641164,1302.362347,-222.061783,10732.986159
3965.641479,842.705048,-518.144159,11399.171507
3965.641794,612.876398,-814.226536,10584.944971
3965.642109,689.485948,-518.144159,10584.944971
3965.642424,766.095498,-222.061783,10362.883188
3965.642739,842.705048,-0.000000,9918.759623
3965.643055,1072.533697,370.102971,9474.636058
3965.643370,1302.362347,666.185348,9326.594869
3965.643685,919.314598,962.267725,9474.636058
3965.644000,536.266849,296.082377,8586.388927
3965.644315,76.609550,-0.000000,8882.471304
3965.644630,-306.438199,-444.123565,9474.636058
3965.644946,-612.876398,-740.205942,9696.697840
3965.645261,-612.876398,-962.267725,9844.739029
3965.645576,-1149.143247,-888.247130,10214.842000
3965.645891,-1149.143247,-814.226536,10288.862594
3965.646206,-766.095498,-666.185348,9770.718434
3965.646521,-536.266849,-296.082377,9400.615463
3965.646836,-229.828649,-0.000000,9400.615463
3965.647152,0.000000,518.144159,8512.368333
3965.647467,-153.219100,740.205942,8438.347739
3965.647782,-383.047749,518.144159,8512.368333
3965.648097,-536.266849,592.164754,8290.306550
3965.648412,-689.485948,296.082377,8660.409521
3965.648727,-1225.752797,222.061783,9104.533087
3965.649043,-1149.143247,-740.205942,9548.656652
3965.649358,-1302.362347,-666.185348,9400.615463
3965.649673,-1838.629195,-592.164754,9474.636058
3965.649988,-1685.410096,-518.144159,9696.697840
3965.650303,-1762.019645,-0.000000,9622.677246
3965.650618,-612.876398,370.102971,9326.594869
3965.650934,-842.705048,592.164754,9104.533087
3965.651249,-153.219100,1110.308913,8808.450710
3965.651564,-306.438199,1184.329507,8290.306550
3965.651879,-153.219100,1184.329507,8882.471304
3965.652194,-306.438199,1110.308913,9622.677246
3965.652509,-459.657299,592.164754,9770.718434
3965.652824,0.000000,592.164754,9844.739029
3965.653140,306.438199,222.061783,10214.842000
3965.653455,459.657299,-0.000000,10732.986159
3965.653770,766.095498,-74.020594,10807.006753
3965.654085,612.876398,-0.000000,10436.903782
3965.654400,1149.143247,-0.000000,10658.965565
3965.654715,1685.410096,592.164754,9770.718434
3965.655031,1838.629195,740.205942,9178.553681
3965.655346,1302.362347,740.205942,9474.636058
3965.655661,1915.238745,962.267725,9400.615463
3965.655976,2221.676944,888.247130,9770.718434
3965.656291,1685.410096,666.185348,10214.842000
3965.656606,1608.800546,444.123565,10584.944971
3965.656922,1149.143247,-74.020594,10807.006753
3965.657237,842.705048,-296.082377,10732.986159
3965.657552,689.485948,-222.061783,11103.089130
3965.657867,689.485948,-148.041188,11029.068536
3965.658182,689.485948,-74.020594,10510.924376
3965.658497,766.095498,518.144159,10140.821405
3965.658812,842.705048,740.205942,9474.636058
3965.659127,919.314598,814.226536,9252.574275
3965.659442,766.095498,888.247130,9474.636058
3965.659757,383.047749,592.164754,9104.533087
3965.660072,229.828649,-0.000000,9030.512492
3965.660387,0.000000,-0.000000,9252.574275
3965.660702,-229.828649,-296.082377,9992.780217
3965.661017,-383.047749,-962.267725,10140.821405
3965.661332,-1072.533697,-740.205942,9770.718434
3965.661647,-995.924147,-740.205942,9918.759623
3965.661962,-995.924147,-740.205942,9548.656652
3965.662278,-536.266849,-296.082377,9030.512492
3965.662593,153.219100,-222.061783,8660.409521
3965.662908,0.000000,-0.000000,8734.430116
3965.663223,-229.828649,592.164754,8290.306550
3965.663538,-153.219100,666.185348,7994.224174
3965.663853,-383.047749,222.061783,8290.306550
3965.664168,-689.485948,-0.000000,8882.471304
3965.664483,-842.705048,-296.082377,9030.512492
3965.664798,-1455.581446,-444.123565,9178.553681
3965.665113,-1302.362347,-1110.308913,9770.718434
3965.665428,-1378.971896,-888.247130,9696.697840
3965.665743,-1762.019645,-1702.473667,8956.491898
3965.666058,-995.924147,-296.082377,9548.656652
3965.666373,-766.095498,-0.000000,9252.574275
3965.666688,-536.266849,444.123565,8734.430116
3965.667003,0.000000,962.267725,8882.471304
3965.667318,153.219100,814.226536,9178.553681
3965.667633,-153.219100,592.164754,8808.450710
3965.667948,0.000000,814.226536,9030.512492
3965.668263,0.000000,444.123565,9844.739029
3965.668579,-153.219100,296.082377,10362.883188
3965.668894,689.485948,-444.123565,10510.924376
3965.669209,76.609550,-222.061783,10658.965565
3965.669524,383.047749,-0.000000,10955.047942
3965.669839,612.876398,148.041188,10658.965565
3965.670154,1072.533697,-0.000000,10362.883188
3965.670469,1608.800546,370.102971,9918.759623
3965.670784,1762.019645,1110.308913,9400.615463
3965.671099,1838.629195,1184.329507,9252.574275
3965.671414,1838.629195,962.267725,9474.636058
3965.671729,1762.019645,1036.288319,9918.759623
3965.672044,1455.581446,518.144159,9918.759623
3965.672359,766.095498,370.102971,10288.862594
3965.672674,612.876398,-222.061783,10658.965565
3965.672989,0.000000,-444.123565,10955.047942
3965.673304,919.314598,-296.082377,10584.944971
3965.673619,306.438199,-370.102971,11103.089130
3965.673934,612.876398,-0.000000,10510.924376
3965.674249,459.657299,592.164754,9696.697840
3965.674565,766.095498,962.267725,9474.636058
3965.674880,1532.190996,740.205942,9030.512492
3965.675195,766.095498,740.205942,8586.388927
3965.675510,229.828649,592.164754,9030.512492
3965.675825,76.609550,-0.000000,9474.636058
3965.676140,0.000000,-0.000000,9400.615463
3965.676455,-612.876398,-888.247130,9474.636058
3965.676770,-459.657299,-740.205942,9992.780217
3965.677085,-689.485948,-518.144159,9918.759623
3965.677400,-766.095498,-740.205942,9770.718434
3965.677715,-383.047749,-518.144159,9548.656652
3965.678030,-229.828649,-296.082377,9326.594869
3965.678345,153.219100,370.102971,8438.347739
3965.678660,153.219100,518.144159,8068.244768
3965.678975,153.219100,518.144159,8512.368333
3965.679290,0.000000,370.102971,8364.327145
3965.679605,-153.219100,296.082377,8364.327145
3965.679920,-919.314598,370.102971,8882.471304
3965.680235,-1149.143247,-148.041188,9030.512492
3965.680551,-1149.143247,-370.102971,9474.636058
3965.680866,-1302.362347,-518.144159,9474.636058
3965.681181,-1225.752797,-592.164754,10658.965565
3965.681496,-1608.800546,-296.082377,10288.862594
3965.681811,-1378.971896,222.061783,9178.553681
3965.682126,-995.924147,592.164754,9252.574275
3965.682441,-919.314598,888.247130,9178.553681
3965.682756,-229.828649,518.144159,8808.450710
3965.683071,-229.828649,888.247130,8882.471304
3965.683386,0.000000,888.247130,9104.533087
3965.683701,0.000000,814.226536,9400.615463
3965.684016,536.266849,518.144159,9474.636058
3965.684331,459.657299,-148.041188,10066.800811
3965.684646,306.438199,-0.000000,10584.944971
3965.684961,229.828649,-148.041188,10510.924376
3965.685276,459.657299,-148.041188,10362.883188
3965.685591,842.705048,-0.000000,10362.883188
3965.685906,1225.752797,-0.000000,10288.862594
3965.686221,1838.629195,370.102971,9474.636058
3965.686536,1991.848295,592.164754,9474.636058
3965.686852,1991.848295,740.205942,9326.594869
3965.687167,1685.410096,444.123565,9400.615463
3965.687482,2221.676944,296.082377,9770.718434
3965.687797,1072.533697,148.041188,9992.780217
3965.688112,842.705048,-0.000000,10436.903782
3965.688427,919.314598,-222.061783,10658.965565
3965.688742,612.876398,-740.205942,11103.089130
3965.689057,689.485948,-592.164754,10955.047942
3965.689372,689.485948,-444.123565,10658.965565
3965.689687,689.485948,-0.000000,10066.800811
3965.690002,689.485948,222.061783,9844.739029
3965.690317,1225.752797,814.226536,9622.677246
3965.690632,995.924147,666.185348,9474.636058
3965.690947,153.219100,222.061783,9104.533087
3965.691262,229.828649,518.144159,9030.512492
3965.691577,-229.828649,-0.000000,8956.491898
3965.691892,-306.438199,-296.082377,9918.759623
3965.692207,-612.876398,-592.164754,9770.718434
3965.692522,-995.924147,-814.226536,9474.636058
3965.692838,-995.924147,-962.267725,9474.636058
3965.693153,-1072.533697,-666.185348,9622.677246
3965.693468,-842.705048,-666.185348,9548.656652
3965.693783,-459.657299,-0.000000,8882.471304
3965.694098,0.000000,-0.000000,8216.285956
3965.694413,0.000000,-0.000000,7994.224174
3965.694728,0.000000,592.164754,8068.244768
3965.695043,0.000000,444.123565,8142.265362
3965.695358,-612.876398,222.061783,8660.409521
3965.695673,-1149.143247,-0.000000,8734.430116
3965.695988,-1455.581446,-74.020594,9178.553681
3965.696303,-1072.533697,-814.226536,9548.656652
3965.696618,-1608.800546,-888.247130,10066.800811
3965.696933,-1762.019645,-814.226536,9548.656652
3965.697248,-1455.581446,-222.061783,9622.677246
3965.697563,-1149.143247,-74.020594,9474.636058
3965.697878,-766.095498,518.144159,9178.553681
3965.698193,-383.047749,666.185348,9104.533087
3965.698508,0.000000,740.205942,8808.450710
3965.698823,0.000000,888.247130,8808.450710
3965.699139,229.828649,814.226536,9030.512492
3965.699454,306.438199,888.247130,9622.677246
3965.699769,536.266849,666.185348,9844.739029
3965.700084,0.000000,370.102971,9992.780217
3965.700399,536.266849,-0.000000,10584.944971
3965.700714,766.095498,-0.000000,11103.089130
3965.701029,1149.143247,-0.000000,11399.171507
3965.701344,842.705048,-0.000000,10436.903782
3965.701659,1302.362347,-0.000000,10362.883188
3965.701974,1685.410096,592.164754,9918.759623
3965.702289,2068.457845,1110.308913,9622.677246
3965.702604,1685.410096,962.267725,9918.759623
3965.702919,1838.629195,1110.308913,9474.636058
3965.703234,1532.190996,962.267725,9770.718434
3965.703549,1225.752797,962.267725,9918.759623
3965.703864,919.314598,222.061783,10732.986159
3965.704179,919.314598,-148.041188,11177.109724
3965.704494,536.266849,-370.102971,10955.047942
3965.704809,612.876398,-296.082377,10732.986159
3965.705125,459.657299,-74.020594,10510.924376
3965.705440,1149.143247,592.164754,10510.924376
3965.705755,1072.533697,740.205942,9844.739029
3965.706070,919.314598,592.164754,9400.615463
3965.706385,689.485948,888.247130,9400.615463
3965.706700,459.657299,962.267725,8808.450710
3965.707015,383.047749,518.144159,9030.512492
3965.707330,76.609550,222.061783,9326.594869
3965.707645,0.000000,-222.061783,9252.574275
3965.707960,-383.047749,-666.185348,9474.636058
3965.708275,-842.705048,-740.205942,9844.739029
3965.708590,-842.705048,-814.226536,9696.697840
3965.708905,-842.705048,-666.185348,9548.656652
3965.709220,-766.095498,-370.102971,9400.615463
3965.709535,-229.828649,-148.041188,8956.491898
3965.709850,0.000000,-0.000000,8882.471304
3965.710165,0.000000,592.164754,8364.327145
3965.710480,-229.828649,666.185348,8216.285956
3965.710795,-383.047749,518.144159,8364.327145
3965.711111,-766.095498,222.061783,8364.327145
3965.711426,-919.314598,-296.082377,9252.574275
3965.711741,-1225.752797,-222.061783,9548.656652
3965.712056,-1685.410096,-518.144159,9622.677246
3965.712371,-1685.410096,-592.164754,9622.677246
3965.712686,-1838.629195,-740.205942,9918.759623
3965.713001,-1378.971896,-518.144159,10140.821405
3965.713316,-1532.190996,-518.144159,9548.656652
3965.713631,-1225.752797,296.082377,9548.656652
3965.713946,-689.485948,740.205942,9030.512492
3965.714261,-459.657299,888.247130,8956.491898
3965.714576,0.000000,888.247130,8808.450710
3965.714891,-306.438199,592.164754,9400.615463
3965.715206,-306.438199,592.164754,9622.677246
3965.715521,0.000000,148.041188,9696.697840
3965.715836,306.438199,-74.020594,10362.883188
3965.716151,229.828649,-222.061783,10066.800811
3965.716466,306.438199,-444.123565,10584.944971
3965.716781,536.266849,-0.000000,10436.903782
3965.717096,536.266849,296.082377,10214.842000
3965.717412,1149.143247,370.102971,9992.780217
3965.717727,2068.457845,444.123565,9548.656652
3965.718042,1991.848295,592.164754,9474.636058
3965.718357,1991.848295,740.205942,9474.636058
3965.718672,1838.629195,666.185348,9326.594869
3965.718987,1915.238745,592.164754,9548.656652
3965.719302,1991.848295,444.123565,10066.800811
3965.719617,1072.533697,-0.000000,10288.862594
3965.719932,1072.533697,-74.020594,10436.903782
3965.720247,1072.533697,-296.082377,10881.027347
3965.720562,766.095498,-148.041188,10584.944971
3965.720877,842.705048,-148.041188,10510.924376
3965.721192,1149.143247,666.185348,10288.862594
3965.721507,1149.143247,740.205942,9844.739029
3965.721822,995.924147,666.185348,9178.553681
3965.722137,1149.143247,740.205942,9474.636058
3965.722452,842.705048,1036.288319,9326.594869
3965.722767,0.000000,222.061783,9104.533087
3965.723082,153.219100,-0.000000,9400.615463
3965.723398,-229.828649,-148.041188,9622.677246
3965.723713,-459.657299,-370.102971,10066.800811
3965.724028,-536.266849,-1036.288319,9844.739029
3965.724343,-1072.533697,-814.226536,9844.739029
3965.724658,-689.485948,-222.061783,9770.718434
3965.724973,-459.657299,-74.020594,9400.615463
3965.725288,-229.828649,222.061783,9030.512492
3965.725603,229.828649,296.082377,8956.491898
3965.725918,-229.828649,444.123565,8364.327145
3965.726233,0.000000,370.102971,8068.244768
3965.726548,-536.266849,444.123565,8364.327145
3965.726863,-689.485948,370.102971,8882.471304
3965.727178,-766.095498,-0.000000,9030.512492
3965.727493,-1532.190996,-370.102971,9104.533087
3965.727808,-1762.019645,-518.144159,9622.677246
3965.728123,-1762.019645,-370.102971,9548.656652
3965.728438,-1608.800546,-370.102971,9918.759623
3965.728753,-1302.362347,-0.000000,9770.718434
3965.729068,-1225.752797,-0.000000,9474.636058
3965.729383,-1149.143247,518.144159,9104.533087
3965.729699,-689.485948,1110.308913,8734.430116
3965.730014,-919.314598,1036.288319,8956.491898
3965.730329,-459.657299,814.226536,8882.471304
3965.730644,0.000000,888.247130,9178.553681
3965.730959,0.000000,518.144159,9622.677246
3965.731274,-306.438199,814.226536,9918.759623
3965.731589,0.000000,-0.000000,10140.821405
3965.731904,0.000000,-74.020594,10732.986159
3965.732219,306.438199,-148.041188,10658.965565
3965.732534,612.876398,-0.000000,10584.944971
3965.732849,536.266849,148.041188,10584.944971
3965.733164,1378.971896,592.164754,10510.924376
3965.733479,1838.629195,666.185348,9696.697840
3965.733794,2145.067394,962.267725,9400.615463
3965.734109,1915.238745,1036.288319,9548.656652
3965.734424,1838.629195,1036.288319,9622.677246
3965.734739,1225.752797,444.123565,9992.780217
3965.735054,1685.410096,518.144159,10140.821405
3965.735369,689.485948,-222.061783,10510.924376
3965.735685,612.876398,-444.123565,10436.903782
3965.736000,612.876398,-592.164754,10881.027347
3965.736315,612.876398,-962.267725,11103.089130
3965.736630,306.438199,-518.144159,10510.924376
3965.736945,689.485948,-0.000000,9770.718434
3965.737260,689.485948,444.123565,9696.697840
3965.737575,1072.533697,666.185348,9326.594869
3965.737890,766.095498,666.185348,9030.512492
3965.738205,383.047749,666.185348,8882.471304
3965.738520,459.657299,222.061783,8660.409521
3965.738835,-229.828649,-0.000000,9178.553681
3965.739150,-153.219100,-370.102971,9400.615463
3965.739465,-153.219100,-1480.411884,9474.636058
3965.739780,-383.047749,-888.247130,9622.677246
3965.740095,-842.705048,-888.247130,9770.718434
3965.740410,-842.705048,-740.205942,9696.697840
3965.740725,-459.657299,-370.102971,9252.574275
3965.741040,-383.047749,-592.164754,8882.471304
3965.741355,0.000000,-0.000000,8068.244768
3965.741671,0.000000,518.144159,8068.244768
3965.741986,76.609550,666.185348,8290.306550
3965.742301,0.000000,666.185348,8512.368333
3965.742616,-383.047749,296.082377,9030.512492
3965.742931,-536.266849,148.041188,9030.512492
3965.743246,-995.924147,-74.020594,9178.553681
3965.743561,-1149.143247,-592.164754,9474.636058
3965.743876,-842.705048,-370.102971,10066.800811
3965.744191,-1532.190996,-666.185348,9770.718434
3965.744506,-1378.971896,-0.000000,9770.718434
3965.744821,-919.314598,444.123565,9474.636058
3965.745136,-689.485948,666.185348,9326.594869
3965.745451,76.609550,740.205942,9178.553681
3965.745766,-153.219100,888.247130,9030.512492
3965.746081,0.000000,962.267725,8956.491898
3965.746396,76.609550,962.267725,9104.533087
3965.746711,229.828649,740.205942,9400.615463
3965.747026,0.000000,-0.000000,9918.759623
3965.747341,306.438199,-0.000000,10288.862594
3965.747656,153.219100,-296.082377,10362.883188
3965.747972,229.828649,-296.082377,10732.986159
3965.748287,536.266849,-0.000000,10584.944971
3965.748602,459.657299,-222.061783,10140.821405
3965.748917,1149.143247,-0.000000,10066.800811
3965.749232,1455.581446,592.164754,9696.697840
3965.749547,1838.629195,814.226536,9474.636058
3965.749862,1685.410096,888.247130,9548.656652
3965.750177,1149.143247,444.123565,9622.677246
3965.750492,1685.410096,666.185348,9474.636058
3965.750807,1225.752797,370.102971,9992.780217
3965.751122,842.705048,222.061783,10584.944971
3965.751437,383.047749,-148.041188,10584.944971
3965.751752,536.266849,-518.144159,10362.883188
3965.752067,689.485948,-296.082377,10436.903782
3965.752382,536.266849,-222.061783,10214.842000
3965.752697,612.876398,296.082377,9696.697840
3965.753012,919.314598,370.102971,9622.677246
3965.753327,919.314598,518.144159,9178.553681
3965.753642,689.485948,814.226536,8956.491898
3965.753958,459.657299,444.123565,8512.368333
3965.754273,153.219100,296.082377,9030.512492
3965.754588,153.219100,-0.000000,9622.677246
3965.754903,-536.266849,-296.082377,9326.594869
3965.755218,-536.266849,-444.123565,9622.677246
3965.755533,-612.876398,-666.185348,9992.780217
3965.755848,-689.485948,-666.185348,9918.759623
3965.756163,-995.924147,-518.144159,9474.636058
3965.756478,-459.657299,-0.000000,9104.533087
3965.756793,0.000000,222.061783,9104.533087
3965.757108,-306.438199,370.102971,8660.409521
3965.757423,0.000000,444.123565,8438.347739
3965.757738,0.000000,370.102971,8438.347739
3965.758053,-306.438199,592.164754,8290.306550
3965.758368,-536.266849,370.102971,8512.368333
3965.758683,-766.095498,-0.000000,8882.471304
3965.758998,-995.924147,-296.082377,9474.636058
3965.759313,-1378.971896,-666.185348,9696.697840
3965.759628,-1685.410096,-518.144159,9844.739029
3965.759943,-1608.800546,-592.164754,9844.739029
3965.760259,-1149.143247,-0.000000,9622.677246
3965.760574,-536.266849,222.061783,9474.636058
3965.760889,-536.266849,222.061783,8956.491898
3965.761204,76.609550,1110.308913,9178.553681
3965.761519,153.219100,1184.329507,9030.512492
3965.761834,76.609550,1184.329507,8956.491898
3965.762149,459.657299,1110.308913,9474.636058
3965.762464,306.438199,666.185348,9696.697840
3965.762779,383.047749,444.123565,9770.718434
3965.763094,306.438199,-0.000000,10214.842000
3965.763409,612.876398,-74.020594,10658.965565
3965.763724,612.876398,222.061783,11103.089130
3965.764040,536.266849,296.082377,10807.006753
3965.764355,1072.533697,444.123565,10584.944971
3965.764670,1532.190996,592.164754,9918.759623
3965.764985,1838.629195,666.185348,9548.656652
3965.765300,1608.800546,814.226536,10140.821405
3965.765615,2068.457845,814.226536,9696.697840
3965.765930,1762.019645,740.205942,9622.677246
3965.766245,1762.019645,666.185348,9918.759623
3965.766560,1302.362347,296.082377,10436.903782
3965.766875,919.314598,-222.061783,10732.986159
3965.767191,689.485948,-592.164754,10881.027347
3965.767506,612.876398,-444.123565,10955.047942
3965.767821,383.047749,-666.185348,10658.965565
3965.768136,306.438199,-0.000000,10658.965565
3965.768451,306.438199,-0.000000,9844.739029
3965.768766,536.266849,-0.000000,9326.594869
3965.769081,842.705048,518.144159,9252.574275
3965.769396,536.266849,518.144159,9104.533087
3965.769711,229.828649,222.061783,8808.450710
3965.770026,-153.219100,-444.123565,8882.471304
3965.770342,-383.047749,-370.102971,9178.553681
3965.770657,-536.266849,-592.164754,9622.677246
3965.770972,-842.705048,-740.205942,9770.718434
3965.771287,-766.095498,-1110.308913,9696.697840
3965.771602,-995.924147,-962.267725,9400.615463
3965.771917,-995.924147,-814.226536,9326.594869
3965.772232,-995.924147,-592.164754,9030.512492
3965.772547,-229.828649,-0.000000,8660.409521
3965.772862,153.219100,-0.000000,8512.368333
3965.773177,0.000000,-0.000000,7624.121203
3965.773492,-229.828649,370.102971,7994.224174
3965.773808,-306.438199,222.061783,8216.285956
3965.774123,-689.485948,370.102971,8290.306550
3965.774438,-383.047749,-222.061783,8808.450710
3965.774753,-995.924147,-74.020594,9178.553681
3965.775068,-1149.143247,-296.082377,9992.780217
3965.775383,-1225.752797,-518.144159,9474.636058
3965.775698,-1225.752797,-592.164754,9400.615463
3965.776013,-1302.362347,-444.123565,9770.718434
3965.776328,-766.095498,444.123565,9622.677246
3965.776643,-383.047749,814.226536,9474.636058
3965.776959,0.000000,962.267725,9252.574275
3965.777274,0.000000,1110.308913,9104.533087
3965.777589,153.219100,1036.288319,9326.594869
3965.777904,229.828649,962.267725,9548.656652
3965.778219,153.219100,1036.288319,9918.759623
3965.778534,0.000000,666.185348,9992.780217
3965.778849,76.609550,518.144159,10732.986159
3965.779164,459.657299,-296.082377,10732.986159
3965.779479,842.705048,-0.000000,10584.944971
3965.779794,1072.533697,296.082377,10732.986159
3965.780110,995.924147,-0.000000,10436.903782
3965.780425,1838.629195,296.082377,9918.759623
3965.780740,1915.238745,962.267725,9696.697840
3965.781055,1991.848295,666.185348,9696.697840
3965.781370,2145.067394,814.226536,9622.677246
3965.781685,1608.800546,814.226536,9918.759623
3965.782000,1838.629195,444.123565,9770.718434
3965.782315,1532.190996,-0.000000,10362.883188
3965.782630,1225.752797,-0.000000,10658.965565
3965.782945,536.266849,-666.185348,10584.944971
3965.783260,459.657299,-296.082377,10658.965565
3965.783576,689.485948,-222.061783,10732.986159
3965.783891,536.266849,-74.020594,10066.800811
3965.784206,689.485948,296.082377,9696.697840
3965.784521,995.924147,518.144159,9400.615463
3965.784836,842.705048,592.164754,9030.512492
3965.785151,842.705048,888.247130,8882.471304
3965.785466,612.876398,666.185348,8808.450710
3965.785781,0.000000,370.102971,9400.615463
3965.786096,-459.657299,-74.020594,9030.512492
3965.786411,-459.657299,-222.061783,9104.533087
3965.786727,-612.876398,-888.247130,9770.718434
3965.787042,-919.314598,-962.267725,9844.739029
3965.787357,-842.705048,-740.205942,9474.636058
3965.787672,-1225.752797,-518.144159,9326.594869
3965.787987,-919.314598,-296.082377,9030.512492
3965.788302,0.000000,222.061783,8882.471304
3965.788617,-306.438199,370.102971,8512.368333
3965.788932,-536.266849,814.226536,8068.244768
3965.789247,-306.438199,666.185348,7994.224174
3965.789562,-689.485948,518.144159,8512.368333
3965.789878,-995.924147,-74.020594,8586.388927
3965.790193,-1225.752797,-0.000000,8956.491898
3965.790508,-1455.581446,-222.061783,9252.574275
3965.790823,-1455.581446,-666.185348,9474.636058
3965.791138,-1762.019645,-666.185348,10066.800811
3965.791453,-2145.067394,-1110.308913,9844.739029
3965.791768,-1225.752797,-296.082377,9474.636058
3965.792083,-842.705048,518.144159,9474.636058
3965.792398,-612.876398,666.185348,9104.533087
3965.792713,-383.047749,592.164754,9104.533087
3965.793028,0.000000,518.144159,9326.594869
3965.793344,0.000000,740.205942,9178.553681
3965.793659,153.219100,592.164754,9474.636058
3965.793974,306.438199,518.144159,9622.677246
3965.794289,306.438199,296.082377,10584.944971
3965.794604,459.657299,-296.082377,10510.924376
3965.794919,842.705048,-148.041188,10658.965565
3965.795234,842.705048,-0.000000,10732.986159
3965.795549,842.705048,-74.020594,10436.903782
3965.795864,1455.581446,-0.000000,10510.924376
3965.796179,1685.410096,1110.308913,10214.842000
3965.796495,2068.457845,888.247130,9622.677246
3965.796810,1991.848295,888.247130,9252.574275
3965.797125,1762.019645,1036.288319,9178.553681
3965.797440,1685.410096,962.267725,10066.800811
3965.797755,1608.800546,740.205942,10066.800811
3965.798070,1302.362347,444.123565,10510.924376
3965.798385,842.705048,-74.020594,10732.986159
3965.798700,919.314598,-222.061783,10807.006753
3965.799015,842.705048,-222.061783,11103.089130
3965.799330,842.705048,-0.000000,10955.047942
3965.799646,612.876398,296.082377,10140.821405
3965.799961,766.095498,666.185348,9548.656652
3965.800276,842.705048,740.205942,9474.636058
3965.800591,842.705048,888.247130,9252.574275
3965.800906,1149.143247,666.185348,8956.491898
3965.801221,383.047749,296.082377,8734.430116
3965.801536,0.000000,-0.000000,8956.491898
3965.801851,-536.266849,-444.123565,9400.615463
3965.802166,-612.876398,-592.164754,9548.656652
3965.802481,-919.314598,-888.247130,9474.636058
3965.802796,-1225.752797,-888.247130,9696.697840
3965.803112,-1225.752797,-814.226536,9696.697840
3965.803427,-689.485948,-740.205942,9474.636058
3965.803742,-383.047749,-222.061783,9474.636058
3965.804057,-536.266849,-74.020594,8586.388927
3965.804372,0.000000,518.144159,7920.203579
3965.804687,-229.828649,518.144159,7846.182985
3965.805002,0.000000,666.185348,8660.409521
3965.805317,-536.266849,296.082377,8512.368333
3965.805632,-995.924147,296.082377,8364.327145
3965.805947,-842.705048,-222.061783,9252.574275
3965.806263,-1455.581446,-222.061783,9400.615463
3965.806578,-1532.190996,-666.185348,9696.697840
3965.806893,-1608.800546,-592.164754,9992.780217
3965.807208,-1149.143247,-518.144159,9844.739029
3965.807523,-1225.752797,-222.061783,9400.615463
3965.807838,-1149.143247,370.102971,9474.636058
3965.808153,-459.657299,814.226536,9474.636058
3965.808468,-229.828649,1110.308913,9326.594869
3965.808783,-229.828649,1258.350101,9104.533087
3965.809098,0.000000,1258.350101,9326.594869
3965.809414,153.219100,1110.308913,9548.656652
3965.809729,153.219100,814.226536,9696.697840
3965.810044,153.219100,444.123565,10288.862594
3965.810359,459.657299,222.061783,10658.965565
3965.810674,306.438199,-592.164754,10584.944971
3965.810989,306.438199,-0.000000,11029.068536
3965.811304,536.266849,148.041188,10584.944971
3965.811619,1225.752797,-0.000000,10066.800811
3965.811934,1991.848295,592.164754,10140.821405
3965.812249,1838.629195,592.164754,9622.677246
3965.812565,1991.848295,888.247130,9918.759623
3965.812880,1608.800546,814.226536,9252.574275
3965.813195,1685.410096,666.185348,9474.636058
3965.813510,1608.800546,444.123565,10066.800811
3965.813825,919.314598,-0.000000,10066.800811
3965.814140,919.314598,-444.123565,10436.903782
3965.814455,842.705048,-666.185348,10881.027347
3965.814770,842.705048,-518.144159,10658.965565
3965.815085,919.314598,-370.102971,10510.924376
3965.815400,919.314598,-0.000000,9992.780217
3965.815715,995.924147,296.082377,10066.800811
3965.816031,995.924147,370.102971,9400.615463
3965.816346,1072.533697,444.123565,8956.491898
3965.816661,766.095498,222.061783,8734.430116
3965.816976,459.657299,370.102971,8660.409521
3965.817291,536.266849,-0.000000,9030.512492
3965.817606,0.000000,-296.082377,9030.512492
3965.817921,-536.266849,-666.185348,9474.636058
3965.818236,-612.876398,-962.267725,9548.656652
3965.818551,-766.095498,-888.247130,9548.656652
3965.818866,-1225.752797,-888.247130,9918.759623
3965.819182,-766.095498,-370.102971,9696.697840
3965.819497,-536.266849,-74.020594,9178.553681
3965.819812,0.000000,-0.000000,8512.368333
3965.820127,0.000000,592.164754,8512.368333
3965.820442,0.000000,666.185348,8364.327145
3965.820757,-459.657299,814.226536,8438.347739
3965.821072,-842.705048,592.164754,8586.388927
3965.821387,-1149.143247,-0.000000,9178.553681
3965.821702,-1225.752797,296.082377,9252.574275
3965.822017,-1685.410096,-444.123565,9252.574275
3965.822333,-1838.629195,-740.205942,9622.677246
3965.822648,-2221.676944,-814.226536,9696.697840
3965.822963,-1762.019645,-592.164754,9474.636058
3965.823278,-1378.971896,-518.144159,9770.718434
3965.823593,-1302.362347,296.082377,9400.615463
3965.823908,-689.485948,888.247130,8808.450710
3965.824223,-536.266849,1258.350101,9326.594869
3965.824538,-766.095498,1110.308913,9104.533087
3965.824853,0.000000,962.267725,9400.615463
3965.825168,76.609550,888.247130,9622.677246
3965.825483,153.219100,740.205942,9992.780217
3965.825799,76.609550,444.123565,10436.903782
3965.826114,306.438199,-148.041188,10510.924376
3965.826429,612.876398,74.020594,11251.130318
3965.826744,689.485948,74.020594,10881.027347
3965.827059,919.314598,148.041188,10362.883188
3965.827374,1378.971896,-0.000000,10288.862594
3965.827689,1685.410096,814.226536,9770.718434
3965.828004,2145.067394,1036.288319,9622.677246
3965.828319,1991.848295,962.267725,9770.718434
3965.828634,2068.457845,1036.288319,9474.636058
3965.828950,1762.019645,666.185348,9622.677246
3965.829265,1455.581446,296.082377,9992.780217
3965.829580,1072.533697,-0.000000,10658.965565
3965.829895,919.314598,-148.041188,10955.047942
3965.830210,689.485948,-592.164754,11325.150913
3965.830525,459.657299,-444.123565,10881.027347
3965.830840,842.705048,-0.000000,10584.944971
3965.831155,842.705048,222.061783,10066.800811
3965.831470,1149.143247,444.123565,9992.780217
3965.831785,995.924147,814.226536,9474.636058
3965.832101,1225.752797,740.205942,8956.491898
3965.832416,689.485948,888.247130,8956.491898
3965.832731,459.657299,592.164754,8882.471304
3965.833046,0.000000,-74.020594,9030.512492
3965.833361,-229.828649,-370.102971,9030.512492
3965.833676,-766.095498,-962.267725,9622.677246
3965.833991,-612.876398,-1184.329507,9770.718434
3965.834306,-842.705048,-962.267725,9696.697840
3965.834621,-1072.533697,-740.205942,9326.594869
3965.834936,-536.266849,-444.123565,9326.594869
3965.835251,-306.438199,-222.061783,8660.409521
3965.835567,0.000000,-0.000000,8512.368333
3965.835882,0.000000,296.082377,8586.388927
3965.836197,0.000000,518.144159,7772.162391
3965.836512,-153.219100,666.185348,8364.327145
3965.836827,-459.657299,518.144159,8364.327145
3965.837142,-842.705048,-148.041188,8956.491898
3965.837457,-1302.362347,-592.164754,9252.574275
3965.837772,-1608.800546,-518.144159,9252.574275
3965.838087,-1762.019645,-888.247130,9548.656652
3965.838402,-1685.410096,-740.205942,9918.759623
3965.838718,-1532.190996,-814.226536,9622.677246
3965.839033,-1532.190996,-296.082377,9696.697840
3965.839348,-766.095498,-0.000000,9252.574275
3965.839663,-306.438199,666.185348,9030.512492
3965.839978,-383.047749,962.267725,8808.450710
3965.840293,76.609550,888.247130,9474.636058
3965.840608,0.000000,1110.308913,9400.615463
3965.840923,-306.438199,666.185348,9548.656652
3965.841238,-153.219100,518.144159,10066.800811
3965.841553,229.828649,-0.000000,10584.944971
3965.841869,0.000000,-0.000000,10584.944971
3965.842184,383.047749,-0.000000,10881.027347
3965.842499,536.266849,-0.000000,10955.047942
3965.842814,919.314598,-0.000000,10807.006753
3965.843129,1072.533697,592.164754,10288.862594
3965.843444,1608.800546,592.164754,10066.800811
3965.843759,1762.019645,666.185348,9844.739029
3965.844074,1915.238745,518.144159,9622.677246
3965.844389,1685.410096,814.226536,9252.574275
3965.844704,1915.238745,518.144159,9770.718434
3965.845019,1532.190996,444.123565,10362.883188
3965.845335,1302.362347,-0.000000,10140.821405
3965.845650,689.485948,-0.000000,10732.986159
3965.845965,612.876398,-592.164754,10955.047942
3965.846280,383.047749,-592.164754,10807.006753
3965.846595,536.266849,-518.144159,10584.944971
3965.846910,919.314598,222.061783,10140.821405
3965.847225,842.705048,518.144159,9696.697840
3965.847540,1072.533697,888.247130,9178.553681
3965.847855,919.314598,740.205942,9252.574275
3965.848170,459.657299,518.144159,8956.491898
3965.848486,76.609550,-148.041188,8734.430116
3965.848801,229.828649,-0.000000,8734.430116
3965.849116,-153.219100,-74.020594,9178.553681
3965.849431,-459.657299,-814.226536,9474.636058
3965.849746,-766.095498,-814.226536,9770.718434
3965.850061,-842.705048,-1332.370696,9844.739029
3965.850376,-766.095498,-592.164754,9474.636058
3965.850691,-459.657299,-370.102971,9400.615463
3965.851006,-383.047749,-0.000000,9400.615463
3965.851321,306.438199,296.082377,8290.306550
3965.851637,0.000000,814.226536,8216.285956
3965.851952,-76.609550,592.164754,8438.347739
3965.852267,-306.438199,814.226536,8586.388927
3965.852582,-919.314598,518.144159,8586.388927
3965.852897,-1072.533697,222.061783,8808.450710
3965.853212,-1225.752797,-0.000000,9400.615463
3965.853527,-1608.800546,-296.082377,9548.656652
3965.853842,-1762.019645,-444.123565,9918.759623
3965.854157,-1685.410096,-444.123565,9844.739029
3965.854472,-1302.362347,-296.082377,9770.718434
3965.854787,-919.314598,370.102971,9770.718434
3965.855103,-459.657299,740.205942,9252.574275
3965.855418,-306.438199,666.185348,9104.533087
3965.855733,-229.828649,1184.329507,9252.574275
3965.856048,0.000000,1332.370696,8734.430116
3965.856363,-229.828649,1036.288319,9030.512492
3965.856678,0.000000,1184.329507,9622.677246
3965.856993,153.219100,592.164754,9992.780217
3965.857308,229.828649,370.102971,10510.924376
3965.857623,842.705048,-0.000000,10436.903782
3965.857938,459.657299,-222.061783,10658.965565
3965.858254,766.095498,-0.000000,10807.006753
3965.858569,919.314598,-0.000000,10807.006753
3965.858884,1455.581446,518.144159,10140.821405
3965.859199,1762.019645,814.226536,9548.656652
3965.859514,1762.019645,962.267725,9622.677246
3965.859829,2068.457845,962.267725,9548.656652
3965.860144,1838.629195,962.267725,9696.697840
3965.860459,1762.019645,666.185348,9918.759623
3965.860774,995.924147,370.102971,10362.883188
3965.861089,995.924147,-0.000000,10584.944971
3965.861404,612.876398,-74.020594,10955.047942
3965.861719,766.095498,-740.205942,11177.109724
3965.862034,536.266849,-592.164754,10881.027347
3965.862349,612.876398,-296.082377,10510.924376
3965.862664,689.485948,-0.000000,9844.739029
3965.862979,612.876398,444.123565,9622.677246
3965.863295,919.314598,592.164754,9252.574275
3965.863610,919.314598,444.123565,8660.409521
3965.863925,612.876398,666.185348,8808.450710
3965.864240,0.000000,-222.061783,9030.512492
3965.864555,76.609550,-0.000000,8956.491898
3965.864870,-383.047749,-592.164754,9326.594869
3965.865185,-689.485948,-888.247130,9474.636058
3965.865500,-766.095498,-1036.288319,9548.656652
3965.865815,-766.095498,-962.267725,9622.677246
3965.866130,-536.266849,-888.247130,9400.615463
3965.866445,-306.438199,-518.144159,9104.533087
3965.866760,-306.438199,-370.102971,8512.368333
3965.867075,76.609550,-0.000000,8438.347739
3965.867390,-153.219100,296.082377,8438.347739
3965.867705,-229.828649,-0.000000,7772.162391
3965.868020,-229.828649,296.082377,8068.244768
3965.868335,-459.657299,148.041188,8438.347739
3965.868650,-306.438199,-0.000000,8512.368333
3965.868966,-1149.143247,-296.082377,9104.533087
3965.869281,-1072.533697,-666.185348,9474.636058
3965.869596,-1302.362347,-888.247130,9548.656652
3965.869911,-1532.190996,-814.226536,9474.636058
3965.870226,-1072.533697,-444.123565,9326.594869
3965.870541,-995.924147,-148.041188,9400.615463
3965.870856,-689.485948,296.082377,9178.553681
3965.871171,-612.876398,666.185348,9400.615463
3965.871486,-383.047749,592.164754,9326.594869
3965.871801,-306.438199,888.247130,9030.512492
3965.872116,0.000000,1036.288319,9474.636058
3965.872431,0.000000,740.205942,9548.656652
3965.872746,-76.609550,666.185348,10214.842000
3965.873061,0.000000,518.144159,10584.944971
3965.873376,153.219100,444.123565,10881.027347
3965.873691,612.876398,148.041188,11103.089130
3965.874006,995.924147,-0.000000,10807.006753
3965.874321,842.705048,518.144159,10510.924376
3965.874637,1072.533697,592.164754,10214.842000
3965.874952,1455.581446,518.144159,9844.739029
3965.875267,1762.019645,1036.288319,9622.677246
3965.875582,1378.971896,962.267725,9622.677246
3965.875897,1302.362347,740.205942,9696.697840
3965.876212,1378.971896,666.185348,10066.800811
3965.876527,1378.971896,592.164754,9992.780217
3965.876842,919.314598,222.061783,10807.006753
3965.877157,842.705048,-0.000000,10955.047942
3965.877472,536.266849,-296.082377,10881.027347
3965.877787,612.876398,-0.000000,10732.986159
3965.878102,612.876398,222.061783,10362.883188
3965.878417,842.705048,666.185348,9918.759623
3965.878732,1072.533697,814.226536,9548.656652
3965.879047,1149.143247,888.247130,9178.553681
3965.879362,919.314598,666.185348,8956.491898
3965.879677,995.924147,666.185348,8734.430116
3965.879992,459.657299,-0.000000,8956.491898
3965.880308,0.000000,-148.041188,9104.533087
3965.880623,-536.266849,-444.123565,9474.636058
3965.880938,0.000000,-666.185348,9326.594869
3965.881253,-536.266849,-814.226536,9770.718434
3965.881568,-459.657299,-370.102971,9770.718434
3965.881883,-612.876398,-592.164754,9326.594869
3965.882198,-229.828649,-148.041188,9326.594869
3965.882513,306.438199,222.061783,8512.368333
3965.882828,76.609550,518.144159,8438.347739
3965.883143,229.828649,740.205942,7772.162391
3965.883458,0.000000,592.164754,8290.306550
3965.883773,-229.828649,592.164754,8438.347739
3965.884088,-766.095498,370.102971,8734.430116
3965.884403,-1149.143247,-148.041188,8956.491898
3965.884718,-1378.971896,-444.123565,9474.636058
3965.885033,-1762.019645,-518.144159,10066.800811
3965.885348,-1455.581446,-666.185348,9770.718434
3965.885664,-1532.190996,-1184.329507,9252.574275
3965.885979,-1302.362347,-148.041188,9696.697840
3965.886294,-1072.533697,-0.000000,9474.636058
3965.886609,-689.485948,592.164754,9326.594869
3965.886924,-536.266849,1036.288319,9104.533087
3965.887239,-306.438199,1036.288319,8808.450710
3965.887554,0.000000,814.226536,8956.491898
3965.887869,0.000000,888.247130,9400.615463
3965.888184,0.000000,666.185348,9548.656652
3965.888499,-229.828649,444.123565,10140.821405
3965.888814,0.000000,-74.020594,10288.862594
3965.889129,76.609550,-148.041188,11029.068536
3965.889444,383.047749,-148.041188,11103.089130
3965.889759,612.876398,-0.000000,10584.944971
3965.890074,1225.752797,222.061783,10436.903782
3965.890389,1302.362347,-0.000000,9918.759623
3965.890704,1685.410096,814.226536,9918.759623
3965.891019,1608.800546,740.205942,9770.718434
3965.891335,1608.800546,666.185348,9326.594869
3965.891650,1302.362347,814.226536,9474.636058
3965.891965,1532.190996,592.164754,9696.697840
3965.892280,1149.143247,592.164754,10436.903782
3965.892595,1149.143247,-74.020594,10732.986159
3965.892910,766.095498,-814.226536,10658.965565
3965.893225,459.657299,-1036.288319,11029.068536
3965.893540,536.266849,-518.144159,10658.965565
3965.893855,689.485948,-222.061783,10288.862594
3965.894170,842.705048,148.041188,9992.780217
3965.894485,919.314598,148.041188,9622.677246
3965.894800,919.314598,444.123565,8882.471304
3965.895115,842.705048,888.247130,8734.430116
3965.895430,536.266849,740.205942,8882.471304
3965.895745,76.609550,370.102971,9400.615463
3965.896060,0.000000,-0.000000,9030.512492
3965.896375,-536.266849,-592.164754,9696.697840
3965.896690,-842.705048,-814.226536,9770.718434
3965.897006,-766.095498,-814.226536,9844.739029
3965.897321,-842.705048,-814.226536,9992.780217
3965.897636,-612.876398,-666.185348,9622.677246
3965.897951,-153.219100,-444.123565,9178.553681
3965.898266,76.609550,-0.000000,8586.388927
3965.898581,0.000000,222.061783,8290.306550
3965.898896,459.657299,666.185348,8068.244768
3965.899211,76.609550,592.164754,8068.244768
3965.899526,0.000000,666.185348,8364.327145
3965.899841,-306.438199,444.123565,8586.388927
3965.900156,-842.705048,-74.020594,8956.491898
3965.900471,-842.705048,-444.123565,9326.594869
3965.900786,-1149.143247,-518.144159,9474.636058
3965.901101,-1149.143247,-370.102971,9474.636058
3965.901416,-1302.362347,-814.226536,9918.759623
3965.901731,-1378.971896,-370.102971,9918.759623
3965.902046,-766.095498,-296.082377,9696.697840
3965.902361,-689.485948,518.144159,8882.471304
3965.902677,-306.438199,1184.329507,9400.615463
3965.902992,0.000000,1332.370696,9474.636058
3965.903307,0.000000,1110.308913,9252.574275
3965.903622,0.000000,1036.288319,9622.677246
3965.903937,383.047749,1184.329507,9474.636058
3965.904252,459.657299,962.267725,10288.862594
3965.904567,153.219100,444.123565,10584.944971
3965.904882,459.657299,222.061783,11029.068536
3965.905197,306.438199,-0.000000,11103.089130
3965.905512,383.047749,518.144159,10807.006753
3965.905827,689.485948,518.144159,10510.924376
3965.906142,1378.971896,592.164754,10288.862594
3965.906457,1455.581446,1036.288319,10140.821405
3965.906772,1532.190996,888.247130,9622.677246
3965.907087,1302.362347,1258.350101,9696.697840
3965.907402,1608.800546,1110.308913,9918.759623
3965.907717,1225.752797,592.164754,10214.842000
3965.908032,995.924147,370.102971,10362.883188
3965.908348,153.219100,-74.020594,10732.986159
3965.908663,459.657299,-370.102971,10658.965565
3965.908978,383.047749,-592.164754,10658.965565
3965.909293,229.828649,-370.102971,10955.047942
3965.909608,383.047749,-74.020594,10214.842000
3965.909923,689.485948,-0.000000,9474.636058
3965.910238,612.876398,444.123565,9252.574275
3965.910553,766.095498,592.164754,9178.553681
3965.910868,612.876398,370.102971,8586.388927
3965.911183,383.047749,296.082377,9030.512492
3965.911498,0.000000,-370.102971,8956.491898
3965.911813,0.000000,-148.041188,9252.574275
3965.912128,-919.314598,-962.267725,9474.636058
3965.912443,-612.876398,-1184.329507,9844.739029
3965.912758,-383.047749,-888.247130,9696.697840
3965.913073,-766.095498,-814.226536,9622.677246
3965.913388,-612.876398,-814.226536,9400.615463
3965.913703,-383.047749,-296.082377,9252.574275
3965.914019,0.000000,-74.020594,8808.450710
3965.914334,383.047749,-74.020594,8068.244768
3965.914649,0.000000,444.123565,8290.306550
3965.914964,0.000000,444.123565,8216.285956
3965.915279,-229.828649,-0.000000,8290.306550
3965.915594,-536.266849,-0.000000,8734.430116
3965.915909,-919.314598,-444.123565,9252.574275
3965.916224,-1302.362347,-296.082377,9178.553681
3965.916539,-1532.190996,-666.185348,9474.636058
3965.916854,-1302.362347,-666.185348,9992.780217
3965.917169,-1378.971896,-518.144159,9770.718434
3965.917484,-995.924147,-222.061783,9326.594869
3965.917799,-995.924147,-0.000000,9104.533087
3965.918114,-536.266849,444.123565,9252.574275
3965.918429,-153.219100,962.267725,9030.512492
3965.918744,0.000000,1110.308913,9030.512492
3965.919059,153.219100,-0.000000,9326.594869
3965.919374,229.828649,962.267725,9400.615463
3965.919690,76.609550,740.205942,9770.718434
3965.920005,153.219100,296.082377,10140.821405
3965.920320,306.438199,-0.000000,10658.965565
3965.920635,612.876398,-666.185348,10807.006753
3965.920950,612.876398,-0.000000,10807.006753
3965.921265,459.657299,148.041188,10732.986159
3965.921580,1225.752797,296.082377,10288.862594
3965.921895,1608.800546,592.164754,9844.739029
3965.922210,1762.019645,666.185348,9474.636058
3965.922525,2068.457845,1036.288319,9696.697840
3965.922840,1685.410096,1258.350101,9326.594869
3965.923155,1685.410096,814.226536,9844.739029
3965.923470,2068.457845,888.247130,10510.924376
3965.923785,995.924147,518.144159,10584.944971
3965.924100,919.314598,-0.000000,10658.965565
3965.924415,766.095498,-0.000000,11029.068536
3965.924730,689.485948,-148.041188,11325.150913
3965.925045,536.266849,-0.000000,10584.944971
3965.925361,383.047749,148.041188,9844.739029
3965.925676,459.657299,518.144159,10066.800811
3965.925991,919.314598,740.205942,9548.656652
3965.926306,689.485948,740.205942,9178.553681
3965.926621,459.657299,888.247130,9030.512492
3965.926936,0.000000,444.123565,8882.471304
3965.927251,0.000000,518.144159,8882.471304
3965.927566,-229.828649,-0.000000,9252.574275
3965.927881,-689.485948,-370.102971,9770.718434
3965.928196,-536.266849,-592.164754,9548.656652
3965.928511,-842.705048,-740.205942,9474.636058
3965.928826,-919.314598,-444.123565,9696.697840
3965.929141,-766.095498,-444.123565,9770.718434
3965.929456,-689.485948,-222.061783,9178.553681
3965.929771,0.000000,-0.000000,8660.409521
3965.930086,-76.609550,222.061783,8142.265362
3965.930401,-306.438199,296.082377,8216.285956
3965.930716,0.000000,740.205942,8438.347739
3965.931032,-229.828649,592.164754,8586.388927
3965.931347,-536.266849,444.123565,8216.285956
3965.931662,-995.924147,-0.000000,8808.450710
3965.931977,-1149.143247,-222.061783,9178.553681
3965.932292,-1302.362347,-814.226536,9622.677246
3965.932607,-1225.752797,-740.205942,9770.718434
3965.932922,-919.314598,-888.247130,9474.636058
3965.933237,-842.705048,-74.020594,9918.759623
3965.933552,-612.876398,518.144159,9030.512492
3965.933867,-459.657299,370.102971,9252.574275
3965.934182,-153.219100,962.267725,9326.594869
3965.934497,0.000000,962.267725,8956.491898
3965.934812,153.219100,814.226536,9252.574275
3965.935127,229.828649,888.247130,9474.636058
3965.935442,383.047749,592.164754,9844.739029
3965.935757,919.314598,148.041188,9992.780217
3965.936072,459.657299,296.082377,10436.903782
3965.936388,536.266849,-0.000000,11029.068536
3965.936703,689.485948,-0.000000,10658.965565
3965.937018,612.876398,-0.000000,10732.986159
3965.937333,1378.971896,-0.000000,10510.924376
3965.937648,1608.800546,148.041188,9696.697840
3965.937963,1838.629195,666.185348,9548.656652
3965.938278,1608.800546,888.247130,9770.718434
3965.938593,1532.190996,888.247130,9770.718434
3965.938908,1762.019645,592.164754,9474.636058
3965.939223,1455.581446,444.123565,9844.739029
3965.939538,766.095498,148.041188,10732.986159
3965.939853,689.485948,-222.061783,10881.027347
3965.940168,766.095498,-592.164754,11177.109724
3965.940483,536.266849,-814.226536,10807.006753
3965.940798,536.266849,-296.082377,10658.965565
3965.941113,306.438199,-148.041188,9918.759623
3965.941428,459.657299,222.061783,9770.718434
3965.941743,689.485948,444.123565,9918.759623
3965.942059,612.876398,296.082377,9104.533087
3965.942374,536.266849,370.102971,8438.347739
3965.942689,229.828649,518.144159,8660.409521
3965.943004,76.609550,-0.000000,8808.450710
3965.943319,-306.438199,-592.164754,8956.491898
3965.943634,-612.876398,-888.247130,9326.594869
3965.943949,-766.095498,-1036.288319,9844.739029
3965.944264,-995.924147,-888.247130,9474.636058
3965.944579,-919.314598,-1036.288319,9474.636058
3965.944894,-766.095498,-740.205942,9696.697840
3965.945209,-536.266849,-74.020594,8882.471304
3965.945524,0.000000,-0.000000,8808.450710
3965.945839,0.000000,370.102971,8438.347739
3965.946154,536.266849,814.226536,8142.265362
3965.946469,-153.219100,666.185348,7772.162391
3965.946784,-383.047749,444.123565,7994.224174
3965.947099,-612.876398,222.061783,8808.450710
3965.947414,-919.314598,-0.000000,9326.594869
3965.947730,-1072.533697,-74.020594,9548.656652
3965.948045,-1302.362347,-888.247130,9696.697840
3965.948360,-1532.190996,-518.144159,10066.800811
3965.948675,-1149.143247,-370.102971,9770.718434
3965.948990,-1532.190996,-74.020594,9918.759623
3965.949305,-1378.971896,222.061783,9770.718434
3965.949620,-766.095498,740.205942,9104.533087
3965.949935,-306.438199,962.267725,8808.450710
3965.950250,0.000000,1332.370696,8882.471304
3965.950565,0.000000,1036.288319,9252.574275
3965.950880,153.219100,962.267725,9474.636058
3965.951195,0.000000,518.144159,9844.739029
3965.951510,-76.609550,444.123565,10436.903782
3965.951825,153.219100,148.041188,10288.862594
3965.952140,306.438199,-0.000000,10732.986159
3965.952455,459.657299,-0.000000,11325.150913
3965.952770,689.485948,222.061783,10510.924376
3965.953085,995.924147,444.123565,10140.821405
3965.953401,1532.190996,740.205942,9844.739029
3965.953716,2068.457845,1036.288319,9844.739029
3965.954031,1915.238745,1184.329507,9622.677246
3965.954346,1685.410096,1258.350101,9548.656652
3965.954661,1838.629195,814.226536,10214.842000
3965.954976,1608.800546,666.185348,10066.800811
3965.955291,1455.581446,148.041188,9992.780217
3965.955606,536.266849,-222.061783,10881.027347
3965.955921,689.485948,-148.041188,10881.027347
3965.956236,536.266849,-370.102971,10732.986159
3965.956551,612.876398,-148.041188,11029.068536
3965.956866,842.705048,222.061783,10436.903782
3965.957181,842.705048,370.102971,9622.677246
3965.957496,919.314598,740.205942,9178.553681
3965.957811,1072.533697,814.226536,9252.574275
3965.958126,842.705048,666.185348,8956.491898
3965.958441,76.609550,148.041188,9252.574275
3965.958756,153.219100,-148.041188,9252.574275
3965.959072,-229.828649,-370.102971,9474.636058
3965.959387,-459.657299,-592.164754,9696.697840
3965.959702,-689.485948,-740.205942,9918.759623
3965.960017,-536.266849,-1110.308913,9770.718434
3965.960332,-689.485948,-518.144159,9474.636058
3965.960647,-689.485948,-444.123565,9252.574275
3965.960962,-383.047749,-444.123565,8956.491898
3965.961277,-229.828649,-0.000000,8734.430116
3965.961591,0.000000,222.061783,8290.306550
3965.961906,0.000000,296.082377,8068.244768
3965.962221,-306.438199,-0.000000,8068.244768
3965.962536,-612.876398,296.082377,8068.244768
3965.962851,-842.705048,-0.000000,8290.306550
3965.963166,-1302.362347,-148.041188,9474.636058
3965.963481,-1378.971896,-518.144159,9474.636058
3965.963796,-1532.190996,-740.205942,9474.636058
3965.964111,-1685.410096,-592.164754,9770.718434
3965.964426,-1608.800546,-592.164754,9622.677246
3965.964741,-1532.190996,-740.205942,9622.677246
3965.965056,-919.314598,222.061783,8956.491898
3965.965371,-842.705048,222.061783,9474.636058
3965.965686,-383.047749,888.247130,9104.533087
3965.966001,-383.047749,814.226536,8734.430116
3965.966316,0.000000,740.205942,9326.594869
3965.966631,-229.828649,666.185348,9474.636058
3965.966946,76.609550,222.061783,9918.759623
3965.967261,306.438199,148.041188,10140.821405
3965.967576,306.438199,-74.020594,10732.986159
3965.967891,0.000000,-148.041188,10807.006753
3965.968206,383.047749,-0.000000,10807.006753
3965.968521,842.705048,222.061783,10881.027347
3965.968836,1302.362347,222.061783,10658.965565
3965.969151,1608.800546,296.082377,10140.821405
3965.969466,1915.238745,666.185348,9548.656652
3965.969781,1685.410096,814.226536,9696.697840
3965.970096,1455.581446,1036.288319,9548.656652
3965.970411,1762.019645,814.226536,10066.800811
3965.970726,1302.362347,592.164754,10510.924376
3965.971041,1225.752797,-0.000000,10288.862594
3965.971356,766.095498,-0.000000,10732.986159
3965.971671,766.095498,-296.082377,10955.047942
3965.971986,459.657299,-74.020594,10881.027347
3965.972301,689.485948,-296.082377,10807.006753
3965.972616,766.095498,-0.000000,10140.821405
3965.972931,842.705048,296.082377,9622.677246
3965.973246,766.095498,592.164754,9030.512492
3965.973561,1072.533697,666.185348,8956.491898
3965.973875,842.705048,666.185348,9104.533087
3965.974190,612.876398,444.123565,9252.574275
3965.974505,76.609550,-0.000000,9178.553681
3965.974820,-459.657299,-296.082377,9548.656652
3965.975135,0.000000,-370.102971,9696.697840
3965.975450,-383.047749,-814.226536,9844.739029
3965.975765,-612.876398,-962.267725,9474.636058
3965.976080,-689.485948,-740.205942,9474.636058
3965.976395,-612.876398,-222.061783,9400.615463
3965.976710,0.000000,-0.000000,9030.512492
3965.977025,-229.828649,-0.000000,9030.512492
3965.977340,0.000000,222.061783,8438.347739
3965.977655,0.000000,296.082377,8142.265362
3965.977970,-229.828649,666.185348,8216.285956
3965.978285,76.609550,518.144159,8586.388927
3965.978600,-766.095498,-0.000000,8808.450710
3965.978915,-995.924147,-0.000000,9104.533087
3965.979230,-1378.971896,-370.102971,9474.636058
3965.979545,-1455.581446,-444.123565,9918.759623
3965.979860,-1302.362347,-518.144159,10288.862594
3965.980175,-1149.143247,-0.000000,9918.759623
3965.980490,-919.314598,-0.000000,9474.636058
3965.980805,-919.314598,814.226536,9400.615463
3965.981120,-919.314598,740.205942,9252.574275
3965.981435,459.657299,370.102971,9178.553681
3965.981750,-383.047749,962.267725,9474.636058
3965.982065,-229.828649,1184.329507,9326.594869
3965.982380,-306.438199,1036.288319,9474.636058
3965.982695,0.000000,740.205942,9992.780217
3965.983010,0.000000,-0.000000,10510.924376
3965.983325,0.000000,-0.000000,10732.986159
3965.983640,76.609550,-0.000000,10881.027347
3965.983955,766.095498,-0.000000,10807.006753
3965.984270,842.705048,-0.000000,10584.944971
3965.984585,1149.143247,-0.000000,10436.903782
3965.984900,1532.190996,296.082377,9844.739029
3965.985215,1608.800546,740.205942,9548.656652
3965.985530,1685.410096,740.205942,9474.636058
3965.985845,2145.067394,962.267725,9548.656652
3965.986159,1532.190996,592.164754,9696.697840
3965.986474,1608.800546,518.144159,9918.759623
3965.986789,1072.533697,-222.061783,10140.821405
3965.987104,842.705048,-370.102971,10658.965565
3965.987419,919.314598,-888.247130,11251.130318
3965.987734,689.485948,-592.164754,10732.986159
3965.988049,766.095498,-444.123565,10510.924376
3965.988364,842.705048,-0.000000,9770.718434
3965.988679,995.924147,518.144159,9622.677246
3965.988994,1302.362347,666.185348,9326.594869
3965.989309,995.924147,666.185348,8882.471304
3965.989624,1225.752797,814.226536,8438.347739
3965.989939,383.047749,222.061783,8882.471304
3965.990254,0.000000,-74.020594,9252.574275
3965.990569,0.000000,-370.102971,9474.636058
3965.990884,-536.266849,-740.205942,9400.615463
3965.991199,-612.876398,-1036.288319,9844.739029
3965.991514,-1072.533697,-962.267725,10066.800811
3965.991829,-766.095498,-888.247130,9844.739029
3965.992144,-612.876398,-518.144159,9622.677246
3965.992459,-229.828649,-222.061783,8956.491898
3965.992774,0.000000,370.102971,8512.368333
3965.993089,0.000000,296.082377,7772.162391
3965.993404,-459.657299,814.226536,7920.203579
3965.993719,-306.438199,592.164754,8216.285956
3965.994034,-842.705048,222.061783,8290.306550
3965.994349,-1149.143247,-0.000000,8512.368333
3965.994664,-1225.752797,-222.061783,9326.594869
3965.994979,-1302.362347,-444.123565,9696.697840
3965.995294,-1762.019645,-888.247130,9474.636058
3965.995609,-1762.019645,-814.226536,9918.759623
3965.995924,-1532.190996,-296.082377,9696.697840
3965.996239,-1149.143247,-0.000000,9178.553681
3965.996554,-459.657299,592.164754,9104.533087
3965.996869,-306.438199,888.247130,9326.594869
3965.997184,0.000000,1036.288319,8660.409521
3965.997499,0.000000,1258.350101,8882.471304
3965.997814,229.828649,1184.329507,9178.553681
3965.998129,0.000000,888.247130,9622.677246
3965.998443,0.000000,444.123565,9992.780217
3965.998758,76.609550,222.061783,10362.883188
3965.999073,76.609550,148.041188,10658.965565
3965.999388,383.047749,-0.000000,10955.047942
3965.999703,919.314598,-0.000000,11251.130318
3966.000018,919.314598,222.061783,10584.944971
3966.000333,1072.533697,592.164754,10288.862594
3966.000648,1685.410096,740.205942,9770.718434
3966.000963,1838.629195,1110.308913,9918.759623
3966.001278,1915.238745,1184.329507,9844.739029
3966.001593,1685.410096,1332.370696,9548.656652
3966.001908,1455.581446,962.267725,9918.759623
3966.002223,995.924147,740.205942,10288.862594
3966.002538,459.657299,-0.000000,10807.006753
3966.002853,383.047749,-296.082377,10658.965565
3966.003168,383.047749,-296.082377,11103.089130
3966.003483,383.047749,-0.000000,10955.047942
3966.003798,153.219100,-74.020594,10362.883188
3966.004113,536.266849,148.041188,10214.842000
3966.004428,766.095498,444.123565,9622.677246
3966.004743,689.485948,666.185348,9326.594869
3966.005058,919.314598,814.226536,8882.471304
3966.005373,536.266849,592.164754,8808.450710
3966.005688,383.047749,148.041188,9326.594869
3966.006003,0.000000,-222.061783,8808.450710
3966.006318,-766.095498,-888.247130,9104.533087
3966.006633,-536.266849,-666.185348,9474.636058
3966.006948,-689.485948,-1036.288319,9474.636058
3966.007263,-995.924147,-1036.288319,9844.739029
3966.007578,-689.485948,-888.247130,9696.697840
3966.007893,-306.438199,-444.123565,9252.574275
3966.008208,0.000000,-222.061783,8660.409521
3966.008523,383.047749,-0.000000,8364.327145
3966.008838,0.000000,518.144159,8142.265362
3966.009153,229.828649,592.164754,8068.244768
3966.009468,0.000000,444.123565,7994.224174
3966.009783,-536.266849,222.061783,8142.265362
3966.010098,-536.266849,-148.041188,8512.368333
3966.010413,-1378.971896,-592.164754,8956.491898
3966.010727,-1225.752797,-740.205942,9770.718434
3966.011042,-1455.581446,-962.267725,9992.780217
3966.011357,-1455.581446,-666.185348,9474.636058
3966.011672,-1072.533697,-370.102971,9770.718434
3966.011987,-1149.143247,-0.000000,9770.718434
3966.012302,-1072.533697,518.144159,9400.615463
3966.012617,-383.047749,888.247130,9252.574275
3966.012932,0.000000,1258.350101,9104.533087
3966.013247,0.000000,1110.308913,9326.594869
3966.013562,0.000000,888.247130,9252.574275
3966.013877,306.438199,888.247130,9622.677246
3966.014192,76.609550,518.144159,10436.903782
3966.014507,0.000000,222.061783,10510.924376
3966.014822,0.000000,-0.000000,10807.006753
3966.015137,306.438199,-0.000000,10881.027347
3966.015452,229.828649,-0.000000,10807.006753
3966.015767,536.266849,-0.000000,10436.903782
3966.016082,766.095498,222.061783,10362.883188
3966.016397,1685.410096,370.102971,9918.759623
3966.016712,1762.019645,888.247130,9474.636058
3966.017027,1762.019645,1036.288319,9474.636058
3966.017342,1532.190996,962.267725,9696.697840
3966.017657,1149.143247,666.185348,9770.718434
3966.017972,1149.143247,888.247130,10288.862594
3966.018287,766.095498,-74.020594,10584.944971
3966.018602,536.266849,-296.082377,10881.027347
3966.018917,612.876398,-592.164754,10658.965565
3966.019232,536.266849,-296.082377,10807.006753
3966.019547,689.485948,-222.061783,10288.862594
3966.019862,536.266849,-0.000000,9548.656652
3966.020177,919.314598,518.144159,9474.636058
3966.020492,995.924147,740.205942,8882.471304
3966.020807,1072.533697,740.205942,8512.368333
3966.021122,842.705048,444.123565,8882.471304
3966.021437,0.000000,74.020594,9326.594869
3966.021752,-306.438199,-148.041188,9622.677246
3966.022067,-383.047749,-518.144159,9326.594869
3966.022382,-919.314598,-740.205942,9548.656652
3966.022697,-536.266849,-888.247130,10066.800811
3966.023012,-842.705048,-740.205942,9844.739029
3966.023326,-536.266849,-444.123565,9622.677246
3966.023641,-229.828649,-74.020594,9326.594869
3966.023956,306.438199,-0.000000,9104.533087
3966.024271,0.000000,148.041188,8438.347739
3966.024586,153.219100,814.226536,8068.244768
3966.024901,0.000000,740.205942,8438.347739
3966.025216,-153.219100,518.144159,8216.285956
3966.025531,-459.657299,296.082377,9104.533087
3966.025846,-995.924147,-148.041188,9104.533087
3966.026161,-1225.752797,-222.061783,9252.574275
3966.026476,-1378.971896,-592.164754,9474.636058
3966.026791,-1225.752797,-814.226536,9696.697840
3966.027106,-1225.752797,-592.164754,10214.842000
3966.027421,-1149.143247,-222.061783,9474.636058
3966.027736,-1072.533697,-74.020594,9326.594869
3966.028051,-612.876398,370.102971,9178.553681
3966.028366,0.000000,1110.308913,9104.533087
3966.028681,0.000000,962.267725,9104.533087
3966.028996,76.609550,1110.308913,9104.533087
3966.029311,383.047749,962.267725,9252.574275
3966.029626,383.047749,962.267725,9474.636058
3966.029941,153.219100,444.123565,9918.759623
3966.030256,536.266849,148.041188,10955.047942
3966.030571,459.657299,-148.041188,10584.944971
3966.030886,536.266849,-74.020594,10362.883188
3966.031201,689.485948,-0.000000,10732.986159
3966.031516,1072.533697,-0.000000,10658.965565
3966.031831,1608.800546,148.041188,9770.718434
3966.032146,1915.238745,518.144159,9770.718434
3966.032461,1991.848295,888.247130,9696.697840
3966.032776,1608.800546,1110.308913,9178.553681
3966.033091,1838.629195,592.164754,9548.656652
3966.033406,1455.581446,666.185348,9918.759623
3966.033721,1149.143247,592.164754,10362.883188
3966.034036,459.657299,-370.102971,10732.986159
3966.034351,612.876398,-444.123565,11325.150913
3966.034666,842.705048,-592.164754,11251.130318
3966.034981,536.266849,-296.082377,11177.109724
3966.035296,689.485948,-0.000000,10510.924376
3966.035610,459.657299,222.061783,10066.800811
3966.035925,766.095498,-0.000000,9696.697840
3966.036240,842.705048,814.226536,8956.491898
3966.036555,612.876398,740.205942,8734.430116
3966.036870,76.609550,444.123565,8586.388927
3966.037185,153.219100,-0.000000,8660.409521
3966.037500,-842.705048,-222.061783,9104.533087
3966.037815,-612.876398,-592.164754,9696.697840
3966.038130,-689.485948,-814.226536,9474.636058
3966.038445,-842.705048,-1036.288319,9622.677246
3966.038760,-1072.533697,-888.247130,9474.636058
3966.039075,-842.705048,-518.144159,9474.636058
3966.039390,-459.657299,-370.102971,9030.512492
3966.039705,-306.438199,-74.020594,8586.388927
3966.040020,-153.219100,296.082377,8068.244768
3966.040335,-153.219100,814.226536,7772.162391
3966.040650,0.000000,592.164754,8290.306550
3966.040965,0.000000,518.144159,8290.306550
3966.041280,-536.266849,-0.000000,8290.306550
3966.041595,-1072.533697,-74.020594,8660.409521
3966.041910,-1455.581446,-592.164754,9030.512492
3966.042225,-1608.800546,-666.185348,9696.697840
3966.042540,-1455.581446,-814.226536,9992.780217
3966.042855,-1455.581446,-518.144159,9770.718434
3966.043170,-1072.533697,-296.082377,9918.759623
3966.043485,-689.485948,444.123565,9548.656652
3966.043800,-766.095498,740.205942,9178.553681
3966.044115,0.000000,962.267725,9326.594869
3966.044430,0.000000,1110.308913,9178.553681
3966.044745,306.438199,1110.308913,9104.533087
3966.045060,306.438199,1036.288319,9474.636058
3966.045375,306.438199,814.226536,9992.780217
3966.045690,153.219100,592.164754,10288.862594
3966.046005,229.828649,444.123565,10510.924376
3966.046320,459.657299,-0.000000,11029.068536
3966.046635,383.047749,-0.000000,11103.089130
3966.046950,689.485948,222.061783,11029.068536
3966.047265,1072.533697,592.164754,10436.903782
3966.047580,1532.190996,592.164754,10214.842000
3966.047894,1991.848295,1036.288319,9474.636058
3966.048209,2298.286494,888.247130,9696.697840
3966.048524,2068.457845,1036.288319,9622.677246
3966.048839,1838.629195,1036.288319,9548.656652
3966.049154,1455.581446,666.185348,9918.759623
3966.049469,995.924147,444.123565,10288.862594
3966.049784,612.876398,-148.041188,10584.944971
3966.050099,1149.143247,-148.041188,11029.068536
3966.050414,612.876398,-518.144159,10732.986159
3966.050729,842.705048,-222.061783,10807.006753
3966.051044,612.876398,-0.000000,10140.821405
3966.051359,766.095498,-0.000000,9326.594869
3966.051674,766.095498,888.247130,9770.718434
3966.051989,689.485948,666.185348,9252.574275
3966.052304,459.657299,740.205942,8808.450710
3966.052619,76.609550,444.123565,8808.450710
3966.052934,153.219100,-296.082377,8956.491898
3966.053249,-612.876398,-0.000000,9548.656652
3966.053564,-153.219100,-370.102971,9474.636058
3966.053879,-766.095498,-888.247130,9770.718434
3966.054194,-1072.533697,-666.185348,9844.739029
3966.054509,-1378.971896,-148.041188,9474.636058
3966.054824,-766.095498,-370.102971,9252.574275
3966.055139,-536.266849,-74.020594,9252.574275
3966.055454,-383.047749,222.061783,8808.450710
3966.055769,-306.438199,296.082377,8290.306550
3966.056084,383.047749,1036.288319,9030.512492
3966.056399,-536.266849,518.144159,8512.368333
3966.056714,-689.485948,444.123565,8586.388927
3966.057029,-612.876398,518.144159,9030.512492
3966.057344,-1149.143247,-74.020594,9178.553681
3966.057659,-1378.971896,-444.123565,9474.636058
3966.057974,-1455.581446,-592.164754,9696.697840
3966.058289,-1532.190996,-518.144159,9918.759623
3966.058604,-1455.581446,-444.123565,9770.718434
3966.058919,-1302.362347,-74.020594,9548.656652
3966.059234,-766.095498,222.061783,9548.656652
3966.059549,-383.047749,740.205942,9252.574275
3966.059864,-229.828649,962.267725,9326.594869
3966.060178,-306.438199,888.247130,9104.533087
3966.060493,383.047749,1184.329507,9252.574275
3966.060809,229.828649,888.247130,9770.718434
3966.061124,536.266849,296.082377,9918.759623
3966.061439,612.876398,296.082377,10510.924376
3966.061754,689.485948,-0.000000,10436.903782
3966.062069,1149.143247,-0.000000,10584.944971
3966.062384,1149.143247,-0.000000,11177.109724
3966.062699,1302.362347,-0.000000,10732.986159
3966.063014,1378.971896,370.102971,10214.842000
3966.063329,2068.457845,444.123565,9548.656652
3966.063644,1915.238745,518.144159,9548.656652
3966.063959,2298.286494,814.226536,9622.677246
3966.064275,2221.676944,592.164754,9696.697840
3966.064590,2068.457845,666.185348,9992.780217
3966.064905,1685.410096,444.123565,9918.759623
3966.065220,1838.629195,592.164754,10066.800811
3966.065535,842.705048,-222.061783,10140.821405
3966.065850,689.485948,-444.123565,11029.068536
3966.066165,536.266849,-444.123565,10658.965565
3966.066480,459.657299,-370.102971,10510.924376
3966.066795,919.314598,-296.082377,10436.903782
3966.067110,766.095498,-0.000000,9918.759623
3966.067425,766.095498,296.082377,9474.636058
3966.067741,383.047749,222.061783,9326.594869
3966.068056,536.266849,370.102971,8734.430116
3966.068371,0.000000,370.102971,8808.450710
3966.068686,0.000000,296.082377,9104.533087
3966.069001,-383.047749,-370.102971,9400.615463
3966.069316,-689.485948,-592.164754,9474.636058
3966.069631,-1072.533697,-962.267725,9474.636058
3966.069946,-1149.143247,-1258.350101,9918.759623
3966.070261,-1302.362347,-962.267725,9918.759623
3966.070576,-1225.752797,-666.185348,9326.594869
3966.070891,-1149.143247,-148.041188,8808.450710
3966.071206,-842.705048,-0.000000,9030.512492
3966.071522,0.000000,-0.000000,8438.347739
3966.071837,-612.876398,222.061783,8068.244768
3966.072152,-689.485948,296.082377,8216.285956
3966.072467,-1072.533697,296.082377,8142.265362
3966.072782,-1072.533697,222.061783,8438.347739
3966.073097,-1532.190996,-0.000000,9178.553681
3966.073412,-1838.629195,-444.123565,9770.718434
3966.073727,-1455.581446,-592.164754,9770.718434
3966.074042,-1685.410096,-592.164754,9548.656652
3966.074357,-1455.581446,-370.102971,9474.636058
3966.074672,-1225.752797,-0.000000,9696.697840
3966.074988,-995.924147,444.123565,9548.656652
3966.075303,-842.705048,296.082377,9030.512492
3966.075618,-383.047749,962.267725,9030.512492
3966.075933,153.219100,1036.288319,9104.533087
3966.076248,76.609550,1258.350101,9104.533087
3966.076563,306.438199,1258.350101,9622.677246
3966.076878,229.828649,888.247130,10288.862594
3966.077193,306.438199,666.185348,10066.800811
3966.077508,919.314598,444.123565,10584.944971
3966.077823,536.266849,-0.000000,10881.027347
3966.078138,919.314598,-0.000000,11399.171507
3966.078454,1149.143247,370.102971,10807.006753
3966.078769,1532.190996,370.102971,10436.903782
3966.079084,2068.457845,592.164754,10288.862594
3966.079399,2145.067394,888.247130,9548.656652
3966.079714,2068.457845,1036.288319,9622.677246
3966.080029,2068.457845,1036.288319,9548.656652
3966.080344,2374.896044,740.205942,9918.759623
3966.080659,1915.238745,370.102971,10066.800811
3966.080974,1302.362347,296.082377,10362.883188
3966.081289,1149.143247,-222.061783,11029.068536
3966.081604,995.924147,-296.082377,10955.047942
3966.081920,1149.143247,-222.061783,11103.089130
3966.082235,1072.533697,-370.102971,10658.965565
3966.082550,1072.533697,-0.000000,10214.842000
3966.082865,1072.533697,370.102971,9548.656652
3966.083180,995.924147,888.247130,9326.594869
3966.083495,919.314598,814.226536,8808.450710
3966.083810,842.705048,814.226536,8808.450710
3966.084125,383.047749,222.061783,9030.512492
3966.084440,0.000000,148.041188,9104.533087
3966.084755,-306.438199,-74.020594,9178.553681
3966.085070,0.000000,-666.185348,9622.677246
3966.085386,-766.095498,-888.247130,9844.739029
3966.085701,-919.314598,-888.247130,9696.697840
3966.086016,-766.095498,-740.205942,9326.594869
3966.086331,-766.095498,-1036.288319,9104.533087
3966.086646,-536.266849,-0.000000,9030.512492
3966.086961,-306.438199,-0.000000,8734.430116
3966.087276,-306.438199,518.144159,8438.347739
3966.087591,-153.219100,296.082377,8068.244768
3966.087906,-689.485948,296.082377,7846.182985
3966.088221,-1072.533697,592.164754,8438.347739
3966.088536,-1225.752797,-0.000000,8586.388927
3966.088851,-1608.800546,-444.123565,9178.553681
3966.089167,-1762.019645,-592.164754,9326.594869
3966.089482,-1608.800546,-740.205942,9770.718434
3966.089797,-1838.629195,-814.226536,9992.780217
3966.090112,-1685.410096,-148.041188,9770.718434
3966.090427,-1532.190996,-148.041188,9548.656652
3966.090742,-1378.971896,592.164754,9474.636058
3966.091057,-612.876398,296.082377,9326.594869
3966.091372,-153.219100,814.226536,8438.347739
3966.091687,-306.438199,1036.288319,9326.594869
3966.092002,-76.609550,962.267725,9474.636058
3966.092317,-153.219100,592.164754,9030.512492
3966.092633,153.219100,592.164754,9844.739029
3966.092948,153.219100,296.082377,10362.883188
3966.093263,306.438199,-296.082377,10510.924376
3966.093578,459.657299,-296.082377,10584.944971
3966.093893,766.095498,-0.000000,11029.068536
3966.094208,1225.752797,370.102971,11177.109724
3966.094523,1225.752797,74.020594,10436.903782
3966.094838,1685.410096,222.061783,10362.883188
3966.095153,2145.067394,740.205942,9844.739029
3966.095468,2298.286494,518.144159,9548.656652
3966.095783,2068.457845,740.205942,9326.594869
3966.096099,2068.457845,1036.288319,9992.780217
3966.096414,1685.410096,740.205942,10214.842000
3966.096729,1455.581446,-0.000000,10288.862594
3966.097044,919.314598,-592.164754,10362.883188
3966.097359,1149.143247,-444.123565,11177.109724
3966.097674,842.705048,-518.144159,10807.006753
3966.097989,612.876398,-222.061783,10955.047942
3966.098304,766.095498,-0.000000,10362.883188
3966.098619,919.314598,222.061783,9474.636058
3966.098934,1149.143247,518.144159,9104.533087
3966.099249,842.705048,962.267725,9030.512492
3966.099565,766.095498,888.247130,9030.512492
3966.099880,459.657299,370.102971,8734.430116
3966.100195,76.609550,-74.020594,8956.491898
3966.100510,0.000000,-666.185348,9178.553681
3966.100825,-536.266849,-370.102971,9474.636058
3966.101140,-842.705048,-666.185348,9844.739029
3966.101455,-689.485948,-814.226536,9918.759623
3966.101770,-766.095498,-1258.350101,9770.718434
3966.102085,-536.266849,-740.205942,9252.574275
3966.102400,-536.266849,-148.041188,9326.594869
3966.102715,-306.438199,296.082377,9030.512492
3966.103031,0.000000,222.061783,8068.244768
3966.103346,-229.828649,148.041188,8216.285956
3966.103661,-153.219100,518.144159,8290.306550
3966.103976,-612.876398,444.123565,8512.368333
3966.104291,-766.095498,-0.000000,8660.409521
3966.104606,-1225.752797,-0.000000,8956.491898
3966.104921,-1302.362347,-148.041188,9844.739029
3966.105236,-1685.410096,-740.205942,9474.636058
3966.105551,-1762.019645,-592.164754,9696.697840
3966.105866,-1532.190996,-370.102971,9844.739029
3966.106181,-1608.800546,-0.000000,9474.636058
3966.106496,-1532.190996,666.185348,9326.594869
3966.106812,-612.876398,740.205942,9326.594869
3966.107127,-459.657299,1184.329507,9030.512492
3966.107442,-459.657299,962.267725,8808.450710
3966.107757,-383.047749,888.247130,9252.574275
3966.108072,76.609550,962.267725,9548.656652
3966.108387,0.000000,444.123565,9770.718434
3966.108702,0.000000,518.144159,10510.924376
3966.109017,229.828649,222.061783,10807.006753
3966.109332,383.047749,-0.000000,10807.006753
3966.109647,612.876398,296.082377,10807.006753
3966.109962,612.876398,-0.000000,10955.047942
3966.110278,1378.971896,444.123565,10510.924376
3966.110593,1685.410096,592.164754,9770.718434
3966.110908,1762.019645,962.267725,9326.594869
3966.111223,1991.848295,1036.288319,9696.697840
3966.111538,1838.629195,1110.308913,9622.677246
3966.111853,1608.800546,666.185348,9770.718434
3966.112168,1378.971896,296.082377,10288.862594
3966.112483,995.924147,-148.041188,10510.924376
3966.112798,842.705048,-444.123565,10288.862594
3966.113113,689.485948,-444.123565,10955.047942
3966.113428,766.095498,-370.102971,10881.027347
3966.113744,536.266849,-370.102971,10510.924376
3966.114059,766.095498,370.102971,9696.697840
3966.114374,766.095498,666.185348,9548.656652
3966.114689,1378.971896,888.247130,9104.533087
3966.115004,1225.752797,888.247130,9104.533087
3966.115319,842.705048,740.205942,8364.327145
3966.115634,383.047749,370.102971,9178.553681
3966.115949,76.609550,-148.041188,8882.471304
3966.116264,0.000000,-222.061783,9400.615463
3966.116579,-536.266849,-666.185348,9696.697840
3966.116894,-459.657299,-888.247130,9696.697840
3966.117210,-612.876398,-814.226536,9548.656652
3966.117525,-229.828649,-962.267725,9770.718434
3966.117840,-229.828649,-370.102971,9474.636058
3966.118155,0.000000,-0.000000,8734.430116
3966.118470,-229.828649,-0.000000,8364.327145
3966.118785,0.000000,444.123565,8216.285956
3966.119100,0.000000,592.164754,8142.265362
3966.119415,0.000000,592.164754,8216.285956
3966.119730,-383.047749,592.164754,8438.347739
3966.120045,-995.924147,-0.000000,8734.430116
3966.120360,-1378.971896,-222.061783,9104.533087
3966.120676,-1532.190996,-666.185348,10140.821405
3966.120991,-1455.581446,-592.164754,10214.842000
3966.121306,-1762.019645,-370.102971,9548.656652
3966.121621,-1455.581446,-370.102971,9326.594869
3966.121936,-1225.752797,-74.020594,9696.697840
3966.122251,-1378.971896,296.082377,9474.636058
3966.122566,-919.314598,370.102971,9178.553681
3966.122881,-995.924147,666.185348,9030.512492
3966.123196,-459.657299,888.247130,9030.512492
3966.123511,0.000000,962.267725,9104.533087
3966.123826,0.000000,962.267725,9474.636058
3966.124142,76.609550,518.144159,10288.862594
3966.124457,306.438199,148.041188,10362.883188
3966.124772,229.828649,-0.000000,10288.862594
3966.125087,76.609550,-222.061783,10510.924376
3966.125402,383.047749,-0.000000,10732.986159
3966.125717,689.485948,74.020594,10510.924376
3966.126032,1378.971896,296.082377,10362.883188
3966.126347,1762.019645,518.144159,10140.821405
