#time,accel_x,accel_y,accel_z
3597.938791,2298.286494,740.205942,7772.162391
3597.939105,1991.848295,1628.453072,8438.347739
3597.939419,1838.629195,1628.453072,8068.244768
3597.939733,1915.238745,1480.411884,8068.244768
3597.940047,1608.800546,1406.391290,8660.409521
3597.940362,1608.800546,666.185348,9548.656652
3597.940676,842.705048,370.102971,9178.553681
3597.940990,459.657299,296.082377,9252.574275
3597.941304,153.219100,518.144159,9918.759623
3597.941618,76.609550,592.164754,10066.800811
3597.941933,-306.438199,740.205942,9696.697840
3597.942247,-459.657299,592.164754,9474.636058
3597.942561,-536.266849,-0.000000,9178.553681
3597.942875,0.000000,-74.020594,9326.594869
3597.943189,-306.438199,-370.102971,9474.636058
3597.943504,-229.828649,-814.226536,9844.739029
3597.943818,-536.266849,-370.102971,9992.780217
3597.944132,-1072.533697,-666.185348,9548.656652
3597.944446,-536.266849,-592.164754,9992.780217
3597.944760,-536.266849,-592.164754,9992.780217
3597.945074,-459.657299,-592.164754,9918.759623
3597.945389,-689.485948,-888.247130,9770.718434
3597.945703,-536.266849,-444.123565,9622.677246
3597.946017,-689.485948,-296.082377,9548.656652
3597.946331,-383.047749,-296.082377,8956.491898
3597.946645,-306.438199,-370.102971,9844.739029
3597.946960,-383.047749,-814.226536,9548.656652
3597.947274,153.219100,-1036.288319,9548.656652
3597.947588,-612.876398,-1702.473667,10288.862594
3597.947902,0.000000,-1036.288319,10362.883188
3597.948216,-536.266849,-666.185348,10288.862594
3597.948531,-383.047749,-518.144159,9992.780217
3597.948845,0.000000,-666.185348,9918.759623
3597.949159,459.657299,-370.102971,9400.615463
3597.949473,306.438199,-222.061783,8882.471304
3597.949787,459.657299,-148.041188,9104.533087
3597.950102,612.876398,-0.000000,8808.450710
3597.950416,1149.143247,-222.061783,8586.388927
3597.950730,842.705048,-74.020594,8956.491898
3597.951044,1072.533697,-148.041188,9252.574275
3597.951358,766.095498,-222.061783,9474.636058
3597.951673,306.438199,-148.041188,9104.533087
3597.951987,383.047749,-0.000000,9326.594869
3597.952301,842.705048,-0.000000,9326.594869
3597.952615,459.657299,296.082377,8956.491898
3597.952929,919.314598,444.123565,8882.471304
3597.953244,842.705048,740.205942,8660.409521
3597.953558,1149.143247,888.247130,8956.491898
3597.953872,1455.581446,666.185348,9326.594869
3597.954186,995.924147,740.205942,9326.594869
3597.954500,842.705048,1184.329507,9474.636058
3597.954815,689.485948,1184.329507,9326.594869
3597.955129,842.705048,1184.329507,9474.636058
3597.955443,383.047749,1258.350101,10214.842000
3597.955757,229.828649,1184.329507,9474.636058
3597.956071,153.219100,1258.350101,9104.533087
3597.956386,0.000000,962.267725,9622.677246
3597.956700,-306.438199,740.205942,9474.636058
3597.957014,-229.828649,1184.329507,9696.697840
3597.957328,-383.047749,148.041188,10140.821405
3597.957642,-612.876398,296.082377,10955.047942
3597.957957,-766.095498,592.164754,11177.109724
3597.958271,-842.705048,592.164754,10955.047942
3597.958585,-383.047749,592.164754,10881.027347
3597.958899,-306.438199,814.226536,10584.944971
3597.959213,-229.828649,962.267725,10140.821405
3597.959528,0.000000,592.164754,10214.842000
3597.959842,-229.828649,888.247130,10214.842000
3597.960156,-76.609550,370.102971,9992.780217
3597.960470,0.000000,666.185348,10066.800811
3597.960784,-306.438199,222.061783,10288.862594
3597.961099,0.000000,-0.000000,10436.903782
3597.961413,-689.485948,-222.061783,10214.842000
3597.961727,0.000000,-74.020594,10584.944971
3597.962041,76.609550,-148.041188,10214.842000
3597.962355,0.000000,-0.000000,9992.780217
3597.962670,306.438199,-0.000000,9474.636058
3597.962984,536.266849,-0.000000,9178.553681
3597.963298,536.266849,296.082377,9474.636058
3597.963612,766.095498,-0.000000,9252.574275
3597.963926,459.657299,-0.000000,9400.615463
3597.964240,229.828649,-0.000000,9548.656652
3597.964555,0.000000,-148.041188,9548.656652
3597.964869,153.219100,-222.061783,9474.636058
3597.965183,76.609550,-0.000000,9474.636058
3597.965497,0.000000,-0.000000,9178.553681
3597.965811,76.609550,-0.000000,8438.347739
3597.966126,383.047749,-148.041188,8808.450710
3597.966440,153.219100,-296.082377,9030.512492
3597.966754,0.000000,-296.082377,9104.533087
3597.967068,0.000000,-370.102971,9030.512492
3597.967382,0.000000,-444.123565,9104.533087
3597.967697,-153.219100,-592.164754,9696.697840
3597.968011,0.000000,-740.205942,8956.491898
3597.968325,-306.438199,-592.164754,9104.533087
3597.968639,0.000000,-592.164754,9474.636058
3597.968953,0.000000,-370.102971,9252.574275
3597.969268,383.047749,-370.102971,9474.636058
3597.969582,689.485948,-296.082377,9400.615463
3597.969896,306.438199,-444.123565,9178.553681
3597.970210,153.219100,-740.205942,9104.533087
3597.970524,229.828649,-370.102971,9622.677246
3597.970839,0.000000,-518.144159,9918.759623
3597.971153,0.000000,-666.185348,9770.718434
3597.971467,0.000000,-592.164754,9622.677246
3597.971781,-153.219100,-444.123565,9622.677246
3597.972095,76.609550,-296.082377,9844.739029
3597.972410,76.609550,-370.102971,10066.800811
3597.972724,0.000000,-148.041188,10214.842000
3597.973038,-76.609550,-148.041188,9696.697840
3597.973352,-459.657299,-148.041188,9622.677246
3597.973666,-229.828649,-148.041188,9992.780217
3597.973981,-229.828649,-0.000000,10066.800811
3597.974295,-229.828649,-0.000000,10066.800811
3597.974609,-229.828649,222.061783,9992.780217
3597.974923,0.000000,296.082377,9548.656652
3597.975237,0.000000,592.164754,9622.677246
3597.975552,76.609550,518.144159,9696.697840
3597.975866,229.828649,444.123565,9548.656652
3597.976180,0.000000,592.164754,9918.759623
3597.976494,0.000000,444.123565,9696.697840
3597.976808,0.000000,962.267725,9400.615463
3597.977123,153.219100,592.164754,9696.697840
3597.977437,153.219100,592.164754,9474.636058
3597.977751,229.828649,888.247130,9252.574275
3597.978065,306.438199,888.247130,9326.594869
3597.978379,459.657299,666.185348,9548.656652
3597.978694,536.266849,814.226536,9178.553681
3597.979008,306.438199,962.267725,8882.471304
3597.979322,153.219100,888.247130,9474.636058
3597.979636,306.438199,962.267725,9326.594869
3597.979950,459.657299,666.185348,9474.636058
3597.980265,383.047749,444.123565,9474.636058
3597.980579,459.657299,666.185348,9474.636058
3597.980893,229.828649,1036.288319,9326.594869
3597.981207,459.657299,740.205942,9326.594869
3597.981521,459.657299,444.123565,9770.718434
3597.981836,306.438199,444.123565,9696.697840
3597.982150,0.000000,296.082377,9548.656652
3597.982464,229.828649,222.061783,9400.615463
3597.982778,76.609550,-0.000000,9992.780217
3597.983092,153.219100,-0.000000,10214.842000
3597.983407,0.000000,-0.000000,9992.780217
3597.983721,0.000000,-74.020594,10066.800811
3597.984035,76.609550,-0.000000,9770.718434
3597.984349,306.438199,-222.061783,9696.697840
3597.984664,76.609550,296.082377,10066.800811
3597.984978,229.828649,-148.041188,10140.821405
3597.985292,229.828649,-0.000000,9474.636058
3597.985606,0.000000,-0.000000,9696.697840
3597.985921,0.000000,-74.020594,10362.883188
3597.986235,0.000000,-148.041188,9622.677246
3597.986549,229.828649,-222.061783,10066.800811
3597.986863,0.000000,-0.000000,9918.759623
3597.987178,0.000000,-296.082377,9770.718434
3597.987492,229.828649,-0.000000,9622.677246
3597.987806,76.609550,-0.000000,9400.615463
3597.988121,0.000000,-0.000000,9474.636058
3597.988435,-383.047749,148.041188,9474.636058
3597.988749,-383.047749,-222.061783,9400.615463
3597.989063,0.000000,-222.061783,9400.615463
3597.989378,0.000000,-222.061783,9400.615463
3597.989692,-536.266849,-370.102971,9178.553681
3597.990006,0.000000,-222.061783,8882.471304
3597.990320,76.609550,-74.020594,9178.553681
3597.990635,229.828649,-74.020594,9030.512492
3597.990949,459.657299,-0.000000,8808.450710
3597.991263,536.266849,518.144159,9030.512492
3597.991577,306.438199,74.020594,8882.471304
3597.991892,306.438199,370.102971,9104.533087
3597.992206,536.266849,-0.000000,9326.594869
3597.992520,306.438199,-148.041188,9252.574275
3597.992834,229.828649,-148.041188,9400.615463
3597.993149,0.000000,-0.000000,9474.636058
3597.993463,383.047749,-74.020594,9622.677246
3597.993777,383.047749,-0.000000,9696.697840
3597.994092,459.657299,-0.000000,9622.677246
3597.994406,306.438199,-0.000000,9474.636058
3597.994720,306.438199,518.144159,9474.636058
3597.995034,459.657299,444.123565,9474.636058
3597.995349,383.047749,444.123565,9696.697840
3597.995663,459.657299,370.102971,10066.800811
3597.995977,306.438199,518.144159,10214.842000
3597.996291,0.000000,444.123565,9770.718434
3597.996606,0.000000,370.102971,10510.924376
3597.996920,0.000000,370.102971,10362.883188
3597.997234,0.000000,370.102971,10214.842000
3597.997548,76.609550,222.061783,10140.821405
3597.997863,-383.047749,370.102971,10288.862594
3597.998177,0.000000,444.123565,10658.965565
3597.998491,-229.828649,518.144159,10140.821405
3597.998805,0.000000,518.144159,10066.800811
3597.999120,0.000000,-0.000000,10066.800811
3597.999434,0.000000,592.164754,9918.759623
3597.999748,-229.828649,370.102971,9844.739029
3598.000063,0.000000,592.164754,9844.739029
3598.000377,-229.828649,518.144159,9770.718434
3598.000691,0.000000,222.061783,9622.677246
3598.001005,0.000000,740.205942,9622.677246
3598.001320,306.438199,518.144159,9548.656652
3598.001634,0.000000,666.185348,9474.636058
3598.001948,306.438199,518.144159,9622.677246
3598.002262,0.000000,518.144159,9474.636058
3598.002577,306.438199,740.205942,9474.636058
3598.002891,229.828649,518.144159,9474.636058
3598.003205,153.219100,222.061783,9474.636058
3598.003519,383.047749,444.123565,9548.656652
3598.003834,306.438199,592.164754,9548.656652
3598.004148,536.266849,518.144159,9474.636058
3598.004462,229.828649,296.082377,9474.636058
3598.004776,459.657299,-0.000000,9474.636058
3598.005091,229.828649,222.061783,9252.574275
3598.005405,306.438199,-0.000000,9178.553681
3598.005719,383.047749,296.082377,9696.697840
3598.006034,306.438199,-0.000000,9622.677246
3598.006348,459.657299,-0.000000,9622.677246
3598.006662,383.047749,-0.000000,9770.718434
3598.006976,0.000000,-0.000000,9622.677246
3598.007291,459.657299,296.082377,9400.615463
3598.007605,229.828649,-0.000000,9474.636058
3598.007919,229.828649,-148.041188,9844.739029
3598.008233,0.000000,-148.041188,9770.718434
3598.008548,229.828649,-74.020594,9400.615463
3598.008862,76.609550,-222.061783,9844.739029
3598.009176,0.000000,-0.000000,9696.697840
3598.009490,0.000000,-148.041188,9548.656652
3598.009805,229.828649,-370.102971,9474.636058
3598.010119,0.000000,-296.082377,9474.636058
3598.010433,-229.828649,-222.061783,9400.615463
3598.010748,153.219100,-296.082377,9696.697840
3598.011062,76.609550,-370.102971,9770.718434
3598.011376,0.000000,-370.102971,9696.697840
3598.011690,-153.219100,-148.041188,9474.636058
3598.012005,0.000000,-0.000000,9400.615463
3598.012319,76.609550,-74.020594,9474.636058
3598.012633,-306.438199,-148.041188,9548.656652
3598.012947,153.219100,-0.000000,9622.677246
3598.013262,0.000000,222.061783,9548.656652
3598.013576,0.000000,-148.041188,9252.574275
3598.013890,-229.828649,-0.000000,9474.636058
3598.014204,-229.828649,-148.041188,9548.656652
3598.014519,-306.438199,-74.020594,9178.553681
3598.014833,0.000000,-0.000000,9326.594869
3598.015147,383.047749,370.102971,9622.677246
3598.015461,536.266849,-0.000000,9696.697840
3598.015776,919.314598,-148.041188,8734.430116
3598.016090,229.828649,370.102971,8956.491898
3598.016404,76.609550,370.102971,9474.636058
3598.016719,306.438199,148.041188,9548.656652
3598.017033,153.219100,592.164754,9622.677246
3598.017347,0.000000,296.082377,9696.697840
3598.017661,229.828649,222.061783,9474.636058
3598.017976,229.828649,518.144159,9474.636058
3598.018290,76.609550,-0.000000,9622.677246
3598.018604,459.657299,-0.000000,10362.883188
3598.018918,229.828649,296.082377,9696.697840
3598.019233,536.266849,592.164754,9326.594869
3598.019547,306.438199,666.185348,9474.636058
3598.019861,459.657299,370.102971,9770.718434
3598.020175,0.000000,370.102971,9844.739029
3598.020490,153.219100,148.041188,10066.800811
3598.020804,153.219100,148.041188,9770.718434
3598.021118,76.609550,222.061783,9844.739029
3598.021432,153.219100,296.082377,9844.739029
3598.021747,383.047749,-0.000000,9992.780217
3598.022061,0.000000,-74.020594,9770.718434
3598.022375,-229.828649,222.061783,9548.656652
3598.022690,76.609550,148.041188,9696.697840
3598.023004,153.219100,-0.000000,9918.759623
3598.023318,229.828649,148.041188,9918.759623
3598.023632,76.609550,296.082377,9622.677246
3598.023947,0.000000,-0.000000,9696.697840
3598.024261,76.609550,-0.000000,9696.697840
3598.024575,0.000000,-0.000000,9770.718434
3598.024889,-229.828649,-0.000000,9918.759623
3598.025204,229.828649,-0.000000,9548.656652
3598.025518,0.000000,-0.000000,9474.636058
3598.025832,0.000000,-0.000000,9548.656652
3598.026146,153.219100,-0.000000,10066.800811
3598.026461,0.000000,296.082377,9400.615463
3598.026775,76.609550,-0.000000,9326.594869
3598.027089,76.609550,-0.000000,9548.656652
3598.027403,0.000000,-0.000000,9844.739029
3598.027718,76.609550,-0.000000,9844.739029
3598.028032,0.000000,148.041188,9326.594869
3598.028346,0.000000,296.082377,9474.636058
3598.028661,0.000000,296.082377,9548.656652
3598.028975,153.219100,-0.000000,9696.697840
3598.029289,76.609550,-148.041188,9844.739029
3598.029603,76.609550,-0.000000,9770.718434
3598.029918,0.000000,296.082377,9326.594869
3598.030232,76.609550,-0.000000,9400.615463
3598.030546,76.609550,-0.000000,9326.594869
3598.030860,383.047749,-0.000000,9696.697840
3598.031175,153.219100,-0.000000,9400.615463
3598.031489,229.828649,-0.000000,9178.553681
3598.031803,76.609550,-370.102971,9474.636058
3598.032117,229.828649,-0.000000,9400.615463
3598.032432,76.609550,-0.000000,9696.697840
3598.032746,0.000000,-0.000000,9474.636058
3598.033060,229.828649,-0.000000,9326.594869
3598.033374,306.438199,-0.000000,9474.636058
3598.033689,383.047749,-74.020594,9622.677246
3598.034003,306.438199,-0.000000,9696.697840
3598.034317,306.438199,-0.000000,9548.656652
3598.034632,0.000000,222.061783,9548.656652
3598.034946,229.828649,-0.000000,9474.636058
3598.035260,383.047749,296.082377,9474.636058
3598.035574,153.219100,222.061783,9548.656652
3598.035889,76.609550,-0.000000,9696.697840
3598.036203,153.219100,-0.000000,9918.759623
3598.036517,0.000000,-0.000000,9696.697840
3598.036831,0.000000,296.082377,9844.739029
3598.037146,76.609550,222.061783,9770.718434
3598.037460,0.000000,370.102971,9622.677246
3598.037774,0.000000,370.102971,9474.636058
3598.038088,153.219100,296.082377,9696.697840
3598.038403,612.876398,-0.000000,10066.800811
3598.038717,-306.438199,222.061783,9696.697840
3598.039031,0.000000,518.144159,9770.718434
3598.039345,0.000000,444.123565,9696.697840
3598.039660,0.000000,444.123565,9844.739029
3598.039974,0.000000,148.041188,9474.636058
3598.040288,0.000000,296.082377,9622.677246
3598.040603,0.000000,592.164754,9696.697840
3598.040917,153.219100,370.102971,9400.615463
3598.041231,229.828649,666.185348,9474.636058
3598.041545,229.828649,370.102971,9770.718434
3598.041860,0.000000,-0.000000,9400.615463
3598.042174,76.609550,592.164754,9474.636058
3598.042488,0.000000,370.102971,9622.677246
3598.042802,0.000000,444.123565,9770.718434
3598.043117,229.828649,222.061783,9474.636058
3598.043431,153.219100,-0.000000,9178.553681
3598.043745,153.219100,370.102971,9622.677246
3598.044059,0.000000,222.061783,9696.697840
3598.044374,229.828649,296.082377,9622.677246
3598.044688,229.828649,148.041188,9622.677246
3598.045002,383.047749,518.144159,9844.739029
3598.045316,153.219100,-0.000000,9326.594869
3598.045631,229.828649,444.123565,9770.718434
3598.045945,306.438199,370.102971,9770.718434
3598.046259,0.000000,-74.020594,9178.553681
3598.046574,76.609550,-0.000000,9474.636058
3598.046888,0.000000,-148.041188,9474.636058
3598.047202,0.000000,-0.000000,9474.636058
3598.047516,153.219100,-0.000000,9696.697840
3598.047831,76.609550,-0.000000,9770.718434
3598.048145,0.000000,-0.000000,9918.759623
3598.048459,76.609550,-74.020594,9326.594869
3598.048773,153.219100,-0.000000,9178.553681
3598.049088,306.438199,-0.000000,9844.739029
3598.049402,153.219100,-0.000000,9770.718434
3598.049716,0.000000,-0.000000,9548.656652
3598.050030,0.000000,-74.020594,9400.615463
3598.050345,0.000000,-0.000000,9622.677246
3598.050659,0.000000,-0.000000,9622.677246
3598.050973,-229.828649,-0.000000,9400.615463
3598.051287,0.000000,370.102971,9770.718434
3598.051602,0.000000,-0.000000,9400.615463
3598.051916,0.000000,-74.020594,9400.615463
3598.052230,0.000000,222.061783,9400.615463
3598.052545,459.657299,-0.000000,9474.636058
3598.052859,0.000000,-0.000000,9474.636058
3598.053173,0.000000,-0.000000,9474.636058
3598.053487,0.000000,-0.000000,9696.697840
3598.053802,0.000000,-0.000000,9400.615463
3598.054116,0.000000,222.061783,9622.677246
3598.054430,0.000000,-0.000000,9474.636058
3598.054744,-153.219100,74.020594,9252.574275
3598.055059,76.609550,-0.000000,9400.615463
3598.055373,153.219100,148.041188,9326.594869
3598.055687,306.438199,296.082377,9622.677246
3598.056001,0.000000,222.061783,9104.533087
3598.056316,153.219100,148.041188,9104.533087
3598.056630,229.828649,222.061783,9918.759623
3598.056944,0.000000,-0.000000,9548.656652
3598.057258,153.219100,-0.000000,9326.594869
3598.057573,612.876398,-0.000000,9770.718434
3598.057887,612.876398,-0.000000,9770.718434
3598.058201,76.609550,-0.000000,9918.759623
3598.058516,76.609550,-0.000000,9918.759623
3598.058830,306.438199,-370.102971,10140.821405
3598.059144,229.828649,148.041188,9474.636058
3598.059458,459.657299,222.061783,9474.636058
3598.059773,229.828649,370.102971,9918.759623
3598.060087,0.000000,296.082377,9918.759623
3598.060401,153.219100,-0.000000,9844.739029
3598.060715,229.828649,-0.000000,9770.718434
3598.061030,459.657299,-0.000000,9548.656652
3598.061344,229.828649,-0.000000,9918.759623
3598.061658,-153.219100,296.082377,9696.697840
3598.061972,306.438199,222.061783,9770.718434
3598.062287,76.609550,-0.000000,9548.656652
3598.062601,0.000000,444.123565,9474.636058
3598.062915,0.000000,444.123565,9622.677246
3598.063230,0.000000,222.061783,9474.636058
3598.063544,76.609550,-0.000000,9696.697840
3598.063858,0.000000,518.144159,9770.718434
3598.064172,0.000000,370.102971,9622.677246
3598.064487,76.609550,592.164754,9622.677246
3598.064801,0.000000,222.061783,9178.553681
3598.065115,0.000000,296.082377,9622.677246
3598.065429,76.609550,296.082377,9696.697840
3598.065744,383.047749,-0.000000,9400.615463
3598.066058,76.609550,148.041188,9178.553681
3598.066372,306.438199,-0.000000,9400.615463
3598.066686,0.000000,296.082377,9400.615463
3598.067001,0.000000,-0.000000,9326.594869
3598.067315,0.000000,-0.000000,9622.677246
3598.067629,229.828649,-0.000000,9696.697840
3598.067943,153.219100,-0.000000,9326.594869
3598.068258,153.219100,-592.164754,9622.677246
3598.068572,153.219100,-0.000000,9400.615463
3598.068886,306.438199,-0.000000,9696.697840
3598.069201,76.609550,-0.000000,9474.636058
3598.069515,0.000000,-444.123565,9622.677246
3598.069829,0.000000,-0.000000,9696.697840
3598.070143,153.219100,222.061783,9474.636058
3598.070458,153.219100,296.082377,9474.636058
3598.070772,0.000000,-148.041188,9548.656652
3598.071086,0.000000,-0.000000,9548.656652
3598.071400,76.609550,-0.000000,9474.636058
3598.071715,306.438199,222.061783,9548.656652
3598.072029,153.219100,-74.020594,9918.759623
3598.072343,0.000000,296.082377,10066.800811
3598.072657,0.000000,370.102971,9770.718434
3598.072972,76.609550,-0.000000,9474.636058
3598.073286,-153.219100,-0.000000,9770.718434
3598.073600,153.219100,222.061783,9548.656652
3598.073914,76.609550,-74.020594,9696.697840
3598.074229,76.609550,222.061783,9548.656652
3598.074543,76.609550,-0.000000,9696.697840
3598.074857,229.828649,-0.000000,9770.718434
3598.075172,153.219100,74.020594,9622.677246
3598.075486,76.609550,-0.000000,9474.636058
3598.075800,0.000000,-0.000000,9178.553681
3598.076114,0.000000,148.041188,9548.656652
3598.076429,153.219100,-0.000000,9474.636058
3598.076743,383.047749,518.144159,9622.677246
3598.077057,229.828649,444.123565,9548.656652
3598.077371,229.828649,296.082377,9400.615463
3598.077686,306.438199,444.123565,9400.615463
3598.078000,153.219100,222.061783,9548.656652
3598.078314,153.219100,-0.000000,9844.739029
3598.078628,306.438199,-0.000000,9474.636058
3598.078943,0.000000,222.061783,9252.574275
3598.079257,229.828649,-0.000000,9622.677246
3598.079571,0.000000,296.082377,9844.739029
3598.079885,383.047749,370.102971,9548.656652
3598.080200,76.609550,148.041188,9474.636058
3598.080514,306.438199,-0.000000,9474.636058
3598.080828,153.219100,370.102971,9548.656652
3598.081143,306.438199,-0.000000,9326.594869
3598.081457,0.000000,148.041188,9622.677246
3598.081771,153.219100,370.102971,10066.800811
3598.082085,306.438199,444.123565,9548.656652
3598.082400,153.219100,592.164754,9770.718434
3598.082714,229.828649,222.061783,9918.759623
3598.083028,76.609550,-0.000000,9992.780217
3598.083342,306.438199,370.102971,9844.739029
3598.083657,0.000000,-0.000000,9548.656652
3598.083971,383.047749,148.041188,10066.800811
3598.084285,153.219100,148.041188,9622.677246
3598.084599,0.000000,-0.000000,9770.718434
3598.084913,0.000000,148.041188,9548.656652
3598.085227,153.219100,370.102971,9400.615463
3598.085542,0.000000,-74.020594,9326.594869
3598.085856,0.000000,148.041188,9622.677246
3598.086170,153.219100,148.041188,9918.759623
3598.086484,0.000000,-0.000000,9474.636058
3598.086798,0.000000,296.082377,9326.594869
3598.087112,229.828649,222.061783,9400.615463
3598.087426,76.609550,-0.000000,9474.636058
3598.087741,459.657299,-0.000000,9548.656652
3598.088055,383.047749,148.041188,9770.718434
3598.088369,459.657299,444.123565,10066.800811
3598.088683,766.095498,444.123565,9548.656652
3598.088997,383.047749,444.123565,9326.594869
3598.089311,1072.533697,592.164754,9474.636058
3598.089626,919.314598,444.123565,8734.430116
3598.089940,995.924147,444.123565,8808.450710
3598.090254,766.095498,518.144159,9400.615463
3598.090568,842.705048,296.082377,9474.636058
3598.090882,612.876398,-0.000000,9178.553681
3598.091196,612.876398,222.061783,9474.636058
3598.091510,689.485948,296.082377,10066.800811
3598.091825,612.876398,296.082377,10214.842000
3598.092139,842.705048,592.164754,9770.718434
3598.092453,1608.800546,740.205942,9622.677246
3598.092767,1302.362347,888.247130,9770.718434
3598.093081,1838.629195,1184.329507,9474.636058
3598.093395,1991.848295,1480.411884,9474.636058
3598.093710,2221.676944,1480.411884,9400.615463
3598.094024,2145.067394,1332.370696,9548.656652
3598.094338,2451.505594,1850.514855,9104.533087
3598.094652,2451.505594,1628.453072,9178.553681
3598.094966,2528.115143,1776.494261,9030.512492
3598.095280,2221.676944,1628.453072,8956.491898
3598.095594,2068.457845,1628.453072,9326.594869
3598.095909,1838.629195,1406.391290,9474.636058
3598.096223,1455.581446,1406.391290,9104.533087
3598.096537,1378.971896,1850.514855,9474.636058
3598.096851,1608.800546,1924.535449,10510.924376
3598.097165,1302.362347,1850.514855,9770.718434
3598.097479,1532.190996,2146.597232,9770.718434
3598.097793,1608.800546,2516.700203,9770.718434
3598.098108,2221.676944,2072.576638,9622.677246
3598.098422,2374.896044,2664.741391,9622.677246
3598.098736,2374.896044,3182.885551,9474.636058
3598.099050,1991.848295,3034.844362,9918.759623
3598.099364,2068.457845,3108.864956,9474.636058
3598.099678,1685.410096,2738.761985,9474.636058
3598.099993,1608.800546,2516.700203,9696.697840
3598.100307,612.876398,2738.761985,9844.739029
3598.100621,153.219100,2442.679609,9770.718434
3598.100935,0.000000,2368.659014,9992.780217
3598.101249,0.000000,1850.514855,9992.780217
3598.101563,0.000000,1110.308913,9918.759623
3598.101877,0.000000,1850.514855,10288.862594
3598.102192,-383.047749,1850.514855,10732.986159
3598.102506,0.000000,1628.453072,10955.047942
3598.102820,0.000000,1924.535449,11103.089130
3598.103134,153.219100,1776.494261,10214.842000
3598.103448,612.876398,2072.576638,10140.821405
3598.103762,689.485948,2368.659014,9918.759623
3598.104077,612.876398,2442.679609,10140.821405
3598.104391,766.095498,1998.556043,9770.718434
3598.104705,536.266849,1110.308913,9696.697840
3598.105019,306.438199,1036.288319,9400.615463
3598.105333,153.219100,666.185348,9474.636058
3598.105647,0.000000,148.041188,10066.800811
3598.105961,-306.438199,-0.000000,10066.800811
3598.106276,-459.657299,-296.082377,9400.615463
3598.106590,-459.657299,-0.000000,9548.656652
3598.106904,-536.266849,-148.041188,9252.574275
3598.107218,-229.828649,-0.000000,8956.491898
3598.107532,-536.266849,-148.041188,9622.677246
3598.107846,-229.828649,-370.102971,9400.615463
3598.108161,-229.828649,-0.000000,9104.533087
3598.108475,-459.657299,-296.082377,9474.636058
3598.108789,0.000000,-592.164754,9992.780217
3598.109103,-229.828649,-518.144159,9918.759623
3598.109417,-229.828649,-518.144159,9918.759623
3598.109731,-229.828649,-666.185348,10288.862594
3598.110045,-306.438199,-666.185348,10066.800811
3598.110360,0.000000,-1110.308913,9400.615463
3598.110674,0.000000,-814.226536,9474.636058
3598.110988,0.000000,-1036.288319,9474.636058
3598.111302,306.438199,-1110.308913,9030.512492
3598.111616,612.876398,-888.247130,8882.471304
3598.111930,1225.752797,-1036.288319,8734.430116
3598.112245,1072.533697,-962.267725,8512.368333
3598.112559,766.095498,-814.226536,7920.203579
3598.112873,766.095498,-1110.308913,8142.265362
3598.113187,689.485948,-1406.391290,8512.368333
3598.113501,766.095498,-1702.473667,8956.491898
3598.113815,153.219100,-1924.535449,9400.615463
3598.114129,0.000000,-1998.556043,10066.800811
3598.114444,-536.266849,-2072.576638,10140.821405
3598.114758,-536.266849,-1850.514855,10881.027347
3598.115072,-229.828649,-1554.432478,10658.965565
3598.115386,-153.219100,-888.247130,10288.862594
3598.115700,0.000000,-518.144159,10066.800811
3598.116014,229.828649,-814.226536,9622.677246
3598.116328,919.314598,-518.144159,9326.594869
3598.116643,1072.533697,-444.123565,9104.533087
3598.116957,1532.190996,-444.123565,8956.491898
3598.117271,919.314598,-592.164754,8808.450710
3598.117585,766.095498,-444.123565,8734.430116
3598.117899,536.266849,-814.226536,8808.450710
3598.118213,0.000000,-1110.308913,8882.471304
3598.118528,-306.438199,-1332.370696,8956.491898
3598.118842,-919.314598,-962.267725,9400.615463
3598.119156,-1302.362347,-1258.350101,9252.574275
3598.119470,-1225.752797,-1406.391290,9474.636058
3598.119784,-1532.190996,-1332.370696,9844.739029
3598.120098,-1225.752797,-1110.308913,9770.718434
3598.120412,-919.314598,-148.041188,10214.842000
3598.120727,-383.047749,592.164754,10066.800811
3598.121041,0.000000,1258.350101,9696.697840
3598.121355,76.609550,1554.432478,9548.656652
3598.121669,919.314598,1924.535449,10214.842000
3598.121983,536.266849,1998.556043,9326.594869
3598.122297,919.314598,2072.576638,9474.636058
3598.122612,919.314598,1850.514855,9474.636058
3598.122926,919.314598,1702.473667,9400.615463
3598.123240,995.924147,1184.329507,9326.594869
3598.123554,153.219100,888.247130,9030.512492
3598.123868,76.609550,740.205942,9252.574275
3598.124182,-153.219100,1110.308913,9622.677246
3598.124496,0.000000,1184.329507,9030.512492
3598.124811,-229.828649,888.247130,9252.574275
3598.125125,0.000000,962.267725,9622.677246
3598.125439,0.000000,1036.288319,10584.944971
3598.125753,-306.438199,962.267725,10288.862594
3598.126067,-306.438199,1554.432478,10807.006753
3598.126381,-383.047749,2294.638420,11769.274478
3598.126696,689.485948,2294.638420,11029.068536
3598.127010,842.705048,2664.741391,11103.089130
3598.127324,612.876398,2516.700203,10881.027347
3598.127638,842.705048,2442.679609,10584.944971
3598.127952,766.095498,2442.679609,10436.903782
3598.128266,1532.190996,2072.576638,9992.780217
3598.128580,1455.581446,1480.411884,10066.800811
3598.128895,995.924147,1184.329507,9474.636058
3598.129209,689.485948,-0.000000,9474.636058
3598.129523,383.047749,-296.082377,9622.677246
3598.129837,306.438199,370.102971,9400.615463
3598.130151,0.000000,-0.000000,9400.615463
3598.130465,0.000000,-0.000000,9474.636058
3598.130780,229.828649,222.061783,9696.697840
3598.131094,153.219100,-0.000000,9548.656652
3598.131408,76.609550,296.082377,9770.718434
3598.131722,0.000000,370.102971,9918.759623
3598.132036,306.438199,444.123565,9844.739029
3598.132350,229.828649,1036.288319,9992.780217
3598.132664,612.876398,888.247130,9844.739029
3598.132979,919.314598,962.267725,9770.718434
3598.133293,459.657299,666.185348,9844.739029
3598.133607,76.609550,518.144159,9770.718434
3598.133921,459.657299,-0.000000,9400.615463
3598.134235,306.438199,-296.082377,9252.574275
3598.134549,76.609550,-666.185348,9252.574275
3598.134863,153.219100,-1036.288319,9400.615463
3598.135178,0.000000,-1036.288319,9104.533087
3598.135492,-153.219100,-1184.329507,8882.471304
3598.135806,-383.047749,-1332.370696,8068.244768
3598.136120,0.000000,-740.205942,8586.388927
3598.136434,0.000000,-1036.288319,7846.182985
3598.136748,-153.219100,-814.226536,8068.244768
3598.137063,76.609550,-1480.411884,9178.553681
3598.137377,-383.047749,-1184.329507,9326.594869
3598.137691,-842.705048,-962.267725,9844.739029
3598.138005,-1149.143247,-1258.350101,10362.883188
3598.138319,-1072.533697,-1184.329507,10732.986159
3598.138633,-766.095498,-962.267725,10732.986159
3598.138947,-536.266849,-370.102971,10362.883188
3598.139262,-383.047749,-666.185348,10584.944971
3598.139576,0.000000,-592.164754,9844.739029
3598.139890,76.609550,-592.164754,9030.512492
3598.140204,536.266849,-592.164754,9030.512492
3598.140518,536.266849,-666.185348,8660.409521
3598.140832,919.314598,-888.247130,8586.388927
3598.141147,536.266849,-962.267725,8660.409521
3598.141461,689.485948,-1480.411884,8882.471304
3598.141775,229.828649,-1184.329507,8882.471304
3598.142089,0.000000,-1184.329507,8882.471304
3598.142403,0.000000,-1258.350101,9252.574275
3598.142717,-459.657299,-1258.350101,9474.636058
3598.143031,-536.266849,-1258.350101,9474.636058
3598.143346,-766.095498,-1036.288319,9548.656652
3598.143660,-766.095498,-444.123565,10288.862594
3598.143974,-383.047749,-0.000000,10436.903782
3598.144288,0.000000,296.082377,10510.924376
3598.144602,76.609550,740.205942,10140.821405
3598.144916,459.657299,740.205942,9622.677246
3598.145231,306.438199,814.226536,9622.677246
3598.145545,383.047749,962.267725,10066.800811
3598.145859,689.485948,888.247130,10214.842000
3598.146173,766.095498,814.226536,9696.697840
3598.146487,766.095498,518.144159,9252.574275
3598.146801,459.657299,592.164754,9400.615463
3598.147115,689.485948,814.226536,9252.574275
3598.147430,306.438199,592.164754,8956.491898
3598.147744,383.047749,444.123565,8512.368333
3598.148058,306.438199,592.164754,8512.368333
3598.148372,383.047749,740.205942,8734.430116
3598.148686,76.609550,222.061783,9252.574275
3598.149000,0.000000,-0.000000,9696.697840
3598.149315,-459.657299,666.185348,10288.862594
3598.149629,-612.876398,666.185348,10955.047942
3598.149943,-306.438199,814.226536,11325.150913
3598.150257,0.000000,1554.432478,11547.212695
3598.150571,153.219100,1924.535449,10584.944971
3598.150885,459.657299,2146.597232,10288.862594
3598.151199,919.314598,2368.659014,10510.924376
3598.151514,1532.190996,2146.597232,9622.677246
3598.151828,1608.800546,1702.473667,9474.636058
3598.152142,1915.238745,1702.473667,9104.533087
3598.152456,1532.190996,1406.391290,8882.471304
3598.152770,1378.971896,1110.308913,9252.574275
3598.153084,1072.533697,518.144159,9400.615463
3598.153398,306.438199,296.082377,9474.636058
3598.153713,0.000000,222.061783,9400.615463
3598.154027,0.000000,370.102971,9178.553681
3598.154341,-229.828649,-0.000000,9992.780217
3598.154655,-612.876398,518.144159,10066.800811
3598.154969,-842.705048,592.164754,10214.842000
3598.155283,-919.314598,666.185348,9992.780217
3598.155598,-383.047749,1110.308913,10288.862594
3598.155912,0.000000,1554.432478,10288.862594
3598.156226,153.219100,1554.432478,9844.739029
3598.156540,229.828649,1554.432478,10288.862594
3598.156854,153.219100,1258.350101,10510.924376
3598.157168,-306.438199,1184.329507,10140.821405
3598.157482,306.438199,1110.308913,9918.759623
3598.157797,0.000000,370.102971,9918.759623
3598.158111,0.000000,-0.000000,9918.759623
3598.158425,0.000000,-296.082377,9326.594869
3598.158739,153.219100,-1184.329507,9252.574275
3598.159053,0.000000,-592.164754,9178.553681
3598.159367,153.219100,-518.144159,8882.471304
3598.159682,0.000000,-518.144159,8290.306550
3598.159996,0.000000,-444.123565,8216.285956
3598.160310,229.828649,-666.185348,8512.368333
3598.160624,383.047749,-1110.308913,9030.512492
3598.160938,0.000000,-740.205942,9548.656652
3598.161252,-383.047749,-814.226536,9992.780217
3598.161566,-459.657299,-814.226536,10436.903782
3598.161881,0.000000,-444.123565,10807.006753
3598.162195,0.000000,-296.082377,10584.944971
3598.162509,0.000000,-296.082377,10288.862594
3598.162823,229.828649,-148.041188,9992.780217
3598.163137,1072.533697,-74.020594,9844.739029
3598.163451,766.095498,-222.061783,9474.636058
3598.163766,1225.752797,-518.144159,8956.491898
3598.164080,1302.362347,-666.185348,8734.430116
3598.164394,1072.533697,-814.226536,8882.471304
3598.164708,612.876398,-1258.350101,8734.430116
3598.165022,459.657299,-1406.391290,9104.533087
3598.165336,383.047749,-1332.370696,9104.533087
3598.165650,153.219100,-1110.308913,9178.553681
3598.165965,0.000000,-1184.329507,8586.388927
3598.166279,-229.828649,-1036.288319,8808.450710
3598.166593,-306.438199,-1184.329507,9992.780217
3598.166907,-306.438199,-1184.329507,9474.636058
3598.167221,-306.438199,-592.164754,9622.677246
3598.167535,-306.438199,-518.144159,10362.883188
3598.167850,-153.219100,-148.041188,10140.821405
3598.168164,0.000000,-74.020594,9918.759623
3598.168478,0.000000,-0.000000,9992.780217
3598.168792,-383.047749,222.061783,10288.862594
3598.169106,-306.438199,370.102971,9770.718434
3598.169420,0.000000,-0.000000,9770.718434
3598.169734,229.828649,-0.000000,9770.718434
3598.170049,153.219100,-0.000000,9474.636058
3598.170363,76.609550,-74.020594,9326.594869
3598.170677,306.438199,-296.082377,9104.533087
3598.170991,842.705048,-0.000000,8734.430116
3598.171305,612.876398,-0.000000,8142.265362
3598.171619,0.000000,518.144159,8142.265362
3598.171933,76.609550,148.041188,8290.306550
3598.172248,229.828649,-74.020594,8586.388927
3598.172562,-229.828649,-148.041188,9474.636058
3598.172876,-766.095498,-0.000000,9844.739029
3598.173190,-919.314598,-74.020594,10732.986159
3598.173504,-919.314598,444.123565,11029.068536
3598.173818,-459.657299,814.226536,11029.068536
3598.174133,76.609550,1628.453072,10955.047942
3598.174447,306.438199,1924.535449,10510.924376
3598.174761,612.876398,1850.514855,10436.903782
3598.175075,919.314598,2072.576638,9992.780217
3598.175389,1532.190996,1924.535449,9548.656652
3598.175703,1762.019645,1702.473667,8808.450710
3598.176017,1685.410096,1332.370696,8882.471304
3598.176332,1149.143247,962.267725,9178.553681
3598.176646,1455.581446,518.144159,9178.553681
3598.176960,459.657299,592.164754,9030.512492
3598.177274,0.000000,518.144159,9474.636058
3598.177588,-306.438199,296.082377,9474.636058
3598.177902,-459.657299,148.041188,9918.759623
3598.178217,-459.657299,-0.000000,10066.800811
3598.178531,-536.266849,-0.000000,10214.842000
3598.178845,-459.657299,814.226536,10214.842000
3598.179159,0.000000,1258.350101,10510.924376
3598.179473,0.000000,1554.432478,10881.027347
3598.179787,153.219100,1776.494261,10140.821405
3598.180101,459.657299,1998.556043,9844.739029
3598.180416,689.485948,1924.535449,10214.842000
3598.180730,612.876398,1480.411884,10288.862594
3598.181044,383.047749,962.267725,9992.780217
3598.181358,383.047749,592.164754,9696.697840
3598.181672,306.438199,-0.000000,9548.656652
3598.181986,306.438199,-148.041188,9474.636058
3598.182301,383.047749,-370.102971,9474.636058
3598.182615,153.219100,-518.144159,9326.594869
3598.182929,0.000000,-518.144159,8882.471304
3598.183243,76.609550,-296.082377,8290.306550
3598.183557,306.438199,-0.000000,7994.224174
3598.183871,306.438199,-666.185348,8364.327145
3598.184185,383.047749,-666.185348,9030.512492
3598.184500,766.095498,-518.144159,9474.636058
3598.184814,0.000000,-518.144159,9918.759623
3598.185128,0.000000,-74.020594,10436.903782
3598.185443,-383.047749,-0.000000,10807.006753
3598.185757,-229.828649,-0.000000,10584.944971
3598.186071,229.828649,-0.000000,10288.862594
3598.186385,229.828649,-0.000000,9918.759623
3598.186700,459.657299,-0.000000,9844.739029
3598.187014,995.924147,-0.000000,9474.636058
3598.187328,766.095498,-222.061783,8808.450710
3598.187643,1225.752797,-296.082377,8364.327145
3598.187957,919.314598,-444.123565,8586.388927
3598.188271,842.705048,-740.205942,8956.491898
3598.188586,459.657299,-888.247130,9178.553681
3598.188900,76.609550,-962.267725,8882.471304
3598.189214,0.000000,-1036.288319,8660.409521
3598.189528,-459.657299,-1036.288319,8808.450710
3598.189843,-459.657299,-666.185348,9474.636058
3598.190157,-459.657299,-1036.288319,9622.677246
3598.190471,-842.705048,-1036.288319,9622.677246
3598.190786,-536.266849,-666.185348,9696.697840
3598.191100,-842.705048,-222.061783,10140.821405
3598.191414,-459.657299,-74.020594,10584.944971
3598.191728,-536.266849,-0.000000,10362.883188
3598.192043,-383.047749,-0.000000,10214.842000
3598.192357,0.000000,-74.020594,10066.800811
3598.192671,0.000000,148.041188,10214.842000
3598.192986,0.000000,296.082377,10140.821405
3598.193300,76.609550,-0.000000,9918.759623
3598.193614,76.609550,-148.041188,9474.636058
3598.193929,153.219100,-222.061783,9030.512492
3598.194243,383.047749,-222.061783,9178.553681
3598.194557,153.219100,-444.123565,8882.471304
3598.194871,306.438199,-370.102971,8660.409521
3598.195186,0.000000,-0.000000,8216.285956
3598.195500,0.000000,-592.164754,8660.409521
3598.195814,0.000000,-814.226536,9400.615463
3598.196129,-383.047749,-222.061783,9770.718434
3598.196443,-383.047749,-370.102971,9918.759623
3598.196757,-919.314598,-0.000000,10362.883188
3598.197071,-153.219100,-296.082377,11029.068536
3598.197386,0.000000,888.247130,11029.068536
3598.197700,383.047749,1110.308913,10658.965565
3598.198014,229.828649,1628.453072,10288.862594
3598.198329,919.314598,2072.576638,9918.759623
3598.198643,1149.143247,1480.411884,9548.656652
3598.198957,1608.800546,1702.473667,9252.574275
3598.199272,1762.019645,1480.411884,9030.512492
3598.199586,1378.971896,962.267725,8660.409521
3598.199900,1149.143247,740.205942,8734.430116
3598.200214,995.924147,518.144159,9178.553681
3598.200529,536.266849,222.061783,9474.636058
3598.200843,-229.828649,-0.000000,9252.574275
3598.201157,-612.876398,-0.000000,9104.533087
3598.201472,-459.657299,222.061783,9548.656652
3598.201786,-306.438199,296.082377,9548.656652
3598.202100,-459.657299,222.061783,9770.718434
3598.202414,-612.876398,592.164754,9992.780217
3598.202729,-306.438199,1110.308913,10066.800811
3598.203043,0.000000,1406.391290,9992.780217
3598.203357,383.047749,1628.453072,10584.944971
3598.203672,459.657299,1850.514855,10140.821405
3598.203986,459.657299,1480.411884,10066.800811
3598.204300,153.219100,1406.391290,10066.800811
3598.204614,0.000000,1332.370696,10066.800811
3598.204929,306.438199,592.164754,9844.739029
3598.205243,229.828649,370.102971,9400.615463
3598.205557,76.609550,-74.020594,9474.636058
3598.205872,0.000000,-296.082377,9622.677246
3598.206186,0.000000,-444.123565,9326.594869
3598.206500,153.219100,-444.123565,9104.533087
3598.206815,0.000000,-0.000000,8808.450710
3598.207129,0.000000,-0.000000,8142.265362
3598.207443,306.438199,-0.000000,8734.430116
3598.207757,153.219100,-222.061783,9104.533087
3598.208072,0.000000,-296.082377,9622.677246
3598.208386,0.000000,-0.000000,10214.842000
3598.208700,-536.266849,148.041188,10807.006753
3598.209015,-153.219100,-0.000000,11399.171507
3598.209329,0.000000,370.102971,10881.027347
3598.209643,0.000000,370.102971,10658.965565
3598.209957,76.609550,222.061783,10658.965565
3598.210272,0.000000,370.102971,10288.862594
3598.210586,689.485948,518.144159,9474.636058
3598.210900,919.314598,-0.000000,8882.471304
3598.211215,1225.752797,-74.020594,8882.471304
3598.211529,842.705048,-296.082377,8438.347739
3598.211843,919.314598,-444.123565,8438.347739
3598.212158,842.705048,-370.102971,8586.388927
3598.212472,0.000000,-888.247130,8586.388927
3598.212786,76.609550,-518.144159,8734.430116
3598.213100,-306.438199,-740.205942,8956.491898
3598.213415,-612.876398,-814.226536,9252.574275
3598.213729,-766.095498,-888.247130,9400.615463
3598.214043,-995.924147,-740.205942,9622.677246
3598.214358,-919.314598,-518.144159,10066.800811
3598.214672,-689.485948,-296.082377,10214.842000
3598.214986,-612.876398,-592.164754,10214.842000
3598.215300,-459.657299,-74.020594,9918.759623
3598.215615,0.000000,148.041188,10140.821405
3598.215929,76.609550,370.102971,10140.821405
3598.216243,153.219100,-0.000000,9622.677246
3598.216558,612.876398,-74.020594,9918.759623
3598.216872,536.266849,-518.144159,9326.594869
3598.217186,536.266849,-296.082377,9326.594869
3598.217500,536.266849,-370.102971,9548.656652
3598.217815,153.219100,-814.226536,8808.450710
3598.218129,306.438199,-814.226536,8734.430116
3598.218443,612.876398,-1036.288319,8438.347739
3598.218758,153.219100,-592.164754,8290.306550
3598.219072,229.828649,-296.082377,8808.450710
3598.219386,0.000000,-888.247130,9252.574275
3598.219701,-459.657299,-1258.350101,9918.759623
3598.220015,-766.095498,-740.205942,10066.800811
3598.220329,-689.485948,-370.102971,10288.862594
3598.220643,-459.657299,-74.020594,11103.089130
3598.220958,-306.438199,222.061783,11325.150913
3598.221272,0.000000,888.247130,11103.089130
3598.221586,229.828649,1110.308913,10140.821405
3598.221901,1072.533697,888.247130,9770.718434
3598.222215,766.095498,1332.370696,9474.636058
3598.222529,1149.143247,1258.350101,9030.512492
3598.222843,1608.800546,1110.308913,8660.409521
3598.223158,1225.752797,814.226536,8660.409521
3598.223472,1225.752797,1036.288319,8808.450710
3598.223786,766.095498,-74.020594,8660.409521
3598.224101,229.828649,-148.041188,8808.450710
3598.224415,-383.047749,-0.000000,8808.450710
3598.224729,-612.876398,-0.000000,9030.512492
3598.225044,383.047749,-74.020594,9178.553681
3598.225358,-689.485948,-0.000000,9696.697840
3598.225672,-612.876398,-0.000000,9992.780217
3598.225986,-689.485948,518.144159,9844.739029
3598.226301,-383.047749,962.267725,10066.800811
3598.226615,153.219100,1480.411884,10584.944971
3598.226929,229.828649,1628.453072,10510.924376
3598.227244,536.266849,1924.535449,10288.862594
3598.227558,229.828649,1480.411884,9770.718434
3598.227872,536.266849,1406.391290,9844.739029
3598.228186,383.047749,592.164754,10140.821405
3598.228501,76.609550,518.144159,10140.821405
3598.228815,306.438199,444.123565,9770.718434
3598.229129,76.609550,-0.000000,9622.677246
3598.229444,383.047749,-666.185348,9400.615463
3598.229758,229.828649,-148.041188,9770.718434
3598.230072,0.000000,-148.041188,9252.574275
3598.230387,76.609550,-0.000000,8660.409521
3598.230701,306.438199,370.102971,8660.409521
3598.231015,459.657299,222.061783,9178.553681
3598.231329,459.657299,-0.000000,9474.636058
3598.231644,76.609550,-148.041188,10140.821405
3598.231958,-383.047749,-0.000000,10510.924376
3598.232272,-459.657299,-0.000000,10807.006753
3598.232587,-229.828649,222.061783,11103.089130
3598.232901,-306.438199,296.082377,11029.068536
3598.233215,-612.876398,592.164754,11103.089130
3598.233529,0.000000,888.247130,10584.944971
3598.233844,229.828649,814.226536,9918.759623
3598.234158,766.095498,740.205942,9918.759623
3598.234472,995.924147,444.123565,8882.471304
3598.234787,919.314598,-0.000000,8586.388927
3598.235101,1149.143247,-222.061783,8512.368333
3598.235415,919.314598,-444.123565,8734.430116
3598.235729,919.314598,-888.247130,8438.347739
3598.236044,153.219100,-518.144159,8882.471304
3598.236358,0.000000,-444.123565,8364.327145
3598.236672,-229.828649,-296.082377,8290.306550
3598.236987,-306.438199,-222.061783,9030.512492
3598.237301,-306.438199,-592.164754,9252.574275
3598.237615,-306.438199,-222.061783,9548.656652
3598.237930,-536.266849,-74.020594,9696.697840
3598.238244,-383.047749,222.061783,10066.800811
3598.238558,612.876398,592.164754,9992.780217
3598.238872,0.000000,-0.000000,10066.800811
3598.239187,0.000000,-0.000000,10288.862594
3598.239501,0.000000,148.041188,10214.842000
3598.239815,0.000000,222.061783,10066.800811
3598.240130,153.219100,-74.020594,9622.677246
3598.240444,383.047749,222.061783,9696.697840
3598.240758,229.828649,-148.041188,9548.656652
3598.241072,536.266849,-666.185348,9104.533087
3598.241387,919.314598,-444.123565,9252.574275
3598.241701,153.219100,-518.144159,9104.533087
3598.242015,306.438199,-740.205942,8734.430116
3598.242330,153.219100,-148.041188,8734.430116
3598.242644,0.000000,-444.123565,8734.430116
3598.242958,76.609550,-740.205942,9400.615463
3598.243273,-153.219100,-888.247130,9918.759623
3598.243587,-842.705048,-740.205942,10510.924376
3598.243901,-995.924147,-444.123565,11103.089130
3598.244215,-459.657299,-518.144159,11251.130318
3598.244530,-689.485948,-0.000000,11473.192101
3598.244844,0.000000,666.185348,10955.047942
3598.245158,0.000000,1036.288319,10584.944971
3598.245473,383.047749,1184.329507,10362.883188
3598.245787,919.314598,888.247130,9252.574275
3598.246101,1072.533697,814.226536,9178.553681
3598.246415,1378.971896,518.144159,8216.285956
3598.246730,1302.362347,666.185348,8290.306550
3598.247044,1225.752797,222.061783,8734.430116
3598.247358,383.047749,-296.082377,8364.327145
3598.247673,383.047749,-0.000000,8364.327145
3598.247987,0.000000,-222.061783,8438.347739
3598.248301,-689.485948,-370.102971,8808.450710
3598.248616,-612.876398,-148.041188,9326.594869
3598.248930,-306.438199,-74.020594,9622.677246
3598.249244,-919.314598,74.020594,9992.780217
3598.249558,-842.705048,518.144159,9992.780217
3598.249873,-306.438199,740.205942,10214.842000
3598.250187,0.000000,1184.329507,10436.903782
3598.250501,459.657299,1480.411884,9844.739029
3598.250816,536.266849,1554.432478,9992.780217
3598.251130,229.828649,1332.370696,10288.862594
3598.251444,459.657299,1184.329507,9992.780217
3598.251758,842.705048,740.205942,9918.759623
3598.252073,383.047749,740.205942,9474.636058
3598.252387,459.657299,444.123565,9696.697840
3598.252701,76.609550,-0.000000,9770.718434
3598.253016,229.828649,-74.020594,9844.739029
3598.253330,306.438199,-370.102971,9400.615463
3598.253644,306.438199,-222.061783,8956.491898
3598.253958,153.219100,148.041188,8734.430116
3598.254273,0.000000,296.082377,8956.491898
3598.254587,76.609550,-0.000000,9326.594869
3598.254901,306.438199,-370.102971,9400.615463
3598.255216,0.000000,-296.082377,9474.636058
3598.255530,-612.876398,370.102971,10732.986159
3598.255844,-459.657299,296.082377,11325.150913
3598.256159,-229.828649,444.123565,11621.233289
3598.256473,306.438199,444.123565,11473.192101
3598.256787,0.000000,666.185348,11029.068536
3598.257101,229.828649,666.185348,10066.800811
3598.257416,383.047749,962.267725,9696.697840
3598.257730,689.485948,592.164754,9474.636058
3598.258044,1149.143247,296.082377,8734.430116
3598.258359,1685.410096,962.267725,8512.368333
3598.258673,1302.362347,-0.000000,8512.368333
3598.258987,766.095498,-222.061783,8438.347739
3598.259301,536.266849,-222.061783,8660.409521
3598.259616,229.828649,-370.102971,8438.347739
3598.259930,0.000000,-370.102971,9104.533087
3598.260244,-153.219100,-222.061783,9030.512492
3598.260559,-536.266849,-518.144159,9030.512492
3598.260873,-842.705048,-370.102971,9770.718434
3598.261187,-842.705048,-296.082377,9844.739029
3598.261502,-612.876398,-74.020594,9844.739029
3598.261816,-383.047749,222.061783,10584.944971
3598.262130,-229.828649,518.144159,10436.903782
3598.262444,0.000000,592.164754,9992.780217
3598.262759,76.609550,666.185348,9992.780217
3598.263073,0.000000,370.102971,10140.821405
3598.263387,0.000000,296.082377,10140.821405
3598.263702,153.219100,-0.000000,9992.780217
3598.264016,229.828649,-296.082377,9474.636058
3598.264330,612.876398,-592.164754,9474.636058
3598.264644,383.047749,-592.164754,9474.636058
3598.264959,229.828649,-592.164754,9622.677246
3598.265273,0.000000,-888.247130,9474.636058
3598.265587,76.609550,-666.185348,8660.409521
3598.265902,0.000000,-592.164754,8364.327145
3598.266216,153.219100,-518.144159,8586.388927
3598.266530,0.000000,-814.226536,9400.615463
3598.266844,-383.047749,-962.267725,10066.800811
3598.267159,-842.705048,-814.226536,10066.800811
3598.267473,-919.314598,-888.247130,10436.903782
3598.267787,-536.266849,-296.082377,10807.006753
3598.268102,0.000000,74.020594,10955.047942
3598.268416,-153.219100,-0.000000,10955.047942
3598.268730,0.000000,370.102971,10510.924376
3598.269045,536.266849,592.164754,9696.697840
3598.269359,766.095498,888.247130,9326.594869
3598.269673,1532.190996,740.205942,9030.512492
3598.269987,1608.800546,740.205942,8586.388927
3598.270302,1378.971896,-0.000000,8512.368333
3598.270616,1149.143247,-148.041188,7994.224174
3598.270930,995.924147,-296.082377,8660.409521
3598.271245,306.438199,-370.102971,9030.512492
3598.271559,-229.828649,-518.144159,8512.368333
3598.271873,-459.657299,-888.247130,8660.409521
3598.272187,-689.485948,-296.082377,9252.574275
3598.272502,-306.438199,-148.041188,9474.636058
3598.272816,-383.047749,-74.020594,9548.656652
3598.273130,-689.485948,296.082377,9770.718434
3598.273445,-536.266849,888.247130,9992.780217
3598.273759,-229.828649,1258.350101,10066.800811
3598.274073,153.219100,1258.350101,10510.924376
3598.274388,153.219100,1258.350101,10214.842000
3598.274702,383.047749,1406.391290,10140.821405
3598.275016,0.000000,1480.411884,10436.903782
3598.275330,0.000000,962.267725,9992.780217
3598.275645,459.657299,888.247130,10288.862594
3598.275959,76.609550,444.123565,10066.800811
3598.276273,459.657299,-0.000000,9622.677246
3598.276588,459.657299,-0.000000,9326.594869
3598.276902,383.047749,-0.000000,8956.491898
3598.277216,383.047749,-0.000000,8660.409521
3598.277530,229.828649,222.061783,8808.450710
3598.277845,-306.438199,148.041188,8882.471304
3598.278159,229.828649,-0.000000,9104.533087
3598.278473,0.000000,-0.000000,9474.636058
3598.278788,0.000000,-0.000000,10140.821405
3598.279102,-306.438199,-0.000000,10510.924376
3598.279416,-842.705048,-74.020594,11399.171507
3598.279731,-536.266849,592.164754,11399.171507
3598.280045,-229.828649,814.226536,11399.171507
3598.280359,0.000000,1036.288319,10732.986159
3598.280673,306.438199,962.267725,10584.944971
3598.280988,383.047749,1184.329507,10066.800811
3598.281302,919.314598,1184.329507,9474.636058
3598.281616,1302.362347,962.267725,8808.450710
3598.281931,1225.752797,518.144159,8512.368333
3598.282245,1149.143247,-0.000000,8586.388927
3598.282559,1072.533697,-148.041188,8364.327145
3598.282873,689.485948,-148.041188,8512.368333
3598.283188,229.828649,-74.020594,8438.347739
3598.283502,76.609550,-0.000000,8660.409521
3598.283816,-306.438199,-296.082377,8808.450710
3598.284131,-153.219100,-0.000000,9178.553681
3598.284445,-229.828649,-296.082377,9326.594869
3598.284759,-383.047749,-148.041188,9696.697840
3598.285073,-306.438199,296.082377,10140.821405
3598.285388,-919.314598,592.164754,10658.965565
3598.285702,-383.047749,592.164754,10288.862594
3598.286016,229.828649,666.185348,9770.718434
3598.286330,0.000000,740.205942,9918.759623
3598.286645,153.219100,444.123565,9992.780217
3598.286959,153.219100,370.102971,9844.739029
3598.287273,0.000000,444.123565,9844.739029
3598.287587,459.657299,-74.020594,9252.574275
3598.287902,383.047749,-148.041188,9252.574275
3598.288216,153.219100,-740.205942,9548.656652
3598.288530,0.000000,-1258.350101,9474.636058
3598.288845,459.657299,-740.205942,9030.512492
3598.289159,229.828649,-592.164754,8808.450710
3598.289473,153.219100,-444.123565,8808.450710
3598.289787,612.876398,-666.185348,8364.327145
3598.290102,-536.266849,-1332.370696,8956.491898
3598.290416,0.000000,-814.226536,9770.718434
3598.290730,-536.266849,-518.144159,10066.800811
3598.291044,-689.485948,-518.144159,10732.986159
3598.291359,-306.438199,-0.000000,11399.171507
3598.291673,0.000000,-0.000000,10881.027347
3598.291987,76.609550,370.102971,10510.924376
3598.292301,229.828649,592.164754,10214.842000
3598.292616,536.266849,666.185348,10288.862594
3598.292930,1072.533697,740.205942,9548.656652
3598.293244,1149.143247,296.082377,8808.450710
3598.293558,1455.581446,222.061783,8586.388927
3598.293873,1455.581446,-0.000000,8438.347739
3598.294187,1302.362347,-74.020594,8586.388927
3598.294501,995.924147,-148.041188,8734.430116
3598.294815,459.657299,-444.123565,8808.450710
3598.295130,76.609550,-0.000000,8734.430116
3598.295444,-459.657299,-74.020594,8956.491898
3598.295758,-229.828649,-296.082377,9400.615463
3598.296072,-536.266849,-74.020594,9844.739029
3598.296387,-383.047749,-518.144159,10214.842000
3598.296701,-383.047749,370.102971,9918.759623
3598.297015,-536.266849,888.247130,10510.924376
3598.297329,-383.047749,1184.329507,10362.883188
3598.297644,0.000000,1628.453072,10584.944971
3598.297958,306.438199,1332.370696,10140.821405
3598.298272,0.000000,1332.370696,9770.718434
3598.298586,153.219100,1110.308913,10066.800811
3598.298901,0.000000,1110.308913,9992.780217
3598.299215,0.000000,296.082377,9548.656652
3598.299529,0.000000,-0.000000,9696.697840
3598.299843,76.609550,-222.061783,9548.656652
3598.300158,153.219100,-296.082377,9770.718434
3598.300472,153.219100,-444.123565,9178.553681
3598.300786,383.047749,-592.164754,8734.430116
3598.301100,76.609550,-0.000000,8808.450710
3598.301415,76.609550,296.082377,8290.306550
3598.301729,383.047749,-0.000000,8808.450710
3598.302043,153.219100,-370.102971,9326.594869
3598.302357,153.219100,-592.164754,9474.636058
3598.302672,-383.047749,-74.020594,10066.800811
3598.302986,-612.876398,-148.041188,10732.986159
3598.303300,-459.657299,148.041188,11473.192101
3598.303614,-459.657299,296.082377,11251.130318
3598.303929,0.000000,888.247130,10732.986159
3598.304243,0.000000,1036.288319,10288.862594
3598.304557,383.047749,814.226536,9770.718434
3598.304872,1149.143247,962.267725,9474.636058
3598.305186,1302.362347,962.267725,8882.471304
3598.305500,1302.362347,370.102971,8734.430116
3598.305814,1762.019645,222.061783,8734.430116
3598.306129,1302.362347,-0.000000,8290.306550
3598.306443,919.314598,-74.020594,8808.450710
3598.306757,229.828649,148.041188,8882.471304
3598.307071,-306.438199,-148.041188,8586.388927
3598.307386,0.000000,-0.000000,8882.471304
3598.307700,-306.438199,-296.082377,9400.615463
3598.308014,-612.876398,-296.082377,9696.697840
3598.308328,-459.657299,-0.000000,9770.718434
3598.308643,-842.705048,296.082377,10288.862594
3598.308957,-536.266849,518.144159,10436.903782
3598.309271,76.609550,592.164754,10362.883188
3598.309585,306.438199,1036.288319,10436.903782
3598.309900,229.828649,888.247130,10140.821405
3598.310214,229.828649,814.226536,9992.780217
3598.310528,229.828649,370.102971,9696.697840
3598.310842,153.219100,-0.000000,9992.780217
3598.311157,306.438199,-0.000000,9548.656652
3598.311471,0.000000,-222.061783,9474.636058
3598.311785,153.219100,-740.205942,9252.574275
3598.312099,229.828649,-740.205942,9104.533087
3598.312414,153.219100,-740.205942,9030.512492
3598.312728,383.047749,-740.205942,8808.450710
3598.313042,0.000000,-518.144159,8586.388927
3598.313356,229.828649,-518.144159,8660.409521
3598.313671,76.609550,-518.144159,9252.574275
3598.313985,0.000000,-962.267725,9918.759623
3598.314299,-306.438199,-962.267725,10140.821405
3598.314613,-919.314598,-518.144159,10436.903782
3598.314928,-842.705048,-296.082377,10807.006753
3598.315242,-229.828649,-74.020594,10584.944971
3598.315556,0.000000,148.041188,10955.047942
3598.315870,0.000000,518.144159,10732.986159
3598.316185,153.219100,296.082377,9918.759623
3598.316499,689.485948,370.102971,9696.697840
3598.316813,919.314598,518.144159,8808.450710
3598.317127,1225.752797,444.123565,8586.388927
3598.317442,1378.971896,296.082377,8512.368333
3598.317756,842.705048,-0.000000,8216.285956
3598.318070,766.095498,-0.000000,8512.368333
3598.318384,383.047749,-518.144159,8586.388927
3598.318699,-306.438199,-296.082377,8956.491898
3598.319013,-536.266849,-222.061783,9030.512492
3598.319327,-689.485948,-518.144159,9252.574275
3598.319641,-536.266849,-814.226536,9548.656652
3598.319956,-689.485948,-222.061783,9992.780217
3598.320270,-919.314598,-0.000000,9992.780217
3598.320584,-612.876398,740.205942,10140.821405
3598.320899,-306.438199,888.247130,10140.821405
3598.321213,76.609550,1184.329507,10066.800811
3598.321527,383.047749,1258.350101,9844.739029
3598.321841,153.219100,1110.308913,9992.780217
3598.322156,76.609550,740.205942,9844.739029
3598.322470,306.438199,444.123565,9844.739029
3598.322784,383.047749,-0.000000,9622.677246
3598.323098,459.657299,222.061783,9474.636058
3598.323413,459.657299,-148.041188,9474.636058
3598.323727,383.047749,-370.102971,9252.574275
3598.324041,383.047749,-148.041188,9104.533087
3598.324355,306.438199,-222.061783,9030.512492
3598.324670,536.266849,-222.061783,8660.409521
3598.324984,0.000000,-222.061783,8956.491898
3598.325298,153.219100,-74.020594,9252.574275
3598.325612,0.000000,-370.102971,9474.636058
3598.325927,-153.219100,-592.164754,10362.883188
3598.326241,-306.438199,-74.020594,10510.924376
3598.326555,-383.047749,-0.000000,11251.130318
3598.326869,-536.266849,518.144159,11103.089130
3598.327184,0.000000,814.226536,10881.027347
3598.327498,76.609550,962.267725,11029.068536
3598.327812,229.828649,1258.350101,10214.842000
3598.328126,995.924147,1332.370696,9918.759623
3598.328441,919.314598,1184.329507,9548.656652
3598.328755,919.314598,740.205942,9030.512492
3598.329069,689.485948,518.144159,8512.368333
3598.329383,1149.143247,444.123565,8882.471304
3598.329698,995.924147,222.061783,9252.574275
3598.330012,459.657299,-74.020594,8512.368333
3598.330326,-229.828649,-222.061783,8660.409521
3598.330640,-306.438199,296.082377,9326.594869
3598.330955,-306.438199,-0.000000,9104.533087
3598.331269,-229.828649,-0.000000,9474.636058
3598.331583,-689.485948,-0.000000,9474.636058
3598.331897,-383.047749,-0.000000,9622.677246
3598.332212,-306.438199,222.061783,9770.718434
3598.332526,-153.219100,962.267725,10214.842000
3598.332840,0.000000,962.267725,10362.883188
3598.333154,0.000000,962.267725,9844.739029
3598.333469,0.000000,1036.288319,9918.759623
3598.333783,0.000000,740.205942,9622.677246
3598.334097,229.828649,518.144159,9696.697840
3598.334411,459.657299,296.082377,9696.697840
3598.334726,383.047749,-0.000000,9474.636058
3598.335040,306.438199,-148.041188,9474.636058
3598.335354,229.828649,-518.144159,9474.636058
3598.335668,229.828649,-444.123565,9326.594869
3598.335983,229.828649,-518.144159,9030.512492
3598.336297,306.438199,-370.102971,8660.409521
3598.336611,306.438199,-296.082377,8438.347739
3598.336926,459.657299,-518.144159,8512.368333
3598.337240,153.219100,-888.247130,9104.533087
3598.337554,76.609550,-888.247130,9696.697840
3598.337868,-229.828649,-370.102971,9992.780217
3598.338183,-229.828649,-222.061783,10732.986159
3598.338497,-306.438199,-148.041188,11029.068536
3598.338811,-229.828649,370.102971,11251.130318
3598.339125,0.000000,370.102971,11029.068536
3598.339440,0.000000,518.144159,10510.924376
3598.339754,306.438199,666.185348,10214.842000
3598.340068,689.485948,666.185348,9696.697840
3598.340382,1149.143247,444.123565,9326.594869
3598.340697,1149.143247,518.144159,8956.491898
3598.341011,1072.533697,-0.000000,8364.327145
3598.341325,1149.143247,-0.000000,8586.388927
3598.341639,919.314598,-148.041188,8734.430116
3598.341954,383.047749,-222.061783,8734.430116
3598.342268,0.000000,-296.082377,8734.430116
3598.342582,-766.095498,-370.102971,8734.430116
3598.342896,-459.657299,-444.123565,9104.533087
3598.343211,-383.047749,-370.102971,9474.636058
3598.343525,-612.876398,-222.061783,9770.718434
3598.343839,-1072.533697,-148.041188,9992.780217
3598.344153,-919.314598,370.102971,10140.821405
3598.344468,-536.266849,518.144159,10214.842000
3598.344782,0.000000,814.226536,10140.821405
3598.345096,76.609550,962.267725,9844.739029
3598.345410,76.609550,1036.288319,9992.780217
3598.345725,383.047749,888.247130,10066.800811
3598.346039,0.000000,1036.288319,9474.636058
3598.346353,153.219100,444.123565,9474.636058
3598.346667,306.438199,-0.000000,9474.636058
3598.346982,229.828649,-148.041188,9252.574275
3598.347296,306.438199,-370.102971,9326.594869
3598.347610,306.438199,-444.123565,9548.656652
3598.347924,459.657299,-370.102971,9252.574275
3598.348239,0.000000,-74.020594,8660.409521
3598.348553,-306.438199,222.061783,8290.306550
3598.348867,153.219100,-296.082377,9474.636058
3598.349181,229.828649,-222.061783,9992.780217
3598.349496,0.000000,-0.000000,10214.842000
3598.349810,-306.438199,-0.000000,10510.924376
3598.350124,-459.657299,-0.000000,11029.068536
3598.350438,0.000000,444.123565,11251.130318
3598.350753,0.000000,592.164754,11177.109724
3598.351067,76.609550,814.226536,10584.944971
3598.351381,459.657299,1036.288319,10140.821405
3598.351695,612.876398,1258.350101,9770.718434
3598.352010,689.485948,1184.329507,9992.780217
3598.352324,1302.362347,1110.308913,9178.553681
3598.352638,1225.752797,592.164754,8734.430116
3598.352953,1225.752797,-0.000000,8586.388927
3598.353267,919.314598,-74.020594,8660.409521
3598.353581,766.095498,-222.061783,8956.491898
3598.353895,0.000000,-74.020594,8882.471304
3598.354210,-229.828649,-0.000000,9178.553681
3598.354524,-459.657299,-0.000000,9104.533087
3598.354838,-612.876398,-74.020594,9252.574275
3598.355152,-383.047749,-0.000000,9548.656652
3598.355467,-459.657299,-0.000000,10066.800811
3598.355781,-766.095498,370.102971,10288.862594
3598.356095,0.000000,962.267725,10362.883188
3598.356409,153.219100,740.205942,10584.944971
3598.356724,459.657299,962.267725,10214.842000
3598.357038,153.219100,888.247130,9548.656652
3598.357352,229.828649,962.267725,9770.718434
3598.357666,229.828649,518.144159,9622.677246
3598.357981,306.438199,296.082377,9696.697840
3598.358295,383.047749,-0.000000,9474.636058
3598.358609,306.438199,-148.041188,9474.636058
3598.358923,76.609550,-444.123565,9400.615463
3598.359238,306.438199,-148.041188,9030.512492
3598.359552,153.219100,-370.102971,9104.533087
3598.359866,306.438199,-148.041188,9326.594869
3598.360180,229.828649,-0.000000,9104.533087
3598.360495,76.609550,222.061783,9252.574275
3598.360809,459.657299,-370.102971,9326.594869
3598.361123,459.657299,-666.185348,9548.656652
3598.361437,-229.828649,-518.144159,10510.924376
3598.361752,-689.485948,-444.123565,10881.027347
3598.362066,-612.876398,-0.000000,11177.109724
3598.362380,0.000000,222.061783,11103.089130
3598.362694,0.000000,370.102971,10955.047942
3598.363009,0.000000,666.185348,10732.986159
3598.363323,153.219100,666.185348,10066.800811
3598.363637,459.657299,592.164754,9252.574275
3598.363951,1149.143247,-0.000000,9104.533087
3598.364266,995.924147,370.102971,8734.430116
3598.364580,1302.362347,-0.000000,8586.388927
3598.364894,919.314598,-148.041188,8512.368333
3598.365208,306.438199,-518.144159,8364.327145
3598.365523,153.219100,-222.061783,8882.471304
3598.365837,-76.609550,-0.000000,8956.491898
3598.366151,-383.047749,-148.041188,9030.512492
3598.366465,-689.485948,-370.102971,9326.594869
3598.366780,-842.705048,-444.123565,9474.636058
3598.367094,-306.438199,-222.061783,10140.821405
3598.367408,-612.876398,-0.000000,10140.821405
3598.367723,-766.095498,370.102971,9844.739029
3598.368037,-536.266849,370.102971,9844.739029
3598.368351,76.609550,740.205942,10066.800811
3598.368665,383.047749,888.247130,9918.759623
3598.368980,76.609550,962.267725,9770.718434
3598.369294,76.609550,814.226536,9770.718434
3598.369608,229.828649,518.144159,9696.697840
3598.369922,383.047749,296.082377,9548.656652
3598.370237,842.705048,-148.041188,9252.574275
3598.370551,383.047749,-296.082377,9104.533087
3598.370865,306.438199,-296.082377,9696.697840
3598.371179,0.000000,-518.144159,9178.553681
3598.371494,229.828649,-518.144159,9030.512492
3598.371808,0.000000,-666.185348,8808.450710
3598.372122,0.000000,-148.041188,8808.450710
3598.372436,229.828649,-148.041188,9178.553681
3598.372751,0.000000,-592.164754,9696.697840
3598.373065,-536.266849,-444.123565,10214.842000
3598.373379,-689.485948,-222.061783,10584.944971
3598.373693,-689.485948,-74.020594,10881.027347
3598.374008,-459.657299,444.123565,11325.150913
3598.374322,-229.828649,740.205942,11251.130318
3598.374636,0.000000,814.226536,10658.965565
3598.374950,0.000000,666.185348,10362.883188
3598.375265,383.047749,740.205942,10140.821405
3598.375579,766.095498,962.267725,9178.553681
3598.375893,919.314598,370.102971,8734.430116
3598.376207,1149.143247,148.041188,8808.450710
3598.376522,766.095498,-0.000000,8660.409521
3598.376836,1225.752797,-0.000000,8438.347739
3598.377150,919.314598,-222.061783,8660.409521
3598.377464,612.876398,-296.082377,8512.368333
3598.377779,153.219100,-0.000000,8512.368333
3598.378093,459.657299,-148.041188,8808.450710
3598.378407,0.000000,-0.000000,9548.656652
3598.378721,-306.438199,-0.000000,9252.574275
3598.379036,0.000000,-0.000000,9474.636058
3598.379350,-306.438199,222.061783,9622.677246
3598.379664,-229.828649,518.144159,10288.862594
3598.379978,153.219100,1110.308913,10362.883188
3598.380293,229.828649,1184.329507,10362.883188
3598.380607,229.828649,1110.308913,10140.821405
3598.380921,306.438199,814.226536,10140.821405
3598.381235,459.657299,814.226536,9992.780217
3598.381550,383.047749,518.144159,9770.718434
3598.381864,459.657299,518.144159,9770.718434
3598.382178,383.047749,148.041188,9474.636058
3598.382492,383.047749,-0.000000,9252.574275
3598.382807,459.657299,-370.102971,9400.615463
3598.383121,306.438199,-148.041188,9252.574275
3598.383435,0.000000,-74.020594,9104.533087
3598.383750,-153.219100,148.041188,8512.368333
3598.384064,383.047749,-0.000000,8660.409521
3598.384378,306.438199,-296.082377,9548.656652
3598.384692,-459.657299,-592.164754,9844.739029
3598.385007,-766.095498,-444.123565,10288.862594
3598.385321,-1072.533697,-222.061783,10807.006753
3598.385635,-995.924147,74.020594,11251.130318
3598.385949,-459.657299,296.082377,11695.253884
3598.386263,-612.876398,518.144159,10807.006753
3598.386578,0.000000,592.164754,10362.883188
3598.386892,0.000000,740.205942,10288.862594
3598.387206,306.438199,888.247130,9474.636058
3598.387520,689.485948,444.123565,9252.574275
3598.387834,995.924147,296.082377,9030.512492
3598.388149,995.924147,-148.041188,8290.306550
3598.388463,842.705048,-0.000000,7920.203579
3598.388777,919.314598,-148.041188,8068.244768
3598.389091,536.266849,-888.247130,8956.491898
3598.389405,-229.828649,-444.123565,8882.471304
3598.389720,-689.485948,-296.082377,8882.471304
3598.390034,-459.657299,-222.061783,8956.491898
3598.390348,-536.266849,-592.164754,9548.656652
3598.390662,-612.876398,-370.102971,9770.718434
3598.390976,-689.485948,-0.000000,10066.800811
3598.391291,-536.266849,370.102971,10436.903782
3598.391605,0.000000,888.247130,9918.759623
3598.391919,306.438199,518.144159,10214.842000
3598.392233,459.657299,1110.308913,10214.842000
3598.392547,0.000000,814.226536,9918.759623
3598.392862,153.219100,740.205942,9992.780217
3598.393176,306.438199,296.082377,9696.697840
3598.393490,76.609550,-0.000000,9622.677246
3598.393804,76.609550,-0.000000,9474.636058
3598.394118,459.657299,-296.082377,9474.636058
3598.394433,306.438199,-814.226536,9548.656652
3598.394747,612.876398,-814.226536,9104.533087
3598.395061,536.266849,-962.267725,8364.327145
3598.395375,229.828649,-296.082377,8586.388927
3598.395689,153.219100,-296.082377,8290.306550
3598.396004,383.047749,-518.144159,8660.409521
3598.396318,383.047749,-518.144159,9400.615463
3598.396632,76.609550,-814.226536,9918.759623
3598.396946,0.000000,-222.061783,10510.924376
3598.397260,0.000000,-0.000000,10362.883188
3598.397574,0.000000,222.061783,11251.130318
3598.397889,0.000000,296.082377,10658.965565
3598.398203,536.266849,370.102971,10436.903782
3598.398517,459.657299,888.247130,10362.883188
3598.398831,919.314598,814.226536,9918.759623
3598.399145,995.924147,740.205942,9326.594869
3598.399460,1455.581446,592.164754,8734.430116
3598.399774,1149.143247,296.082377,8882.471304
3598.400088,766.095498,148.041188,8734.430116
3598.400402,995.924147,222.061783,8956.491898
3598.400716,766.095498,-0.000000,8734.430116
3598.401031,229.828649,-74.020594,8586.388927
3598.401345,0.000000,148.041188,9474.636058
3598.401659,-459.657299,-0.000000,9178.553681
3598.401973,-459.657299,-0.000000,9548.656652
3598.402287,-612.876398,222.061783,9548.656652
3598.402602,-1072.533697,148.041188,9696.697840
3598.402916,-612.876398,148.041188,10140.821405
3598.403230,-612.876398,1036.288319,10584.944971
3598.403544,-306.438199,1184.329507,10732.986159
3598.403858,-306.438199,1184.329507,10066.800811
3598.404173,0.000000,1332.370696,10066.800811
3598.404487,-306.438199,1406.391290,9770.718434
3598.404801,76.609550,1184.329507,9918.759623
3598.405115,0.000000,888.247130,9918.759623
3598.405429,153.219100,592.164754,9622.677246
3598.405744,153.219100,222.061783,9252.574275
3598.406058,76.609550,-74.020594,9474.636058
3598.406372,0.000000,-444.123565,9474.636058
3598.406686,153.219100,-444.123565,9252.574275
3598.407000,0.000000,-148.041188,9104.533087
3598.407315,-383.047749,-296.082377,8586.388927
3598.407629,0.000000,-74.020594,8956.491898
3598.407943,-76.609550,-444.123565,9104.533087
3598.408257,-306.438199,-666.185348,9696.697840
3598.408571,-919.314598,-444.123565,10288.862594
3598.408886,-766.095498,-222.061783,10732.986159
3598.409200,-842.705048,-148.041188,11547.212695
3598.409514,0.000000,296.082377,11399.171507
3598.409828,0.000000,518.144159,10732.986159
3598.410142,0.000000,1036.288319,10362.883188
3598.410457,383.047749,962.267725,9696.697840
3598.410771,919.314598,666.185348,9844.739029
3598.411085,1302.362347,370.102971,9104.533087
3598.411399,1455.581446,296.082377,8438.347739
3598.411713,1302.362347,-74.020594,8438.347739
3598.412028,1455.581446,-0.000000,8734.430116
3598.412342,842.705048,-444.123565,8660.409521
3598.412656,612.876398,-518.144159,8660.409521
3598.412970,306.438199,-592.164754,8290.306550
3598.413284,-229.828649,-222.061783,8734.430116
3598.413599,-612.876398,-444.123565,9104.533087
3598.413913,-383.047749,-296.082377,9474.636058
3598.414227,-459.657299,-444.123565,9548.656652
3598.414541,-383.047749,-0.000000,9548.656652
3598.414855,-536.266849,296.082377,10214.842000
3598.415170,0.000000,740.205942,10584.944971
3598.415484,459.657299,1036.288319,10214.842000
3598.415798,459.657299,888.247130,9918.759623
3598.416112,459.657299,888.247130,9918.759623
3598.416426,-383.047749,592.164754,10140.821405
3598.416741,153.219100,518.144159,9548.656652
3598.417055,306.438199,-0.000000,9770.718434
3598.417369,153.219100,-370.102971,9474.636058
3598.417683,76.609550,-666.185348,9104.533087
3598.417997,306.438199,-888.247130,8882.471304
3598.418312,229.828649,-740.205942,9178.553681
3598.418626,153.219100,-888.247130,9252.574275
3598.418940,0.000000,-370.102971,8364.327145
3598.419254,0.000000,-222.061783,8216.285956
3598.419568,229.828649,-518.144159,9030.512492
3598.419883,229.828649,-518.144159,9548.656652
3598.420197,-229.828649,-296.082377,10140.821405
3598.420511,-459.657299,-222.061783,10584.944971
3598.420825,-612.876398,-0.000000,11029.068536
3598.421139,-383.047749,-0.000000,11177.109724
3598.421454,-459.657299,370.102971,11177.109724
3598.421768,-383.047749,666.185348,10881.027347
3598.422082,0.000000,666.185348,10807.006753
3598.422396,306.438199,592.164754,10288.862594
3598.422710,842.705048,666.185348,9696.697840
3598.423025,995.924147,666.185348,9252.574275
3598.423339,1149.143247,370.102971,8586.388927
3598.423653,1149.143247,444.123565,8660.409521
3598.423967,1149.143247,444.123565,8734.430116
3598.424281,1225.752797,-0.000000,8586.388927
3598.424596,306.438199,-0.000000,8956.491898
3598.424910,76.609550,-0.000000,8586.388927
3598.425224,-153.219100,-0.000000,8734.430116
3598.425538,-383.047749,-0.000000,9548.656652
3598.425852,-612.876398,-296.082377,10066.800811
3598.426166,-459.657299,-74.020594,10584.944971
3598.426481,-612.876398,666.185348,10362.883188
3598.426795,-536.266849,1184.329507,9918.759623
3598.427109,0.000000,1406.391290,10288.862594
3598.427423,0.000000,1110.308913,9844.739029
3598.427737,76.609550,1702.473667,9918.759623
3598.428052,229.828649,1332.370696,9622.677246
3598.428366,76.609550,962.267725,9548.656652
3598.428680,153.219100,518.144159,9474.636058
3598.428994,383.047749,296.082377,9178.553681
3598.429308,153.219100,-74.020594,9696.697840
3598.429623,0.000000,-666.185348,9252.574275
3598.429937,229.828649,-518.144159,9252.574275
3598.430251,153.219100,-370.102971,9400.615463
3598.430565,76.609550,-518.144159,8734.430116
3598.430879,306.438199,74.020594,8438.347739
3598.431194,153.219100,-296.082377,8586.388927
3598.431508,536.266849,-148.041188,9252.574275
3598.431822,76.609550,-444.123565,9918.759623
3598.432136,0.000000,-666.185348,10288.862594
3598.432450,-689.485948,-444.123565,11103.089130
3598.432765,-689.485948,-0.000000,11251.130318
3598.433079,-306.438199,-0.000000,11325.150913
3598.433393,229.828649,222.061783,11177.109724
3598.433707,459.657299,370.102971,10436.903782
3598.434021,766.095498,814.226536,9992.780217
3598.434336,842.705048,888.247130,9326.594869
3598.434650,1302.362347,888.247130,9252.574275
3598.434964,1532.190996,518.144159,8660.409521
3598.435278,1072.533697,222.061783,8364.327145
3598.435592,1149.143247,-0.000000,8734.430116
3598.435907,766.095498,-148.041188,8734.430116
3598.436221,229.828649,-370.102971,8660.409521
3598.436535,0.000000,-740.205942,8734.430116
3598.436849,-689.485948,-592.164754,9474.636058
3598.437163,-766.095498,-296.082377,9326.594869
3598.437478,-612.876398,-444.123565,9178.553681
3598.437792,-536.266849,-74.020594,9696.697840
3598.438106,-612.876398,666.185348,9770.718434
3598.438420,-459.657299,592.164754,9918.759623
3598.438734,-536.266849,666.185348,9918.759623
3598.439049,76.609550,740.205942,9918.759623
3598.439363,153.219100,814.226536,9844.739029
3598.439677,229.828649,962.267725,9844.739029
3598.439991,0.000000,666.185348,9918.759623
3598.440305,0.000000,370.102971,10066.800811
3598.440620,0.000000,-0.000000,9474.636058
3598.440934,459.657299,-0.000000,9622.677246
3598.441248,153.219100,-518.144159,9474.636058
3598.441562,0.000000,-592.164754,9178.553681
3598.441876,383.047749,-666.185348,9030.512492
3598.442191,306.438199,-814.226536,8808.450710
3598.442505,459.657299,-666.185348,8586.388927
3598.442819,76.609550,-148.041188,8438.347739
3598.443133,153.219100,-518.144159,9178.553681
3598.443447,0.000000,-592.164754,9548.656652
3598.443762,-153.219100,-1036.288319,10288.862594
3598.444076,-383.047749,-888.247130,10732.986159
3598.444390,-919.314598,-592.164754,11473.192101
3598.444704,-459.657299,-0.000000,11769.274478
3598.445018,0.000000,370.102971,11177.109724
3598.445333,0.000000,666.185348,10807.006753
3598.445647,383.047749,814.226536,10362.883188
3598.445961,766.095498,962.267725,9918.759623
3598.446275,1225.752797,814.226536,9326.594869
3598.446589,1302.362347,518.144159,8734.430116
3598.446904,919.314598,518.144159,8512.368333
3598.447218,1455.581446,296.082377,7920.203579
3598.447532,1455.581446,296.082377,8734.430116
3598.447846,995.924147,-0.000000,8586.388927
3598.448160,229.828649,-0.000000,8586.388927
3598.448475,0.000000,222.061783,8438.347739
3598.448789,0.000000,-0.000000,9252.574275
3598.449103,-306.438199,-0.000000,9474.636058
3598.449417,-612.876398,-0.000000,9400.615463
3598.449731,-459.657299,296.082377,9548.656652
3598.450046,-689.485948,666.185348,9844.739029
3598.450360,-383.047749,1036.288319,10066.800811
3598.450674,0.000000,1184.329507,10362.883188
3598.450988,0.000000,1184.329507,10214.842000
3598.451302,153.219100,1258.350101,9844.739029
3598.451617,229.828649,1406.391290,9770.718434
3598.451931,306.438199,740.205942,9770.718434
3598.452245,689.485948,814.226536,9918.759623
3598.452559,536.266849,444.123565,9326.594869
3598.452873,536.266849,-0.000000,9326.594869
3598.453187,766.095498,-148.041188,9474.636058
3598.453502,536.266849,-370.102971,9474.636058
3598.453816,0.000000,-518.144159,9326.594869
3598.454130,0.000000,-296.082377,8808.450710
3598.454444,-229.828649,-148.041188,8512.368333
3598.454758,0.000000,-148.041188,9104.533087
3598.455073,153.219100,-592.164754,9770.718434
3598.455387,0.000000,-518.144159,10288.862594
3598.455701,-459.657299,-444.123565,10140.821405
3598.456015,-689.485948,-0.000000,10584.944971
3598.456329,-383.047749,-148.041188,11399.171507
3598.456644,-536.266849,-0.000000,11917.315666
3598.456958,0.000000,1036.288319,11251.130318
3598.457272,0.000000,740.205942,10584.944971
3598.457586,306.438199,1110.308913,10436.903782
3598.457900,766.095498,1110.308913,9622.677246
3598.458215,1149.143247,518.144159,9252.574275
3598.458529,1149.143247,444.123565,8660.409521
3598.458843,919.314598,-0.000000,8734.430116
3598.459157,919.314598,-0.000000,8364.327145
3598.459471,1072.533697,-148.041188,8586.388927
3598.459786,0.000000,-814.226536,8734.430116
3598.460100,-459.657299,-370.102971,8808.450710
3598.460414,-766.095498,-444.123565,8882.471304
3598.460728,-612.876398,-222.061783,9474.636058
3598.461042,-689.485948,-222.061783,9548.656652
3598.461357,-536.266849,-148.041188,9474.636058
3598.461671,-842.705048,296.082377,9770.718434
3598.461985,-459.657299,518.144159,9770.718434
3598.462299,0.000000,1036.288319,9844.739029
3598.462613,459.657299,962.267725,9992.780217
3598.462928,689.485948,740.205942,9770.718434
3598.463242,689.485948,592.164754,9474.636058
3598.463556,459.657299,444.123565,9326.594869
3598.463870,229.828649,222.061783,9622.677246
3598.464184,229.828649,-148.041188,9474.636058
3598.464499,383.047749,-592.164754,9696.697840
3598.464813,153.219100,-740.205942,9178.553681
3598.465127,229.828649,-888.247130,9178.553681
3598.465441,306.438199,-1184.329507,8956.491898
3598.465755,919.314598,-1036.288319,8882.471304
3598.466070,383.047749,-518.144159,9178.553681
3598.466384,153.219100,-370.102971,9030.512492
3598.466698,229.828649,-518.144159,9030.512492
3598.467012,459.657299,-592.164754,9400.615463
3598.467326,0.000000,-666.185348,10510.924376
3598.467641,-383.047749,-370.102971,10881.027347
3598.467955,-536.266849,-518.144159,11029.068536
3598.468269,-689.485948,-74.020594,11325.150913
3598.468583,-306.438199,-0.000000,11547.212695
3598.468897,229.828649,666.185348,11029.068536
3598.469212,536.266849,592.164754,10658.965565
3598.469526,306.438199,814.226536,10066.800811
3598.469840,919.314598,666.185348,9474.636058
3598.470154,1072.533697,518.144159,8808.450710
3598.470468,1302.362347,370.102971,8734.430116
3598.470783,995.924147,222.061783,8364.327145
3598.471097,842.705048,-74.020594,8364.327145
3598.471411,689.485948,-74.020594,8586.388927
3598.471725,229.828649,-222.061783,8660.409521
3598.472039,-383.047749,-0.000000,8586.388927
3598.472354,-383.047749,-296.082377,8882.471304
3598.472668,-689.485948,222.061783,9400.615463
3598.472982,-612.876398,222.061783,9548.656652
3598.473296,-612.876398,296.082377,9696.697840
3598.473610,-689.485948,592.164754,9696.697840
3598.473925,-459.657299,666.185348,9696.697840
3598.474239,-153.219100,1332.370696,9992.780217
3598.474553,-229.828649,1332.370696,10066.800811
3598.474867,-229.828649,1110.308913,10140.821405
3598.475181,0.000000,1184.329507,9548.656652
3598.475496,-229.828649,962.267725,9770.718434
3598.475810,-612.876398,296.082377,9992.780217
3598.476124,76.609550,370.102971,9770.718434
3598.476438,153.219100,148.041188,9622.677246
3598.476752,76.609550,-74.020594,9474.636058
3598.477067,306.438199,-222.061783,9844.739029
3598.477381,229.828649,-222.061783,9326.594869
3598.477695,229.828649,-0.000000,8882.471304
3598.478009,153.219100,-0.000000,8882.471304
3598.478323,153.219100,-0.000000,9104.533087
3598.478638,0.000000,-296.082377,9474.636058
3598.478952,-306.438199,-370.102971,9918.759623
3598.479266,-306.438199,-148.041188,10584.944971
3598.479580,-766.095498,-148.041188,10955.047942
3598.479894,-766.095498,296.082377,11399.171507
3598.480209,-689.485948,148.041188,11843.295072
3598.480523,-306.438199,666.185348,11325.150913
3598.480837,0.000000,888.247130,10732.986159
3598.481151,459.657299,1036.288319,10362.883188
3598.481465,689.485948,740.205942,10066.800811
3598.481779,1532.190996,666.185348,8882.471304
3598.482094,1532.190996,518.144159,8586.388927
3598.482408,1225.752797,296.082377,8364.327145
3598.482722,1378.971896,444.123565,8290.306550
3598.483036,842.705048,-0.000000,8290.306550
3598.483350,995.924147,-0.000000,8512.368333
3598.483665,76.609550,-0.000000,8512.368333
3598.483979,0.000000,-74.020594,8660.409521
3598.484293,-153.219100,-518.144159,9030.512492
3598.484607,0.000000,-296.082377,9252.574275
3598.484921,-229.828649,-222.061783,9474.636058
3598.485236,-306.438199,-0.000000,9696.697840
3598.485550,-306.438199,444.123565,10066.800811
3598.485864,0.000000,518.144159,10140.821405
3598.486178,229.828649,740.205942,10066.800811
3598.486493,459.657299,814.226536,9548.656652
3598.486807,383.047749,962.267725,9696.697840
3598.487121,306.438199,666.185348,9770.718434
3598.487436,76.609550,370.102971,9622.677246
3598.487750,306.438199,-74.020594,9474.636058
3598.488064,383.047749,-370.102971,9622.677246
3598.488379,153.219100,-518.144159,9474.636058
3598.488693,306.438199,-444.123565,9400.615463
3598.489007,76.609550,-1036.288319,9326.594869
3598.489322,612.876398,-740.205942,9474.636058
3598.489636,-229.828649,-518.144159,8882.471304
3598.489951,-229.828649,-592.164754,8734.430116
3598.490265,0.000000,-444.123565,9622.677246
3598.490579,0.000000,-888.247130,9918.759623
3598.490894,-229.828649,-666.185348,10214.842000
3598.491208,-612.876398,-740.205942,10955.047942
3598.491522,-536.266849,-74.020594,11103.089130
3598.491837,-536.266849,-0.000000,11251.130318
3598.492151,-459.657299,148.041188,11325.150913
3598.492465,0.000000,-0.000000,10584.944971
3598.492780,0.000000,370.102971,10066.800811
3598.493094,306.438199,444.123565,9696.697840
3598.493408,459.657299,592.164754,9622.677246
3598.493723,612.876398,518.144159,8956.491898
3598.494037,306.438199,-74.020594,8364.327145
3598.494351,919.314598,-0.000000,8512.368333
3598.494666,766.095498,-74.020594,8364.327145
3598.494980,153.219100,-370.102971,8512.368333
3598.495294,0.000000,-370.102971,8438.347739
3598.495609,0.000000,-296.082377,8438.347739
3598.495923,-229.828649,-148.041188,8734.430116
3598.496237,-536.266849,-74.020594,9104.533087
3598.496552,-306.438199,-444.123565,9770.718434
3598.496866,-459.657299,-0.000000,9770.718434
3598.497180,-459.657299,370.102971,9696.697840
3598.497495,-306.438199,740.205942,9992.780217
3598.497809,153.219100,1110.308913,10288.862594
3598.498123,383.047749,1332.370696,10140.821405
3598.498438,306.438199,1036.288319,9474.636058
3598.498752,383.047749,666.185348,9548.656652
3598.499066,306.438199,962.267725,9918.759623
3598.499381,459.657299,370.102971,9474.636058
3598.499695,229.828649,444.123565,9696.697840
3598.500009,229.828649,-148.041188,9474.636058
3598.500324,153.219100,-0.000000,9400.615463
3598.500638,76.609550,-148.041188,9622.677246
3598.500952,459.657299,-148.041188,9622.677246
3598.501267,229.828649,-0.000000,9400.615463
3598.501581,0.000000,222.061783,8586.388927
3598.501895,612.876398,-0.000000,8956.491898
3598.502210,383.047749,-74.020594,9696.697840
3598.502524,0.000000,-370.102971,10214.842000
3598.502839,-459.657299,-222.061783,10584.944971
3598.503153,-766.095498,-0.000000,10955.047942
3598.503467,-766.095498,148.041188,11769.274478
3598.503782,-383.047749,296.082377,11621.233289
3598.504096,0.000000,814.226536,11029.068536
3598.504410,-229.828649,1036.288319,10807.006753
3598.504725,0.000000,814.226536,10066.800811
3598.505039,536.266849,740.205942,9696.697840
3598.505353,766.095498,814.226536,9030.512492
3598.505668,1225.752797,814.226536,8290.306550
3598.505982,1225.752797,518.144159,7994.224174
3598.506296,1762.019645,222.061783,8290.306550
3598.506611,766.095498,-0.000000,8956.491898
3598.506925,306.438199,-222.061783,8512.368333
3598.507239,0.000000,-74.020594,8660.409521
3598.507554,-536.266849,-0.000000,9474.636058
3598.507868,-612.876398,-0.000000,9030.512492
3598.508182,-229.828649,-148.041188,9474.636058
3598.508497,-383.047749,-74.020594,9770.718434
3598.508811,-766.095498,296.082377,10066.800811
3598.509125,-459.657299,666.185348,9992.780217
3598.509440,-459.657299,962.267725,9992.780217
3598.509754,76.609550,1258.350101,10584.944971
3598.510068,229.828649,1184.329507,9918.759623
3598.510383,612.876398,1258.350101,9696.697840
3598.510697,229.828649,814.226536,9548.656652
3598.511011,76.609550,518.144159,9696.697840
3598.511326,306.438199,222.061783,9696.697840
3598.511640,306.438199,-296.082377,9548.656652
3598.511954,0.000000,-518.144159,9696.697840
3598.512269,0.000000,-962.267725,9474.636058
3598.512583,0.000000,-962.267725,9326.594869
3598.512897,-383.047749,-1036.288319,9252.574275
3598.513212,-229.828649,-666.185348,9104.533087
3598.513526,0.000000,-518.144159,9030.512492
3598.513840,0.000000,-740.205942,9104.533087
3598.514155,0.000000,-1036.288319,9844.739029
3598.514469,0.000000,-814.226536,9770.718434
3598.514784,-383.047749,-518.144159,10436.903782
3598.515098,-229.828649,-296.082377,11251.130318
3598.515412,-459.657299,-296.082377,11029.068536
3598.515727,383.047749,222.061783,10732.986159
3598.516041,0.000000,370.102971,10362.883188
3598.516355,76.609550,148.041188,10140.821405
3598.516670,383.047749,370.102971,9696.697840
3598.516984,766.095498,148.041188,9252.574275
3598.517298,1378.971896,-0.000000,9252.574275
3598.517613,1378.971896,-0.000000,8290.306550
3598.517927,995.924147,-222.061783,8068.244768
3598.518241,1225.752797,-296.082377,8438.347739
3598.518556,459.657299,-592.164754,8290.306550
3598.518870,689.485948,-296.082377,8512.368333
3598.519184,0.000000,-0.000000,8660.409521
3598.519499,-383.047749,-148.041188,9104.533087
3598.519813,-229.828649,-0.000000,9178.553681
3598.520127,-306.438199,296.082377,9252.574275
3598.520442,-612.876398,-74.020594,9770.718434
3598.520756,-766.095498,444.123565,10584.944971
3598.521070,-383.047749,888.247130,10658.965565
3598.521385,0.000000,888.247130,10288.862594
3598.521699,0.000000,1110.308913,10214.842000
3598.522013,229.828649,888.247130,9622.677246
3598.522328,612.876398,1258.350101,10288.862594
3598.522642,0.000000,888.247130,10214.842000
3598.522956,306.438199,814.226536,9770.718434
3598.523271,383.047749,296.082377,9474.636058
3598.523585,306.438199,-0.000000,9474.636058
3598.523899,536.266849,-296.082377,9474.636058
3598.524214,383.047749,-296.082377,9400.615463
3598.524528,229.828649,-296.082377,9252.574275
3598.524842,306.438199,-74.020594,8734.430116
3598.525157,0.000000,444.123565,8512.368333
3598.525471,306.438199,-0.000000,8734.430116
3598.525785,0.000000,-222.061783,9844.739029
3598.526100,0.000000,-518.144159,10362.883188
3598.526414,-536.266849,-0.000000,10658.965565
3598.526728,-842.705048,296.082377,11029.068536
3598.527043,-689.485948,222.061783,11325.150913
3598.527357,-536.266849,518.144159,11547.212695
3598.527672,-383.047749,814.226536,10732.986159
3598.527986,76.609550,814.226536,10584.944971
3598.528300,0.000000,1110.308913,9992.780217
3598.528615,1072.533697,1036.288319,9178.553681
3598.528929,1225.752797,1036.288319,8734.430116
3598.529243,1149.143247,518.144159,8364.327145
3598.529558,1225.752797,148.041188,8364.327145
3598.529872,1915.238745,-222.061783,8364.327145
3598.530186,1072.533697,-0.000000,8734.430116
3598.530501,383.047749,-0.000000,8734.430116
3598.530815,0.000000,-0.000000,8364.327145
3598.531129,-306.438199,-0.000000,8808.450710
3598.531444,-229.828649,-74.020594,9104.533087
3598.531758,-536.266849,-148.041188,9696.697840
3598.532072,-459.657299,148.041188,9844.739029
3598.532387,-383.047749,296.082377,9844.739029
3598.532701,-153.219100,888.247130,10288.862594
3598.533015,306.438199,370.102971,10214.842000
3598.533330,306.438199,962.267725,10140.821405
3598.533644,153.219100,1258.350101,9844.739029
3598.533958,229.828649,1184.329507,9918.759623
3598.534273,0.000000,814.226536,9770.718434
3598.534587,383.047749,518.144159,9474.636058
3598.534901,0.000000,222.061783,9474.636058
3598.535216,153.219100,-518.144159,8956.491898
3598.535530,229.828649,-666.185348,9474.636058
3598.535844,0.000000,-814.226536,9918.759623
3598.536159,229.828649,-1036.288319,9474.636058
3598.536473,153.219100,-1036.288319,9030.512492
3598.536787,0.000000,-444.123565,9178.553681
3598.537102,76.609550,-592.164754,9104.533087
3598.537416,76.609550,-1036.288319,9326.594869
3598.537730,306.438199,-444.123565,9770.718434
3598.538045,-229.828649,-814.226536,10066.800811
3598.538359,-536.266849,-518.144159,10436.903782
3598.538673,-536.266849,-370.102971,10807.006753
3598.538988,-536.266849,-592.164754,11103.089130
3598.539302,0.000000,-0.000000,11103.089130
3598.539616,0.000000,222.061783,10214.842000
3598.539931,-229.828649,296.082377,10140.821405
3598.540245,76.609550,-0.000000,9548.656652
3598.540560,612.876398,-0.000000,9104.533087
3598.540874,1072.533697,-148.041188,8808.450710
3598.541188,995.924147,-74.020594,8956.491898
3598.541503,919.314598,-0.000000,8216.285956
3598.541817,842.705048,-444.123565,8068.244768
3598.542131,919.314598,-222.061783,8512.368333
3598.542446,306.438199,-148.041188,8660.409521
3598.542760,0.000000,-0.000000,8586.388927
3598.543074,-153.219100,-222.061783,8808.450710
3598.543389,-459.657299,-74.020594,9252.574275
3598.543703,-459.657299,-148.041188,9548.656652
3598.544017,-689.485948,-0.000000,9918.759623
3598.544332,-536.266849,148.041188,10140.821405
3598.544646,-612.876398,592.164754,9770.718434
3598.544960,-229.828649,814.226536,9918.759623
3598.545275,-153.219100,1036.288319,10066.800811
3598.545589,-153.219100,1036.288319,10288.862594
3598.545903,0.000000,1110.308913,9844.739029
3598.546218,76.609550,740.205942,9770.718434
3598.546532,536.266849,222.061783,9918.759623
3598.546846,306.438199,-0.000000,9696.697840
3598.547161,0.000000,-0.000000,9104.533087
3598.547475,459.657299,-222.061783,9326.594869
3598.547789,229.828649,-148.041188,9622.677246
3598.548104,459.657299,-148.041188,9030.512492
3598.548418,459.657299,-0.000000,8882.471304
3598.548732,306.438199,370.102971,8734.430116
3598.549047,306.438199,148.041188,9178.553681
3598.549361,842.705048,-370.102971,9030.512492
3598.549675,0.000000,-296.082377,9918.759623
3598.549990,-689.485948,-222.061783,10732.986159
3598.550304,-766.095498,-148.041188,10658.965565
3598.550618,-689.485948,-0.000000,11103.089130
3598.550933,-1149.143247,296.082377,11695.253884
3598.551247,-229.828649,888.247130,10955.047942
3598.551561,229.828649,1332.370696,10584.944971
3598.551876,766.095498,1406.391290,10362.883188
3598.552190,995.924147,1184.329507,9844.739029
3598.552505,1072.533697,1406.391290,9030.512492
3598.552819,1762.019645,1258.350101,8586.388927
3598.553133,1455.581446,666.185348,8660.409521
3598.553448,1302.362347,74.020594,9104.533087
3598.553762,1072.533697,296.082377,8808.450710
3598.554076,459.657299,-0.000000,9104.533087
3598.554391,153.219100,-0.000000,9104.533087
3598.554705,-459.657299,148.041188,9104.533087
3598.555019,-459.657299,-0.000000,9622.677246
3598.555334,-383.047749,-148.041188,9770.718434
3598.555648,-689.485948,-148.041188,9548.656652
3598.555962,-689.485948,518.144159,9696.697840
3598.556277,-842.705048,740.205942,10214.842000
3598.556591,-153.219100,814.226536,10288.862594
3598.556905,153.219100,1036.288319,10140.821405
3598.557220,153.219100,814.226536,9622.677246
3598.557534,306.438199,518.144159,10140.821405
3598.557848,153.219100,666.185348,9992.780217
3598.558163,153.219100,-0.000000,9474.636058
3598.558477,229.828649,-0.000000,9474.636058
3598.558791,76.609550,-148.041188,9252.574275
3598.559106,76.609550,-444.123565,9474.636058
3598.559420,153.219100,-888.247130,9326.594869
3598.559734,229.828649,-888.247130,9252.574275
3598.560049,306.438199,-1036.288319,8808.450710
3598.560363,229.828649,-370.102971,8216.285956
3598.560677,0.000000,-444.123565,8734.430116
3598.560992,0.000000,-814.226536,9030.512492
3598.561306,76.609550,-740.205942,9326.594869
3598.561620,0.000000,-888.247130,9918.759623
3598.561935,-306.438199,-740.205942,10288.862594
3598.562249,-306.438199,-148.041188,11029.068536
3598.562563,-306.438199,-0.000000,11251.130318
3598.562878,-229.828649,-0.000000,11103.089130
3598.563192,0.000000,296.082377,10362.883188
3598.563506,0.000000,296.082377,9844.739029
3598.563821,76.609550,222.061783,9770.718434
3598.564135,459.657299,148.041188,9474.636058
3598.564449,842.705048,370.102971,8808.450710
3598.564764,1072.533697,-0.000000,8068.244768
3598.565078,995.924147,-74.020594,8586.388927
3598.565393,459.657299,-74.020594,8586.388927
3598.565707,153.219100,-370.102971,8586.388927
3598.566021,76.609550,-296.082377,8956.491898
3598.566336,-306.438199,-370.102971,9104.533087
3598.566650,-612.876398,-148.041188,9030.512492
3598.566964,-612.876398,-222.061783,9474.636058
3598.567279,-612.876398,-222.061783,9622.677246
3598.567593,-689.485948,222.061783,9844.739029
3598.567907,-536.266849,444.123565,9770.718434
3598.568222,-459.657299,518.144159,10436.903782
3598.568536,0.000000,962.267725,10436.903782
3598.568850,76.609550,1184.329507,9992.780217
3598.569165,-229.828649,1110.308913,9992.780217
3598.569479,-383.047749,666.185348,9844.739029
3598.569793,0.000000,740.205942,10066.800811
3598.570108,153.219100,518.144159,9622.677246
3598.570422,536.266849,-0.000000,9548.656652
3598.570736,383.047749,-0.000000,9548.656652
3598.571051,459.657299,-74.020594,9474.636058
3598.571365,689.485948,-222.061783,9474.636058
3598.571679,459.657299,-222.061783,9252.574275
3598.571994,383.047749,-74.020594,8660.409521
3598.572308,919.314598,222.061783,8586.388927
3598.572622,383.047749,-74.020594,8734.430116
3598.572937,306.438199,-74.020594,9474.636058
3598.573251,0.000000,-296.082377,9992.780217
3598.573565,-306.438199,-74.020594,10510.924376
3598.573880,-612.876398,-0.000000,10732.986159
3598.574194,-536.266849,444.123565,11325.150913
3598.574508,-153.219100,518.144159,11325.150913
3598.574823,76.609550,814.226536,10807.006753
3598.575137,76.609550,1258.350101,10510.924376
3598.575451,306.438199,1776.494261,10066.800811
3598.575766,1302.362347,1110.308913,9326.594869
3598.576080,1149.143247,1258.350101,9104.533087
3598.576394,1608.800546,888.247130,8586.388927
3598.576709,1302.362347,740.205942,8290.306550
3598.577023,1302.362347,370.102971,8882.471304
3598.577337,766.095498,222.061783,9252.574275
3598.577652,153.219100,-0.000000,8882.471304
3598.577966,-229.828649,-0.000000,8660.409521
3598.578281,-383.047749,-0.000000,9104.533087
3598.578595,-612.876398,-0.000000,9474.636058
3598.578909,-459.657299,-222.061783,9696.697840
3598.579224,-612.876398,-0.000000,9548.656652
3598.579538,-459.657299,370.102971,9770.718434
3598.579852,-689.485948,814.226536,9548.656652
3598.580167,0.000000,1110.308913,10214.842000
3598.580481,153.219100,740.205942,9992.780217
3598.580795,306.438199,962.267725,9844.739029
3598.581110,76.609550,888.247130,9548.656652
3598.581424,0.000000,962.267725,9992.780217
3598.581738,229.828649,444.123565,9918.759623
3598.582053,153.219100,222.061783,9696.697840
3598.582367,153.219100,-592.164754,9696.697840
3598.582681,0.000000,-444.123565,9548.656652
3598.582996,0.000000,-666.185348,9474.636058
3598.583310,76.609550,-814.226536,9252.574275
3598.583624,153.219100,-592.164754,9252.574275
3598.583939,0.000000,-370.102971,8882.471304
3598.584253,-229.828649,-370.102971,8956.491898
3598.584567,153.219100,-370.102971,8882.471304
3598.584882,153.219100,-518.144159,9622.677246
3598.585196,0.000000,-518.144159,9770.718434
3598.585510,-536.266849,-444.123565,10807.006753
3598.585825,-842.705048,-296.082377,11399.171507
3598.586139,-383.047749,-74.020594,11251.130318
3598.586453,0.000000,148.041188,11029.068536
3598.586764,76.609550,518.144159,10732.986159
3598.587078,0.000000,370.102971,10732.986159
3598.587392,383.047749,444.123565,9696.697840
3598.587706,689.485948,148.041188,8956.491898
3598.588021,1225.752797,-0.000000,8882.471304
3598.588335,1072.533697,-0.000000,8438.347739
3598.588649,1149.143247,-592.164754,8438.347739
3598.588964,842.705048,-370.102971,8290.306550
3598.589278,536.266849,-592.164754,8438.347739
3598.589592,536.266849,-444.123565,8364.327145
3598.589906,383.047749,-148.041188,8734.430116
3598.590221,-229.828649,-222.061783,9400.615463
3598.590535,-536.266849,-444.123565,8882.471304
3598.590849,-383.047749,-370.102971,9252.574275
3598.591163,-612.876398,-222.061783,9622.677246
3598.591478,-459.657299,-0.000000,9696.697840
3598.591792,-229.828649,370.102971,10066.800811
3598.592106,0.000000,444.123565,9992.780217
3598.592421,229.828649,962.267725,10140.821405
3598.592735,229.828649,1036.288319,9918.759623
3598.593049,459.657299,814.226536,9844.739029
3598.593363,306.438199,814.226536,9992.780217
3598.593678,383.047749,444.123565,9548.656652
3598.593992,459.657299,148.041188,9548.656652
3598.594306,689.485948,-74.020594,9474.636058
3598.594621,536.266849,-74.020594,9548.656652
3598.594935,459.657299,-148.041188,9400.615463
3598.595249,383.047749,-148.041188,8956.491898
3598.595563,229.828649,-0.000000,8734.430116
3598.595878,229.828649,296.082377,8808.450710
3598.596192,306.438199,-0.000000,9474.636058
3598.596506,0.000000,-148.041188,9474.636058
3598.596820,-229.828649,-518.144159,9992.780217
3598.597135,-766.095498,-0.000000,10362.883188
3598.597449,-919.314598,-0.000000,11251.130318
3598.597763,-766.095498,444.123565,11917.315666
3598.598078,-383.047749,740.205942,11621.233289
3598.598392,-536.266849,1036.288319,10658.965565
3598.598706,0.000000,1406.391290,10881.027347
3598.599020,306.438199,1332.370696,10066.800811
3598.599335,689.485948,1480.411884,9770.718434
3598.599649,919.314598,1110.308913,9252.574275
3598.599963,995.924147,666.185348,8660.409521
3598.600278,1225.752797,444.123565,8660.409521
3598.600592,1302.362347,-0.000000,8512.368333
3598.600906,842.705048,-0.000000,8660.409521
3598.601220,153.219100,-0.000000,8512.368333
3598.601535,-689.485948,-0.000000,8882.471304
3598.601849,-689.485948,-0.000000,8882.471304
3598.602163,-612.876398,-222.061783,9252.574275
3598.602477,-842.705048,-444.123565,9474.636058
3598.602792,-766.095498,-0.000000,9918.759623
3598.603106,-689.485948,222.061783,9918.759623
3598.603420,-459.657299,370.102971,10066.800811
3598.603735,-229.828649,814.226536,10510.924376
3598.604049,229.828649,888.247130,10066.800811
3598.604363,383.047749,1110.308913,9770.718434
3598.604677,842.705048,1110.308913,9622.677246
3598.604992,536.266849,1110.308913,9918.759623
3598.605306,459.657299,592.164754,9918.759623
3598.605620,0.000000,-0.000000,9400.615463
3598.605935,536.266849,-74.020594,8808.450710
3598.606249,306.438199,-444.123565,9326.594869
3598.606563,306.438199,-592.164754,9844.739029
3598.606877,306.438199,-888.247130,9474.636058
3598.607192,153.219100,-888.247130,8882.471304
3598.607506,153.219100,-296.082377,8956.491898
3598.607820,76.609550,-518.144159,8660.409521
3598.608134,229.828649,-444.123565,9178.553681
3598.608449,536.266849,-666.185348,9770.718434
3598.608763,-229.828649,-592.164754,9844.739029
3598.609077,76.609550,-370.102971,9992.780217
3598.609392,-229.828649,-148.041188,10807.006753
3598.609706,-229.828649,296.082377,11251.130318
3598.610020,-76.609550,296.082377,10658.965565
3598.610334,-229.828649,444.123565,10436.903782
3598.610649,459.657299,-0.000000,10066.800811
3598.610963,306.438199,370.102971,9770.718434
3598.611277,842.705048,-0.000000,9400.615463
3598.611592,1072.533697,-0.000000,8882.471304
3598.611906,459.657299,-296.082377,8512.368333
3598.612220,919.314598,-296.082377,8438.347739
3598.612534,919.314598,-370.102971,8290.306550
3598.612849,766.095498,-296.082377,8586.388927
3598.613163,383.047749,-370.102971,8512.368333
3598.613477,0.000000,-74.020594,8512.368333
3598.613791,-459.657299,-444.123565,8734.430116
3598.614106,-306.438199,-444.123565,8808.450710
3598.614420,-766.095498,-370.102971,9474.636058
3598.614734,-919.314598,-222.061783,9918.759623
3598.615049,-689.485948,-0.000000,10436.903782
3598.615363,-919.314598,444.123565,10584.944971
3598.615677,-229.828649,888.247130,10362.883188
3598.615991,-306.438199,962.267725,10362.883188
3598.616306,-229.828649,1036.288319,9844.739029
3598.616620,-459.657299,962.267725,10066.800811
3598.616934,76.609550,1110.308913,9696.697840
3598.617249,153.219100,666.185348,9696.697840
3598.617563,229.828649,444.123565,9918.759623
3598.617877,229.828649,296.082377,9400.615463
3598.618191,383.047749,-370.102971,9474.636058
3598.618506,383.047749,-74.020594,9474.636058
3598.618820,306.438199,-0.000000,9326.594869
3598.619134,229.828649,-148.041188,8882.471304
3598.619448,0.000000,296.082377,8882.471304
3598.619763,76.609550,-74.020594,8586.388927
3598.620077,153.219100,-0.000000,9178.553681
3598.620391,76.609550,-74.020594,9622.677246
3598.620706,-536.266849,-222.061783,10510.924376
3598.621020,-766.095498,-74.020594,10658.965565
3598.621334,-842.705048,-0.000000,11177.109724
3598.621648,-383.047749,518.144159,11251.130318
3598.621963,-153.219100,814.226536,11103.089130
3598.622277,459.657299,962.267725,10658.965565
3598.622591,536.266849,1184.329507,10140.821405
3598.622906,689.485948,1036.288319,9918.759623
3598.623220,1225.752797,888.247130,9104.533087
3598.623534,1685.410096,888.247130,8882.471304
3598.623848,1685.410096,666.185348,8586.388927
3598.624163,1455.581446,370.102971,8290.306550
3598.624477,1378.971896,-0.000000,8734.430116
3598.624791,612.876398,-74.020594,8586.388927
3598.625105,306.438199,-0.000000,9104.533087
3598.625420,-153.219100,-222.061783,8956.491898
3598.625734,0.000000,-296.082377,9178.553681
3598.626048,-612.876398,-222.061783,9770.718434
3598.626363,-459.657299,-0.000000,9770.718434
3598.626677,0.000000,518.144159,10066.800811
3598.626991,-459.657299,740.205942,10214.842000
3598.627305,0.000000,1036.288319,10510.924376
3598.627620,459.657299,1258.350101,9770.718434
3598.627934,459.657299,1184.329507,9770.718434
3598.628248,459.657299,1184.329507,10288.862594
3598.628563,229.828649,962.267725,10140.821405
3598.628877,0.000000,518.144159,9770.718434
3598.629191,536.266849,666.185348,9622.677246
3598.629505,536.266849,296.082377,9548.656652
3598.629820,0.000000,-222.061783,9474.636058
3598.630134,153.219100,-814.226536,9400.615463
3598.630448,153.219100,-666.185348,9326.594869
3598.630762,229.828649,-666.185348,8808.450710
3598.631077,76.609550,-296.082377,8734.430116
3598.631391,-306.438199,-370.102971,8956.491898
3598.631705,-229.828649,-666.185348,9104.533087
3598.632020,229.828649,-814.226536,9400.615463
3598.632334,-383.047749,-296.082377,10066.800811
3598.632648,-459.657299,-370.102971,10214.842000
3598.632962,-689.485948,-222.061783,10732.986159
3598.633277,-536.266849,-0.000000,11103.089130
3598.633591,-536.266849,-0.000000,11177.109724
3598.633905,-459.657299,444.123565,10658.965565
3598.634220,0.000000,222.061783,10436.903782
3598.634534,306.438199,296.082377,9918.759623
3598.634848,842.705048,296.082377,9326.594869
3598.635162,536.266849,-0.000000,8512.368333
3598.635477,1149.143247,-0.000000,8734.430116
3598.635791,1302.362347,-148.041188,8438.347739
3598.636105,842.705048,-370.102971,8142.265362
3598.636419,459.657299,-370.102971,8364.327145
3598.636734,0.000000,-666.185348,8586.388927
3598.637048,0.000000,-370.102971,8734.430116
3598.637362,0.000000,-370.102971,9252.574275
3598.637677,-383.047749,-222.061783,9474.636058
3598.637991,-612.876398,-518.144159,10140.821405
3598.638305,-612.876398,-0.000000,9548.656652
3598.638619,-536.266849,222.061783,10140.821405
3598.638934,0.000000,518.144159,10584.944971
3598.639248,0.000000,962.267725,10436.903782
3598.639562,76.609550,666.185348,10140.821405
3598.639877,153.219100,962.267725,10140.821405
3598.640191,229.828649,1036.288319,10288.862594
3598.640505,536.266849,666.185348,9918.759623
3598.640819,612.876398,518.144159,9474.636058
3598.641134,842.705048,-0.000000,9474.636058
3598.641448,306.438199,222.061783,9400.615463
3598.641762,536.266849,-74.020594,9104.533087
3598.642077,612.876398,-222.061783,9326.594869
3598.642391,383.047749,-74.020594,9030.512492
3598.642705,76.609550,-296.082377,8882.471304
3598.643019,0.000000,-148.041188,8512.368333
3598.643334,153.219100,-444.123565,9104.533087
3598.643648,153.219100,-370.102971,9474.636058
3598.643962,0.000000,-666.185348,9918.759623
3598.644276,-842.705048,-444.123565,10584.944971
3598.644591,-842.705048,-0.000000,11251.130318
3598.644905,-383.047749,-0.000000,11251.130318
3598.645219,-306.438199,592.164754,11177.109724
3598.645534,153.219100,962.267725,10881.027347
3598.645848,383.047749,814.226536,9992.780217
3598.646162,612.876398,1110.308913,9696.697840
3598.646476,1072.533697,1184.329507,10066.800811
3598.646791,1072.533697,888.247130,9104.533087
3598.647105,1302.362347,666.185348,8364.327145
3598.647419,1302.362347,296.082377,8438.347739
3598.647734,1378.971896,-0.000000,8438.347739
3598.648048,1225.752797,-0.000000,8956.491898
3598.648362,459.657299,-0.000000,8882.471304
3598.648676,-76.609550,-0.000000,9104.533087
3598.648991,-306.438199,222.061783,9104.533087
3598.649305,-383.047749,296.082377,8956.491898
3598.649619,-459.657299,-0.000000,9622.677246
3598.649933,-459.657299,370.102971,9770.718434
3598.650248,-689.485948,518.144159,10140.821405
3598.650562,-689.485948,888.247130,10140.821405
3598.650876,0.000000,962.267725,10288.862594
3598.651191,-229.828649,1258.350101,10436.903782
3598.651505,0.000000,1554.432478,9918.759623
3598.651819,0.000000,1406.391290,10214.842000
3598.652133,0.000000,740.205942,9844.739029
3598.652448,0.000000,666.185348,9770.718434
3598.652762,0.000000,296.082377,9696.697840
3598.653076,0.000000,-148.041188,9474.636058
3598.653391,153.219100,-444.123565,9770.718434
3598.653705,306.438199,-666.185348,9474.636058
3598.654019,0.000000,-740.205942,9400.615463
3598.654333,0.000000,-592.164754,9030.512492
3598.654648,0.000000,-222.061783,8660.409521
3598.654962,76.609550,-222.061783,8734.430116
3598.655276,153.219100,-148.041188,8882.471304
3598.655590,0.000000,-518.144159,9548.656652
3598.655905,-229.828649,-592.164754,9918.759623
3598.656219,-383.047749,-518.144159,10288.862594
3598.656533,-459.657299,-222.061783,11177.109724
3598.656848,0.000000,-0.000000,11177.109724
3598.657162,0.000000,-0.000000,11473.192101
3598.657476,0.000000,148.041188,10955.047942
3598.657790,229.828649,518.144159,10362.883188
3598.658105,383.047749,296.082377,9770.718434
3598.658419,1072.533697,222.061783,9178.553681
3598.658733,1378.971896,148.041188,8882.471304
3598.659048,1378.971896,-0.000000,8586.388927
3598.659362,1225.752797,-518.144159,8660.409521
3598.659676,1302.362347,-222.061783,8586.388927
3598.659990,919.314598,-222.061783,8438.347739
3598.660305,612.876398,-222.061783,8734.430116
3598.660619,0.000000,-0.000000,9030.512492
3598.660933,0.000000,-0.000000,9326.594869
3598.661247,-383.047749,-0.000000,9400.615463
3598.661562,0.000000,-0.000000,9474.636058
3598.661876,-459.657299,-0.000000,9918.759623
3598.662190,-689.485948,222.061783,10214.842000
3598.662505,0.000000,444.123565,9918.759623
3598.662819,-229.828649,444.123565,10214.842000
3598.663133,0.000000,814.226536,10140.821405
3598.663447,0.000000,814.226536,9918.759623
3598.663762,-306.438199,740.205942,9992.780217
3598.664076,76.609550,148.041188,9844.739029
3598.664390,0.000000,296.082377,9474.636058
3598.664705,536.266849,-0.000000,9326.594869
3598.665019,459.657299,-0.000000,9474.636058
3598.665333,383.047749,-296.082377,9252.574275
3598.665647,689.485948,-592.164754,8956.491898
3598.665962,306.438199,-444.123565,8586.388927
3598.666276,153.219100,-148.041188,8586.388927
3598.666590,76.609550,-222.061783,8512.368333
3598.666904,153.219100,-0.000000,9030.512492
3598.667219,-229.828649,-740.205942,9252.574275
3598.667533,0.000000,-592.164754,9696.697840
3598.667847,-689.485948,-444.123565,10362.883188
3598.668162,-766.095498,-444.123565,11251.130318
3598.668476,-612.876398,-0.000000,11399.171507
3598.668790,-536.266849,296.082377,11029.068536
3598.669104,-306.438199,962.267725,11177.109724
3598.669419,0.000000,1110.308913,10955.047942
3598.669733,459.657299,1332.370696,10362.883188
3598.670047,842.705048,814.226536,9474.636058
3598.670362,1072.533697,888.247130,8882.471304
3598.670676,1225.752797,888.247130,8808.450710
3598.670990,1378.971896,666.185348,8660.409521
3598.671304,995.924147,444.123565,9104.533087
3598.671619,612.876398,-0.000000,9030.512492
3598.671933,229.828649,-74.020594,8882.471304
3598.672247,-383.047749,-0.000000,8808.450710
3598.672561,-842.705048,148.041188,9252.574275
3598.672876,-766.095498,148.041188,9696.697840
3598.673190,-766.095498,222.061783,9622.677246
3598.673504,-842.705048,444.123565,9770.718434
3598.673819,-459.657299,666.185348,9992.780217
3598.674133,-612.876398,1036.288319,10288.862594
3598.674447,0.000000,1036.288319,10362.883188
3598.674761,459.657299,1332.370696,10214.842000
3598.675076,229.828649,1332.370696,9844.739029
3598.675390,153.219100,1258.350101,9696.697840
3598.675704,459.657299,1258.350101,9622.677246
3598.676019,383.047749,740.205942,9770.718434
3598.676333,995.924147,-0.000000,9104.533087
3598.676647,229.828649,296.082377,9104.533087
3598.676961,153.219100,-370.102971,9400.615463
3598.677276,383.047749,-518.144159,9326.594869
3598.677590,459.657299,-370.102971,9030.512492
3598.677904,536.266849,-740.205942,8882.471304
3598.678218,0.000000,-148.041188,8734.430116
3598.678533,0.000000,-0.000000,8734.430116
3598.678847,0.000000,-814.226536,9104.533087
3598.679161,153.219100,-592.164754,9844.739029
3598.679476,-306.438199,-1110.308913,9992.780217
3598.679790,-229.828649,-666.185348,10436.903782
3598.680104,-383.047749,-370.102971,11251.130318
3598.680418,0.000000,-0.000000,11399.171507
3598.680733,0.000000,148.041188,11103.089130
3598.681047,229.828649,296.082377,10066.800811
3598.681361,153.219100,740.205942,10510.924376
3598.681676,536.266849,592.164754,10140.821405
3598.681990,919.314598,444.123565,9326.594869
3598.682304,1072.533697,222.061783,8808.450710
3598.682618,1455.581446,-0.000000,8660.409521
3598.682933,1149.143247,-74.020594,8882.471304
3598.683247,919.314598,-296.082377,8660.409521
3598.683561,383.047749,-592.164754,8956.491898
3598.683875,0.000000,-518.144159,8808.450710
3598.684190,-153.219100,-518.144159,8512.368333
3598.684504,-459.657299,-370.102971,9104.533087
3598.684818,-383.047749,-296.082377,9474.636058
3598.685133,-383.047749,-222.061783,9622.677246
3598.685447,-459.657299,-74.020594,9474.636058
3598.685761,-153.219100,-0.000000,9696.697840
3598.686075,-612.876398,222.061783,9992.780217
3598.686390,-459.657299,740.205942,10140.821405
3598.686704,-153.219100,666.185348,10288.862594
3598.687018,76.609550,740.205942,9770.718434
3598.687333,76.609550,814.226536,9770.718434
3598.687647,76.609550,518.144159,9548.656652
3598.687961,229.828649,148.041188,9474.636058
3598.688276,229.828649,148.041188,9326.594869
3598.688590,306.438199,-370.102971,9104.533087
3598.688904,306.438199,-74.020594,9548.656652
3598.689219,229.828649,-444.123565,9178.553681
3598.689533,153.219100,-740.205942,8808.450710
3598.689847,76.609550,-370.102971,8956.491898
3598.690162,229.828649,-592.164754,8438.347739
3598.690476,153.219100,-222.061783,8808.450710
3598.690790,383.047749,-444.123565,9326.594869
3598.691105,76.609550,-592.164754,9770.718434
3598.691419,0.000000,-74.020594,10362.883188
3598.691734,-459.657299,-74.020594,10881.027347
3598.692048,-153.219100,-0.000000,11473.192101
3598.692362,0.000000,370.102971,11547.212695
3598.692677,0.000000,814.226536,11029.068536
3598.692991,76.609550,740.205942,10658.965565
3598.693305,383.047749,1110.308913,10214.842000
3598.693620,842.705048,1110.308913,9696.697840
3598.693934,1149.143247,888.247130,9474.636058
3598.694248,1302.362347,666.185348,9104.533087
3598.694563,1378.971896,592.164754,8438.347739
3598.694877,995.924147,444.123565,8438.347739
3598.695191,766.095498,296.082377,8512.368333
3598.695506,306.438199,-74.020594,8808.450710
3598.695820,0.000000,-0.000000,9326.594869
3598.696134,-383.047749,222.061783,9252.574275
3598.696449,-536.266849,-0.000000,9696.697840
3598.696763,-766.095498,-0.000000,9474.636058
3598.697078,-766.095498,370.102971,9696.697840
3598.697392,-612.876398,518.144159,10288.862594
3598.697706,-536.266849,740.205942,10362.883188
3598.698021,0.000000,1184.329507,10436.903782
3598.698335,0.000000,1628.453072,10140.821405
3598.698649,153.219100,1480.411884,9992.780217
3598.698964,459.657299,1332.370696,9770.718434
3598.699278,306.438199,1110.308913,9696.697840
3598.699592,229.828649,666.185348,9918.759623
3598.699907,383.047749,444.123565,9474.636058
3598.700221,153.219100,-148.041188,9178.553681
3598.700535,0.000000,-296.082377,9474.636058
3598.700850,306.438199,-740.205942,9252.574275
3598.701164,76.609550,-592.164754,9474.636058
3598.701478,76.609550,-592.164754,9104.533087
3598.701793,459.657299,-148.041188,8734.430116
3598.702107,153.219100,-0.000000,8956.491898
3598.702422,536.266849,-296.082377,9178.553681
3598.702736,76.609550,-592.164754,9696.697840
3598.703050,153.219100,-444.123565,9992.780217
3598.703365,-229.828649,-148.041188,10881.027347
3598.703679,-459.657299,-0.000000,11251.130318
3598.703993,-153.219100,-0.000000,11473.192101
3598.704308,-459.657299,222.061783,11325.150913
3598.704622,76.609550,148.041188,11029.068536
3598.704936,0.000000,296.082377,10362.883188
3598.705251,612.876398,518.144159,9770.718434
3598.705565,689.485948,814.226536,9474.636058
3598.705879,919.314598,-0.000000,8882.471304
3598.706194,1302.362347,-74.020594,8364.327145
3598.706508,1072.533697,-148.041188,8660.409521
3598.706823,766.095498,-518.144159,8586.388927
3598.707137,766.095498,-740.205942,8438.347739
3598.707451,229.828649,-518.144159,8216.285956
3598.707766,0.000000,-148.041188,8438.347739
3598.708080,-383.047749,-518.144159,9030.512492
3598.708394,-689.485948,-370.102971,9474.636058
3598.708709,-612.876398,-296.082377,9548.656652
3598.709023,-459.657299,-0.000000,9696.697840
3598.709337,-612.876398,-0.000000,9918.759623
3598.709652,-383.047749,518.144159,9992.780217
3598.709966,0.000000,296.082377,10066.800811
3598.710280,153.219100,444.123565,9844.739029
3598.710595,229.828649,148.041188,9770.718434
3598.710909,229.828649,592.164754,9622.677246
3598.711223,536.266849,444.123565,9474.636058
3598.711538,153.219100,-0.000000,9474.636058
3598.711852,459.657299,-148.041188,9252.574275
3598.712167,383.047749,-74.020594,9252.574275
3598.712481,459.657299,-518.144159,9474.636058
3598.712795,459.657299,-592.164754,9474.636058
3598.713110,459.657299,-592.164754,8808.450710
3598.713424,306.438199,-518.144159,8808.450710
3598.713738,0.000000,-148.041188,8808.450710
3598.714053,76.609550,-296.082377,9252.574275
3598.714367,383.047749,-222.061783,9474.636058
3598.714681,0.000000,-666.185348,9918.759623
3598.714996,-919.314598,-666.185348,10436.903782
3598.715310,-766.095498,-74.020594,11251.130318
3598.715624,-689.485948,-74.020594,11621.233289
3598.715939,-612.876398,444.123565,11399.171507
3598.716253,-306.438199,962.267725,11029.068536
3598.716567,-229.828649,962.267725,10584.944971
3598.716882,383.047749,1332.370696,9992.780217
3598.717196,842.705048,1332.370696,9696.697840
3598.717511,995.924147,962.267725,9178.553681
3598.717825,1149.143247,666.185348,8956.491898
3598.718139,1149.143247,592.164754,8364.327145
3598.718454,1072.533697,296.082377,8882.471304
3598.718768,689.485948,-0.000000,8512.368333
3598.719082,76.609550,-0.000000,9030.512492
3598.719397,0.000000,148.041188,8734.430116
3598.719711,-536.266849,-0.000000,9030.512492
3598.720025,-766.095498,74.020594,9326.594869
3598.720340,-689.485948,-74.020594,9696.697840
3598.720654,-459.657299,148.041188,9770.718434
3598.720968,-689.485948,518.144159,10214.842000
3598.721283,-153.219100,1110.308913,10214.842000
3598.721597,0.000000,1036.288319,10288.862594
3598.721911,536.266849,1258.350101,9844.739029
3598.722226,689.485948,1258.350101,9474.636058
3598.722540,536.266849,1332.370696,9474.636058
3598.722855,689.485948,1258.350101,9622.677246
3598.723169,459.657299,1184.329507,9696.697840
3598.723483,459.657299,296.082377,9548.656652
3598.723798,76.609550,-148.041188,9474.636058
3598.724112,229.828649,-444.123565,9400.615463
3598.724426,0.000000,-518.144159,9474.636058
3598.724741,153.219100,-740.205942,9696.697840
3598.725055,306.438199,-592.164754,9400.615463
3598.725369,0.000000,-0.000000,9326.594869
3598.725684,0.000000,-148.041188,8364.327145
3598.725998,229.828649,-74.020594,9178.553681
3598.726312,0.000000,-444.123565,9770.718434
3598.726627,-383.047749,-666.185348,10214.842000
3598.726941,-536.266849,-74.020594,10658.965565
3598.727255,-383.047749,-148.041188,10955.047942
3598.727570,-306.438199,370.102971,11399.171507
3598.727884,-306.438199,222.061783,11473.192101
3598.728199,0.000000,148.041188,10584.944971
3598.728513,153.219100,370.102971,10214.842000
3598.728827,383.047749,666.185348,9770.718434
3598.729142,919.314598,370.102971,9770.718434
3598.729456,1149.143247,592.164754,8660.409521
3598.729770,842.705048,-0.000000,8216.285956
3598.730085,383.047749,-444.123565,8364.327145
3598.730399,612.876398,-592.164754,8438.347739
3598.730713,383.047749,-518.144159,8882.471304
3598.731028,0.000000,-666.185348,8512.368333
3598.731342,-383.047749,-888.247130,8734.430116
3598.731656,-153.219100,-518.144159,8660.409521
3598.731971,-383.047749,-222.061783,9104.533087
3598.732285,-459.657299,-222.061783,9696.697840
3598.732599,-842.705048,-444.123565,9696.697840
3598.732914,-536.266849,-222.061783,9474.636058
3598.733228,-306.438199,518.144159,9844.739029
3598.733543,0.000000,666.185348,9992.780217
3598.733857,306.438199,814.226536,10066.800811
3598.734171,306.438199,592.164754,10140.821405
3598.734486,-153.219100,370.102971,10510.924376
3598.734800,153.219100,296.082377,9622.677246
3598.735114,153.219100,-0.000000,9770.718434
3598.735429,383.047749,-148.041188,9696.697840
3598.735743,612.876398,-518.144159,9252.574275
3598.736057,612.876398,-296.082377,9474.636058
3598.736372,919.314598,-444.123565,9400.615463
3598.736686,612.876398,-148.041188,9400.615463
3598.737000,153.219100,-296.082377,9252.574275
3598.737315,0.000000,-0.000000,8660.409521
3598.737629,229.828649,-222.061783,9178.553681
3598.737943,76.609550,-666.185348,9696.697840
3598.738258,-306.438199,-592.164754,10140.821405
3598.738572,-766.095498,-592.164754,10881.027347
3598.738887,-612.876398,-296.082377,11103.089130
3598.739201,-612.876398,-0.000000,11399.171507
3598.739515,-383.047749,-0.000000,11843.295072
3598.739830,76.609550,444.123565,11473.192101
3598.740144,0.000000,814.226536,10436.903782
3598.740458,229.828649,1036.288319,9918.759623
3598.740773,919.314598,1258.350101,9400.615463
3598.741087,1225.752797,814.226536,8660.409521
3598.741401,1302.362347,666.185348,8438.347739
3598.741716,1302.362347,518.144159,8364.327145
3598.742030,1608.800546,-0.000000,8216.285956
3598.742344,1225.752797,148.041188,8586.388927
3598.742659,229.828649,222.061783,8512.368333
3598.742973,0.000000,-0.000000,8956.491898
3598.743287,-536.266849,-0.000000,9030.512492
3598.743602,-536.266849,-0.000000,9252.574275
3598.743916,-459.657299,-74.020594,9548.656652
3598.744231,-689.485948,222.061783,9844.739029
3598.744545,-842.705048,518.144159,9992.780217
3598.744859,-459.657299,888.247130,10140.821405
3598.745174,0.000000,1258.350101,10362.883188
3598.745488,306.438199,1554.432478,10066.800811
3598.745802,459.657299,1480.411884,9622.677246
3598.746117,612.876398,1554.432478,9696.697840
3598.746431,306.438199,1480.411884,10288.862594
3598.746745,229.828649,962.267725,9770.718434
3598.747060,306.438199,518.144159,9622.677246
3598.747374,306.438199,-0.000000,9474.636058
3598.747688,306.438199,-148.041188,9474.636058
3598.748003,76.609550,-444.123565,9696.697840
3598.748317,76.609550,-592.164754,9326.594869
3598.748631,76.609550,-962.267725,9326.594869
3598.748946,459.657299,-0.000000,9104.533087
3598.749260,76.609550,-0.000000,9104.533087
3598.749575,76.609550,-296.082377,9474.636058
3598.749889,0.000000,-370.102971,9918.759623
3598.750203,-153.219100,-518.144159,9918.759623
