#time,accel_x,accel_y,accel_z
4074.548067,-1225.752797,1184.329507,9178.553681
4074.548382,-1225.752797,444.123565,9400.615463
4074.548697,-1838.629195,444.123565,9400.615463
4074.549012,-1838.629195,-148.041188,9992.780217
4074.549326,-1378.971896,-814.226536,9992.780217
4074.549641,-1378.971896,-962.267725,9918.759623
4074.549956,-1378.971896,-1184.329507,9696.697840
4074.550271,-536.266849,-592.164754,9474.636058
4074.550586,-919.314598,-296.082377,9326.594869
4074.550901,76.609550,666.185348,8290.306550
4074.551216,153.219100,666.185348,8660.409521
4074.551531,229.828649,222.061783,8586.388927
4074.551846,229.828649,296.082377,8734.430116
4074.552161,536.266849,-0.000000,8808.450710
4074.552476,459.657299,-518.144159,9326.594869
4074.552791,306.438199,-1110.308913,9770.718434
4074.553106,153.219100,-1332.370696,9474.636058
4074.553421,76.609550,-1924.535449,9326.594869
4074.553736,76.609550,-2072.576638,9178.553681
4074.554050,0.000000,-1628.453072,8808.450710
4074.554365,-229.828649,-1332.370696,8586.388927
4074.554680,0.000000,-888.247130,8586.388927
4074.554995,-306.438199,-888.247130,8142.265362
4074.555310,-383.047749,-1036.288319,7920.203579
4074.555625,0.000000,-814.226536,8586.388927
4074.555940,-689.485948,-296.082377,9252.574275
4074.556255,-459.657299,-814.226536,9400.615463
4074.556570,-689.485948,-666.185348,9696.697840
4074.556885,-612.876398,-888.247130,9548.656652
4074.557200,-766.095498,-666.185348,9918.759623
4074.557515,-919.314598,-592.164754,9992.780217
4074.557830,-1225.752797,-814.226536,9844.739029
4074.558145,-1149.143247,-814.226536,9770.718434
4074.558459,-1302.362347,-1036.288319,9696.697840
4074.558774,-612.876398,-222.061783,9326.594869
4074.559089,-689.485948,-296.082377,9474.636058
4074.559404,-306.438199,-0.000000,8882.471304
4074.559719,536.266849,-0.000000,9178.553681
4074.560034,689.485948,-0.000000,9696.697840
4074.560349,689.485948,296.082377,9326.594869
4074.560664,612.876398,370.102971,9326.594869
4074.560979,1225.752797,888.247130,9252.574275
4074.561294,1149.143247,1184.329507,9474.636058
4074.561609,1608.800546,1332.370696,8956.491898
4074.561924,1378.971896,1406.391290,9252.574275
4074.562239,842.705048,1258.350101,9400.615463
4074.562554,766.095498,1554.432478,9326.594869
4074.562869,689.485948,1628.453072,9622.677246
4074.563183,383.047749,1702.473667,9474.636058
4074.563498,306.438199,1406.391290,9844.739029
4074.563813,153.219100,1184.329507,9770.718434
4074.564128,-306.438199,1036.288319,10214.842000
4074.564443,0.000000,888.247130,10510.924376
4074.564758,-766.095498,1036.288319,10436.903782
4074.565073,-612.876398,1332.370696,10584.944971
4074.565388,-689.485948,1702.473667,10510.924376
4074.565703,-153.219100,1554.432478,9992.780217
4074.566018,0.000000,1628.453072,9770.718434
4074.566333,0.000000,1406.391290,10140.821405
4074.566648,0.000000,1258.350101,10288.862594
4074.566963,229.828649,1258.350101,10214.842000
4074.567278,0.000000,962.267725,10362.883188
4074.567593,689.485948,666.185348,10066.800811
4074.567907,842.705048,518.144159,10362.883188
4074.568222,995.924147,592.164754,10140.821405
4074.568537,612.876398,296.082377,9844.739029
4074.568852,612.876398,-0.000000,9548.656652
4074.569167,995.924147,-74.020594,9474.636058
4074.569482,766.095498,-74.020594,9474.636058
4074.569797,689.485948,-74.020594,9548.656652
4074.570112,612.876398,-74.020594,9474.636058
4074.570427,459.657299,-296.082377,9622.677246
4074.570742,1149.143247,-0.000000,9696.697840
4074.571057,766.095498,-0.000000,9696.697840
4074.571372,229.828649,-296.082377,9548.656652
4074.571687,383.047749,-74.020594,9548.656652
4074.572002,459.657299,-222.061783,10140.821405
4074.572317,229.828649,-0.000000,9622.677246
4074.572631,76.609550,-444.123565,9474.636058
4074.572946,-459.657299,-370.102971,9474.636058
4074.573261,-306.438199,-518.144159,9326.594869
4074.573576,-306.438199,-666.185348,9030.512492
4074.573891,-459.657299,-518.144159,9252.574275
4074.574206,-383.047749,-814.226536,9474.636058
4074.574521,-306.438199,-666.185348,9178.553681
4074.574836,-536.266849,-1036.288319,9178.553681
4074.575151,0.000000,-740.205942,9252.574275
4074.575466,0.000000,-666.185348,9178.553681
4074.575781,-383.047749,-592.164754,9178.553681
4074.576096,0.000000,-592.164754,9178.553681
4074.576411,153.219100,-370.102971,9030.512492
4074.576726,229.828649,-592.164754,8734.430116
4074.577040,459.657299,-518.144159,8808.450710
4074.577355,0.000000,-666.185348,8956.491898
4074.577670,383.047749,-666.185348,9326.594869
4074.577985,0.000000,-592.164754,9400.615463
4074.578300,153.219100,-518.144159,9104.533087
4074.578615,306.438199,-666.185348,9326.594869
4074.578930,306.438199,-296.082377,9474.636058
4074.579245,153.219100,-370.102971,9770.718434
4074.579560,153.219100,-666.185348,9918.759623
4074.579875,229.828649,-592.164754,9104.533087
4074.580190,-153.219100,-888.247130,9844.739029
4074.580505,0.000000,-518.144159,10436.903782
4074.580820,-536.266849,-296.082377,9918.759623
4074.581135,0.000000,-444.123565,9992.780217
4074.581450,306.438199,-222.061783,9992.780217
4074.581764,76.609550,-0.000000,10066.800811
4074.582079,153.219100,222.061783,9548.656652
4074.582394,306.438199,444.123565,9844.739029
4074.582709,306.438199,814.226536,10140.821405
4074.583024,536.266849,518.144159,9548.656652
4074.583339,229.828649,666.185348,9622.677246
4074.583654,153.219100,666.185348,9770.718434
4074.583969,0.000000,444.123565,9918.759623
4074.584284,0.000000,592.164754,9770.718434
4074.584599,153.219100,814.226536,10140.821405
4074.584914,0.000000,814.226536,10214.842000
4074.585229,-229.828649,814.226536,9696.697840
4074.585544,0.000000,888.247130,9622.677246
4074.585859,153.219100,888.247130,9770.718434
4074.586174,0.000000,1258.350101,9622.677246
4074.586488,76.609550,1184.329507,9622.677246
4074.586803,0.000000,1036.288319,9696.697840
4074.587118,0.000000,962.267725,9178.553681
4074.587433,153.219100,962.267725,9474.636058
4074.587748,76.609550,1110.308913,9844.739029
4074.588063,-306.438199,1258.350101,9992.780217
4074.588378,0.000000,1184.329507,9770.718434
4074.588693,153.219100,888.247130,9918.759623
4074.589008,76.609550,740.205942,9622.677246
4074.589323,0.000000,1036.288319,9992.780217
4074.589638,0.000000,666.185348,9622.677246
4074.589953,229.828649,592.164754,9622.677246
4074.590268,383.047749,296.082377,10732.986159
4074.590583,-229.828649,370.102971,9474.636058
4074.590897,-229.828649,-0.000000,9918.759623
4074.591212,0.000000,222.061783,10066.800811
4074.591528,0.000000,-74.020594,9548.656652
4074.591843,536.266849,-0.000000,9474.636058
4074.592158,306.438199,222.061783,9548.656652
4074.592473,383.047749,444.123565,9696.697840
4074.592788,459.657299,370.102971,9474.636058
4074.593103,689.485948,-0.000000,9252.574275
4074.593418,612.876398,222.061783,9622.677246
4074.593733,306.438199,-148.041188,9696.697840
4074.594049,459.657299,-0.000000,9696.697840
4074.594364,76.609550,-148.041188,9622.677246
4074.594679,0.000000,-296.082377,9474.636058
4074.594994,76.609550,-222.061783,9178.553681
4074.595309,0.000000,-222.061783,9400.615463
4074.595624,0.000000,-148.041188,9548.656652
4074.595939,0.000000,-148.041188,9326.594869
4074.596254,-383.047749,-444.123565,9326.594869
4074.596570,0.000000,-518.144159,9178.553681
4074.596885,229.828649,-148.041188,9030.512492
4074.597200,-306.438199,-0.000000,9474.636058
4074.597515,-229.828649,-148.041188,9326.594869
4074.597830,0.000000,-222.061783,8956.491898
4074.598145,0.000000,-0.000000,9104.533087
4074.598460,76.609550,-148.041188,9252.574275
4074.598776,0.000000,-0.000000,9326.594869
4074.599091,0.000000,-222.061783,9104.533087
4074.599406,0.000000,-222.061783,8882.471304
4074.599721,536.266849,-296.082377,9252.574275
4074.600036,306.438199,-518.144159,9252.574275
4074.600351,0.000000,-296.082377,9400.615463
4074.600666,76.609550,-222.061783,9178.553681
4074.600981,0.000000,-222.061783,9622.677246
4074.601297,306.438199,-444.123565,8956.491898
4074.601612,306.438199,-370.102971,9252.574275
4074.601927,306.438199,-0.000000,9696.697840
4074.602242,0.000000,-148.041188,9474.636058
4074.602557,612.876398,-74.020594,9622.677246
4074.602872,153.219100,-0.000000,9844.739029
4074.603187,0.000000,-0.000000,9844.739029
4074.603502,0.000000,74.020594,9696.697840
4074.603818,76.609550,444.123565,9474.636058
4074.604133,0.000000,370.102971,9770.718434
4074.604448,0.000000,296.082377,9992.780217
4074.604763,0.000000,-0.000000,9844.739029
4074.605078,0.000000,518.144159,9992.780217
4074.605393,0.000000,370.102971,9992.780217
4074.605708,76.609550,592.164754,9844.739029
4074.606024,0.000000,740.205942,10436.903782
4074.606339,459.657299,518.144159,10436.903782
4074.606654,0.000000,666.185348,10140.821405
4074.606969,153.219100,814.226536,9992.780217
4074.607284,76.609550,518.144159,9992.780217
4074.607599,76.609550,666.185348,9918.759623
4074.607914,76.609550,814.226536,9992.780217
4074.608229,229.828649,814.226536,9844.739029
4074.608545,153.219100,888.247130,9770.718434
4074.608860,459.657299,814.226536,9770.718434
4074.609175,842.705048,814.226536,9696.697840
4074.609490,229.828649,888.247130,9770.718434
4074.609805,76.609550,888.247130,9918.759623
4074.610120,229.828649,592.164754,9474.636058
4074.610435,76.609550,740.205942,9474.636058
4074.610750,0.000000,370.102971,9696.697840
4074.611066,0.000000,740.205942,9696.697840
4074.611381,0.000000,740.205942,9696.697840
4074.611696,0.000000,370.102971,10140.821405
4074.612011,153.219100,592.164754,9696.697840
4074.612326,0.000000,222.061783,9696.697840
4074.612641,153.219100,370.102971,9770.718434
4074.612956,0.000000,74.020594,9400.615463
4074.613272,0.000000,222.061783,9622.677246
4074.613587,76.609550,370.102971,9770.718434
4074.613902,153.219100,-0.000000,9992.780217
4074.614217,0.000000,222.061783,9474.636058
4074.614532,0.000000,222.061783,9474.636058
4074.614847,153.219100,-0.000000,9548.656652
4074.615162,536.266849,222.061783,9696.697840
4074.615477,383.047749,-370.102971,9622.677246
4074.615793,0.000000,148.041188,9474.636058
4074.616108,0.000000,-74.020594,9548.656652
4074.616423,0.000000,-0.000000,9548.656652
4074.616738,229.828649,-148.041188,9696.697840
4074.617053,0.000000,-370.102971,9622.677246
4074.617368,153.219100,-74.020594,9474.636058
4074.617683,76.609550,-222.061783,9326.594869
4074.617998,229.828649,-222.061783,9474.636058
4074.618314,229.828649,-296.082377,9622.677246
4074.618629,229.828649,-222.061783,9474.636058
4074.618944,-153.219100,-222.061783,9326.594869
4074.619259,229.828649,-0.000000,9622.677246
4074.619574,0.000000,-148.041188,9326.594869
4074.619889,153.219100,-444.123565,9104.533087
4074.620204,0.000000,-148.041188,9548.656652
4074.620519,-306.438199,-592.164754,9548.656652
4074.620835,76.609550,-74.020594,9400.615463
4074.621150,0.000000,-222.061783,9474.636058
4074.621465,153.219100,-592.164754,9178.553681
4074.621780,0.000000,-444.123565,9252.574275
4074.622095,0.000000,-0.000000,9252.574275
4074.622410,0.000000,-222.061783,9474.636058
4074.622725,0.000000,-74.020594,9252.574275
4074.623041,306.438199,-148.041188,9030.512492
4074.623356,76.609550,-296.082377,9178.553681
4074.623671,0.000000,-222.061783,9326.594869
4074.623986,229.828649,-74.020594,9474.636058
4074.624301,76.609550,-0.000000,9326.594869
4074.624616,153.219100,-296.082377,9474.636058
4074.624931,229.828649,222.061783,9548.656652
4074.625246,0.000000,222.061783,9030.512492
4074.625562,76.609550,-0.000000,9622.677246
4074.625877,76.609550,-0.000000,9474.636058
4074.626192,153.219100,148.041188,9548.656652
4074.626507,76.609550,296.082377,9696.697840
4074.626822,0.000000,-0.000000,9548.656652
4074.627137,229.828649,296.082377,9696.697840
4074.627452,0.000000,444.123565,9696.697840
4074.627767,-306.438199,-0.000000,9622.677246
4074.628083,0.000000,518.144159,9918.759623
4074.628398,0.000000,444.123565,9696.697840
4074.628713,0.000000,666.185348,9770.718434
4074.629028,0.000000,444.123565,9696.697840
4074.629343,76.609550,518.144159,9696.697840
4074.629658,0.000000,444.123565,9548.656652
4074.629973,0.000000,444.123565,10140.821405
4074.630289,229.828649,370.102971,9474.636058
4074.630604,229.828649,666.185348,9696.697840
4074.630919,0.000000,518.144159,9992.780217
4074.631234,153.219100,592.164754,10140.821405
4074.631549,153.219100,518.144159,9696.697840
4074.631864,0.000000,444.123565,9474.636058
4074.632179,306.438199,370.102971,9622.677246
4074.632494,229.828649,296.082377,9622.677246
4074.632810,0.000000,370.102971,9770.718434
4074.633125,153.219100,-0.000000,9844.739029
4074.633440,153.219100,370.102971,9696.697840
4074.633755,306.438199,-0.000000,9326.594869
4074.634070,306.438199,-0.000000,9844.739029
4074.634385,0.000000,148.041188,9770.718434
4074.634700,76.609550,74.020594,9622.677246
4074.635015,229.828649,370.102971,9548.656652
4074.635331,76.609550,222.061783,9770.718434
4074.635646,76.609550,444.123565,9992.780217
4074.635961,76.609550,444.123565,9622.677246
4074.636276,76.609550,296.082377,9622.677246
4074.636591,0.000000,148.041188,9474.636058
4074.636906,-229.828649,-0.000000,9992.780217
4074.637221,0.000000,296.082377,9918.759623
4074.637537,0.000000,-0.000000,9548.656652
4074.637852,0.000000,-0.000000,9622.677246
4074.638167,153.219100,-0.000000,9474.636058
4074.638482,-306.438199,-0.000000,9918.759623
4074.638797,-76.609550,-0.000000,9622.677246
4074.639112,0.000000,-0.000000,9474.636058
4074.639427,0.000000,-74.020594,9178.553681
4074.639742,153.219100,-0.000000,9548.656652
4074.640058,0.000000,-0.000000,9548.656652
4074.640373,0.000000,-74.020594,9400.615463
4074.640688,0.000000,-296.082377,9622.677246
4074.641003,76.609550,-0.000000,9326.594869
4074.641318,0.000000,-74.020594,9178.553681
4074.641633,153.219100,-518.144159,9400.615463
4074.641948,0.000000,-444.123565,9474.636058
4074.642263,76.609550,-74.020594,9770.718434
4074.642579,0.000000,-74.020594,9400.615463
4074.642894,229.828649,-222.061783,9326.594869
4074.643209,76.609550,-148.041188,9400.615463
4074.643524,459.657299,-0.000000,9622.677246
4074.643839,306.438199,-222.061783,9252.574275
4074.644154,383.047749,-0.000000,9474.636058
4074.644469,153.219100,-0.000000,9474.636058
4074.644784,0.000000,-0.000000,9326.594869
4074.645100,229.828649,-148.041188,9474.636058
4074.645415,153.219100,-222.061783,9326.594869
4074.645730,229.828649,-0.000000,9400.615463
4074.646045,306.438199,-0.000000,9548.656652
4074.646360,0.000000,-74.020594,9548.656652
4074.646675,0.000000,-0.000000,9548.656652
4074.646990,76.609550,148.041188,9696.697840
4074.647306,153.219100,148.041188,9474.636058
4074.647621,919.314598,-74.020594,9844.739029
4074.647936,0.000000,370.102971,9696.697840
4074.648251,0.000000,-0.000000,9696.697840
4074.648566,153.219100,222.061783,9770.718434
4074.648881,76.609550,296.082377,9918.759623
4074.649196,0.000000,222.061783,9770.718434
4074.649511,306.438199,666.185348,9622.677246
4074.649827,0.000000,518.144159,9548.656652
4074.650142,0.000000,592.164754,9548.656652
4074.650457,0.000000,666.185348,9696.697840
4074.650772,0.000000,296.082377,9474.636058
4074.651087,0.000000,518.144159,9696.697840
4074.651402,0.000000,666.185348,9548.656652
4074.651717,76.609550,444.123565,9474.636058
4074.652032,153.219100,370.102971,9844.739029
4074.652348,153.219100,296.082377,9400.615463
4074.652663,0.000000,222.061783,9474.636058
4074.652978,0.000000,296.082377,9992.780217
4074.653293,0.000000,296.082377,9548.656652
4074.653608,229.828649,296.082377,9548.656652
4074.653923,306.438199,518.144159,9474.636058
4074.654238,76.609550,518.144159,9474.636058
4074.654554,229.828649,592.164754,9548.656652
4074.654869,306.438199,444.123565,9696.697840
4074.655184,612.876398,296.082377,9844.739029
4074.655499,153.219100,370.102971,9548.656652
4074.655814,229.828649,370.102971,9474.636058
4074.656129,76.609550,518.144159,9474.636058
4074.656444,153.219100,148.041188,9622.677246
4074.656759,229.828649,-0.000000,9918.759623
4074.657075,0.000000,-0.000000,9770.718434
4074.657390,0.000000,-0.000000,9696.697840
4074.657705,306.438199,296.082377,9474.636058
4074.658020,76.609550,-0.000000,9770.718434
4074.658335,153.219100,148.041188,10066.800811
4074.658650,0.000000,370.102971,9696.697840
4074.658965,153.219100,-0.000000,9474.636058
4074.659280,153.219100,296.082377,9992.780217
4074.659596,0.000000,-0.000000,9918.759623
4074.659911,76.609550,-0.000000,9474.636058
4074.660226,153.219100,-0.000000,9770.718434
4074.660541,0.000000,-0.000000,9770.718434
4074.660856,153.219100,-0.000000,9400.615463
4074.661171,153.219100,-74.020594,9622.677246
4074.661486,0.000000,-74.020594,9474.636058
4074.661802,0.000000,-0.000000,9474.636058
4074.662117,0.000000,-0.000000,9252.574275
4074.662432,0.000000,-0.000000,9252.574275
4074.662747,536.266849,-0.000000,10140.821405
4074.663062,229.828649,-0.000000,9252.574275
4074.663377,-76.609550,-74.020594,9030.512492
4074.663692,76.609550,-74.020594,9474.636058
4074.664007,153.219100,-0.000000,9474.636058
4074.664323,459.657299,-148.041188,9474.636058
4074.664638,0.000000,-296.082377,9548.656652
4074.664953,229.828649,-0.000000,9474.636058
4074.665268,153.219100,-370.102971,9400.615463
4074.665583,306.438199,-0.000000,9474.636058
4074.665898,229.828649,-0.000000,9622.677246
4074.666213,76.609550,-74.020594,9252.574275
4074.666528,76.609550,-222.061783,9474.636058
4074.666844,0.000000,-74.020594,9474.636058
4074.667159,306.438199,-222.061783,9474.636058
4074.667474,459.657299,-0.000000,9770.718434
4074.667789,153.219100,-0.000000,9622.677246
4074.668104,229.828649,-0.000000,9770.718434
4074.668419,76.609550,-0.000000,9326.594869
4074.668734,536.266849,-148.041188,9696.697840
4074.669049,459.657299,-0.000000,9696.697840
4074.669365,306.438199,-0.000000,9474.636058
4074.669680,0.000000,148.041188,9770.718434
4074.669995,0.000000,-0.000000,9844.739029
4074.670310,766.095498,-0.000000,9696.697840
4074.670625,383.047749,-0.000000,9548.656652
4074.670940,0.000000,-0.000000,9696.697840
4074.671255,229.828649,370.102971,9992.780217
4074.671571,0.000000,222.061783,9474.636058
4074.671886,383.047749,888.247130,9548.656652
4074.672201,-306.438199,74.020594,9622.677246
4074.672516,-459.657299,148.041188,9844.739029
4074.672831,0.000000,444.123565,9474.636058
4074.673146,0.000000,-0.000000,9770.718434
4074.673461,76.609550,-0.000000,10140.821405
4074.673776,0.000000,-0.000000,9474.636058
4074.674092,-229.828649,-0.000000,9474.636058
4074.674407,0.000000,296.082377,9770.718434
4074.674722,229.828649,518.144159,9474.636058
4074.675037,0.000000,296.082377,9548.656652
4074.675352,0.000000,296.082377,9844.739029
4074.675667,153.219100,222.061783,9622.677246
4074.675982,229.828649,444.123565,9548.656652
4074.676297,229.828649,592.164754,9400.615463
4074.676613,306.438199,222.061783,9770.718434
4074.676928,153.219100,-0.000000,9622.677246
4074.677243,0.000000,-0.000000,9548.656652
4074.677558,76.609550,-0.000000,9474.636058
4074.677873,229.828649,-0.000000,9548.656652
4074.678188,766.095498,-74.020594,9474.636058
4074.678503,383.047749,296.082377,9474.636058
4074.678819,229.828649,-0.000000,9622.677246
4074.679134,383.047749,148.041188,9400.615463
4074.679449,229.828649,-0.000000,9474.636058
4074.679764,383.047749,222.061783,9918.759623
4074.680079,153.219100,296.082377,9770.718434
4074.680394,0.000000,148.041188,9474.636058
4074.680709,153.219100,-0.000000,9474.636058
4074.681024,153.219100,148.041188,9548.656652
4074.681340,0.000000,148.041188,9326.594869
4074.681655,0.000000,370.102971,9622.677246
4074.681970,-536.266849,-0.000000,10066.800811
4074.682285,76.609550,-0.000000,9696.697840
4074.682600,153.219100,-0.000000,9474.636058
4074.682915,153.219100,-0.000000,9622.677246
4074.683230,0.000000,-0.000000,9548.656652
4074.683545,0.000000,-0.000000,9548.656652
4074.683861,0.000000,-0.000000,9400.615463
4074.684176,0.000000,-222.061783,9696.697840
4074.684491,-306.438199,-148.041188,9474.636058
4074.684806,-229.828649,-148.041188,9178.553681
4074.685121,0.000000,-0.000000,9400.615463
4074.685436,0.000000,-0.000000,9474.636058
4074.685751,383.047749,-0.000000,9474.636058
4074.686067,0.000000,-0.000000,9474.636058
4074.686382,153.219100,-74.020594,9252.574275
4074.686697,0.000000,-0.000000,9474.636058
4074.687012,76.609550,-0.000000,9474.636058
4074.687327,153.219100,-0.000000,9474.636058
4074.687642,153.219100,-148.041188,9326.594869
4074.687957,0.000000,-0.000000,9104.533087
4074.688272,0.000000,-74.020594,9252.574275
4074.688588,306.438199,-0.000000,9548.656652
4074.688903,0.000000,-0.000000,9548.656652
4074.689218,0.000000,296.082377,9696.697840
4074.689533,229.828649,-74.020594,9770.718434
4074.689848,76.609550,222.061783,9326.594869
4074.690163,0.000000,-0.000000,9326.594869
4074.690478,153.219100,-0.000000,9474.636058
4074.690793,153.219100,518.144159,9770.718434
4074.691109,76.609550,-0.000000,9622.677246
4074.691424,229.828649,296.082377,9474.636058
4074.691739,153.219100,-0.000000,9548.656652
4074.692054,76.609550,370.102971,9844.739029
4074.692369,0.000000,222.061783,9770.718434
4074.692684,0.000000,296.082377,9844.739029
4074.693000,76.609550,-0.000000,9696.697840
4074.693315,0.000000,-0.000000,9770.718434
4074.693630,76.609550,296.082377,10140.821405
4074.693946,0.000000,296.082377,9622.677246
4074.694261,-76.609550,74.020594,9622.677246
4074.694576,0.000000,148.041188,9622.677246
4074.694891,-153.219100,296.082377,9918.759623
4074.695207,153.219100,-148.041188,9696.697840
4074.695522,229.828649,444.123565,9622.677246
4074.695837,0.000000,222.061783,9770.718434
4074.696152,0.000000,222.061783,9696.697840
4074.696468,153.219100,370.102971,9622.677246
4074.696783,0.000000,148.041188,9474.636058
4074.697098,0.000000,222.061783,9548.656652
4074.697413,306.438199,518.144159,9474.636058
4074.697729,0.000000,444.123565,9474.636058
4074.698044,-383.047749,518.144159,9474.636058
4074.698359,-153.219100,-0.000000,9474.636058
4074.698674,-153.219100,296.082377,9548.656652
4074.698990,-383.047749,592.164754,9252.574275
4074.699305,-536.266849,592.164754,9622.677246
4074.699620,-766.095498,444.123565,9770.718434
4074.699935,-766.095498,222.061783,10510.924376
4074.700251,-689.485948,148.041188,10584.944971
4074.700566,-536.266849,592.164754,10066.800811
4074.700881,-306.438199,814.226536,9474.636058
4074.701197,-306.438199,888.247130,9622.677246
4074.701512,-383.047749,1036.288319,9400.615463
4074.701827,-536.266849,1332.370696,9400.615463
4074.702142,-995.924147,1332.370696,8808.450710
4074.702458,-1302.362347,1406.391290,8660.409521
4074.702773,-1149.143247,1110.308913,8882.471304
4074.703088,-2374.896044,1332.370696,9400.615463
4074.703403,-2834.553343,666.185348,9548.656652
4074.703719,-2987.772442,296.082377,9992.780217
4074.704034,-2987.772442,740.205942,9844.739029
4074.704349,-2834.553343,666.185348,9992.780217
4074.704664,-3294.210641,1406.391290,9844.739029
4074.704980,-2757.943793,1924.535449,9696.697840
4074.705295,-2604.724693,2146.597232,9400.615463
4074.705610,-2374.896044,2516.700203,8956.491898
4074.705925,-2068.457845,3108.864956,8882.471304
4074.706241,-2298.286494,3108.864956,8882.471304
4074.706556,-2451.505594,3330.926739,9030.512492
4074.706871,-2374.896044,3701.029710,9252.574275
4074.707186,-2604.724693,2960.823768,9474.636058
4074.707502,-2834.553343,2442.679609,10066.800811
4074.707817,-2681.334243,2368.659014,10288.862594
4074.708132,-2757.943793,2368.659014,10584.944971
4074.708448,-2528.115143,2146.597232,10584.944971
4074.708763,-2221.676944,2442.679609,10362.883188
4074.709078,-1455.581446,2664.741391,9400.615463
4074.709393,-842.705048,4071.132681,8734.430116
4074.709709,-919.314598,4071.132681,8438.347739
4074.710024,-536.266849,4589.276840,8290.306550
4074.710339,-689.485948,4589.276840,7994.224174
4074.710654,-1225.752797,4663.297435,8808.450710
4074.710970,-2298.286494,3849.070898,9252.574275
4074.711285,-2528.115143,3478.967927,9770.718434
4074.711600,-2604.724693,2812.782580,10807.006753
4074.711915,-3064.381992,2664.741391,11325.150913
4074.712231,-3217.601092,2738.761985,11843.295072
4074.712546,-3140.991542,3256.906145,11621.233289
4074.712861,-2451.505594,3849.070898,11029.068536
4074.713176,-1532.190996,4293.194464,10362.883188
4074.713492,-1455.581446,4737.318029,9622.677246
4074.713807,-1225.752797,5033.400406,8956.491898
4074.714122,-1455.581446,5107.421000,8882.471304
4074.714437,-1762.019645,4441.235652,9030.512492
4074.714753,-1838.629195,3849.070898,9178.553681
4074.715068,-2374.896044,3330.926739,9918.759623
4074.715383,-2451.505594,2368.659014,10955.047942
4074.715699,-2604.724693,1480.411884,11621.233289
4074.716014,-2528.115143,592.164754,11695.253884
4074.716329,-1762.019645,296.082377,11399.171507
4074.716644,-1072.533697,1258.350101,10881.027347
4074.716960,-766.095498,1850.514855,9992.780217
4074.717275,229.828649,2368.659014,8808.450710
4074.717590,689.485948,3256.906145,8142.265362
4074.717905,842.705048,3775.050304,7105.977043
4074.718221,229.828649,3997.112087,6957.935855
4074.718536,-766.095498,3701.029710,7179.997637
4074.718851,-1762.019645,3108.864956,7920.203579
4074.719166,-2834.553343,1924.535449,8438.347739
4074.719482,-3217.601092,666.185348,10288.862594
4074.719797,-4136.915689,-444.123565,11473.192101
4074.720112,-4366.744339,-740.205942,10955.047942
4074.720427,-4519.963438,-518.144159,11843.295072
4074.720743,-3600.648841,-148.041188,11991.336260
4074.721058,-2911.162892,-0.000000,11325.150913
4074.721373,-1225.752797,962.267725,10658.965565
4074.721688,536.266849,1628.453072,9474.636058
4074.722004,1378.971896,3330.926739,8512.368333
4074.722319,2068.457845,3775.050304,8216.285956
4074.722634,2221.676944,3997.112087,6809.894666
4074.722950,1225.752797,3627.009116,7105.977043
4074.723265,459.657299,2664.741391,7624.121203
4074.723580,-306.438199,1110.308913,7698.141797
4074.723895,-1378.971896,-148.041188,7920.203579
4074.724211,-3064.381992,-1480.411884,9104.533087
4074.724526,-4903.011187,-2146.597232,10584.944971
4074.724841,-5209.449386,-2812.782580,11695.253884
4074.725156,-4903.011187,-2664.741391,12213.398043
4074.725472,-3524.039291,-2220.617826,11917.315666
4074.725787,-2298.286494,-1628.453072,12435.459826
4074.726102,0.000000,-148.041188,11251.130318
4074.726417,1532.190996,1036.288319,10140.821405
4074.726733,2604.724693,2442.679609,8882.471304
4074.727048,3447.429741,3552.988522,7402.059420
4074.727363,3677.258390,4737.318029,6365.771101
4074.727678,3524.039291,4441.235652,6291.750507
4074.727994,2528.115143,3330.926739,5921.647536
4074.728309,383.047749,2146.597232,7031.956449
4074.728624,-1991.848295,-148.041188,8882.471304
4074.728939,-4826.401637,-2886.803174,11103.089130
4074.729255,-5592.497135,-5033.400406,13545.768739
4074.729570,-5975.544884,-5625.565159,13915.871710
4074.729885,-5439.278036,-5847.626942,13915.871710
4074.730200,-3600.648841,-4663.297435,13545.768739
4074.730516,-1302.362347,-2738.761985,12139.377449
4074.730831,995.924147,888.247130,9030.512492
4074.731146,2834.553343,3627.009116,7254.018232
4074.731462,4290.134789,5921.647536,5107.421000
4074.731777,4060.306139,7402.059420,3701.029710
4074.732092,4519.963438,7105.977043,3552.988522
4074.732407,2221.676944,5255.462188,4737.318029
4074.732723,0.000000,2738.761985,7846.182985
4074.733038,-2451.505594,-814.226536,11325.150913
4074.733353,-4136.915689,-4145.153275,14063.912898
4074.733668,-4826.401637,-5625.565159,15396.283594
4074.733984,-5439.278036,-6883.915261,16654.633695
4074.734299,-3907.087040,-6365.771101,15174.221811
4074.734614,-1762.019645,-3849.070898,11991.336260
4074.734929,76.609550,740.205942,10214.842000
4074.735245,2221.676944,4663.297435,7254.018232
4074.735560,4136.915689,7031.956449,3552.988522
4074.735875,5286.058936,8660.409521,2590.720797
4074.736190,5056.230287,8438.347739,1850.514855
4074.736506,2451.505594,5181.441594,4811.338623
4074.736821,842.705048,2812.782580,8734.430116
4074.737136,-995.924147,-2146.597232,11843.295072
4074.737451,-2451.505594,-4663.297435,14582.057057
4074.737767,-2298.286494,-6809.894666,16506.592507
4074.738082,-2221.676944,-7105.977043,16432.571912
4074.738397,-1532.190996,-5403.503377,13693.809927
4074.738713,-229.828649,-1110.308913,11621.233289
4074.739028,842.705048,2442.679609,8660.409521
4074.739343,2451.505594,5699.585753,4885.359217
4074.739658,3907.087040,7920.203579,2516.700203
4074.739974,2987.772442,8142.265362,1702.473667
4074.740289,766.095498,4737.318029,5477.523971
4074.740604,-383.047749,592.164754,9474.636058
4074.740919,-1378.971896,-3034.844362,12435.459826
4074.741235,-2298.286494,-4663.297435,14804.118840
4074.741550,-2145.067394,-5773.606348,18061.024985
4074.741865,-766.095498,-5995.668130,16728.654289
4074.742180,995.924147,-5255.462188,14211.954086
4074.742496,2374.896044,-1184.329507,11547.212695
4074.742811,2528.115143,2960.823768,9104.533087
4074.743126,3447.429741,6661.853478,3701.029710
4074.743441,3983.696590,8364.327145,1480.411884
4074.743757,2757.943793,7994.224174,740.205942
4074.744072,612.876398,3701.029710,4885.359217
4074.744387,-1378.971896,-1036.288319,10214.842000
4074.744702,-3600.648841,-5107.421000,12287.418637
4074.745018,-4826.401637,-7105.977043,14804.118840
4074.745333,-3830.477490,-7624.121203,18949.272115
4074.745648,-995.924147,-9326.594869,17838.963202
4074.745964,1302.362347,-6661.853478,15396.283594
4074.746279,3064.381992,-962.267725,10881.027347
4074.746594,3753.867940,4071.132681,6661.853478
4074.746909,5056.230287,9474.636058,1480.411884
4074.747225,5439.278036,9918.759623,-444.123565
4074.747540,3294.210641,8216.285956,-222.061783
4074.747855,995.924147,4219.173869,4367.215058
4074.748170,-995.924147,-148.041188,8290.306550
4074.748486,-3830.477490,-4737.318029,10881.027347
4074.748801,-6358.592633,-7328.038826,15840.407159
4074.749116,-6205.373534,-9474.636058,18431.127956
4074.749431,-4060.306139,-11695.253884,19467.416275
4074.749747,0.000000,-8734.430116,16580.613101
4074.750062,1149.143247,-1776.494261,11695.253884
4074.750377,2987.772442,4071.132681,8142.265362
4074.750692,4826.401637,9178.553681,2442.679609
4074.751008,4749.792088,10362.883188,-370.102971
4074.751323,4060.306139,9622.677246,-666.185348
4074.751638,2221.676944,6439.791695,2812.782580
4074.751953,459.657299,2220.617826,7105.977043
4074.752269,-2757.943793,-3849.070898,9474.636058
4074.752584,-4979.620737,-6735.874072,14878.139434
4074.752899,-5286.058936,-8882.471304,20133.601622
4074.753215,-3753.867940,-9992.780217,19985.560434
4074.753530,-459.657299,-7994.224174,16136.489536
4074.753845,-383.047749,-4071.132681,13915.871710
4074.754160,2068.457845,2220.617826,9326.594869
4074.754476,4060.306139,7476.080014,4219.173869
4074.754791,4060.306139,10214.842000,74.020594
4074.755106,3064.381992,10732.986159,-1628.453072
4074.755421,153.219100,7105.977043,2738.761985
4074.755737,0.000000,1628.453072,8216.285956
4074.756052,-2068.457845,-3330.926739,8882.471304
4074.756367,-3753.867940,-6439.791695,14508.036463
4074.756682,-3140.991542,-6809.894666,19467.416275
4074.756998,-2451.505594,-8290.306550,18949.272115
4074.757313,383.047749,-5625.565159,16802.674883
4074.757628,229.828649,-4071.132681,14730.098246
4074.757943,2681.334243,2516.700203,7476.080014
4074.758259,3830.477490,6735.874072,4515.256246
4074.758574,3830.477490,11103.089130,666.185348
4074.758889,2068.457845,9918.759623,-814.226536
4074.759204,0.000000,6069.688724,4219.173869
4074.759520,-766.095498,962.267725,6735.874072
4074.759835,-4366.744339,-4811.338623,9030.512492
4074.760150,-4749.792088,-7772.162391,17098.757260
4074.760466,-3907.087040,-7920.203579,19467.416275
4074.760781,-1915.238745,-7402.059420,18949.272115
4074.761096,1378.971896,-4515.256246,15544.324782
4074.761411,689.485948,-2516.700203,12657.521608
4074.761727,4213.525239,2812.782580,7698.141797
4074.762042,4673.182538,7476.080014,4293.194464
4074.762357,4443.353888,11251.130318,444.123565
4074.762672,3294.210641,11325.150913,-962.267725
4074.762988,536.266849,5995.668130,4071.132681
4074.763303,-689.485948,-0.000000,5921.647536
4074.763618,-3907.087040,-5995.668130,10436.903782
4074.763933,-4826.401637,-7920.203579,18209.066173
4074.764249,-4136.915689,-7846.182985,18949.272115
4074.764564,-2451.505594,-7402.059420,18283.086767
4074.764879,153.219100,-4293.194464,13545.768739
4074.765194,1072.533697,-3701.029710,12213.398043
4074.765510,3600.648841,3034.844362,8882.471304
4074.765825,4749.792088,7105.977043,3923.091493
4074.766140,4979.620737,12287.418637,-888.247130
4074.766455,4060.306139,11177.109724,-296.082377
4074.766771,229.828649,7328.038826,3775.050304
4074.767086,0.000000,1184.329507,7105.977043
4074.767401,-2681.334243,-4663.297435,9474.636058
4074.767717,-4366.744339,-7476.080014,15544.324782
4074.768032,-3294.210641,-6513.812290,19393.395680
4074.768347,-2834.553343,-7476.080014,17912.983796
4074.768662,-919.314598,-5403.503377,15396.283594
4074.768978,153.219100,-2590.720797,13397.727550
4074.769293,1838.629195,1258.350101,9622.677246
4074.769608,3140.991542,5699.585753,2812.782580
4074.769923,3140.991542,11695.253884,0.000000
4074.770239,1302.362347,10066.800811,296.082377
4074.770554,459.657299,5699.585753,4737.318029
4074.770869,0.000000,666.185348,7624.121203
4074.771184,-2757.943793,-5255.462188,12361.439231
4074.771500,-3677.258390,-7105.977043,17987.004391
4074.771815,-2528.115143,-6291.750507,18061.024985
4074.772130,-1915.238745,-5477.523971,15618.345376
4074.772445,153.219100,-3923.091493,12879.583391
4074.772761,459.657299,-1702.473667,13249.686362
4074.773076,2604.724693,1258.350101,8956.491898
4074.773391,3600.648841,5403.503377,4367.215058
4074.773706,2221.676944,9030.512492,592.164754
4074.774022,689.485948,7402.059420,1406.391290
4074.774337,-229.828649,5107.421000,4959.379811
4074.774652,-1455.581446,-888.247130,8364.327145
4074.774967,-2374.896044,-5033.400406,11917.315666
4074.775283,-2757.943793,-7105.977043,15322.262999
4074.775598,-1685.410096,-6513.812290,16284.530724
4074.775913,-306.438199,-5699.585753,17024.736666
4074.776229,919.314598,-3701.029710,13767.830521
4074.776544,1378.971896,-1184.329507,12287.418637
4074.776859,3524.039291,2368.659014,5847.626942
4074.777174,4136.915689,6069.688724,4737.318029
4074.777490,2681.334243,8808.450710,1332.370696
4074.777805,536.266849,6143.709319,2812.782580
4074.778120,-153.219100,3034.844362,6365.771101
4074.778435,-1532.190996,-1184.329507,9178.553681
4074.778751,-3447.429741,-4959.379811,11251.130318
4074.779066,-2987.772442,-7698.141797,16358.551318
4074.779381,-1915.238745,-7698.141797,17764.942608
4074.779696,-459.657299,-7105.977043,16284.530724
4074.780012,842.705048,-3627.009116,12953.603985
4074.780327,1532.190996,-0.000000,9696.697840
4074.780642,3753.867940,4367.215058,5181.441594
4074.780957,4443.353888,7105.977043,3330.926739
4074.781273,2528.115143,7550.100608,740.205942
4074.781588,1378.971896,5329.482782,3627.009116
4074.781903,766.095498,2960.823768,7105.977043
4074.782218,-1608.800546,-1036.288319,8216.285956
4074.782534,-3907.087040,-4811.338623,12879.583391
4074.782849,-3064.381992,-7031.956449,18579.169144
4074.783164,-1991.848295,-7254.018232,16062.468941
4074.783480,-536.266849,-6735.874072,14582.057057
4074.783795,842.705048,-2960.823768,10881.027347
4074.784110,1302.362347,1332.370696,9622.677246
4074.784425,3217.601092,5255.462188,6809.894666
4074.784741,3294.210641,7179.997637,2072.576638
4074.785056,1838.629195,7550.100608,1554.432478
4074.785371,536.266849,5403.503377,4293.194464
4074.785686,76.609550,2368.659014,7624.121203
4074.786002,-1838.629195,-1480.411884,8956.491898
4074.786317,-3447.429741,-5329.482782,15026.180623
4074.786632,-2604.724693,-5699.585753,18579.169144
4074.786947,-1915.238745,-5033.400406,16136.489536
4074.787263,0.000000,-4293.194464,13323.706956
4074.787578,1378.971896,-2220.617826,10658.965565
4074.787893,2221.676944,2294.638420,9992.780217
4074.788208,3217.601092,5329.482782,5773.606348
4074.788524,2604.724693,8586.388927,2294.638420
4074.788839,383.047749,8586.388927,2590.720797
4074.789154,0.000000,4737.318029,5773.606348
4074.789469,-306.438199,1702.473667,8142.265362
4074.789785,-2451.505594,-2886.803174,11177.109724
4074.790100,-3677.258390,-5107.421000,17098.757260
4074.790415,-3064.381992,-4515.256246,16580.613101
4074.790731,-1762.019645,-3627.009116,14952.160028
4074.791046,766.095498,-3478.967927,13693.809927
4074.791361,1302.362347,-1406.391290,10881.027347
4074.791676,3140.991542,3034.844362,9548.656652
4074.791992,3753.867940,6217.729913,4293.194464
4074.792307,3217.601092,9252.574275,1850.514855
4074.792622,612.876398,8956.491898,3478.967927
4074.792937,-536.266849,4219.173869,5625.565159
4074.793253,-689.485948,-222.061783,8882.471304
4074.793568,-2451.505594,-3701.029710,12953.603985
4074.793883,-3600.648841,-5699.585753,15618.345376
4074.794199,-2834.553343,-5773.606348,14804.118840
4074.794514,-1608.800546,-4737.318029,16210.510130
4074.794830,76.609550,-2590.720797,13989.892304
4074.795145,1455.581446,-1036.288319,11621.233289
4074.795460,3447.429741,2664.741391,7031.956449
4074.795776,3600.648841,5477.523971,3849.070898
4074.796091,2604.724693,8956.491898,2220.617826
4074.796406,842.705048,7254.018232,3256.906145
4074.796722,-459.657299,3552.988522,6291.750507
4074.797037,-766.095498,-1702.473667,9844.739029
4074.797352,-2374.896044,-5255.462188,13323.706956
4074.797668,-2604.724693,-6439.791695,14730.098246
4074.797983,-1762.019645,-6143.709319,14952.160028
4074.798299,-689.485948,-5033.400406,15248.242405
4074.798614,536.266849,-3330.926739,12435.459826
4074.798929,1302.362347,-0.000000,11251.130318
4074.799245,3064.381992,2738.761985,6217.729913
4074.799560,3370.820191,5625.565159,3330.926739
4074.799875,1838.629195,7105.977043,1406.391290
4074.800191,536.266849,5255.462188,3775.050304
4074.800506,-153.219100,1850.514855,7105.977043
4074.800821,-1532.190996,-1554.432478,9178.553681
4074.801137,-3370.820191,-4885.359217,12287.418637
4074.801452,-2528.115143,-7624.121203,16210.510130
4074.801768,-1072.533697,-7698.141797,16950.716072
4074.802083,-229.828649,-6217.729913,14137.933492
4074.802398,919.314598,-2294.638420,10807.006753
4074.802714,1532.190996,1702.473667,8068.244768
4074.803029,3370.820191,4589.276840,5033.400406
4074.803344,2911.162892,6069.688724,3775.050304
4074.803660,1072.533697,5847.626942,2072.576638
4074.803975,153.219100,3701.029710,4737.318029
4074.804290,-1225.752797,1850.514855,7254.018232
4074.804606,-2681.334243,-2146.597232,9696.697840
4074.804921,-3830.477490,-5403.503377,13915.871710
4074.805237,-2757.943793,-7328.038826,18505.148550
4074.805552,-1149.143247,-6735.874072,16136.489536
4074.805867,153.219100,-4811.338623,12657.521608
4074.806183,1455.581446,-888.247130,10510.924376
4074.806498,2451.505594,3330.926739,8438.347739
4074.806813,3140.991542,6291.750507,5477.523971
4074.807129,3064.381992,7698.141797,2664.741391
4074.807444,1378.971896,7105.977043,3256.906145
4074.807759,0.000000,3775.050304,5921.647536
4074.808075,-842.705048,666.185348,7254.018232
4074.808390,-2374.896044,-3478.967927,10955.047942
4074.808706,-3677.258390,-5403.503377,16728.654289
4074.809021,-2911.162892,-5107.421000,16580.613101
4074.809336,-1302.362347,-4737.318029,15026.180623
4074.809652,383.047749,-3552.988522,12065.356855
4074.809967,1838.629195,-1850.514855,13027.624579
4074.810282,3370.820191,2664.741391,9030.512492
4074.810598,3907.087040,6143.709319,4515.256246
4074.810913,2528.115143,9696.697840,1776.494261
4074.811228,689.485948,8438.347739,2960.823768
4074.811544,0.000000,4145.153275,5921.647536
4074.811859,-536.266849,-518.144159,8808.450710
4074.812175,-2298.286494,-4219.173869,12139.377449
4074.812490,-3064.381992,-5329.482782,15174.221811
4074.812805,-2298.286494,-5477.523971,15248.242405
4074.813121,-766.095498,-4737.318029,16284.530724
4074.813436,995.924147,-2590.720797,13249.686362
4074.813751,1838.629195,-740.205942,12287.418637
4074.814067,3677.258390,2960.823768,6587.832884
4074.814382,3294.210641,6439.791695,4219.173869
4074.814697,2221.676944,9474.636058,1924.535449
4074.815013,459.657299,6883.915261,3034.844362
4074.815328,-842.705048,2072.576638,6883.915261
4074.815644,-1455.581446,-1628.453072,9844.739029
4074.815959,-2681.334243,-4737.318029,13619.789333
4074.816274,-3217.601092,-6365.771101,14952.160028
4074.816590,-2145.067394,-6291.750507,15322.262999
4074.816905,229.828649,-4145.153275,15322.262999
4074.817220,1225.752797,-2220.617826,12213.398043
4074.817536,1685.410096,518.144159,10658.965565
4074.817851,4290.134789,3701.029710,5699.585753
4074.818166,4060.306139,6957.935855,3108.864956
4074.818482,2298.286494,8512.368333,814.226536
4074.818797,306.438199,6439.791695,3182.885551
4074.819113,-306.438199,2146.597232,7624.121203
4074.819428,-1685.410096,-2072.576638,9622.677246
4074.819743,-3524.039291,-6143.709319,13249.686362
4074.820059,-3294.210641,-7328.038826,17394.839637
4074.820374,-1838.629195,-6883.915261,16950.716072
4074.820689,0.000000,-4441.235652,13767.830521
4074.821005,842.705048,-2220.617826,11325.150913
4074.821320,1838.629195,1406.391290,8438.347739
4074.821636,3447.429741,4219.173869,5625.565159
4074.821951,3140.991542,7846.182985,3182.885551
4074.822266,1608.800546,8660.409521,888.247130
4074.822582,76.609550,5255.462188,4959.379811
4074.822897,-536.266849,1628.453072,7476.080014
4074.823212,-2604.724693,-3034.844362,8808.450710
4074.823528,-4060.306139,-6439.791695,14804.118840
4074.823843,-3140.991542,-6735.874072,18653.189738
4074.824158,-2145.067394,-5033.400406,15248.242405
4074.824474,383.047749,-3552.988522,13101.645173
4074.824789,1225.752797,-1702.473667,11103.089130
4074.825105,2145.067394,2442.679609,9474.636058
4074.825420,2987.772442,4589.276840,5773.606348
4074.825735,2987.772442,7698.141797,2368.659014
4074.826051,1225.752797,8512.368333,2664.741391
4074.826366,-306.438199,5107.421000,5403.503377
4074.826681,-995.924147,666.185348,7105.977043
4074.826997,-2604.724693,-4589.276840,10881.027347
4074.827312,-3983.696590,-6661.853478,17024.736666
4074.827627,-2757.943793,-5403.503377,16876.695478
4074.827943,-1072.533697,-4737.318029,14952.160028
4074.828258,689.485948,-3034.844362,12435.459826
4074.828574,1378.971896,-1480.411884,13175.665768
4074.828889,3600.648841,1924.535449,9474.636058
4074.829204,4060.306139,4811.338623,4885.359217
4074.829520,3217.601092,9474.636058,1184.329507
4074.829835,995.924147,7994.224174,3404.947333
4074.830150,-536.266849,4515.256246,5477.523971
4074.830466,-383.047749,-370.102971,8438.347739
4074.830781,-2834.553343,-4811.338623,12509.480420
4074.831096,-3370.820191,-6809.894666,16284.530724
4074.831412,-2374.896044,-6365.771101,14952.160028
4074.831727,-766.095498,-5847.626942,15840.407159
4074.832043,383.047749,-3182.885551,13175.665768
4074.832358,1685.410096,-814.226536,13323.706956
4074.832673,3907.087040,3108.864956,6957.935855
4074.832989,3907.087040,5995.668130,3997.112087
4074.833304,3370.820191,9400.615463,1554.432478
4074.833619,1149.143247,6809.894666,3849.070898
4074.833935,-229.828649,2960.823768,6365.771101
4074.834250,-1302.362347,-518.144159,8586.388927
4074.834565,-2834.553343,-4811.338623,11917.315666
4074.834881,-3447.429741,-7550.100608,16580.613101
4074.835196,-1838.629195,-7328.038826,17838.963202
4074.835512,-536.266849,-6513.812290,15396.283594
4074.835827,536.266849,-3552.988522,11843.295072
4074.836142,1455.581446,370.102971,9918.759623
4074.836458,3294.210641,3849.070898,6439.791695
4074.836773,3753.867940,6513.812290,2886.803174
4074.837088,1991.848295,7254.018232,740.205942
4074.837404,536.266849,5107.421000,3404.947333
4074.837719,229.828649,2220.617826,7476.080014
4074.838034,-1532.190996,-962.267725,9178.553681
4074.838350,-3447.429741,-4959.379811,11769.274478
4074.838665,-3294.210641,-7254.018232,16876.695478
4074.838981,-1915.238745,-7550.100608,17912.983796
4074.839296,0.000000,-5699.585753,14656.077652
4074.839611,1149.143247,-2368.659014,11473.192101
4074.839927,1685.410096,1702.473667,8660.409521
4074.840242,3217.601092,4811.338623,5329.482782
4074.840557,3140.991542,7624.121203,2886.803174
4074.840873,1455.581446,7105.977043,962.267725
4074.841188,76.609550,4515.256246,4959.379811
4074.841503,-689.485948,2294.638420,7476.080014
4074.841819,-2451.505594,-2220.617826,9252.574275
4074.842134,-3830.477490,-6069.688724,14730.098246
4074.842450,-3753.867940,-6069.688724,19245.354492
4074.842765,-2221.676944,-5403.503377,15544.324782
4074.843080,306.438199,-4071.132681,13471.748144
4074.843396,1378.971896,-1110.308913,10807.006753
4074.843711,2298.286494,2664.741391,10066.800811
4074.844026,3370.820191,5625.565159,6069.688724
4074.844342,2681.334243,8956.491898,2220.617826
4074.844657,766.095498,9104.533087,1776.494261
4074.844972,76.609550,5033.400406,5995.668130
4074.845288,229.828649,888.247130,7328.038826
4074.845603,-2528.115143,-2886.803174,11251.130318
4074.845919,-4060.306139,-5107.421000,15840.407159
4074.846234,-3370.820191,-5329.482782,15322.262999
4074.846549,-1838.629195,-4589.276840,15766.386565
4074.846865,383.047749,-2738.761985,13471.748144
4074.847180,1532.190996,-1702.473667,13027.624579
4074.847495,2987.772442,2442.679609,9178.553681
4074.847811,3447.429741,5551.544565,3775.050304
4074.848126,3140.991542,9696.697840,2442.679609
4074.848441,1455.581446,9178.553681,2590.720797
4074.848757,-536.266849,5033.400406,5033.400406
4074.849072,-766.095498,-592.164754,9400.615463
4074.849388,-2374.896044,-3775.050304,12879.583391
4074.849703,-2911.162892,-6217.729913,15618.345376
4074.850018,-1838.629195,-5403.503377,14434.015869
4074.850334,-1225.752797,-4441.235652,15544.324782
4074.850649,306.438199,-2664.741391,12953.603985
4074.850964,995.924147,-814.226536,13249.686362
4074.851280,3677.258390,2664.741391,7476.080014
4074.851595,4060.306139,5181.441594,3701.029710
4074.851910,3294.210641,9844.739029,2072.576638
4074.852226,1455.581446,7920.203579,3701.029710
4074.852541,-1302.362347,4219.173869,5773.606348
4074.852857,-1149.143247,-1036.288319,9918.759623
4074.853172,-2145.067394,-4589.276840,12805.562797
4074.853487,-2451.505594,-6809.894666,15766.386565
4074.853803,-1608.800546,-6143.709319,15544.324782
4074.854118,-459.657299,-5033.400406,15544.324782
4074.854433,536.266849,-2664.741391,12139.377449
4074.854749,1378.971896,-0.000000,10807.006753
4074.855064,3907.087040,3478.967927,5255.462188
4074.855379,3064.381992,5995.668130,3849.070898
4074.855695,2221.676944,7920.203579,1702.473667
4074.856010,995.924147,5551.544565,3849.070898
4074.856326,-689.485948,1850.514855,7105.977043
4074.856641,-1608.800546,-1702.473667,8956.491898
4074.856956,-3524.039291,-5329.482782,12287.418637
4074.857272,-3140.991542,-7179.997637,16950.716072
4074.857587,-1991.848295,-6809.894666,16950.716072
4074.857902,76.609550,-6217.729913,14508.036463
4074.858218,766.095498,-2886.803174,11029.068536
4074.858533,1532.190996,1036.288319,8956.491898
4074.858848,2911.162892,4145.153275,6661.853478
4074.859164,2987.772442,6217.729913,3849.070898
4074.859479,1685.410096,6661.853478,1628.453072
4074.859795,153.219100,4589.276840,4071.132681
4074.860110,-459.657299,1998.556043,7846.182985
4074.860425,-2374.896044,-2072.576638,8512.368333
4074.860741,-3524.039291,-5477.523971,13175.665768
4074.861056,-2604.724693,-6957.935855,18061.024985
4074.861371,-1991.848295,-6735.874072,16728.654289
4074.861687,229.828649,-4293.194464,13175.665768
4074.862002,1532.190996,-2220.617826,11325.150913
4074.862318,1991.848295,1924.535449,8734.430116
4074.862633,3140.991542,4737.318029,5773.606348
4074.862948,2681.334243,7476.080014,3034.844362
4074.863264,1072.533697,8142.265362,2146.597232
4074.863579,-306.438199,4737.318029,5477.523971
4074.863894,-689.485948,1184.329507,7328.038826
4074.864210,-2681.334243,-3701.029710,10066.800811
4074.864525,-3600.648841,-5699.585753,15692.365970
4074.864840,-2681.334243,-5477.523971,15840.407159
4074.865156,-1455.581446,-4811.338623,15322.262999
4074.865471,536.266849,-3627.009116,13249.686362
4074.865787,1608.800546,-1480.411884,12805.562797
4074.866102,2528.115143,2590.720797,9918.759623
4074.866417,3524.039291,4515.256246,4737.318029
4074.866733,3217.601092,8586.388927,2220.617826
4074.867048,689.485948,9104.533087,2812.782580
4074.867363,-689.485948,4663.297435,5921.647536
4074.867679,-612.876398,-0.000000,7920.203579
4074.867994,-2528.115143,-3775.050304,11917.315666
4074.868309,-3140.991542,-5921.647536,14508.036463
4074.868625,-2068.457845,-5847.626942,15248.242405
4074.868940,-689.485948,-4959.379811,15618.345376
4074.869256,919.314598,-2664.741391,13249.686362
4074.869571,1378.971896,-1036.288319,12805.562797
4074.869886,3600.648841,2368.659014,7105.977043
4074.870202,3524.039291,5403.503377,4441.235652
4074.870517,2987.772442,9400.615463,1628.453072
4074.870832,766.095498,7846.182985,3478.967927
4074.871148,-766.095498,3701.029710,6365.771101
4074.871463,-1225.752797,-1480.411884,9474.636058
4074.871778,-2528.115143,-5033.400406,12805.562797
4074.872094,-2604.724693,-6661.853478,14952.160028
4074.872409,-1532.190996,-5847.626942,14804.118840
4074.872725,-689.485948,-4515.256246,16210.510130
4074.873040,842.705048,-2516.700203,12953.603985
4074.873355,1685.410096,-74.020594,11547.212695
4074.873671,4136.915689,3182.885551,5107.421000
4074.873986,3600.648841,6439.791695,3478.967927
4074.874301,2068.457845,9178.553681,1184.329507
4074.874617,459.657299,6439.791695,3849.070898
4074.874932,-842.705048,2738.761985,7105.977043
4074.875247,-1838.629195,-1702.473667,9474.636058
4074.875563,-3524.039291,-4959.379811,13249.686362
4074.875878,-3600.648841,-7254.018232,17172.777854
4074.876194,-2604.724693,-6291.750507,17838.963202
4074.876509,-459.657299,-4663.297435,14211.954086
4074.876824,536.266849,-2442.679609,11399.171507
4074.877140,1685.410096,814.226536,9178.553681
4074.877455,3370.820191,4367.215058,5773.606348
4074.877770,2987.772442,7105.977043,3775.050304
4074.878086,1225.752797,8956.491898,814.226536
4074.878401,459.657299,5995.668130,3923.091493
4074.878716,-689.485948,1850.514855,7624.121203
4074.879032,-2451.505594,-2960.823768,9474.636058
4074.879347,-3524.039291,-6291.750507,15840.407159
4074.879663,-3064.381992,-6513.812290,17987.004391
4074.879978,-2298.286494,-5107.421000,15248.242405
4074.880293,-229.828649,-2960.823768,12805.562797
4074.880609,995.924147,-1998.556043,11399.171507
4074.880924,2221.676944,1332.370696,9992.780217
4074.881239,3217.601092,4071.132681,5921.647536
4074.881555,3294.210641,8068.244768,2146.597232
4074.881870,1378.971896,8956.491898,1998.556043
4074.882185,-1072.533697,5773.606348,5181.441594
4074.882501,-1072.533697,518.144159,8142.265362
4074.882816,-2451.505594,-4219.173869,10584.944971
4074.883132,-3140.991542,-6809.894666,17246.798449
4074.883447,-2221.676944,-5477.523971,17542.880825
4074.883762,-1225.752797,-4589.276840,14952.160028
4074.884078,306.438199,-2368.659014,11251.130318
4074.884393,1378.971896,-1850.514855,12657.521608
4074.884708,3217.601092,2368.659014,10066.800811
4074.885024,4060.306139,4441.235652,5921.647536
4074.885339,3447.429741,8956.491898,1332.370696
4074.885654,766.095498,8438.347739,2738.761985
4074.885970,-1149.143247,4885.359217,5255.462188
4074.886285,-766.095498,-444.123565,8956.491898
4074.886601,-3217.601092,-4737.318029,11843.295072
4074.886916,-3217.601092,-6883.915261,16284.530724
4074.887231,-2145.067394,-5773.606348,14952.160028
4074.887547,-919.314598,-5403.503377,15322.262999
4074.887862,459.657299,-3182.885551,12435.459826
4074.888177,1302.362347,-1110.308913,12657.521608
4074.888493,3753.867940,3108.864956,8142.265362
4074.888808,3753.867940,5033.400406,3849.070898
4074.889123,3370.820191,9326.594869,1258.350101
4074.889439,1378.971896,7105.977043,3108.864956
4074.889754,-306.438199,3701.029710,5403.503377
4074.890070,-842.705048,-1406.391290,9104.533087
4074.890385,-2604.724693,-4441.235652,11769.274478
4074.890700,-2987.772442,-7179.997637,15248.242405
4074.891016,-1532.190996,-7254.018232,16506.592507
4074.891331,-459.657299,-6661.853478,16358.551318
4074.891646,612.876398,-3552.988522,12213.398043
4074.891962,1455.581446,-74.020594,10732.986159
4074.892277,3140.991542,3478.967927,5625.565159
4074.892592,3447.429741,6143.709319,3330.926739
4074.892908,2451.505594,7846.182985,1258.350101
4074.893223,842.705048,5921.647536,3034.844362
4074.893539,0.000000,2960.823768,6957.935855
4074.893854,-1532.190996,-370.102971,8290.306550
4074.894169,-3447.429741,-4663.297435,12287.418637
4074.894485,-3600.648841,-7105.977043,15914.427753
4074.894800,-2374.896044,-7328.038826,17394.839637
4074.895115,-306.438199,-5847.626942,15692.365970
4074.895430,919.314598,-2886.803174,12731.542202
4074.895746,1838.629195,962.267725,9548.656652
4074.896061,2604.724693,4071.132681,5921.647536
4074.896376,2451.505594,7031.956449,2664.741391
4074.896692,1149.143247,7994.224174,1480.411884
4074.897007,76.609550,5921.647536,4293.194464
4074.897322,153.219100,2146.597232,7402.059420
4074.897637,-1838.629195,-1924.535449,9400.615463
4074.897953,-3294.210641,-5773.606348,14952.160028
4074.898268,-3064.381992,-5847.626942,18505.148550
4074.898583,-1991.848295,-5329.482782,16580.613101
4074.898899,-842.705048,-3478.967927,12953.603985
4074.899214,1378.971896,-2146.597232,10955.047942
4074.899529,2374.896044,1776.494261,9622.677246
4074.899845,3600.648841,4737.318029,5699.585753
4074.900160,3524.039291,8956.491898,2294.638420
4074.900475,689.485948,8882.471304,1258.350101
4074.900790,-842.705048,5403.503377,5625.565159
4074.901106,-689.485948,1332.370696,8364.327145
4074.901421,-2528.115143,-3108.864956,10584.944971
4074.901736,-3524.039291,-5995.668130,17320.819043
4074.902052,-2145.067394,-5329.482782,18949.272115
4074.902367,-1915.238745,-4441.235652,15470.304188
4074.902682,306.438199,-2960.823768,13175.665768
4074.902997,1762.019645,-1258.350101,11695.253884
4074.903313,2834.553343,2738.761985,9326.594869
4074.903628,3983.696590,5403.503377,4737.318029
4074.903943,4366.744339,9696.697840,1480.411884
4074.904259,1532.190996,9474.636058,2220.617826
4074.904574,-536.266849,5255.462188,4737.318029
4074.904889,-842.705048,-592.164754,9104.533087
4074.905205,-2374.896044,-4515.256246,12731.542202
4074.905520,-3524.039291,-6735.874072,18209.066173
4074.905835,-2604.724693,-5255.462188,16358.551318
4074.906150,-1455.581446,-5181.441594,15544.324782
4074.906466,153.219100,-2960.823768,12583.501014
4074.906781,1608.800546,-1628.453072,11991.336260
4074.907096,3370.820191,2516.700203,8364.327145
4074.907412,3983.696590,5477.523971,2886.803174
4074.907727,3753.867940,9770.718434,1036.288319
4074.908042,1838.629195,8734.430116,2146.597232
4074.908357,-306.438199,4293.194464,5033.400406
4074.908673,-842.705048,-740.205942,9474.636058
4074.908988,-2528.115143,-4737.318029,12435.459826
4074.909303,-3294.210641,-7031.956449,14656.077652
4074.909619,-2604.724693,-7254.018232,15766.386565
4074.909934,-1455.581446,-6291.750507,15914.427753
4074.910249,76.609550,-4367.215058,13619.789333
4074.910565,689.485948,-296.082377,9918.759623
4074.910880,2374.896044,2812.782580,5329.482782
4074.911195,2451.505594,5699.585753,3182.885551
4074.911510,2145.067394,7994.224174,1702.473667
4074.911826,459.657299,6143.709319,3108.864956
4074.912141,-459.657299,2664.741391,6661.853478
4074.912456,-1608.800546,-888.247130,9400.615463
4074.912772,-3370.820191,-4589.276840,12583.501014
4074.913087,-3830.477490,-6809.894666,14582.057057
4074.913402,-2451.505594,-7105.977043,16580.613101
4074.913717,-229.828649,-5107.421000,15618.345376
4074.914033,1225.752797,-3182.885551,13175.665768
4074.914348,1378.971896,666.185348,9696.697840
4074.914663,2681.334243,3627.009116,6513.812290
4074.914979,2451.505594,6513.812290,3034.844362
4074.915294,1149.143247,7698.141797,1258.350101
4074.915609,0.000000,6735.874072,3775.050304
4074.915925,-229.828649,2146.597232,8142.265362
4074.916240,-1838.629195,-2294.638420,9696.697840
4074.916555,-3600.648841,-6069.688724,13101.645173
4074.916870,-3217.601092,-7328.038826,17616.901420
4074.917186,-1991.848295,-6735.874072,17838.963202
4074.917501,153.219100,-3997.112087,14508.036463
4074.917816,1455.581446,-1850.514855,12509.480420
4074.918132,2451.505594,1628.453072,8660.409521
4074.918447,4213.525239,4071.132681,5329.482782
4074.918762,3830.477490,8882.471304,2516.700203
4074.919077,2221.676944,8734.430116,1554.432478
4074.919393,-612.876398,6143.709319,4811.338623
4074.919708,-383.047749,1406.391290,8808.450710
4074.920023,-1685.410096,-3701.029710,10584.944971
4074.920339,-3600.648841,-7105.977043,16580.613101
4074.920654,-2911.162892,-6365.771101,18949.272115
4074.920969,-2068.457845,-5181.441594,16506.592507
4074.921285,-153.219100,-3330.926739,13323.706956
4074.921600,1302.362347,-1554.432478,11103.089130
4074.921915,2834.553343,2442.679609,9474.636058
4074.922230,4673.182538,4811.338623,5625.565159
4074.922546,4749.792088,8956.491898,1850.514855
4074.922861,2451.505594,8808.450710,2738.761985
4074.923176,-306.438199,5329.482782,4737.318029
4074.923492,-76.609550,296.082377,8734.430116
4074.923807,-1302.362347,-3849.070898,11843.295072
4074.924122,-3064.381992,-6883.915261,16284.530724
4074.924437,-2068.457845,-5107.421000,16358.551318
4074.924753,-1072.533697,-4885.359217,15396.283594
4074.925068,459.657299,-3775.050304,12879.583391
4074.925383,1455.581446,-1850.514855,12065.356855
4074.925699,2834.553343,2516.700203,8734.430116
4074.926014,3524.039291,4589.276840,3775.050304
4074.926329,3370.820191,8586.388927,1480.411884
4074.926645,1762.019645,8068.244768,3108.864956
4074.926960,-459.657299,3701.029710,5255.462188
4074.927275,-842.705048,296.082377,8660.409521
4074.927590,-2068.457845,-3997.112087,12583.501014
4074.927906,-2911.162892,-5625.565159,16432.571912
4074.928221,-2221.676944,-5329.482782,15100.201217
4074.928536,-919.314598,-5181.441594,14582.057057
4074.928852,766.095498,-3330.926739,12657.521608
4074.929167,1302.362347,-444.123565,10658.965565
4074.929482,2298.286494,3108.864956,7031.956449
4074.929797,2451.505594,5329.482782,3775.050304
4074.930113,1838.629195,7698.141797,1628.453072
4074.930428,153.219100,6809.894666,3552.988522
4074.930743,-842.705048,2590.720797,6365.771101
4074.931059,-2145.067394,-888.247130,8142.265362
4074.931374,-3217.601092,-4885.359217,12805.562797
4074.931689,-4136.915689,-6291.750507,14656.077652
4074.932004,-2987.772442,-6883.915261,16062.468941
4074.932320,-383.047749,-5033.400406,15396.283594
4074.932635,1302.362347,-2738.761985,13323.706956
4074.932950,1838.629195,740.205942,9992.780217
4074.933266,2987.772442,3997.112087,5773.606348
4074.933581,2757.943793,6957.935855,3108.864956
4074.933896,1685.410096,8364.327145,1332.370696
4074.934212,306.438199,7031.956449,3849.070898
4074.934527,-459.657299,2146.597232,8364.327145
4074.934842,-1991.848295,-2368.659014,9696.697840
4074.935157,-3600.648841,-5551.544565,13841.851115
4074.935473,-3370.820191,-7031.956449,17098.757260
4074.935788,-2374.896044,-7105.977043,18061.024985
4074.936103,-766.095498,-3701.029710,14211.954086
4074.936419,1225.752797,-1702.473667,11843.295072
4074.936734,2221.676944,1702.473667,9104.533087
4074.937049,4290.134789,4589.276840,5995.668130
4074.937364,3830.477490,8808.450710,2516.700203
4074.937680,1991.848295,9326.594869,1184.329507
4074.937995,-153.219100,6069.688724,5255.462188
4074.938310,-383.047749,2146.597232,9474.636058
4074.938626,-1991.848295,-2886.803174,10510.924376
4074.938941,-3140.991542,-6217.729913,15766.386565
4074.939256,-2757.943793,-5625.565159,19097.313304
4074.939572,-1991.848295,-4959.379811,16432.571912
4074.939887,0.000000,-3627.009116,13397.727550
4074.940202,1072.533697,-2368.659014,10362.883188
4074.940517,2681.334243,1776.494261,9622.677246
4074.940833,3677.258390,4589.276840,5625.565159
4074.941148,4060.306139,8660.409521,2072.576638
4074.941463,1302.362347,8660.409521,2072.576638
4074.941779,-612.876398,4959.379811,4959.379811
4074.942094,-153.219100,518.144159,8956.491898
4074.942409,-1762.019645,-3552.988522,11695.253884
4074.942724,-3064.381992,-6513.812290,14730.098246
4074.943040,-1915.238745,-5773.606348,15544.324782
4074.943355,-383.047749,-5181.441594,16136.489536
4074.943670,842.705048,-4071.132681,13027.624579
4074.943986,1302.362347,-2220.617826,12139.377449
4074.944301,2834.553343,2368.659014,7772.162391
4074.944616,3907.087040,4145.153275,3478.967927
4074.944932,3140.991542,8438.347739,1998.556043
4074.945247,1225.752797,7105.977043,2590.720797
4074.945562,-1149.143247,3108.864956,4959.379811
4074.945877,-1685.410096,-740.205942,9178.553681
4074.946193,-2604.724693,-4589.276840,12731.542202
4074.946508,-2911.162892,-6587.832884,14730.098246
4074.946823,-1762.019645,-6291.750507,14656.077652
4074.947139,-689.485948,-5847.626942,15544.324782
4074.947454,1149.143247,-3627.009116,13101.645173
4074.947769,1378.971896,-74.020594,10658.965565
4074.948084,2374.896044,3627.009116,5773.606348
4074.948400,2451.505594,5921.647536,2960.823768
4074.948715,2221.676944,7476.080014,1850.514855
4074.949030,536.266849,6217.729913,3552.988522
4074.949346,-536.266849,2368.659014,6883.915261
4074.949661,-1838.629195,-814.226536,8882.471304
4074.949976,-3447.429741,-4071.132681,11991.336260
4074.950292,-3830.477490,-6809.894666,16580.613101
4074.950607,-2451.505594,-7624.121203,17838.963202
4074.950922,-383.047749,-5329.482782,14582.057057
4074.951237,1072.533697,-2590.720797,12805.562797
4074.951553,1838.629195,888.247130,8956.491898
4074.951868,3140.991542,3997.112087,6513.812290
4074.952183,3524.039291,7328.038826,3256.906145
4074.952499,1225.752797,8290.306550,1258.350101
4074.952814,229.828649,6957.935855,4145.153275
4074.953129,0.000000,2738.761985,8512.368333
4074.953444,-1762.019645,-2220.617826,8956.491898
4074.953760,-4060.306139,-6217.729913,14211.954086
4074.954075,-3600.648841,-6809.894666,18653.189738
4074.954390,-2298.286494,-6291.750507,16876.695478
4074.954706,-766.095498,-3552.988522,13915.871710
4074.955021,1149.143247,-1702.473667,11029.068536
4074.955336,2221.676944,1554.432478,9400.615463
4074.955652,3907.087040,4515.256246,6069.688724
4074.955967,3524.039291,8660.409521,2220.617826
4074.956282,1149.143247,9178.553681,1332.370696
4074.956597,-459.657299,5921.647536,5181.441594
4074.956913,-229.828649,1628.453072,9326.594869
4074.957228,-1685.410096,-3108.864956,10140.821405
4074.957543,-3524.039291,-6883.915261,16136.489536
4074.957859,-2681.334243,-6291.750507,19615.457463
4074.958174,-2145.067394,-5255.462188,17098.757260
4074.958489,153.219100,-2886.803174,13027.624579
4074.958804,1532.190996,-1258.350101,10510.924376
4074.959120,2757.943793,2368.659014,8660.409521
4074.959435,4443.353888,5329.482782,5033.400406
4074.959750,4213.525239,8882.471304,1702.473667
4074.960066,2374.896044,8438.347739,2516.700203
4074.960381,-612.876398,5181.441594,5403.503377
4074.960696,-919.314598,888.247130,8660.409521
4074.961012,-1762.019645,-3182.885551,12065.356855
4074.961327,-3294.210641,-6513.812290,14952.160028
4074.961642,-2298.286494,-6365.771101,16136.489536
4074.961957,-459.657299,-5107.421000,16654.633695
4074.962273,459.657299,-3701.029710,13471.748144
4074.962588,1302.362347,-1184.329507,11769.274478
4074.962903,2834.553343,2590.720797,6883.915261
4074.963219,3524.039291,4737.318029,3182.885551
4074.963534,3907.087040,8660.409521,1036.288319
4074.963849,2068.457845,7550.100608,2590.720797
4074.964164,-689.485948,3404.947333,4589.276840
4074.964480,-995.924147,-888.247130,9474.636058
4074.964795,-2145.067394,-4071.132681,11843.295072
4074.965110,-3370.820191,-6661.853478,14434.015869
4074.965426,-2298.286494,-7031.956449,16654.633695
4074.965741,-612.876398,-6513.812290,16284.530724
4074.966056,919.314598,-3923.091493,13397.727550
4074.966372,1685.410096,-148.041188,9326.594869
4074.966687,2451.505594,3034.844362,5329.482782
4074.967002,3140.991542,6069.688724,3330.926739
4074.967317,2374.896044,7920.203579,1110.308913
4074.967633,766.095498,6217.729913,3552.988522
4074.967948,-612.876398,2442.679609,7031.956449
4074.968263,-1915.238745,-1480.411884,9474.636058
4074.968579,-3064.381992,-4885.359217,12361.439231
4074.968894,-3294.210641,-6365.771101,14656.077652
4074.969209,-2451.505594,-7031.956449,16950.716072
4074.969524,-459.657299,-5255.462188,15544.324782
4074.969840,1225.752797,-2960.823768,13471.748144
4074.970155,1915.238745,888.247130,9770.718434
4074.970470,2757.943793,3701.029710,5181.441594
4074.970786,2987.772442,7698.141797,2738.761985
4074.971101,1762.019645,8956.491898,1258.350101
4074.971416,0.000000,6883.915261,3552.988522
4074.971732,0.000000,1924.535449,8808.450710
4074.972047,-1915.238745,-2146.597232,9770.718434
4074.972362,-3524.039291,-6069.688724,14508.036463
4074.972677,-3830.477490,-6513.812290,18727.210333
4074.972993,-2757.943793,-6513.812290,18061.024985
4074.973308,-842.705048,-4515.256246,13841.851115
4074.973623,995.924147,-2072.576638,11473.192101
4074.973939,2298.286494,1628.453072,9326.594869
4074.974254,3524.039291,4515.256246,6587.832884
4074.974569,4136.915689,8512.368333,2516.700203
4074.974884,2068.457845,8660.409521,1110.308913
4074.975200,153.219100,6661.853478,4441.235652
4074.975515,0.000000,1776.494261,9326.594869
4074.975830,-1608.800546,-2738.761985,10955.047942
4074.976146,-3370.820191,-6587.832884,15544.324782
4074.976461,-2298.286494,-5921.647536,17098.757260
4074.976776,-1302.362347,-4811.338623,15840.407159
4074.977092,-229.828649,-3552.988522,13767.830521
4074.977407,919.314598,-2294.638420,11843.295072
4074.977722,2221.676944,1850.514855,9474.636058
4074.978037,3447.429741,3923.091493,4737.318029
4074.978353,3600.648841,8882.471304,1554.432478
4074.978668,1915.238745,8660.409521,2294.638420
4074.978983,-536.266849,5403.503377,4737.318029
4074.979299,-612.876398,444.123565,8808.450710
4074.979614,-1838.629195,-3849.070898,11769.274478
4074.979929,-2911.162892,-6735.874072,16062.468941
4074.980244,-2298.286494,-5033.400406,16432.571912
4074.980560,-766.095498,-4737.318029,15248.242405
4074.980875,766.095498,-4293.194464,13397.727550
4074.981190,1532.190996,-1554.432478,10807.006753
4074.981506,2681.334243,2590.720797,8142.265362
4074.981821,3753.867940,4737.318029,4441.235652
4074.982136,3294.210641,8808.450710,1110.308913
4074.982452,1532.190996,7402.059420,3034.844362
4074.982767,-995.924147,3404.947333,4071.132681
4074.983082,-1225.752797,-888.247130,8882.471304
4074.983397,-2451.505594,-3923.091493,12731.542202
4074.983713,-3753.867940,-6439.791695,14359.995275
4074.984028,-2451.505594,-6143.709319,15322.262999
4074.984343,-689.485948,-5551.544565,16136.489536
4074.984659,766.095498,-4145.153275,13323.706956
4074.984974,1149.143247,-740.205942,10658.965565
4074.985289,2681.334243,3330.926739,6291.750507
4074.985604,2987.772442,5773.606348,3034.844362
4074.985920,2604.724693,8734.430116,1258.350101
4074.986235,766.095498,7328.038826,3182.885551
4074.986550,-842.705048,2664.741391,6587.832884
4074.986866,-1378.971896,-962.267725,8364.327145
4074.987181,-3294.210641,-5477.523971,12731.542202
4074.987496,-3830.477490,-6439.791695,14730.098246
4074.987812,-2834.553343,-7179.997637,17320.819043
4074.988127,-995.924147,-5625.565159,16062.468941
4074.988442,842.705048,-3478.967927,13767.830521
4074.988757,1455.581446,370.102971,10214.842000
4074.989073,2757.943793,3478.967927,5847.626942
4074.989388,3524.039291,7624.121203,3034.844362
4074.989703,2451.505594,9252.574275,1406.391290
4074.990019,536.266849,7624.121203,3256.906145
4074.990334,0.000000,2812.782580,7994.224174
4074.990649,-1532.190996,-1628.453072,9844.739029
4074.990964,-3370.820191,-5255.462188,13397.727550
4074.991280,-2911.162892,-6439.791695,16580.613101
4074.991595,-2221.676944,-6735.874072,18209.066173
4074.991910,-842.705048,-4737.318029,15174.221811
4074.992226,536.266849,-1998.556043,12287.418637
4074.992541,1762.019645,1184.329507,9844.739029
4074.992856,3370.820191,4219.173869,5995.668130
4074.993172,3600.648841,8660.409521,2442.679609
4074.993487,1532.190996,8956.491898,1184.329507
4074.993802,-383.047749,6217.729913,3849.070898
4074.994117,-229.828649,2146.597232,9918.759623
4074.994433,-1762.019645,-2590.720797,10807.006753
4074.994748,-3830.477490,-6069.688724,15618.345376
4074.995063,-3217.601092,-6069.688724,19097.313304
4074.995379,-1838.629195,-5181.441594,16802.674883
4074.995694,-153.219100,-3552.988522,13397.727550
4074.996009,1532.190996,-1850.514855,10362.883188
4074.996324,2834.553343,1850.514855,9770.718434
4074.996640,3753.867940,4589.276840,5921.647536
4074.996955,3907.087040,8438.347739,1554.432478
4074.997270,1455.581446,8364.327145,1036.288319
4074.997585,-306.438199,5255.462188,4293.194464
4074.997901,-383.047749,1110.308913,8290.306550
4074.998216,-2374.896044,-3627.009116,11399.171507
4074.998531,-3600.648841,-7105.977043,16062.468941
4074.998847,-1991.848295,-6143.709319,17764.942608
4074.999162,-995.924147,-5107.421000,15248.242405
4074.999477,229.828649,-4293.194464,12657.521608
4074.999792,1991.848295,-2072.576638,11177.109724
4075.000108,3600.648841,2294.638420,8734.430116
4075.000423,4213.525239,4737.318029,4367.215058
4075.000738,3907.087040,8364.327145,1036.288319
4075.001054,2221.676944,8364.327145,1628.453072
4075.001369,76.609550,4515.256246,4145.153275
4075.001684,-689.485948,148.041188,8068.244768
4075.001999,-2068.457845,-4293.194464,12657.521608
4075.002315,-2911.162892,-6809.894666,15914.427753
4075.002630,-2528.115143,-5995.668130,15988.448347
4075.002945,-995.924147,-5625.565159,15396.283594
4075.003260,0.000000,-5181.441594,13397.727550
4075.003576,766.095498,-1184.329507,10584.944971
4075.003891,2987.772442,2220.617826,7846.182985
4075.004206,3447.429741,6365.771101,3552.988522
4075.004522,3064.381992,9178.553681,1184.329507
4075.004837,919.314598,7846.182985,2294.638420
4075.005152,306.438199,2664.741391,6291.750507
4075.005467,-1455.581446,-148.041188,8216.285956
4075.005783,-3217.601092,-4737.318029,12657.521608
4075.006098,-3753.867940,-6291.750507,15248.242405
4075.006413,-2987.772442,-7179.997637,17394.839637
4075.006729,-612.876398,-5181.441594,16358.551318
4075.007044,766.095498,-3997.112087,13841.851115
4075.007359,1302.362347,-296.082377,10140.821405
4075.007674,2681.334243,3256.906145,6143.709319
4075.007990,3217.601092,6957.935855,3552.988522
4075.008305,2374.896044,9178.553681,1480.411884
4075.008620,459.657299,7402.059420,2812.782580
4075.008935,-229.828649,2368.659014,7179.997637
4075.009251,-1838.629195,-1850.514855,9918.759623
4075.009566,-3064.381992,-5255.462188,13545.768739
4075.009881,-2757.943793,-6809.894666,16210.510130
4075.010197,-2451.505594,-6809.894666,17320.819043
4075.010512,-766.095498,-4811.338623,15618.345376
4075.010827,1072.533697,-2516.700203,12287.418637
4075.011142,1838.629195,222.061783,11177.109724
4075.011458,3447.429741,3478.967927,6439.791695
4075.011773,3600.648841,7846.182985,2960.823768
4075.012088,1838.629195,9104.533087,888.247130
4075.012404,76.609550,6587.832884,3404.947333
4075.012719,-306.438199,1924.535449,8512.368333
4075.013034,-1838.629195,-2516.700203,11177.109724
4075.013349,-3064.381992,-6143.709319,14137.933492
4075.013665,-2451.505594,-7105.977043,18949.272115
4075.013980,-1762.019645,-5921.647536,17764.942608
4075.014295,-459.657299,-4219.173869,13767.830521
4075.014610,1225.752797,-1850.514855,10881.027347
4075.014926,2451.505594,1850.514855,8586.388927
4075.015241,4213.525239,4515.256246,5773.606348
4075.015556,3524.039291,8290.306550,2072.576638
4075.015872,1378.971896,8364.327145,1036.288319
4075.016187,0.000000,5773.606348,4219.173869
4075.016502,-306.438199,888.247130,8882.471304
4075.016817,-2145.067394,-3478.967927,11251.130318
4075.017133,-3753.867940,-6587.832884,15322.262999
4075.017448,-2604.724693,-6143.709319,17690.922014
4075.017763,-1302.362347,-4959.379811,15322.262999
4075.018079,459.657299,-3627.009116,13249.686362
4075.018394,1532.190996,-1332.370696,10066.800811
4075.018709,2757.943793,2516.700203,9252.574275
4075.019024,3907.087040,4515.256246,5181.441594
4075.019340,3983.696590,8512.368333,1184.329507
4075.019655,1838.629195,7920.203579,2442.679609
4075.019970,0.000000,4515.256246,4293.194464
4075.020285,0.000000,-0.000000,8734.430116
4075.020601,-2145.067394,-4219.173869,12287.418637
4075.020916,-3753.867940,-6587.832884,15692.365970
4075.021231,-2451.505594,-5551.544565,15692.365970
4075.021547,-919.314598,-4959.379811,14804.118840
4075.021862,689.485948,-5033.400406,13545.768739
4075.022177,1455.581446,-1776.494261,11251.130318
4075.022492,2681.334243,2664.741391,7402.059420
4075.022808,3064.381992,5329.482782,3182.885551
4075.023123,2911.162892,9326.594869,518.144159
4075.023438,2221.676944,7994.224174,2294.638420
4075.023753,-689.485948,3404.947333,5477.523971
4075.024069,-1378.971896,-222.061783,8660.409521
4075.024384,-2681.334243,-4145.153275,13545.768739
4075.024699,-3753.867940,-5847.626942,15026.180623
4075.025015,-2528.115143,-5625.565159,15692.365970
4075.025330,-1149.143247,-4737.318029,15988.448347
4075.025645,612.876398,-3478.967927,13471.748144
4075.025960,1378.971896,-0.000000,11473.192101
4075.026276,2834.553343,3775.050304,6439.791695
4075.026591,2681.334243,7254.018232,2960.823768
4075.026906,2145.067394,9474.636058,1332.370696
4075.027222,76.609550,7846.182985,3552.988522
4075.027537,-612.876398,2368.659014,6957.935855
4075.027852,-1685.410096,-1480.411884,9400.615463
4075.028167,-2681.334243,-5477.523971,13471.748144
4075.028483,-3677.258390,-6513.812290,17172.777854
4075.028798,-2681.334243,-6439.791695,18061.024985
4075.029113,-1072.533697,-4515.256246,14582.057057
4075.029428,919.314598,-2072.576638,12139.377449
4075.029744,1915.238745,1110.308913,9030.512492
4075.030059,2757.943793,4293.194464,6365.771101
4075.030374,3140.991542,8142.265362,2516.700203
4075.030690,1455.581446,8734.430116,1258.350101
4075.031005,306.438199,7105.977043,4441.235652
4075.031320,0.000000,2516.700203,9548.656652
4075.031635,-1915.238745,-1998.556043,10362.883188
4075.031951,-3447.429741,-5847.626942,14434.015869
4075.032266,-2757.943793,-6513.812290,19023.292709
4075.032581,-1302.362347,-5773.606348,17764.942608
4075.032897,-306.438199,-3330.926739,13397.727550
4075.033212,1225.752797,-1480.411884,10732.986159
4075.033527,1915.238745,1554.432478,9326.594869
4075.033842,3524.039291,4145.153275,5921.647536
4075.034158,3907.087040,7624.121203,2294.638420
4075.034473,1532.190996,7994.224174,1924.535449
4075.034788,-153.219100,5255.462188,4737.318029
4075.035103,-689.485948,1554.432478,9252.574275
4075.035419,-1991.848295,-3552.988522,11843.295072
4075.035734,-3370.820191,-6735.874072,15322.262999
4075.036049,-2068.457845,-5995.668130,18357.107362
4075.036365,-1149.143247,-5033.400406,15248.242405
4075.036680,306.438199,-4293.194464,13175.665768
4075.036995,1762.019645,-1480.411884,10658.965565
4075.037310,2528.115143,2368.659014,8734.430116
4075.037626,3447.429741,4145.153275,4959.379811
4075.037941,3370.820191,7698.141797,1554.432478
4075.038256,1608.800546,7550.100608,2220.617826
4075.038572,-689.485948,3997.112087,4589.276840
4075.038887,-919.314598,-0.000000,8660.409521
4075.039202,-2221.676944,-4071.132681,11399.171507
4075.039517,-3677.258390,-6513.812290,13693.809927
4075.039833,-2298.286494,-6439.791695,15100.201217
4075.040148,-306.438199,-6217.729913,16062.468941
4075.040463,536.266849,-4737.318029,13619.789333
4075.040778,1455.581446,-1332.370696,10362.883188
4075.041094,2834.553343,2516.700203,6957.935855
4075.041409,3140.991542,5329.482782,3404.947333
4075.041724,2834.553343,7994.224174,1332.370696
4075.042040,1149.143247,7031.956449,2516.700203
4075.042355,-612.876398,2664.741391,4737.318029
4075.042670,-1608.800546,-296.082377,8216.285956
4075.042985,-2987.772442,-4367.215058,12583.501014
4075.043301,-3753.867940,-6661.853478,14285.974681
4075.043616,-2681.334243,-6809.894666,15914.427753
4075.043931,-1302.362347,-5625.565159,15914.427753
4075.044247,1072.533697,-3849.070898,13693.809927
4075.044562,1302.362347,-370.102971,11473.192101
4075.044877,2604.724693,3330.926739,5773.606348
4075.045192,3140.991542,6365.771101,3034.844362
4075.045508,3064.381992,9326.594869,1628.453072
4075.045823,1072.533697,7550.100608,3256.906145
4075.046138,-229.828649,2664.741391,6809.894666
4075.046453,-1455.581446,-1258.350101,10140.821405
4075.046769,-2451.505594,-4515.256246,13249.686362
4075.047084,-3370.820191,-6513.812290,16432.571912
4075.047399,-2528.115143,-6365.771101,17838.963202
4075.047715,-536.266849,-4885.359217,15470.304188
4075.048030,919.314598,-2442.679609,12879.583391
4075.048345,1685.410096,592.164754,10066.800811
4075.048660,3447.429741,4071.132681,5921.647536
4075.048976,3370.820191,8068.244768,2960.823768
4075.049291,1455.581446,9252.574275,1258.350101
4075.049606,-306.438199,6587.832884,4219.173869
4075.049921,-383.047749,2220.617826,9030.512492
4075.050237,-1838.629195,-1924.535449,10732.986159
4075.050552,-3064.381992,-5847.626942,14952.160028
4075.050867,-2451.505594,-5995.668130,19245.354492
4075.051183,-1455.581446,-4885.359217,16950.716072
4075.051498,-229.828649,-3849.070898,13989.892304
4075.051813,1608.800546,-1554.432478,11103.089130
4075.052128,2834.553343,1924.535449,8808.450710
4075.052444,3983.696590,4737.318029,5551.544565
4075.052759,3907.087040,8586.388927,2220.617826
4075.053074,1838.629195,8438.347739,1480.411884
4075.053390,383.047749,5699.585753,4293.194464
4075.053705,-1072.533697,1702.473667,8882.471304
4075.054020,-2451.505594,-3108.864956,11695.253884
4075.054335,-3447.429741,-6957.935855,16062.468941
4075.054651,-2451.505594,-6439.791695,19319.375086
4075.054966,-1225.752797,-4811.338623,15840.407159
4075.055281,0.000000,-3775.050304,12731.542202
4075.055596,1608.800546,-1332.370696,9696.697840
4075.055912,2757.943793,2072.576638,8364.327145
4075.056227,3830.477490,4959.379811,5181.441594
4075.056542,3907.087040,8438.347739,1036.288319
4075.056858,1455.581446,8290.306550,1628.453072
4075.057173,-306.438199,4737.318029,4589.276840
4075.057488,-919.314598,296.082377,8734.430116
4075.057803,-2068.457845,-3849.070898,11991.336260
4075.058119,-4060.306139,-6439.791695,13471.748144
4075.058434,-2757.943793,-6809.894666,15766.386565
4075.058749,-842.705048,-5699.585753,16580.613101
4075.059065,229.828649,-4811.338623,14434.015869
4075.059380,1072.533697,-1406.391290,11029.068536
4075.059695,2451.505594,1924.535449,6513.812290
4075.060010,2987.772442,4811.338623,3775.050304
4075.060326,2604.724693,8364.327145,1110.308913
4075.060641,842.705048,7105.977043,2516.700203
4075.060956,-766.095498,3182.885551,4811.338623
4075.061271,-1225.752797,-592.164754,8512.368333
4075.061587,-2451.505594,-4293.194464,12361.439231
4075.061902,-3447.429741,-6365.771101,14063.912898
4075.062217,-2757.943793,-7031.956449,17542.880825
4075.062533,-1225.752797,-5699.585753,15988.448347
4075.062848,689.485948,-4293.194464,13471.748144
4075.063163,1991.848295,-888.247130,9696.697840
4075.063478,2681.334243,3034.844362,5699.585753
4075.063794,3140.991542,6587.832884,4145.153275
4075.064109,2068.457845,8586.388927,1184.329507
4075.064424,153.219100,7254.018232,3182.885551
4075.064740,-1149.143247,2590.720797,7179.997637
4075.065055,-1915.238745,-1480.411884,9918.759623
4075.065370,-2604.724693,-4663.297435,13323.706956
4075.065685,-2911.162892,-6439.791695,15322.262999
4075.066001,-2068.457845,-6217.729913,16580.613101
4075.066316,-306.438199,-4515.256246,15396.283594
4075.066631,995.924147,-2220.617826,12731.542202
4075.066946,1991.848295,518.144159,10807.006753
4075.067262,3677.258390,3997.112087,5329.482782
4075.067577,3524.039291,7550.100608,3182.885551
4075.067892,1915.238745,9178.553681,1110.308913
4075.068208,0.000000,6735.874072,3478.967927
4075.068523,-383.047749,2294.638420,8882.471304
4075.068838,-2145.067394,-2368.659014,11547.212695
4075.069153,-3524.039291,-5995.668130,14211.954086
4075.069469,-2604.724693,-7624.121203,19023.292709
4075.069784,-2374.896044,-6069.688724,17912.983796
4075.070099,-536.266849,-4071.132681,13989.892304
4075.070415,1378.971896,-1406.391290,10658.965565
4075.070730,2757.943793,1776.494261,8882.471304
4075.071045,4519.963438,5181.441594,5033.400406
4075.071360,4519.963438,9030.512492,2590.720797
4075.071676,2298.286494,9030.512492,888.247130
4075.071991,76.609550,6069.688724,4071.132681
4075.072306,-229.828649,1702.473667,9326.594869
4075.072621,-2374.896044,-3330.926739,12065.356855
4075.072937,-3217.601092,-6291.750507,15248.242405
4075.073252,-2834.553343,-6143.709319,17024.736666
4075.073567,-1762.019645,-5107.421000,15988.448347
4075.073883,-229.828649,-4515.256246,14211.954086
4075.074198,995.924147,-1702.473667,10881.027347
4075.074513,2604.724693,1702.473667,8364.327145
4075.074828,3524.039291,5033.400406,4663.297435
4075.075144,3830.477490,8364.327145,962.267725
4075.075459,2221.676944,8216.285956,1776.494261
4075.075774,229.828649,5107.421000,3775.050304
4075.076090,-689.485948,296.082377,8512.368333
4075.076405,-1991.848295,-4071.132681,12657.521608
4075.076720,-2911.162892,-6661.853478,16062.468941
4075.077035,-1685.410096,-5551.544565,16580.613101
4075.077351,-1149.143247,-4737.318029,14878.139434
4075.077666,76.609550,-4515.256246,13101.645173
4075.077981,1149.143247,-1702.473667,10510.924376
4075.078296,2681.334243,2294.638420,8068.244768
4075.078612,3064.381992,4589.276840,4219.173869
4075.078927,3140.991542,8808.450710,592.164754
4075.079242,1149.143247,7994.224174,2516.700203
4075.079558,-919.314598,3997.112087,4515.256246
4075.079873,-1225.752797,-592.164754,9252.574275
4075.080188,-2451.505594,-4515.256246,13101.645173
4075.080503,-3600.648841,-6143.709319,14656.077652
4075.080819,-2911.162892,-6143.709319,15692.365970
4075.081134,-1608.800546,-5255.462188,16580.613101
4075.081449,459.657299,-4293.194464,13841.851115
4075.081764,842.705048,-1184.329507,11103.089130
4075.082080,2911.162892,2812.782580,5995.668130
4075.082395,2298.286494,5995.668130,4145.153275
4075.082710,2451.505594,9770.718434,1036.288319
4075.083026,536.266849,7624.121203,3478.967927
4075.083341,-459.657299,3108.864956,5773.606348
4075.083656,-1762.019645,-1258.350101,9474.636058
4075.083971,-2451.505594,-5181.441594,12879.583391
4075.084287,-2911.162892,-6957.935855,17172.777854
4075.084602,-2374.896044,-6439.791695,18135.045579
4075.084917,-995.924147,-4737.318029,15840.407159
4075.085233,995.924147,-2590.720797,11843.295072
4075.085548,1762.019645,296.082377,9844.739029
4075.085863,3294.210641,3404.947333,6365.771101
4075.086178,3907.087040,7031.956449,2886.803174
4075.086494,2145.067394,8956.491898,370.102971
4075.086809,0.000000,6957.935855,3775.050304
4075.087124,-612.876398,2812.782580,7698.141797
4075.087439,-1991.848295,-2368.659014,11103.089130
4075.087755,-2604.724693,-5995.668130,13841.851115
4075.088070,-2757.943793,-7476.080014,18209.066173
4075.088385,-2145.067394,-6143.709319,18357.107362
4075.088701,-229.828649,-4663.297435,14952.160028
4075.089016,1149.143247,-1406.391290,11547.212695
4075.089331,2528.115143,1702.473667,9104.533087
4075.089646,3907.087040,4367.215058,6513.812290
4075.089962,4290.134789,8068.244768,2368.659014
4075.090277,2451.505594,8660.409521,888.247130
4075.090592,229.828649,6291.750507,3923.091493
4075.090908,-459.657299,1998.556043,8290.306550
4075.091223,-1608.800546,-3182.885551,11843.295072
4075.091538,-3217.601092,-6661.853478,15026.180623
4075.091853,-2911.162892,-6661.853478,18875.251521
4075.092169,-1685.410096,-5181.441594,16210.510130
4075.092484,-689.485948,-4959.379811,12805.562797
4075.092799,995.924147,-1924.535449,10288.862594
4075.093114,2681.334243,1776.494261,9178.553681
4075.093430,3753.867940,4293.194464,5773.606348
4075.093745,3983.696590,8290.306550,518.144159
4075.094060,2221.676944,8438.347739,1406.391290
4075.094376,153.219100,5329.482782,3997.112087
4075.094691,-153.219100,1332.370696,8660.409521
4075.095006,-2374.896044,-3701.029710,11103.089130
4075.095321,-3370.820191,-7402.059420,15470.304188
4075.095637,-2528.115143,-6809.894666,18357.107362
4075.095952,-2068.457845,-5255.462188,15544.324782
4075.096267,0.000000,-4737.318029,12805.562797
4075.096582,1149.143247,-1998.556043,10140.821405
4075.096897,2145.067394,1850.514855,8142.265362
4075.097212,2911.162892,4959.379811,5477.523971
4075.097527,3064.381992,8882.471304,962.267725
4075.097843,995.924147,7846.182985,2072.576638
4075.098158,-766.095498,4885.359217,4367.215058
4075.098473,-1149.143247,-74.020594,8438.347739
4075.098788,-2834.553343,-4589.276840,12213.398043
4075.099103,-3677.258390,-6957.935855,17172.777854
4075.099418,-2757.943793,-5625.565159,16654.633695
4075.099733,-1532.190996,-5181.441594,14952.160028
4075.100048,919.314598,-3478.967927,12213.398043
4075.100363,1455.581446,-370.102971,10140.821405
4075.100679,2451.505594,2664.741391,7772.162391
4075.100994,3294.210641,6587.832884,3701.029710
4075.101309,2374.896044,9918.759623,962.267725
4075.101624,306.438199,8586.388927,2960.823768
4075.101939,-766.095498,3330.926739,6957.935855
4075.102254,-1915.238745,-1036.288319,8808.450710
4075.102569,-3600.648841,-4811.338623,12953.603985
4075.102884,-3447.429741,-6883.915261,16358.551318
4075.103200,-2834.553343,-6365.771101,18431.127956
4075.103515,-766.095498,-4441.235652,16432.571912
4075.103830,1225.752797,-2664.741391,13249.686362
4075.104145,2604.724693,740.205942,8956.491898
4075.104460,3294.210641,4071.132681,6291.750507
4075.104775,3294.210641,8216.285956,3849.070898
4075.105090,2298.286494,8956.491898,1184.329507
4075.105405,383.047749,7550.100608,3108.864956
4075.105721,-536.266849,2516.700203,7476.080014
4075.106036,-2374.896044,-1628.453072,11103.089130
4075.106351,-2681.334243,-5107.421000,13619.789333
4075.106666,-2681.334243,-7105.977043,17987.004391
4075.106981,-1915.238745,-6809.894666,18061.024985
4075.107296,-536.266849,-4589.276840,14804.118840
4075.107611,766.095498,-2072.576638,11103.089130
4075.107926,1991.848295,814.226536,9622.677246
4075.108241,3907.087040,4071.132681,6069.688724
4075.108557,3907.087040,7846.182985,2442.679609
4075.108872,2528.115143,8734.430116,740.205942
4075.109187,-153.219100,6587.832884,3330.926739
4075.109502,-459.657299,2146.597232,8290.306550
4075.109817,-1378.971896,-2664.741391,11695.253884
4075.110132,-2374.896044,-6291.750507,14211.954086
4075.110447,-2451.505594,-7328.038826,19319.375086
4075.110762,-1762.019645,-5995.668130,17246.798449
4075.111078,-383.047749,-4885.359217,13545.768739
4075.111393,1072.533697,-2220.617826,10066.800811
4075.111708,2374.896044,1554.432478,8734.430116
4075.112023,3753.867940,4293.194464,5921.647536
4075.112338,3677.258390,7920.203579,2146.597232
4075.112653,1685.410096,8290.306550,1406.391290
4075.112968,-459.657299,5107.421000,4071.132681
4075.113283,-306.438199,888.247130,8956.491898
4075.113599,-1915.238745,-4071.132681,11177.109724
4075.113914,-3447.429741,-6587.832884,15026.180623
4075.114229,-2298.286494,-5995.668130,16506.592507
4075.114544,-1225.752797,-4959.379811,15248.242405
4075.114859,459.657299,-4219.173869,13249.686362
4075.115174,1378.971896,-1776.494261,11251.130318
4075.115489,2604.724693,2368.659014,8216.285956
4075.115804,2604.724693,4219.173869,5329.482782
4075.116119,2911.162892,7698.141797,1554.432478
4075.116435,1455.581446,6883.915261,2812.782580
4075.116750,-306.438199,4367.215058,4145.153275
4075.117065,-842.705048,-370.102971,8438.347739
4075.117380,-2451.505594,-4441.235652,12287.418637
4075.117695,-3600.648841,-6291.750507,16210.510130
4075.118010,-2757.943793,-5477.523971,16580.613101
4075.118325,-1225.752797,-4737.318029,14656.077652
4075.118640,1149.143247,-4145.153275,12139.377449
4075.118956,1685.410096,-1554.432478,11177.109724
4075.119271,2374.896044,2368.659014,7624.121203
4075.119586,2681.334243,5107.421000,4441.235652
4075.119901,2451.505594,9104.533087,518.144159
4075.120216,612.876398,7920.203579,2516.700203
4075.120531,-995.924147,3997.112087,5921.647536
4075.120846,-1685.410096,-666.185348,8882.471304
4075.121161,-2987.772442,-4885.359217,13471.748144
4075.121477,-3600.648841,-6439.791695,15988.448347
4075.121792,-2221.676944,-5329.482782,15840.407159
4075.122107,-1149.143247,-4811.338623,15396.283594
4075.122422,1532.190996,-3256.906145,13249.686362
4075.122737,2298.286494,-74.020594,11621.233289
4075.123052,3677.258390,3849.070898,6513.812290
4075.123367,3753.867940,7179.997637,2442.679609
4075.123682,2604.724693,9844.739029,1480.411884
4075.123997,612.876398,8216.285956,3701.029710
4075.124313,-1149.143247,2960.823768,6735.874072
4075.124628,-1838.629195,-1628.453072,10140.821405
4075.124943,-2681.334243,-5625.565159,13989.892304
4075.125258,-3140.991542,-7105.977043,18209.066173
4075.125573,-2528.115143,-6143.709319,18209.066173
4075.125888,-1378.971896,-4589.276840,14730.098246
4075.126203,1225.752797,-2368.659014,11991.336260
4075.126518,2298.286494,1480.411884,8808.450710
4075.126834,3677.258390,4441.235652,5847.626942
4075.127149,4596.572988,8142.265362,1924.535449
4075.127464,2451.505594,8364.327145,962.267725
4075.127779,612.876398,6883.915261,4219.173869
4075.128094,-459.657299,2590.720797,8142.265362
4075.128409,-1685.410096,-2368.659014,11177.109724
4075.128724,-2528.115143,-6365.771101,14434.015869
4075.129039,-2374.896044,-7031.956449,18875.251521
4075.129355,-1762.019645,-5921.647536,17246.798449
4075.129670,-383.047749,-4293.194464,13175.665768
4075.129985,842.705048,-1480.411884,10436.903782
4075.130300,1991.848295,1924.535449,9030.512492
4075.130615,3217.601092,4219.173869,6291.750507
4075.130930,3524.039291,7550.100608,1702.473667
4075.131245,2145.067394,7550.100608,1258.350101
4075.131560,-306.438199,4737.318029,4589.276840
4075.131875,-612.876398,1480.411884,8808.450710
4075.132191,-2451.505594,-2738.761985,11621.233289
4075.132506,-3294.210641,-6587.832884,15100.201217
4075.132821,-2451.505594,-6069.688724,18209.066173
4075.133136,-1072.533697,-4663.297435,15248.242405
4075.133451,0.000000,-4367.215058,12805.562797
4075.133766,1532.190996,-2146.597232,10066.800811
4075.134081,2374.896044,2220.617826,8290.306550
4075.134396,2604.724693,4811.338623,5477.523971
4075.134712,3064.381992,8068.244768,518.144159
4075.135027,842.705048,7031.956449,2294.638420
4075.135342,-689.485948,4071.132681,4885.359217
4075.135657,-995.924147,-0.000000,8882.471304
4075.135972,-2681.334243,-4071.132681,11843.295072
4075.136287,-4136.915689,-6439.791695,15766.386565
4075.136602,-2604.724693,-5847.626942,15544.324782
4075.136917,-1225.752797,-5181.441594,15988.448347
4075.137233,1149.143247,-3849.070898,13175.665768
4075.137548,2145.067394,-1480.411884,11177.109724
4075.137863,2911.162892,2812.782580,7105.977043
4075.138178,2911.162892,5699.585753,3923.091493
4075.138493,2374.896044,9252.574275,1036.288319
4075.138808,536.266849,7624.121203,2812.782580
4075.139123,-612.876398,2886.803174,5033.400406
4075.139438,-1532.190996,-1110.308913,9770.718434
4075.139753,-2987.772442,-4441.235652,13693.809927
4075.140069,-3217.601092,-6735.874072,15248.242405
4075.140384,-2681.334243,-6069.688724,16284.530724
4075.140699,-1149.143247,-5255.462188,15618.345376
4075.141014,1072.533697,-3182.885551,13175.665768
4075.141329,1302.362347,-74.020594,10658.965565
4075.141644,2987.772442,3330.926739,5403.503377
4075.141959,3524.039291,6809.894666,2886.803174
4075.142274,3064.381992,9400.615463,1184.329507
4075.142590,459.657299,7476.080014,3775.050304
4075.142905,-1225.752797,2812.782580,6957.935855
4075.143220,-1991.848295,-1480.411884,10658.965565
4075.143535,-2374.896044,-5107.421000,13693.809927
4075.143850,-2834.553343,-7031.956449,17764.942608
4075.144165,-2451.505594,-6217.729913,17912.983796
4075.144480,-1302.362347,-5181.441594,14730.098246
4075.144795,919.314598,-2368.659014,12139.377449
4075.145111,2068.457845,962.267725,8882.471304
4075.145426,3370.820191,4441.235652,5921.647536
4075.145741,3753.867940,7772.162391,2960.823768
4075.146056,2221.676944,8734.430116,1258.350101
4075.146371,153.219100,6439.791695,3997.112087
4075.146686,-536.266849,2442.679609,8586.388927
4075.147001,-1991.848295,-2294.638420,11325.150913
4075.147316,-3140.991542,-6365.771101,14804.118840
4075.147632,-2451.505594,-6661.853478,18949.272115
4075.147947,-1532.190996,-5255.462188,16580.613101
4075.148262,-306.438199,-4663.297435,13693.809927
4075.148577,1455.581446,-1850.514855,10436.903782
4075.148892,2451.505594,2146.597232,8808.450710
4075.149207,3447.429741,4959.379811,6143.709319
4075.149522,3907.087040,7994.224174,1924.535449
4075.149837,2221.676944,8216.285956,1110.308913
4075.150152,229.828649,5181.441594,4589.276840
4075.150468,-459.657299,1406.391290,8364.327145
4075.150783,-2451.505594,-3478.967927,11695.253884
4075.151098,-3294.210641,-6587.832884,15544.324782
4075.151413,-2298.286494,-6069.688724,17394.839637
4075.151728,-1072.533697,-4737.318029,15322.262999
4075.152043,153.219100,-4071.132681,13101.645173
4075.152358,1685.410096,-1924.535449,10732.986159
4075.152673,2681.334243,2146.597232,8956.491898
4075.152989,2987.772442,4737.318029,5477.523971
4075.153304,3217.601092,8364.327145,962.267725
4075.153619,1532.190996,7772.162391,2220.617826
4075.153934,-229.828649,4737.318029,4589.276840
4075.154249,-919.314598,148.041188,8808.450710
4075.154564,-1915.238745,-3478.967927,12065.356855
4075.154879,-3677.258390,-6439.791695,13619.789333
4075.155194,-2987.772442,-6217.729913,15100.201217
4075.155510,-995.924147,-5181.441594,16284.530724
4075.155825,612.876398,-4071.132681,14137.933492
4075.156140,689.485948,-2146.597232,11103.089130
4075.156455,2298.286494,1702.473667,7105.977043
4075.156770,2681.334243,4737.318029,4145.153275
4075.157085,2528.115143,8956.491898,1184.329507
4075.157400,1072.533697,7772.162391,3034.844362
4075.157715,-689.485948,3775.050304,4737.318029
4075.158030,-1455.581446,-444.123565,9178.553681
4075.158346,-2221.676944,-4367.215058,13175.665768
4075.158661,-3447.429741,-6143.709319,14582.057057
4075.158976,-2451.505594,-7031.956449,17468.860231
4075.159291,-919.314598,-5033.400406,16136.489536
4075.159606,1149.143247,-3627.009116,13619.789333
4075.159921,1532.190996,-148.041188,10436.903782
4075.160236,3064.381992,2812.782580,5773.606348
4075.160551,3217.601092,6587.832884,4219.173869
4075.160867,2374.896044,9104.533087,1628.453072
4075.161182,536.266849,7550.100608,3256.906145
4075.161497,-612.876398,3256.906145,6513.812290
4075.161812,-1762.019645,-1776.494261,10436.903782
4075.162127,-2451.505594,-4885.359217,13545.768739
4075.162442,-2757.943793,-6735.874072,16506.592507
4075.162757,-1608.800546,-6217.729913,17616.901420
4075.163072,-383.047749,-4441.235652,15174.221811
4075.163388,1072.533697,-2368.659014,12435.459826
4075.163703,2298.286494,666.185348,9474.636058
4075.164018,3524.039291,3775.050304,5773.606348
4075.164333,3524.039291,7550.100608,3627.009116
4075.164648,1838.629195,8956.491898,1036.288319
4075.164963,153.219100,5847.626942,3849.070898
4075.165278,-459.657299,2294.638420,8290.306550
4075.165593,-2068.457845,-2220.617826,11251.130318
4075.165908,-3217.601092,-6143.709319,14063.912898
4075.166224,-2604.724693,-7105.977043,19171.333898
4075.166539,-1455.581446,-5255.462188,16876.695478
4075.166854,-536.266849,-4219.173869,13989.892304
4075.167169,1532.190996,-2294.638420,10584.944971
4075.167484,2604.724693,1332.370696,9178.553681
4075.167799,3677.258390,4219.173869,5995.668130
4075.168114,3217.601092,7328.038826,2442.679609
4075.168429,1685.410096,8586.388927,518.144159
4075.168745,76.609550,5625.565159,3997.112087
4075.169060,-306.438199,1554.432478,8438.347739
4075.169375,-2528.115143,-3478.967927,11251.130318
4075.169690,-3294.210641,-6883.915261,15174.221811
4075.170005,-2987.772442,-6143.709319,16654.633695
4075.170320,-1532.190996,-4737.318029,15544.324782
4075.170635,76.609550,-4663.297435,13841.851115
4075.170950,1378.971896,-2368.659014,11029.068536
4075.171266,2451.505594,2146.597232,9178.553681
4075.171581,2834.553343,4515.256246,5255.462188
4075.171896,3447.429741,8512.368333,814.226536
4075.172211,1915.238745,8438.347739,2220.617826
4075.172526,0.000000,5773.606348,4737.318029
4075.172841,-459.657299,370.102971,8808.450710
4075.173156,-2298.286494,-4071.132681,11917.315666
4075.173471,-3370.820191,-6661.853478,15914.427753
4075.173786,-2757.943793,-5329.482782,16358.551318
4075.174102,-1225.752797,-4663.297435,15396.283594
4075.174417,229.828649,-3775.050304,13249.686362
4075.174732,1225.752797,-1850.514855,10955.047942
4075.175047,2451.505594,2368.659014,8364.327145
4075.175362,2757.943793,4589.276840,4885.359217
4075.175677,2451.505594,8882.471304,666.185348
4075.175992,612.876398,7994.224174,3182.885551
4075.176307,-1302.362347,4515.256246,4589.276840
4075.176623,-1378.971896,-74.020594,8734.430116
4075.176938,-2451.505594,-4145.153275,13397.727550
4075.177253,-3677.258390,-5995.668130,15840.407159
4075.177568,-2757.943793,-5477.523971,15470.304188
4075.177883,-1225.752797,-4885.359217,15988.448347
4075.178198,995.924147,-3701.029710,12805.562797
4075.178513,1762.019645,-370.102971,10807.006753
4075.178828,3140.991542,3034.844362,6883.915261
4075.179144,3370.820191,6513.812290,3256.906145
4075.179459,2604.724693,9622.677246,1258.350101
4075.179774,612.876398,7920.203579,3478.967927
4075.180089,-919.314598,3108.864956,6217.729913
4075.180404,-1455.581446,-1332.370696,10214.842000
4075.180719,-2298.286494,-4737.318029,13619.789333
4075.181034,-2987.772442,-6809.894666,17172.777854
4075.181349,-2451.505594,-6587.832884,18061.024985
4075.181664,-689.485948,-5107.421000,15174.221811
4075.181980,1149.143247,-2368.659014,11769.274478
4075.182295,1838.629195,148.041188,9474.636058
4075.182610,3830.477490,3849.070898,5847.626942
4075.182925,4519.963438,6809.894666,3552.988522
4075.183240,2451.505594,8808.450710,814.226536
4075.183555,459.657299,6587.832884,3701.029710
4075.183870,-612.876398,2590.720797,7402.059420
4075.184185,-1455.581446,-1998.556043,11251.130318
4075.184501,-1991.848295,-5107.421000,12879.583391
4075.184816,-2451.505594,-7031.956449,17320.819043
4075.185131,-1685.410096,-6069.688724,17912.983796
4075.185446,-383.047749,-5255.462188,14878.139434
4075.185761,1455.581446,-2294.638420,12213.398043
4075.186076,2298.286494,962.267725,8512.368333
4075.186391,3830.477490,3627.009116,6143.709319
4075.186706,3524.039291,7105.977043,2664.741391
4075.187022,1838.629195,8290.306550,1110.308913
4075.187337,153.219100,6217.729913,4145.153275
4075.187652,0.000000,2294.638420,8216.285956
4075.187967,-1608.800546,-2812.782580,11103.089130
4075.188282,-2834.553343,-6587.832884,13767.830521
4075.188597,-2451.505594,-6735.874072,18579.169144
4075.188912,-1455.581446,-5625.565159,16728.654289
4075.189227,76.609550,-4885.359217,12509.480420
4075.189542,1532.190996,-2146.597232,10288.862594
4075.189858,2681.334243,1406.391290,8512.368333
4075.190173,3447.429741,3923.091493,6365.771101
4075.190488,3294.210641,7624.121203,1480.411884
4075.190803,1685.410096,7624.121203,740.205942
4075.191118,0.000000,5255.462188,4441.235652
4075.191433,-612.876398,888.247130,9030.512492
4075.191748,-2451.505594,-3701.029710,10732.986159
4075.192063,-3294.210641,-7254.018232,15026.180623
4075.192379,-2374.896044,-6439.791695,17987.004391
4075.192694,-1608.800546,-5033.400406,15618.345376
4075.193009,153.219100,-4071.132681,12731.542202
4075.193324,1378.971896,-1998.556043,10288.862594
4075.193639,2604.724693,1628.453072,8290.306550
4075.193954,2757.943793,4737.318029,5625.565159
4075.194269,2681.334243,8660.409521,814.226536
4075.194584,689.485948,7698.141797,2812.782580
4075.194900,-536.266849,4589.276840,4885.359217
4075.195215,-766.095498,-0.000000,8882.471304
4075.195530,-2757.943793,-4145.153275,11843.295072
4075.195845,-3677.258390,-6513.812290,17394.839637
4075.196160,-2757.943793,-5107.421000,16580.613101
4075.196475,-1378.971896,-4441.235652,14804.118840
4075.196790,689.485948,-3330.926739,12361.439231
4075.197105,1532.190996,-1110.308913,10584.944971
4075.197420,2528.115143,2590.720797,7772.162391
4075.197736,2834.553343,6217.729913,4293.194464
4075.198051,2221.676944,9178.553681,1480.411884
4075.198366,612.876398,7846.182985,3627.009116
4075.198681,-536.266849,3256.906145,6143.709319
4075.198996,-1838.629195,-518.144159,8808.450710
4075.199311,-3140.991542,-4441.235652,13619.789333
4075.199626,-3064.381992,-6143.709319,15692.365970
4075.199941,-1991.848295,-5403.503377,15914.427753
4075.200256,0.000000,-4811.338623,15988.448347
4075.200572,1608.800546,-2960.823768,12879.583391
4075.200887,1838.629195,-0.000000,10510.924376
4075.201202,2834.553343,4145.153275,5773.606348
4075.201517,3677.258390,7105.977043,3256.906145
4075.201832,2298.286494,8808.450710,1554.432478
4075.202147,229.828649,7179.997637,3627.009116
4075.202462,-842.705048,2368.659014,7105.977043
4075.202777,-1685.410096,-2590.720797,10955.047942
4075.203092,-2221.676944,-5329.482782,13989.892304
4075.203408,-2604.724693,-6883.915261,16580.613101
4075.203723,-1838.629195,-6439.791695,16802.674883
4075.204038,0.000000,-4737.318029,15248.242405
4075.204353,842.705048,-1924.535449,11473.192101
4075.204668,2604.724693,962.267725,9918.759623
4075.204983,4290.134789,3923.091493,5403.503377
4075.205298,3677.258390,7105.977043,2960.823768
4075.205613,2145.067394,8364.327145,1110.308913
4075.205928,-229.828649,5477.523971,3552.988522
4075.206244,-536.266849,2072.576638,8290.306550
4075.206559,-1915.238745,-3108.864956,11621.233289
4075.206874,-2987.772442,-5847.626942,13397.727550
4075.207189,-2604.724693,-7105.977043,18653.189738
4075.207504,-1302.362347,-5921.647536,17616.901420
4075.207819,-612.876398,-4737.318029,13545.768739
4075.208134,1225.752797,-1702.473667,10881.027347
4075.208449,2451.505594,1850.514855,7920.203579
4075.208764,3140.991542,4737.318029,5699.585753
4075.209080,2911.162892,7920.203579,1924.535449
4075.209395,1378.971896,7698.141797,1554.432478
4075.209710,0.000000,5033.400406,4219.173869
4075.210025,-459.657299,740.205942,9104.533087
4075.210340,-2221.676944,-3701.029710,10510.924376
4075.210655,-4213.525239,-6735.874072,15618.345376
4075.210970,-2911.162892,-6291.750507,18283.086767
4075.211285,-1991.848295,-5403.503377,15470.304188
4075.211600,383.047749,-3775.050304,12213.398043
4075.211916,1915.238745,-2220.617826,9992.780217
4075.212231,2681.334243,2590.720797,8290.306550
4075.212546,3140.991542,5033.400406,5995.668130
4075.212861,2987.772442,8660.409521,518.144159
4075.213176,919.314598,8364.327145,2442.679609
4075.213491,-459.657299,4959.379811,4589.276840
4075.213806,-919.314598,-74.020594,8660.409521
4075.214121,-2451.505594,-4293.194464,12583.501014
4075.214436,-3753.867940,-6513.812290,17246.798449
4075.214752,-2604.724693,-5329.482782,16580.613101
4075.215067,-1302.362347,-4811.338623,15322.262999
4075.215382,689.485948,-3256.906145,12139.377449
4075.215697,1455.581446,-1184.329507,11177.109724
4075.216012,2604.724693,3256.906145,8068.244768
4075.216327,3370.820191,5921.647536,3330.926739
4075.216642,2757.943793,9770.718434,888.247130
4075.216957,919.314598,8290.306550,3330.926739
4075.217272,-919.314598,3627.009116,6291.750507
4075.217588,-1455.581446,-592.164754,9770.718434
4075.217903,-2374.896044,-4515.256246,14137.933492
4075.218218,-3370.820191,-5551.544565,15470.304188
4075.218533,-2221.676944,-5551.544565,16210.510130
4075.218848,-919.314598,-4737.318029,15914.427753
4075.219163,842.705048,-2812.782580,13323.706956
4075.219478,1149.143247,-0.000000,10807.006753
4075.219793,2911.162892,3552.988522,5995.668130
4075.220108,3294.210641,6957.935855,3627.009116
4075.220423,2528.115143,8734.430116,1924.535449
4075.220739,153.219100,6587.832884,3701.029710
4075.221054,-919.314598,2146.597232,6735.874072
4075.221369,-1455.581446,-2146.597232,11399.171507
4075.221684,-2374.896044,-4959.379811,13397.727550
4075.221999,-2757.943793,-6513.812290,17764.942608
4075.222314,-1838.629195,-5107.421000,17394.839637
4075.222629,-536.266849,-4441.235652,13619.789333
4075.222944,1302.362347,-2442.679609,10955.047942
4075.223259,2451.505594,592.164754,8882.471304
4075.223575,3140.991542,3182.885551,6661.853478
4075.223890,3677.258390,6883.915261,2738.761985
4075.224205,1762.019645,7698.141797,1110.308913
4075.224520,383.047749,6217.729913,3849.070898
4075.224835,-459.657299,2368.659014,7476.080014
4075.225150,-1762.019645,-2516.700203,11399.171507
4075.225465,-2681.334243,-6069.688724,12953.603985
4075.225780,-2451.505594,-7105.977043,17320.819043
4075.226095,-1532.190996,-6143.709319,17394.839637
4075.226411,-153.219100,-5033.400406,14211.954086
4075.226726,1225.752797,-2220.617826,11769.274478
4075.227041,2451.505594,962.267725,7920.203579
4075.227356,3370.820191,3923.091493,5773.606348
4075.227671,3064.381992,7846.182985,2368.659014
4075.227986,1991.848295,7772.162391,1628.453072
4075.228301,766.095498,5625.565159,3997.112087
4075.228616,-459.657299,1110.308913,8808.450710
4075.228931,-2528.115143,-3404.947333,10955.047942
4075.229247,-3370.820191,-7105.977043,14656.077652
4075.229562,-2757.943793,-6439.791695,18357.107362
4075.229877,-1532.190996,-4959.379811,15618.345376
4075.230192,-689.485948,-3997.112087,13027.624579
4075.230507,919.314598,-1776.494261,9770.718434
4075.230822,2834.553343,1998.556043,8956.491898
4075.231137,2757.943793,4589.276840,6069.688724
4075.231452,2911.162892,8438.347739,1258.350101
4075.231767,766.095498,7402.059420,2442.679609
4075.232083,-842.705048,4589.276840,5033.400406
4075.232398,-612.876398,-0.000000,8438.347739
4075.232713,-1991.848295,-3627.009116,11769.274478
4075.233028,-3294.210641,-5921.647536,15100.201217
4075.233343,-2681.334243,-5847.626942,15396.283594
4075.233658,-766.095498,-5107.421000,15766.386565
4075.233973,689.485948,-3701.029710,13471.748144
4075.234288,1455.581446,-1406.391290,11325.150913
4075.234603,2221.676944,1554.432478,7698.141797
4075.234919,3064.381992,4885.359217,4515.256246
4075.235234,2757.943793,8734.430116,1776.494261
4075.235549,612.876398,7994.224174,2664.741391
4075.235864,-689.485948,3775.050304,5033.400406
4075.236179,-1378.971896,-888.247130,9992.780217
4075.236494,-2298.286494,-4071.132681,13989.892304
4075.236809,-2834.553343,-5921.647536,15544.324782
4075.237124,-1762.019645,-5403.503377,15026.180623
4075.237439,-459.657299,-4589.276840,15544.324782
4075.237755,1378.971896,-2664.741391,13693.809927
4075.238070,2068.457845,-148.041188,11325.150913
4075.238385,3294.210641,3034.844362,6587.832884
4075.238700,3677.258390,6217.729913,3108.864956
4075.239015,2834.553343,9178.553681,1776.494261
4075.239330,766.095498,7476.080014,3627.009116
4075.239645,-1072.533697,3478.967927,6735.874072
4075.239960,-1991.848295,-1480.411884,10510.924376
4075.240275,-2451.505594,-5033.400406,13323.706956
4075.240591,-2604.724693,-7328.038826,17098.757260
4075.240906,-1838.629195,-6365.771101,17616.901420
4075.241221,-1072.533697,-4737.318029,14952.160028
4075.241536,1378.971896,-2590.720797,12361.439231
4075.241851,2068.457845,1184.329507,8438.347739
4075.242166,3677.258390,3404.947333,5551.544565
4075.242481,2987.772442,6957.935855,3404.947333
4075.242796,2068.457845,7920.203579,1036.288319
4075.243111,0.000000,5995.668130,3627.009116
4075.243427,-612.876398,2442.679609,7994.224174
4075.243742,-1838.629195,-2590.720797,11399.171507
4075.244057,-2911.162892,-6365.771101,14063.912898
4075.244372,-2757.943793,-6513.812290,18135.045579
4075.244687,-1915.238745,-5107.421000,15618.345376
4075.245002,-459.657299,-4441.235652,13471.748144
4075.245317,1532.190996,-2072.576638,10955.047942
4075.245632,2374.896044,1406.391290,8734.430116
4075.245947,3064.381992,3775.050304,5625.565159
4075.246263,2987.772442,7476.080014,1998.556043
4075.246578,995.924147,7846.182985,1110.308913
4075.246893,-689.485948,5699.585753,4293.194464
4075.247208,-766.095498,1850.514855,8512.368333
4075.247523,-2604.724693,-2738.761985,10066.800811
4075.247838,-3524.039291,-6957.935855,14582.057057
4075.248153,-2681.334243,-6735.874072,19097.313304
4075.248468,-1532.190996,-5255.462188,16506.592507
4075.248783,-153.219100,-3478.967927,13101.645173
4075.249099,1378.971896,-1776.494261,10288.862594
4075.249414,2681.334243,2812.782580,8068.244768
4075.249729,3600.648841,5329.482782,5699.585753
4075.250044,2911.162892,8512.368333,1258.350101
4075.250359,1225.752797,8290.306550,2516.700203
4075.250674,-766.095498,5107.421000,4737.318029
4075.250989,-842.705048,444.123565,9696.697840
4075.251304,-2451.505594,-3256.906145,12065.356855
4075.251619,-4213.525239,-6069.688724,15618.345376
4075.251935,-2911.162892,-5625.565159,15988.448347
4075.252250,-1149.143247,-4737.318029,16432.571912
4075.252565,612.876398,-3404.947333,13619.789333
4075.252880,1378.971896,-888.247130,11621.233289
4075.253195,2451.505594,2960.823768,7476.080014
4075.253510,3064.381992,6069.688724,3849.070898
4075.253825,2834.553343,9030.512492,1332.370696
4075.254140,842.705048,7772.162391,3627.009116
4075.254455,-1302.362347,3775.050304,4959.379811
4075.254771,-919.314598,-888.247130,10066.800811
4075.255086,-2374.896044,-3478.967927,12953.603985
4075.255401,-3140.991542,-6587.832884,15544.324782
4075.255716,-2221.676944,-6439.791695,17542.880825
4075.256031,-766.095498,-5329.482782,15840.407159
4075.256346,1225.752797,-3404.947333,13027.624579
4075.256661,2221.676944,-0.000000,9770.718434
4075.256976,2987.772442,3034.844362,6069.688724
4075.257291,3983.696590,6143.709319,3701.029710
4075.257607,3064.381992,8216.285956,814.226536
4075.257922,1072.533697,6735.874072,3108.864956
4075.258237,-995.924147,2886.803174,6735.874072
4075.258552,-1378.971896,-2368.659014,10288.862594
4075.258867,-1838.629195,-5107.421000,12731.542202
4075.259182,-2528.115143,-7402.059420,15322.262999
4075.259497,-1915.238745,-6291.750507,16950.716072
4075.259812,-229.828649,-4663.297435,15396.283594
4075.260127,919.314598,-2812.782580,12879.583391
4075.260443,2221.676944,-0.000000,9400.615463
4075.260758,3524.039291,2812.782580,5329.482782
4075.261073,3600.648841,6513.812290,3701.029710
4075.261388,2374.896044,7994.224174,1554.432478
4075.261703,229.828649,6587.832884,4219.173869
4075.262018,-306.438199,2072.576638,8512.368333
4075.262333,-1838.629195,-1924.535449,10288.862594
4075.262648,-2757.943793,-6069.688724,13027.624579
4075.262963,-2528.115143,-7105.977043,17320.819043
4075.263279,-1685.410096,-6069.688724,17246.798449
4075.263594,-229.828649,-4515.256246,13767.830521
4075.263909,1378.971896,-2886.803174,11399.171507
4075.264224,2068.457845,1110.308913,8068.244768
4075.264539,3217.601092,3627.009116,5847.626942
4075.264854,3064.381992,7105.977043,2664.741391
4075.265169,1378.971896,7476.080014,518.144159
4075.265484,-153.219100,6439.791695,3552.988522
4075.265799,-689.485948,1406.391290,9252.574275
4075.266115,-2681.334243,-3552.988522,9474.636058
4075.266430,-3983.696590,-6735.874072,14730.098246
4075.266745,-2987.772442,-6735.874072,17468.860231
4075.267060,-2221.676944,-5403.503377,15692.365970
4075.267375,-229.828649,-3849.070898,13323.706956
4075.267690,1225.752797,-1850.514855,10807.006753
4075.268005,2451.505594,1924.535449,8734.430116
4075.268320,2681.334243,4071.132681,5995.668130
4075.268635,2757.943793,8438.347739,1554.432478
4075.268950,1225.752797,8216.285956,2442.679609
4075.269266,-612.876398,5921.647536,4515.256246
4075.269581,-766.095498,888.247130,9030.512492
4075.269896,-2298.286494,-3478.967927,11399.171507
4075.270211,-3524.039291,-6735.874072,16506.592507
4075.270526,-2221.676944,-5551.544565,16728.654289
4075.270841,-842.705048,-4663.297435,16062.468941
4075.271156,766.095498,-3404.947333,12287.418637
4075.271471,1532.190996,-1110.308913,11547.212695
4075.271786,2757.943793,3256.906145,9030.512492
4075.272102,2987.772442,4737.318029,4367.215058
4075.272417,3217.601092,9548.656652,740.205942
4075.272732,1072.533697,8290.306550,2886.803174
4075.273047,-1302.362347,4811.338623,5773.606348
4075.273362,-1225.752797,-0.000000,9696.697840
4075.273677,-1991.848295,-3923.091493,12953.603985
4075.273992,-2834.553343,-5995.668130,15692.365970
4075.274307,-2298.286494,-5551.544565,15470.304188
4075.274622,-612.876398,-5033.400406,16358.551318
4075.274938,1149.143247,-3256.906145,13471.748144
4075.275253,1991.848295,-74.020594,11029.068536
4075.275568,3370.820191,3182.885551,6439.791695
4075.275883,3447.429741,5995.668130,3108.864956
4075.276198,2834.553343,9104.533087,2072.576638
4075.276513,459.657299,7550.100608,3627.009116
4075.276828,-995.924147,2664.741391,6143.709319
4075.277143,-1302.362347,-1258.350101,10288.862594
4075.277458,-1915.238745,-4589.276840,13175.665768
4075.277774,-2374.896044,-7105.977043,16358.551318
4075.278089,-1685.410096,-6439.791695,17172.777854
4075.278404,76.609550,-5107.421000,14952.160028
4075.278719,1455.581446,-2738.761985,11621.233289
4075.279034,1838.629195,444.123565,9770.718434
4075.279349,3600.648841,3256.906145,5847.626942
4075.279664,3677.258390,6217.729913,3404.947333
4075.279979,2451.505594,8290.306550,0.000000
4075.280294,383.047749,6069.688724,3182.885551
4075.280610,-919.314598,2590.720797,7402.059420
4075.280925,-1838.629195,-2738.761985,10362.883188
4075.281240,-2757.943793,-5773.606348,12583.501014
4075.281555,-2911.162892,-7402.059420,16284.530724
4075.281870,-1762.019645,-6291.750507,17764.942608
4075.282185,-229.828649,-5107.421000,14878.139434
4075.282500,1302.362347,-2368.659014,11769.274478
4075.282815,2145.067394,962.267725,8290.306550
4075.283130,2834.553343,2516.700203,5625.565159
4075.283446,3064.381992,7031.956449,2886.803174
4075.283761,1302.362347,7920.203579,518.144159
4075.284076,-383.047749,5995.668130,3849.070898
4075.284391,-689.485948,1702.473667,9104.533087
4075.284706,-2374.896044,-2960.823768,10066.800811
4075.285021,-3830.477490,-6587.832884,13841.851115
4075.285336,-3447.429741,-7254.018232,18209.066173
4075.285651,-2528.115143,-6217.729913,17172.777854
4075.285966,-153.219100,-4811.338623,12879.583391
4075.286282,1378.971896,-2146.597232,11103.089130
4075.286597,1915.238745,1628.453072,8586.388927
4075.286912,2451.505594,4145.153275,6513.812290
4075.287227,2681.334243,8142.265362,1850.514855
4075.287542,612.876398,8660.409521,1850.514855
4075.287857,-689.485948,6365.771101,4589.276840
4075.288172,-536.266849,1628.453072,8808.450710
4075.288487,-1838.629195,-3182.885551,10362.883188
4075.288802,-3600.648841,-6439.791695,16136.489536
4075.289118,-2451.505594,-6661.853478,18431.127956
4075.289433,-1532.190996,-4959.379811,15248.242405
4075.289748,306.438199,-3256.906145,12139.377449
4075.290063,1302.362347,-1332.370696,10288.862594
4075.290378,2451.505594,2812.782580,8808.450710
4075.290693,3600.648841,4737.318029,4811.338623
4075.291008,3064.381992,9030.512492,1406.391290
4075.291323,995.924147,8586.388927,3108.864956
4075.291638,-1532.190996,4885.359217,5847.626942
4075.291954,-1072.533697,370.102971,9400.615463
4075.292269,-1915.238745,-3552.988522,12879.583391
4075.292584,-2834.553343,-6365.771101,16580.613101
4075.292899,-1532.190996,-5181.441594,15988.448347
4075.293214,-459.657299,-4663.297435,15618.345376
4075.293529,1685.410096,-2368.659014,12879.583391
4075.293844,1991.848295,-148.041188,11325.150913
4075.294159,3064.381992,3404.947333,7105.977043
4075.294474,3677.258390,5699.585753,3775.050304
4075.294790,2681.334243,8808.450710,1332.370696
4075.295105,995.924147,6957.935855,4515.256246
4075.295420,-1072.533697,3478.967927,6217.729913
4075.295735,-1532.190996,-740.205942,10066.800811
4075.296050,-2374.896044,-4441.235652,13397.727550
4075.296365,-3064.381992,-6957.935855,15766.386565
4075.296680,-1915.238745,-6735.874072,16654.633695
4075.296995,0.000000,-5551.544565,16136.489536
4075.297310,1455.581446,-3108.864956,12731.542202
4075.297626,2068.457845,-74.020594,9696.697840
4075.297941,3447.429741,3478.967927,4441.235652
4075.298256,3677.258390,6143.709319,3627.009116
4075.298571,2681.334243,8512.368333,1258.350101
4075.298886,689.485948,6217.729913,3404.947333
4075.299202,-536.266849,2368.659014,6587.832884
4075.299517,-1455.581446,-1998.556043,10732.986159
4075.299832,-2145.067394,-5329.482782,12953.603985
4075.300147,-2451.505594,-7105.977043,15618.345376
4075.300462,-2068.457845,-6439.791695,16728.654289
4075.300778,-536.266849,-5477.523971,15026.180623
4075.301093,1378.971896,-3108.864956,11917.315666
4075.301408,1991.848295,370.102971,8438.347739
4075.301723,2987.772442,3404.947333,5773.606348
4075.302038,3140.991542,6883.915261,3182.885551
4075.302353,1838.629195,7772.162391,666.185348
4075.302669,0.000000,5847.626942,3182.885551
4075.302984,-229.828649,2294.638420,8734.430116
4075.303299,-1685.410096,-2812.782580,9992.780217
4075.303614,-3064.381992,-6291.750507,12435.459826
4075.303929,-2911.162892,-7328.038826,16728.654289
4075.304245,-2068.457845,-6143.709319,17320.819043
4075.304560,-459.657299,-4441.235652,13693.809927
4075.304875,1225.752797,-2294.638420,11547.212695
4075.305190,1991.848295,1702.473667,7550.100608
4075.305505,2528.115143,3552.988522,5847.626942
4075.305821,2451.505594,7550.100608,2738.761985
4075.306136,919.314598,7846.182985,2590.720797
4075.306451,-995.924147,5995.668130,4441.235652
4075.306766,-995.924147,1258.350101,9474.636058
4075.307081,-2451.505594,-3330.926739,11029.068536
4075.307396,-3677.258390,-6069.688724,15766.386565
4075.307712,-2451.505594,-6365.771101,18283.086767
4075.308027,-1455.581446,-4737.318029,15692.365970
4075.308342,612.876398,-3034.844362,12583.501014
4075.308657,1915.238745,-1554.432478,9844.739029
4075.308972,2834.553343,3034.844362,8808.450710
4075.309288,3294.210641,5329.482782,6365.771101
4075.309603,2987.772442,8438.347739,1480.411884
4075.309918,689.485948,7920.203579,3034.844362
4075.310233,-1455.581446,5181.441594,5181.441594
4075.310548,-766.095498,518.144159,9548.656652
4075.310864,-2221.676944,-3404.947333,12139.377449
4075.311179,-3294.210641,-6809.894666,16654.633695
4075.311494,-2221.676944,-5107.421000,16210.510130
4075.311809,-229.828649,-4219.173869,15766.386565
4075.312124,842.705048,-2960.823768,12953.603985
4075.312439,1532.190996,-814.226536,11103.089130
4075.312755,3064.381992,3108.864956,7402.059420
4075.313070,3677.258390,5033.400406,3627.009116
4075.313385,3524.039291,9030.512492,1702.473667
4075.313700,1149.143247,7476.080014,3701.029710
4075.314015,-689.485948,3849.070898,5847.626942
4075.314331,-995.924147,-148.041188,9918.759623
4075.314646,-2221.676944,-4071.132681,13767.830521
4075.314961,-2681.334243,-6883.915261,15322.262999
4075.315276,-1225.752797,-5847.626942,15248.242405
4075.315591,0.000000,-4663.297435,15840.407159
4075.315907,842.705048,-3330.926739,12879.583391
4075.316222,2068.457845,-0.000000,10807.006753
4075.316537,3217.601092,3256.906145,5403.503377
4075.316852,3600.648841,5773.606348,3108.864956
4075.317167,3064.381992,8290.306550,1480.411884
4075.317482,459.657299,6291.750507,3627.009116
4075.317798,-689.485948,2146.597232,6513.812290
4075.318113,-1991.848295,-2368.659014,10807.006753
4075.318428,-2451.505594,-5477.523971,13101.645173
4075.318743,-2681.334243,-7254.018232,15914.427753
4075.319058,-1838.629195,-6365.771101,17468.860231
4075.319374,-306.438199,-5329.482782,14434.015869
4075.319689,1149.143247,-2886.803174,11843.295072
4075.320004,1991.848295,1110.308913,7476.080014
4075.320319,2757.943793,3034.844362,5847.626942
4075.320634,2987.772442,7031.956449,3256.906145
4075.320950,1685.410096,7105.977043,1184.329507
4075.321265,-459.657299,5255.462188,3923.091493
4075.321580,-689.485948,1258.350101,8956.491898
4075.321895,-2221.676944,-2590.720797,9844.739029
4075.322210,-3524.039291,-6143.709319,12583.501014
4075.322525,-3447.429741,-6957.935855,17024.736666
4075.322841,-2298.286494,-6143.709319,17690.922014
4075.323156,-153.219100,-4219.173869,13693.809927
4075.323471,1302.362347,-2442.679609,11251.130318
4075.323786,2221.676944,2146.597232,7994.224174
4075.324101,2451.505594,4219.173869,6217.729913
4075.324417,2528.115143,8068.244768,2294.638420
4075.324732,1455.581446,8068.244768,2368.659014
4075.325047,-459.657299,6291.750507,4219.173869
4075.325362,-842.705048,1332.370696,9918.759623
4075.325677,-2451.505594,-3108.864956,10807.006753
4075.325993,-3600.648841,-6291.750507,15544.324782
4075.326308,-2604.724693,-5921.647536,18061.024985
4075.326623,-1532.190996,-5255.462188,15766.386565
4075.326938,306.438199,-3182.885551,12731.542202
4075.327253,1532.190996,-888.247130,9992.780217
4075.327568,2604.724693,2442.679609,8660.409521
4075.327884,3370.820191,5255.462188,5477.523971
4075.328199,3064.381992,9178.553681,1258.350101
4075.328514,766.095498,8142.265362,2738.761985
4075.328829,-1455.581446,4737.318029,5477.523971
4075.329144,-1149.143247,370.102971,9622.677246
4075.329460,-2221.676944,-3701.029710,12213.398043
