#time,accel_x,accel_y,accel_z
4160.537175,306.438199,222.061783,9548.656652
4160.537490,153.219100,-74.020594,9474.636058
4160.537806,0.000000,296.082377,9622.677246
4160.538121,0.000000,-0.000000,9474.636058
4160.538437,76.609550,-0.000000,9474.636058
4160.538752,306.438199,-296.082377,9548.656652
4160.539067,383.047749,-148.041188,9844.739029
4160.539383,0.000000,-148.041188,9548.656652
4160.539698,0.000000,74.020594,9548.656652
4160.540014,0.000000,444.123565,9326.594869
4160.540329,689.485948,-0.000000,9918.759623
4160.540645,229.828649,222.061783,9622.677246
4160.540960,76.609550,296.082377,9548.656652
4160.541275,0.000000,-0.000000,9474.636058
4160.541591,153.219100,370.102971,9474.636058
4160.541906,0.000000,444.123565,9918.759623
4160.542222,153.219100,74.020594,9622.677246
4160.542537,383.047749,-0.000000,9918.759623
4160.542853,0.000000,222.061783,9474.636058
4160.543168,0.000000,222.061783,9252.574275
4160.543483,76.609550,-0.000000,9622.677246
4160.543799,229.828649,444.123565,9622.677246
4160.544114,0.000000,-0.000000,9918.759623
4160.544430,0.000000,296.082377,9622.677246
4160.544745,153.219100,222.061783,9474.636058
4160.545060,153.219100,222.061783,9622.677246
4160.545376,76.609550,-0.000000,9622.677246
4160.545691,229.828649,-0.000000,9696.697840
4160.546007,0.000000,-0.000000,9622.677246
4160.546322,153.219100,-0.000000,9474.636058
4160.546638,383.047749,-0.000000,9474.636058
4160.546953,229.828649,-0.000000,9696.697840
4160.547268,153.219100,-0.000000,9548.656652
4160.547584,0.000000,296.082377,9474.636058
4160.547899,306.438199,222.061783,9474.636058
4160.548215,153.219100,-0.000000,9474.636058
4160.548530,153.219100,-74.020594,9474.636058
4160.548846,0.000000,-74.020594,9992.780217
4160.549161,0.000000,-0.000000,9548.656652
4160.549476,0.000000,-0.000000,9474.636058
4160.549792,229.828649,-0.000000,9696.697840
4160.550107,229.828649,-0.000000,9622.677246
4160.550423,153.219100,370.102971,9474.636058
4160.550738,306.438199,370.102971,9474.636058
4160.551053,383.047749,-148.041188,9622.677246
4160.551369,0.000000,-0.000000,9770.718434
4160.551684,0.000000,444.123565,9770.718434
4160.552000,306.438199,-0.000000,9474.636058
4160.552315,229.828649,148.041188,9474.636058
4160.552631,0.000000,370.102971,9622.677246
4160.552946,0.000000,-0.000000,9548.656652
4160.553261,0.000000,-0.000000,9622.677246
4160.553577,0.000000,222.061783,9696.697840
4160.553892,0.000000,296.082377,9548.656652
4160.554208,0.000000,296.082377,9474.636058
4160.554523,0.000000,222.061783,9918.759623
4160.554838,153.219100,444.123565,9844.739029
4160.555154,153.219100,-0.000000,9326.594869
4160.555469,153.219100,-0.000000,9474.636058
4160.555785,536.266849,-0.000000,9400.615463
4160.556100,76.609550,222.061783,9622.677246
4160.556416,76.609550,-0.000000,9696.697840
4160.556731,-153.219100,-0.000000,9622.677246
4160.557046,0.000000,-0.000000,9696.697840
4160.557362,76.609550,222.061783,9770.718434
4160.557677,76.609550,-0.000000,9474.636058
4160.557993,0.000000,-0.000000,9474.636058
4160.558308,153.219100,-0.000000,9770.718434
4160.558624,306.438199,-222.061783,9992.780217
4160.558939,153.219100,-0.000000,9474.636058
4160.559254,76.609550,296.082377,9326.594869
4160.559570,0.000000,296.082377,9474.636058
4160.559885,153.219100,-0.000000,9696.697840
4160.560201,229.828649,222.061783,9548.656652
4160.560516,459.657299,-148.041188,9622.677246
4160.560831,459.657299,-0.000000,9770.718434
4160.561147,76.609550,296.082377,9696.697840
4160.561462,612.876398,444.123565,9844.739029
4160.561778,306.438199,222.061783,9326.594869
4160.562093,76.609550,148.041188,9474.636058
4160.562409,153.219100,-0.000000,9992.780217
4160.562724,-383.047749,444.123565,9474.636058
4160.563039,0.000000,148.041188,9696.697840
4160.563355,0.000000,518.144159,9474.636058
4160.563670,-383.047749,370.102971,9400.615463
4160.563986,-459.657299,222.061783,9696.697840
4160.564301,-689.485948,666.185348,9622.677246
4160.564617,-383.047749,592.164754,9622.677246
4160.564932,-536.266849,222.061783,9474.636058
4160.565247,-459.657299,-0.000000,9770.718434
4160.565563,-689.485948,370.102971,9548.656652
4160.565878,-689.485948,518.144159,9622.677246
4160.566194,-766.095498,666.185348,9400.615463
4160.566509,-766.095498,1036.288319,9326.594869
4160.566824,-842.705048,962.267725,9178.553681
4160.567140,-842.705048,1036.288319,8956.491898
4160.567455,-1455.581446,1258.350101,9104.533087
4160.567771,-1762.019645,1110.308913,9474.636058
4160.568086,-2221.676944,1036.288319,9030.512492
4160.568402,-2068.457845,1406.391290,9696.697840
4160.568717,-2451.505594,1036.288319,9548.656652
4160.569032,-2681.334243,1110.308913,9400.615463
4160.569348,-2757.943793,1184.329507,9622.677246
4160.569663,-3064.381992,1332.370696,9548.656652
4160.569979,-2681.334243,1554.432478,9918.759623
4160.570294,-2834.553343,2220.617826,9474.636058
4160.570610,-2604.724693,2294.638420,9252.574275
4160.570925,-2681.334243,2442.679609,9104.533087
4160.571240,-2068.457845,3034.844362,9326.594869
4160.571556,-2374.896044,2886.803174,9252.574275
4160.571871,-2451.505594,2886.803174,9548.656652
4160.572187,-2528.115143,2960.823768,9918.759623
4160.572502,-2451.505594,2590.720797,9770.718434
4160.572817,-2145.067394,2516.700203,9696.697840
4160.573133,-2374.896044,2590.720797,10362.883188
4160.573448,-1915.238745,2368.659014,10362.883188
4160.573764,-1455.581446,2886.803174,10066.800811
4160.574079,-1225.752797,2960.823768,9696.697840
4160.574395,-995.924147,3108.864956,8882.471304
4160.574710,-919.314598,3849.070898,8660.409521
4160.575025,-1149.143247,4145.153275,8438.347739
4160.575341,-919.314598,4219.173869,8660.409521
4160.575656,-1532.190996,4071.132681,9326.594869
4160.575972,-2068.457845,3849.070898,9548.656652
4160.576287,-2681.334243,2886.803174,9992.780217
4160.576603,-2987.772442,2664.741391,10881.027347
4160.576918,-2987.772442,2516.700203,11251.130318
4160.577233,-2757.943793,2886.803174,11325.150913
4160.577549,-2528.115143,3256.906145,11621.233289
4160.577864,-2298.286494,3775.050304,10955.047942
4160.578180,-1762.019645,4441.235652,9992.780217
4160.578495,-1455.581446,4589.276840,9178.553681
4160.578810,-1378.971896,4811.338623,9030.512492
4160.579126,-1608.800546,4145.153275,9030.512492
4160.579441,-1838.629195,3775.050304,8882.471304
4160.579757,-2145.067394,3182.885551,9622.677246
4160.580072,-2374.896044,2442.679609,9696.697840
4160.580388,-2221.676944,1628.453072,10214.842000
4160.580703,-2451.505594,1702.473667,11695.253884
4160.581018,-2298.286494,1332.370696,11103.089130
4160.581334,-1762.019645,1776.494261,10955.047942
4160.581649,-919.314598,2220.617826,10436.903782
4160.581965,-306.438199,2368.659014,9548.656652
4160.582280,459.657299,3034.844362,8882.471304
4160.582595,612.876398,3330.926739,8364.327145
4160.582911,689.485948,3627.009116,7994.224174
4160.583226,-383.047749,3627.009116,7772.162391
4160.583542,-689.485948,3330.926739,7994.224174
4160.583857,-1685.410096,2812.782580,8438.347739
4160.584173,-3064.381992,2146.597232,9548.656652
4160.584488,-3907.087040,1258.350101,10510.924376
4160.584803,-4213.525239,222.061783,11325.150913
4160.585119,-4443.353888,296.082377,11029.068536
4160.585434,-4673.182538,-0.000000,11177.109724
4160.585750,-3907.087040,444.123565,11251.130318
4160.586065,-3217.601092,1036.288319,11029.068536
4160.586381,-1608.800546,1776.494261,10214.842000
4160.586696,-689.485948,2368.659014,9622.677246
4160.587011,0.000000,3256.906145,8660.409521
4160.587327,536.266849,3404.947333,8438.347739
4160.587642,612.876398,3478.967927,8142.265362
4160.587958,229.828649,2738.761985,7920.203579
4160.588273,-306.438199,2368.659014,7550.100608
4160.588588,-1685.410096,1554.432478,7550.100608
4160.588904,-3064.381992,518.144159,8290.306550
4160.589219,-4443.353888,-148.041188,8808.450710
4160.589535,-5056.230287,-888.247130,9844.739029
4160.589850,-5592.497135,-1554.432478,10807.006753
4160.590166,-5209.449386,-1184.329507,10732.986159
4160.590481,-4826.401637,-962.267725,11621.233289
4160.590796,-3217.601092,-1110.308913,11621.233289
4160.591112,-2145.067394,-74.020594,11325.150913
4160.591427,76.609550,962.267725,10732.986159
4160.591743,1608.800546,2442.679609,9770.718434
4160.592058,2068.457845,4811.338623,7624.121203
4160.592374,2374.896044,5995.668130,6291.750507
4160.592689,1991.848295,6365.771101,4885.359217
4160.593004,766.095498,5403.503377,5403.503377
4160.593320,-1302.362347,4589.276840,6291.750507
4160.593635,-3753.867940,1998.556043,8438.347739
4160.593951,-5592.497135,-1702.473667,11991.336260
4160.594266,-6818.249932,-3108.864956,12879.583391
4160.594581,-7507.735880,-4293.194464,13693.809927
4160.594897,-7048.078582,-4293.194464,15100.201217
4160.595212,-5132.839837,-2812.782580,13915.871710
4160.595528,-2221.676944,-0.000000,11399.171507
4160.595843,0.000000,4145.153275,7920.203579
4160.596159,1838.629195,7476.080014,5773.606348
4160.596474,2911.162892,9844.739029,4515.256246
4160.596789,2681.334243,10732.986159,3775.050304
4160.597105,1149.143247,8512.368333,4885.359217
4160.597420,76.609550,5995.668130,7920.203579
4160.597736,-1685.410096,3034.844362,11177.109724
4160.598051,-3447.429741,-1258.350101,13249.686362
4160.598367,-4903.011187,-3256.906145,15544.324782
4160.598682,-5286.058936,-3182.885551,15988.448347
4160.598997,-4596.572988,-2738.761985,13323.706956
4160.599313,-3677.258390,-148.041188,10881.027347
4160.599628,-1991.848295,2590.720797,10436.903782
4160.599944,-766.095498,5329.482782,6587.832884
4160.600259,229.828649,7031.956449,4367.215058
4160.600574,995.924147,7402.059420,4811.338623
4160.600890,153.219100,7254.018232,5551.544565
4160.601205,-1072.533697,5107.421000,7772.162391
4160.601521,-1455.581446,2590.720797,9622.677246
4160.601836,-1685.410096,1406.391290,11325.150913
4160.602152,-2221.676944,444.123565,12139.377449
4160.602467,-3064.381992,148.041188,12879.583391
4160.602782,-3370.820191,740.205942,13027.624579
4160.603098,-2987.772442,1258.350101,11991.336260
4160.603413,-2987.772442,3034.844362,10658.965565
4160.603729,-3217.601092,4071.132681,9178.553681
4160.604044,-2757.943793,4071.132681,8216.285956
4160.604360,-2221.676944,3627.009116,7772.162391
4160.604675,-1302.362347,3627.009116,6809.894666
4160.604990,-1532.190996,4071.132681,7920.203579
4160.605306,-2068.457845,3034.844362,9622.677246
4160.605621,-2221.676944,2738.761985,10732.986159
4160.605937,-2221.676944,1998.556043,11547.212695
4160.606252,-2221.676944,1184.329507,11325.150913
4160.606567,-1915.238745,-0.000000,11399.171507
4160.606883,-1302.362347,-0.000000,10584.944971
4160.607198,-1378.971896,1554.432478,9696.697840
4160.607514,-1608.800546,2738.761985,8808.450710
4160.607829,-1378.971896,3478.967927,8216.285956
4160.608145,-766.095498,4589.276840,7698.141797
4160.608460,-1225.752797,4737.318029,8068.244768
4160.608775,-1532.190996,2590.720797,9178.553681
4160.609091,-1225.752797,592.164754,10288.862594
4160.609406,-383.047749,-222.061783,10732.986159
4160.609722,-459.657299,-1332.370696,10732.986159
4160.610037,-306.438199,-814.226536,12065.356855
4160.610352,459.657299,-148.041188,11695.253884
4160.610668,689.485948,888.247130,9992.780217
4160.610983,919.314598,2072.576638,8956.491898
4160.611299,1685.410096,2368.659014,7994.224174
4160.611614,2068.457845,2294.638420,7254.018232
4160.611929,1225.752797,2368.659014,7476.080014
4160.612245,689.485948,1110.308913,8142.265362
4160.612560,-306.438199,-0.000000,9326.594869
4160.612876,-1072.533697,-518.144159,9622.677246
4160.613191,-1302.362347,-2072.576638,10807.006753
4160.613506,-919.314598,-2738.761985,11843.295072
4160.613822,-306.438199,-2590.720797,11769.274478
4160.614137,229.828649,-2812.782580,11547.212695
4160.614453,306.438199,-1702.473667,11621.233289
4160.614768,153.219100,222.061783,10510.924376
4160.615083,383.047749,1406.391290,8956.491898
4160.615399,919.314598,1258.350101,7846.182985
4160.615714,2298.286494,814.226536,7328.038826
4160.616030,2451.505594,518.144159,7402.059420
4160.616345,2145.067394,222.061783,7994.224174
4160.616660,229.828649,-666.185348,9252.574275
4160.616976,-1225.752797,-666.185348,9992.780217
4160.617291,-1608.800546,-1406.391290,10807.006753
4160.617607,-1915.238745,-2738.761985,11621.233289
4160.617922,-1838.629195,-3108.864956,11399.171507
4160.618237,-1455.581446,-3552.988522,10584.944971
4160.618553,-1302.362347,-2516.700203,9992.780217
4160.618868,-995.924147,-1332.370696,9548.656652
4160.619184,-995.924147,814.226536,8882.471304
4160.619499,-919.314598,2368.659014,7254.018232
4160.619814,229.828649,2072.576638,7105.977043
4160.620130,842.705048,1480.411884,7031.956449
4160.620445,1072.533697,666.185348,7179.997637
4160.620761,306.438199,-0.000000,9104.533087
4160.621076,0.000000,-740.205942,10584.944971
4160.621391,-1532.190996,-1184.329507,11325.150913
4160.621707,-1608.800546,-1036.288319,11251.130318
4160.622022,-1149.143247,-1850.514855,10807.006753
4160.622338,153.219100,-1702.473667,9844.739029
4160.622653,-383.047749,-444.123565,9696.697840
4160.622968,0.000000,-0.000000,8660.409521
4160.623284,-459.657299,1480.411884,7994.224174
4160.623599,-459.657299,2220.617826,7031.956449
4160.623915,0.000000,1184.329507,7031.956449
4160.624230,612.876398,444.123565,8586.388927
4160.624545,1378.971896,-0.000000,9104.533087
4160.624861,919.314598,-444.123565,9622.677246
4160.625176,383.047749,-0.000000,11103.089130
4160.625491,0.000000,370.102971,11473.192101
4160.625807,0.000000,592.164754,11251.130318
4160.626122,689.485948,962.267725,10584.944971
4160.626438,1378.971896,592.164754,9474.636058
4160.626753,1072.533697,370.102971,9030.512492
4160.627068,842.705048,1258.350101,8808.450710
4160.627384,153.219100,1850.514855,9178.553681
4160.627699,-842.705048,1776.494261,9326.594869
4160.628015,-766.095498,1480.411884,9770.718434
4160.628330,0.000000,-0.000000,10881.027347
4160.628645,536.266849,-1184.329507,11473.192101
4160.628961,306.438199,-814.226536,11621.233289
4160.629276,0.000000,-296.082377,11325.150913
4160.629592,0.000000,814.226536,11251.130318
4160.629907,229.828649,1850.514855,10881.027347
4160.630222,1072.533697,2442.679609,9770.718434
4160.630538,1838.629195,2072.576638,9030.512492
4160.630853,2757.943793,2368.659014,8068.244768
4160.631169,1915.238745,2294.638420,8142.265362
4160.631484,995.924147,2072.576638,8808.450710
4160.631799,-383.047749,1702.473667,9622.677246
4160.632115,-1302.362347,888.247130,10288.862594
4160.632430,-919.314598,-814.226536,10881.027347
4160.632746,-229.828649,-1406.391290,11473.192101
4160.633061,0.000000,-1406.391290,11251.130318
4160.633376,-229.828649,-1776.494261,11029.068536
4160.633692,-383.047749,222.061783,10510.924376
4160.634007,0.000000,1184.329507,10140.821405
4160.634323,612.876398,2146.597232,8438.347739
4160.634638,1608.800546,1998.556043,7550.100608
4160.634953,2298.286494,1184.329507,7254.018232
4160.635269,1532.190996,962.267725,7550.100608
4160.635584,383.047749,740.205942,8290.306550
4160.635900,-842.705048,592.164754,9030.512492
4160.636215,-1225.752797,-296.082377,9992.780217
4160.636530,-1685.410096,-1554.432478,10881.027347
4160.636846,-842.705048,-2738.761985,10658.965565
4160.637161,-689.485948,-2442.679609,10362.883188
4160.637477,-995.924147,-1924.535449,10807.006753
4160.637792,-536.266849,-1036.288319,9992.780217
4160.638107,-766.095498,888.247130,9400.615463
4160.638423,-306.438199,1406.391290,8734.430116
4160.638738,459.657299,814.226536,7772.162391
4160.639054,1685.410096,-0.000000,7624.121203
4160.639369,1302.362347,296.082377,8438.347739
4160.639684,612.876398,-0.000000,9326.594869
4160.640000,-383.047749,-0.000000,10140.821405
4160.640315,-995.924147,296.082377,10066.800811
4160.640631,-612.876398,-740.205942,10214.842000
4160.640946,0.000000,-1850.514855,10955.047942
4160.641261,0.000000,-2294.638420,10584.944971
4160.641577,0.000000,-1924.535449,9474.636058
4160.641892,-153.219100,-1406.391290,9992.780217
4160.642208,-689.485948,370.102971,9474.636058
4160.642523,-689.485948,1036.288319,8364.327145
4160.642838,229.828649,1036.288319,8660.409521
4160.643154,1378.971896,444.123565,8660.409521
4160.643469,1302.362347,-74.020594,8142.265362
4160.643785,1762.019645,-888.247130,9622.677246
4160.644100,459.657299,-444.123565,10436.903782
4160.644415,0.000000,-74.020594,10362.883188
4160.644731,-383.047749,-74.020594,10436.903782
4160.645046,306.438199,-814.226536,10510.924376
4160.645361,919.314598,-1036.288319,10140.821405
4160.645677,1455.581446,-666.185348,9400.615463
4160.645992,766.095498,222.061783,9474.636058
4160.646308,0.000000,888.247130,9178.553681
4160.646623,0.000000,1554.432478,9178.553681
4160.646938,-229.828649,814.226536,8808.450710
4160.647254,0.000000,-370.102971,9474.636058
4160.647569,689.485948,-1332.370696,9918.759623
4160.647885,306.438199,-1406.391290,9622.677246
4160.648200,-153.219100,-1406.391290,10510.924376
4160.648515,0.000000,-0.000000,10732.986159
4160.648831,-612.876398,1258.350101,9992.780217
4160.649146,153.219100,666.185348,9992.780217
4160.649462,1072.533697,222.061783,9326.594869
4160.649777,995.924147,-0.000000,9030.512492
4160.650092,612.876398,-0.000000,9178.553681
4160.650408,0.000000,1184.329507,9400.615463
4160.650723,-842.705048,2146.597232,9696.697840
4160.651039,-1302.362347,1110.308913,9918.759623
4160.651354,0.000000,444.123565,9400.615463
4160.651669,0.000000,-592.164754,10362.883188
4160.651985,0.000000,-592.164754,9918.759623
4160.652300,-229.828649,-518.144159,10658.965565
4160.652616,-383.047749,370.102971,10214.842000
4160.652931,-383.047749,814.226536,10066.800811
4160.653246,0.000000,2294.638420,8882.471304
4160.653562,612.876398,962.267725,8586.388927
4160.653877,1608.800546,1258.350101,8290.306550
4160.654193,1608.800546,1406.391290,7624.121203
4160.654508,689.485948,1628.453072,8660.409521
4160.654823,-153.219100,1850.514855,9474.636058
4160.655139,-995.924147,1776.494261,9770.718434
4160.655454,-842.705048,296.082377,9844.739029
4160.655770,0.000000,-740.205942,9548.656652
4160.656085,842.705048,-1554.432478,10436.903782
4160.656400,306.438199,-888.247130,9992.780217
4160.656716,0.000000,222.061783,9992.780217
4160.657031,-689.485948,1554.432478,9474.636058
4160.657347,0.000000,2072.576638,8956.491898
4160.657662,995.924147,1924.535449,8512.368333
4160.657977,1685.410096,1332.370696,8364.327145
4160.658293,1608.800546,370.102971,8808.450710
4160.658608,612.876398,296.082377,9178.553681
4160.658924,306.438199,-0.000000,10288.862594
4160.659239,-842.705048,888.247130,10881.027347
4160.659554,-1302.362347,222.061783,10955.047942
4160.659870,-153.219100,-148.041188,10881.027347
4160.660185,306.438199,-1258.350101,10362.883188
4160.660501,612.876398,-814.226536,10140.821405
4160.660816,76.609550,-148.041188,10066.800811
4160.661131,-306.438199,1258.350101,9474.636058
4160.661447,-306.438199,1776.494261,9400.615463
4160.661762,76.609550,1480.411884,8808.450710
4160.662078,1225.752797,666.185348,8734.430116
4160.662393,1302.362347,-592.164754,9178.553681
4160.662708,689.485948,-666.185348,9770.718434
4160.663024,0.000000,-740.205942,10288.862594
4160.663339,-1072.533697,-0.000000,10658.965565
4160.663655,-689.485948,-444.123565,10510.924376
4160.663970,-536.266849,-444.123565,10584.944971
4160.664285,306.438199,-1258.350101,10140.821405
4160.664601,766.095498,-888.247130,9400.615463
4160.664916,306.438199,-296.082377,9400.615463
4160.665232,536.266849,666.185348,9104.533087
4160.665547,-383.047749,1332.370696,8808.450710
4160.665862,-689.485948,1184.329507,8882.471304
4160.666178,76.609550,148.041188,8956.491898
4160.666493,689.485948,-518.144159,8956.491898
4160.666808,842.705048,-1776.494261,9548.656652
4160.667124,0.000000,-1628.453072,10214.842000
4160.667439,-995.924147,-888.247130,10436.903782
4160.667755,-1608.800546,-370.102971,10510.924376
4160.668070,-842.705048,-370.102971,9622.677246
4160.668385,306.438199,-1110.308913,9918.759623
4160.668701,689.485948,-1184.329507,8956.491898
4160.669016,842.705048,-1036.288319,8512.368333
4160.669332,76.609550,-0.000000,8438.347739
4160.669647,-306.438199,370.102971,9104.533087
4160.669962,-1378.971896,814.226536,8808.450710
4160.670278,-459.657299,-0.000000,9474.636058
4160.670593,-306.438199,-962.267725,9696.697840
4160.670909,0.000000,-1850.514855,9918.759623
4160.671224,-306.438199,-1924.535449,9918.759623
4160.671539,-689.485948,-1258.350101,10658.965565
4160.671855,-1149.143247,74.020594,10658.965565
4160.672170,-842.705048,370.102971,9770.718434
4160.672486,76.609550,740.205942,9252.574275
4160.672801,1302.362347,-74.020594,8882.471304
4160.673116,1915.238745,-0.000000,8438.347739
4160.673432,995.924147,222.061783,8734.430116
4160.673747,306.438199,962.267725,8882.471304
4160.674063,-306.438199,1184.329507,9400.615463
4160.674378,-229.828649,592.164754,9548.656652
4160.674693,0.000000,-518.144159,9548.656652
4160.675009,766.095498,-666.185348,10362.883188
4160.675324,612.876398,-1184.329507,9696.697840
4160.675640,76.609550,-814.226536,10362.883188
4160.675955,306.438199,592.164754,10288.862594
4160.676270,-383.047749,1924.535449,9474.636058
4160.676586,306.438199,1554.432478,9474.636058
4160.676901,1532.190996,1184.329507,8808.450710
4160.677217,2451.505594,740.205942,8512.368333
4160.677532,2145.067394,666.185348,8882.471304
4160.677847,689.485948,592.164754,9696.697840
4160.678163,0.000000,1850.514855,9918.759623
4160.678478,-995.924147,1702.473667,9844.739029
4160.678794,0.000000,-0.000000,10362.883188
4160.679109,612.876398,-740.205942,10658.965565
4160.679424,459.657299,-592.164754,10510.924376
4160.679740,153.219100,-444.123565,10066.800811
4160.680055,-612.876398,518.144159,10510.924376
4160.680371,-229.828649,1776.494261,10436.903782
4160.680686,-306.438199,1702.473667,9400.615463
4160.681001,536.266849,1480.411884,9474.636058
4160.681317,1455.581446,148.041188,9104.533087
4160.681632,1455.581446,740.205942,9400.615463
4160.681948,1072.533697,1110.308913,9474.636058
4160.682263,0.000000,1850.514855,9770.718434
4160.682578,-306.438199,1924.535449,10288.862594
4160.682894,-536.266849,814.226536,9844.739029
4160.683209,229.828649,-370.102971,9844.739029
4160.683525,612.876398,-962.267725,10066.800811
4160.683840,0.000000,-518.144159,9696.697840
4160.684155,-459.657299,-148.041188,9770.718434
4160.684471,-1302.362347,740.205942,10362.883188
4160.684786,-1302.362347,1184.329507,9400.615463
4160.685102,-306.438199,370.102971,9104.533087
4160.685417,766.095498,-0.000000,9252.574275
4160.685732,1149.143247,-444.123565,9252.574275
4160.686048,536.266849,-0.000000,9104.533087
4160.686363,-229.828649,518.144159,9622.677246
4160.686678,-842.705048,1258.350101,9696.697840
4160.686994,-536.266849,888.247130,9474.636058
4160.687309,306.438199,-0.000000,9474.636058
4160.687625,766.095498,-370.102971,9400.615463
4160.687940,842.705048,-370.102971,9474.636058
4160.688255,0.000000,-296.082377,8808.450710
4160.688571,-1149.143247,-222.061783,9474.636058
4160.688886,-1225.752797,740.205942,10288.862594
4160.689202,-1072.533697,222.061783,9326.594869
4160.689517,383.047749,-1036.288319,9104.533087
4160.689832,842.705048,-1258.350101,9326.594869
4160.690148,536.266849,-814.226536,8956.491898
4160.690463,76.609550,-444.123565,8882.471304
4160.690779,-459.657299,740.205942,9622.677246
4160.691094,-766.095498,1110.308913,9252.574275
4160.691409,0.000000,296.082377,9030.512492
4160.691725,383.047749,-592.164754,9030.512492
4160.692040,229.828649,-1110.308913,9548.656652
4160.692356,-459.657299,-1258.350101,9474.636058
4160.692671,-919.314598,-740.205942,9918.759623
4160.692986,-1149.143247,-0.000000,10140.821405
4160.693302,-1378.971896,-0.000000,10436.903782
4160.693617,-536.266849,-888.247130,9622.677246
4160.693933,536.266849,-962.267725,9326.594869
4160.694248,536.266849,-592.164754,9696.697840
4160.694563,383.047749,-518.144159,9992.780217
4160.694879,153.219100,370.102971,9622.677246
4160.695194,-383.047749,1628.453072,9474.636058
4160.695510,0.000000,1258.350101,9252.574275
4160.695825,1072.533697,-0.000000,8882.471304
4160.696140,1532.190996,-148.041188,9104.533087
4160.696456,919.314598,-592.164754,9548.656652
4160.696771,229.828649,-148.041188,10214.842000
4160.697087,-383.047749,444.123565,10362.883188
4160.697402,-689.485948,666.185348,9918.759623
4160.697717,229.828649,-0.000000,10214.842000
4160.698033,995.924147,-518.144159,9474.636058
4160.698348,1455.581446,-0.000000,9770.718434
4160.698664,1072.533697,370.102971,9992.780217
4160.698979,995.924147,962.267725,9104.533087
4160.699294,306.438199,1480.411884,9400.615463
4160.699610,0.000000,1628.453072,9696.697840
4160.699925,766.095498,962.267725,9178.553681
4160.700241,1149.143247,-0.000000,9252.574275
4160.700556,1072.533697,-592.164754,9696.697840
4160.700871,1225.752797,-592.164754,10214.842000
4160.701187,-306.438199,-222.061783,10584.944971
4160.701502,-766.095498,370.102971,9992.780217
4160.701818,-306.438199,370.102971,10510.924376
4160.702133,383.047749,-370.102971,10066.800811
4160.702448,689.485948,-296.082377,9474.636058
4160.702764,1149.143247,-0.000000,9178.553681
4160.703079,766.095498,222.061783,9030.512492
4160.703395,153.219100,740.205942,9104.533087
4160.703710,0.000000,1480.411884,9030.512492
4160.704025,153.219100,1036.288319,10140.821405
4160.704341,383.047749,222.061783,9770.718434
4160.704656,689.485948,-592.164754,9326.594869
4160.704972,383.047749,-888.247130,9918.759623
4160.705287,-383.047749,-666.185348,10584.944971
4160.705602,-842.705048,296.082377,10732.986159
4160.705918,-1225.752797,888.247130,9918.759623
4160.706233,-536.266849,666.185348,9622.677246
4160.706548,766.095498,-0.000000,9104.533087
4160.706864,1225.752797,148.041188,8808.450710
4160.707179,766.095498,518.144159,8808.450710
4160.707495,153.219100,740.205942,9030.512492
4160.707810,-766.095498,1628.453072,9400.615463
4160.708125,-842.705048,1184.329507,9030.512492
4160.708441,229.828649,-0.000000,9474.636058
4160.708756,383.047749,-740.205942,9474.636058
4160.709072,306.438199,-222.061783,9400.615463
4160.709387,0.000000,-444.123565,10288.862594
4160.709702,-1072.533697,148.041188,10066.800811
4160.710018,-1378.971896,962.267725,9770.718434
4160.710333,-995.924147,1036.288319,9696.697840
4160.710649,76.609550,296.082377,9326.594869
4160.710964,842.705048,-0.000000,8808.450710
4160.711279,612.876398,370.102971,8882.471304
4160.711594,459.657299,-0.000000,9252.574275
4160.711910,0.000000,1480.411884,9622.677246
4160.712225,-612.876398,1554.432478,9474.636058
4160.712540,-612.876398,148.041188,9252.574275
4160.712855,612.876398,-740.205942,9770.718434
4160.713170,842.705048,-1184.329507,10140.821405
4160.713486,0.000000,-1110.308913,10288.862594
4160.713801,-842.705048,-0.000000,10140.821405
4160.714116,-1072.533697,814.226536,10288.862594
4160.714431,-842.705048,666.185348,9992.780217
4160.714747,0.000000,-0.000000,9622.677246
4160.715062,919.314598,-74.020594,9622.677246
4160.715377,1072.533697,-370.102971,9178.553681
4160.715692,995.924147,-148.041188,10214.842000
4160.716007,76.609550,370.102971,10066.800811
4160.716323,-689.485948,1036.288319,9696.697840
4160.716638,0.000000,444.123565,10140.821405
4160.716953,842.705048,-148.041188,9622.677246
4160.717268,1455.581446,-592.164754,9178.553681
4160.717584,1149.143247,-370.102971,9844.739029
4160.717899,306.438199,-0.000000,9770.718434
4160.718214,-536.266849,444.123565,10362.883188
4160.718529,-459.657299,888.247130,9622.677246
4160.718844,536.266849,-0.000000,9548.656652
4160.719160,1685.410096,-888.247130,9696.697840
4160.719475,1762.019645,-1110.308913,9252.574275
4160.719790,1455.581446,-962.267725,9178.553681
4160.720105,383.047749,-148.041188,9548.656652
4160.720421,0.000000,592.164754,9844.739029
4160.720736,-306.438199,1480.411884,9178.553681
4160.721051,689.485948,148.041188,8586.388927
4160.721366,1762.019645,-592.164754,9030.512492
4160.721681,1378.971896,-666.185348,8808.450710
4160.721997,919.314598,-814.226536,9030.512492
4160.722312,153.219100,-296.082377,10362.883188
4160.722627,-1072.533697,962.267725,10066.800811
4160.722942,-612.876398,296.082377,10288.862594
4160.723258,0.000000,-148.041188,9474.636058
4160.723573,1149.143247,-962.267725,9326.594869
4160.723888,995.924147,-962.267725,9400.615463
4160.724203,229.828649,-370.102971,9474.636058
4160.724518,-306.438199,222.061783,9918.759623
4160.724834,-766.095498,666.185348,9992.780217
4160.725149,0.000000,592.164754,9474.636058
4160.725464,383.047749,-666.185348,9178.553681
4160.725779,612.876398,-814.226536,9178.553681
4160.726095,0.000000,-518.144159,9696.697840
4160.726410,-536.266849,-222.061783,9548.656652
4160.726725,-842.705048,666.185348,9918.759623
4160.727040,-1455.581446,740.205942,9844.739029
4160.727355,-612.876398,-296.082377,10140.821405
4160.727671,536.266849,-444.123565,9992.780217
4160.727986,612.876398,-888.247130,9844.739029
4160.728301,306.438199,-296.082377,9992.780217
4160.728616,-153.219100,592.164754,9844.739029
4160.728932,-1072.533697,2072.576638,9548.656652
4160.729247,-689.485948,1480.411884,9696.697840
4160.729562,0.000000,888.247130,9252.574275
4160.729877,919.314598,-74.020594,9252.574275
4160.730192,459.657299,-518.144159,9474.636058
4160.730508,-229.828649,-222.061783,9992.780217
4160.730823,-1225.752797,222.061783,10362.883188
4160.731138,-1302.362347,1036.288319,9844.739029
4160.731453,-612.876398,888.247130,9770.718434
4160.731769,76.609550,-0.000000,9474.636058
4160.732084,1302.362347,-296.082377,8808.450710
4160.732399,995.924147,148.041188,8956.491898
4160.732714,153.219100,666.185348,9030.512492
4160.733029,-229.828649,1554.432478,9622.677246
4160.733345,-536.266849,1628.453072,9326.594869
4160.733660,229.828649,740.205942,9548.656652
4160.733975,536.266849,-0.000000,9474.636058
4160.734290,919.314598,-296.082377,9400.615463
4160.734606,383.047749,-518.144159,9918.759623
4160.734921,229.828649,-296.082377,10658.965565
4160.735236,-306.438199,740.205942,9844.739029
4160.735551,-306.438199,592.164754,9696.697840
4160.735866,1072.533697,-0.000000,9474.636058
4160.736182,1685.410096,-518.144159,9252.574275
4160.736497,1455.581446,-370.102971,9400.615463
4160.736812,766.095498,-0.000000,9104.533087
4160.737127,383.047749,592.164754,9474.636058
4160.737443,0.000000,1258.350101,9548.656652
4160.737758,0.000000,592.164754,9474.636058
4160.738073,459.657299,-518.144159,9918.759623
4160.738388,995.924147,-444.123565,10140.821405
4160.738703,612.876398,-444.123565,9992.780217
4160.739019,0.000000,-444.123565,9992.780217
4160.739334,-459.657299,-0.000000,10436.903782
4160.739649,-536.266849,1036.288319,9696.697840
4160.739964,153.219100,592.164754,9770.718434
4160.740280,1149.143247,518.144159,9474.636058
4160.740595,1455.581446,296.082377,9104.533087
4160.740910,459.657299,592.164754,8956.491898
4160.741225,0.000000,444.123565,9548.656652
4160.741540,-612.876398,962.267725,9474.636058
4160.741856,-612.876398,888.247130,9104.533087
4160.742171,-229.828649,296.082377,9326.594869
4160.742486,459.657299,-814.226536,9474.636058
4160.742801,76.609550,-888.247130,9548.656652
4160.743117,-459.657299,-444.123565,9844.739029
4160.743432,-995.924147,-148.041188,9918.759623
4160.743747,-1378.971896,740.205942,10362.883188
4160.744062,-919.314598,888.247130,9844.739029
4160.744377,0.000000,-74.020594,9474.636058
4160.744693,842.705048,-296.082377,9178.553681
4160.745008,536.266849,-148.041188,9252.574275
4160.745323,0.000000,-222.061783,9622.677246
4160.745638,0.000000,814.226536,9844.739029
4160.745954,-1225.752797,1184.329507,9992.780217
4160.746269,-383.047749,740.205942,9178.553681
4160.746584,459.657299,-888.247130,9918.759623
4160.746899,459.657299,-1036.288319,9474.636058
4160.747214,383.047749,-1850.514855,10288.862594
4160.747530,-229.828649,-518.144159,10066.800811
4160.747845,-1072.533697,-0.000000,9770.718434
4160.748160,-766.095498,592.164754,9474.636058
4160.748475,76.609550,296.082377,9474.636058
4160.748790,995.924147,-666.185348,9474.636058
4160.749106,1455.581446,-888.247130,9030.512492
4160.749421,766.095498,-518.144159,9770.718434
4160.749736,229.828649,-0.000000,9474.636058
4160.750051,0.000000,592.164754,9992.780217
4160.750367,306.438199,666.185348,9474.636058
4160.750682,153.219100,-740.205942,9844.739029
4160.750997,1302.362347,-888.247130,9326.594869
4160.751312,1302.362347,-666.185348,9400.615463
4160.751627,153.219100,-0.000000,9770.718434
4160.751943,76.609550,444.123565,10066.800811
4160.752258,-306.438199,1184.329507,9474.636058
4160.752573,306.438199,444.123565,8734.430116
4160.752888,1225.752797,-666.185348,9326.594869
4160.753204,1455.581446,-962.267725,8956.491898
4160.753519,612.876398,-592.164754,8956.491898
4160.753834,76.609550,-0.000000,9474.636058
4160.754149,-383.047749,888.247130,9474.636058
4160.754464,-536.266849,1332.370696,8956.491898
4160.754780,689.485948,370.102971,9178.553681
4160.755095,766.095498,-0.000000,9178.553681
4160.755410,612.876398,-370.102971,9104.533087
4160.755725,153.219100,-370.102971,9252.574275
4160.756041,-459.657299,-0.000000,10436.903782
4160.756356,-842.705048,1702.473667,10214.842000
4160.756671,-919.314598,518.144159,9918.759623
4160.756986,229.828649,592.164754,9548.656652
4160.757301,919.314598,74.020594,9252.574275
4160.757617,536.266849,-0.000000,8956.491898
4160.757932,0.000000,-0.000000,10288.862594
4160.758247,-842.705048,1332.370696,9992.780217
4160.758562,-995.924147,1480.411884,9474.636058
4160.758878,-383.047749,1036.288319,9770.718434
4160.759193,0.000000,-0.000000,9844.739029
4160.759508,459.657299,-370.102971,9474.636058
4160.759823,76.609550,-74.020594,9992.780217
4160.760138,-689.485948,296.082377,9770.718434
4160.760454,-995.924147,740.205942,9918.759623
4160.760769,-766.095498,1554.432478,10288.862594
4160.761084,-153.219100,740.205942,9918.759623
4160.761399,306.438199,222.061783,10140.821405
4160.761715,689.485948,296.082377,9104.533087
4160.762030,306.438199,-0.000000,9770.718434
4160.762345,-229.828649,740.205942,9918.759623
4160.762660,-1225.752797,1480.411884,10140.821405
4160.762975,-689.485948,1332.370696,9844.739029
4160.763291,0.000000,666.185348,10066.800811
4160.763606,612.876398,-148.041188,9474.636058
4160.763921,766.095498,-370.102971,9622.677246
4160.764236,0.000000,-370.102971,10362.883188
4160.764552,-612.876398,592.164754,10214.842000
4160.764867,-689.485948,1110.308913,9770.718434
4160.765182,-229.828649,666.185348,9696.697840
4160.765497,919.314598,-0.000000,9474.636058
4160.765812,1685.410096,-222.061783,8734.430116
4160.766128,1149.143247,-0.000000,8956.491898
4160.766443,459.657299,-0.000000,9474.636058
4160.766758,306.438199,1184.329507,9622.677246
4160.767073,0.000000,1110.308913,9104.533087
4160.767389,0.000000,370.102971,9252.574275
4160.767704,229.828649,-592.164754,9474.636058
4160.768019,689.485948,-814.226536,9326.594869
4160.768334,0.000000,-1258.350101,9770.718434
4160.768649,-612.876398,-814.226536,11029.068536
4160.768965,-1302.362347,-0.000000,9992.780217
4160.769280,-689.485948,296.082377,9844.739029
4160.769595,459.657299,-148.041188,9696.697840
4160.769910,1378.971896,-222.061783,9178.553681
4160.770226,1838.629195,-370.102971,9252.574275
4160.770541,1225.752797,-148.041188,9326.594869
4160.770856,612.876398,740.205942,9252.574275
4160.771171,229.828649,962.267725,8512.368333
4160.771486,383.047749,296.082377,9252.574275
4160.771802,766.095498,-222.061783,9474.636058
4160.772117,766.095498,-1480.411884,9252.574275
4160.772432,306.438199,-1480.411884,9622.677246
4160.772747,-766.095498,-1406.391290,10288.862594
4160.773063,-1072.533697,-814.226536,10510.924376
4160.773378,-1302.362347,-74.020594,10362.883188
4160.773693,-612.876398,-222.061783,10066.800811
4160.774008,842.705048,-592.164754,9844.739029
4160.774323,1149.143247,-814.226536,8808.450710
4160.774639,1149.143247,-148.041188,9178.553681
4160.774954,459.657299,444.123565,9770.718434
4160.775269,0.000000,1332.370696,9104.533087
4160.775584,0.000000,1406.391290,9104.533087
4160.775900,306.438199,518.144159,8956.491898
4160.776215,612.876398,-814.226536,9400.615463
4160.776530,229.828649,-1184.329507,9474.636058
4160.776845,-612.876398,-1184.329507,9770.718434
4160.777160,-1532.190996,-1036.288319,10732.986159
4160.777476,-1378.971896,518.144159,10510.924376
4160.777791,-1455.581446,740.205942,9918.759623
4160.778106,0.000000,-0.000000,9474.636058
4160.778421,536.266849,-222.061783,9474.636058
4160.778737,766.095498,-0.000000,8660.409521
4160.779052,612.876398,-0.000000,9178.553681
4160.779367,0.000000,1258.350101,9622.677246
4160.779682,-995.924147,2146.597232,9474.636058
4160.779997,0.000000,1776.494261,9178.553681
4160.780313,842.705048,518.144159,9770.718434
4160.780628,689.485948,-222.061783,9696.697840
4160.780943,306.438199,-666.185348,9992.780217
4160.781258,-536.266849,-370.102971,10436.903782
4160.781574,-612.876398,222.061783,10584.944971
4160.781889,-842.705048,666.185348,10214.842000
4160.782204,-383.047749,222.061783,9104.533087
4160.782519,842.705048,-0.000000,9474.636058
4160.782834,842.705048,-0.000000,9104.533087
4160.783150,919.314598,-0.000000,8956.491898
4160.783465,689.485948,444.123565,9178.553681
4160.783780,153.219100,1480.411884,9252.574275
4160.784095,76.609550,1332.370696,9622.677246
4160.784411,919.314598,740.205942,9326.594869
4160.784726,1532.190996,-148.041188,9474.636058
4160.785041,1455.581446,-0.000000,9178.553681
4160.785356,536.266849,-74.020594,10066.800811
4160.785671,-153.219100,444.123565,10436.903782
4160.785987,-919.314598,1406.391290,10288.862594
4160.786302,-459.657299,962.267725,9992.780217
4160.786617,459.657299,-148.041188,9696.697840
4160.786932,1072.533697,-296.082377,9548.656652
4160.787248,766.095498,-0.000000,9548.656652
4160.787563,229.828649,148.041188,9770.718434
4160.787878,0.000000,1258.350101,9770.718434
4160.788193,153.219100,1702.473667,9252.574275
4160.788508,459.657299,1332.370696,8882.471304
4160.788824,1149.143247,592.164754,9474.636058
4160.789139,919.314598,-222.061783,9474.636058
4160.789454,383.047749,-296.082377,9474.636058
4160.789769,0.000000,-148.041188,10510.924376
4160.790085,-1225.752797,666.185348,10140.821405
4160.790400,-766.095498,888.247130,10214.842000
4160.790715,-153.219100,222.061783,9844.739029
4160.791030,766.095498,-370.102971,9252.574275
4160.791345,306.438199,-0.000000,9622.677246
4160.791661,229.828649,444.123565,9400.615463
4160.791976,-459.657299,888.247130,9474.636058
4160.792291,-612.876398,1332.370696,9474.636058
4160.792606,76.609550,666.185348,9400.615463
4160.792922,919.314598,-148.041188,9474.636058
4160.793237,689.485948,-518.144159,9474.636058
4160.793552,0.000000,-666.185348,9844.739029
4160.793867,-842.705048,-296.082377,9474.636058
4160.794182,-1838.629195,370.102971,9918.759623
4160.794498,-1455.581446,296.082377,9844.739029
4160.794813,-766.095498,-222.061783,9622.677246
4160.795128,-229.828649,-1036.288319,9474.636058
4160.795443,229.828649,-1258.350101,9474.636058
4160.795759,-306.438199,-888.247130,9474.636058
4160.796074,-536.266849,-370.102971,9548.656652
4160.796389,-842.705048,518.144159,9696.697840
4160.796704,-459.657299,962.267725,9252.574275
4160.797019,76.609550,518.144159,8956.491898
4160.797335,229.828649,-0.000000,9104.533087
4160.797650,612.876398,-444.123565,9548.656652
4160.797965,-459.657299,-370.102971,9622.677246
4160.798280,-1072.533697,-370.102971,10066.800811
4160.798596,-995.924147,-74.020594,9770.718434
4160.798911,0.000000,-0.000000,10214.842000
4160.799226,306.438199,-370.102971,9696.697840
4160.799541,612.876398,-666.185348,9622.677246
4160.799856,459.657299,-296.082377,9992.780217
4160.800172,153.219100,296.082377,9474.636058
4160.800487,306.438199,888.247130,9548.656652
4160.800802,0.000000,1110.308913,9400.615463
4160.801117,536.266849,1258.350101,8586.388927
4160.801433,1302.362347,296.082377,8956.491898
4160.801748,995.924147,-0.000000,9252.574275
4160.802063,459.657299,-0.000000,9474.636058
4160.802378,-229.828649,-444.123565,10584.944971
4160.802693,-689.485948,444.123565,10510.924376
4160.803009,-612.876398,592.164754,9918.759623
4160.803324,153.219100,-148.041188,9326.594869
4160.803639,1455.581446,-1036.288319,9696.697840
4160.803954,1378.971896,-296.082377,9326.594869
4160.804270,995.924147,370.102971,9474.636058
4160.804585,536.266849,1036.288319,9474.636058
4160.804900,153.219100,1554.432478,9696.697840
4160.805215,536.266849,1184.329507,9030.512492
4160.805530,919.314598,-0.000000,9178.553681
4160.805846,842.705048,-518.144159,9548.656652
4160.806161,459.657299,-814.226536,9770.718434
4160.806476,0.000000,-1110.308913,9844.739029
4160.806791,-612.876398,-74.020594,10881.027347
4160.807107,-842.705048,296.082377,10510.924376
4160.807422,0.000000,148.041188,9918.759623
4160.807737,612.876398,-0.000000,9548.656652
4160.808052,1608.800546,-148.041188,9178.553681
4160.808367,1455.581446,-0.000000,9770.718434
4160.808683,612.876398,740.205942,9400.615463
4160.808998,153.219100,1184.329507,9326.594869
4160.809313,0.000000,1258.350101,9178.553681
4160.809628,459.657299,814.226536,9178.553681
4160.809944,919.314598,-222.061783,9844.739029
4160.810259,689.485948,-370.102971,9474.636058
4160.810574,0.000000,-518.144159,10066.800811
4160.810889,-842.705048,-148.041188,10140.821405
4160.811204,-919.314598,296.082377,10214.842000
4160.811520,-1149.143247,370.102971,10066.800811
4160.811835,-229.828649,-0.000000,9474.636058
4160.812150,229.828649,-222.061783,9622.677246
4160.812465,383.047749,444.123565,8808.450710
4160.812781,0.000000,518.144159,8882.471304
4160.813096,-383.047749,592.164754,9326.594869
4160.813411,-766.095498,814.226536,9474.636058
4160.813726,-842.705048,1036.288319,9326.594869
4160.814041,-229.828649,-0.000000,9474.636058
4160.814357,153.219100,-148.041188,8956.491898
4160.814672,-229.828649,-518.144159,9548.656652
4160.814987,-1149.143247,-444.123565,9992.780217
4160.815302,-1608.800546,-148.041188,10436.903782
4160.815618,-1762.019645,518.144159,10214.842000
4160.815933,-995.924147,148.041188,9696.697840
4160.816248,0.000000,-0.000000,9474.636058
4160.816563,229.828649,-148.041188,9326.594869
4160.816879,306.438199,-370.102971,8956.491898
4160.817194,76.609550,-666.185348,9918.759623
4160.817509,-229.828649,444.123565,9622.677246
4160.817824,-766.095498,888.247130,9696.697840
4160.818139,-153.219100,740.205942,8882.471304
4160.818455,995.924147,-370.102971,9326.594869
4160.818770,1149.143247,-74.020594,8956.491898
4160.819085,536.266849,-1332.370696,9918.759623
4160.819400,0.000000,-74.020594,9918.759623
4160.819716,-689.485948,740.205942,10140.821405
4160.820031,-689.485948,888.247130,9844.739029
4160.820346,306.438199,-0.000000,9548.656652
4160.820661,919.314598,-0.000000,9474.636058
4160.820976,766.095498,-296.082377,9696.697840
4160.821292,76.609550,-0.000000,10140.821405
4160.821607,-306.438199,962.267725,10066.800811
4160.821922,0.000000,1480.411884,9696.697840
4160.822237,306.438199,888.247130,9622.677246
4160.822553,1149.143247,370.102971,9400.615463
4160.822868,1532.190996,-0.000000,9474.636058
4160.823183,1302.362347,-0.000000,9474.636058
4160.823498,1072.533697,-0.000000,9770.718434
4160.823813,689.485948,1554.432478,9474.636058
4160.824129,-153.219100,1184.329507,9104.533087
4160.824444,306.438199,370.102971,9622.677246
4160.824759,1608.800546,-518.144159,9400.615463
4160.825074,1762.019645,-1110.308913,9326.594869
4160.825390,919.314598,-518.144159,9844.739029
4160.825705,-229.828649,518.144159,10584.944971
4160.826020,-459.657299,1332.370696,9918.759623
4160.826335,0.000000,962.267725,9474.636058
4160.826650,995.924147,-0.000000,9474.636058
4160.826966,1762.019645,-296.082377,8808.450710
4160.827281,1685.410096,-518.144159,8882.471304
4160.827596,995.924147,-74.020594,9400.615463
4160.827911,153.219100,296.082377,9918.759623
4160.828227,-459.657299,592.164754,9622.677246
4160.828542,-383.047749,-370.102971,9400.615463
4160.828857,536.266849,-296.082377,9770.718434
4160.829172,536.266849,-1480.411884,9622.677246
4160.829487,842.705048,-962.267725,9548.656652
4160.829803,306.438199,-740.205942,10288.862594
4160.830118,-766.095498,296.082377,9992.780217
4160.830433,-612.876398,518.144159,9548.656652
4160.830748,383.047749,-0.000000,9178.553681
4160.831064,1532.190996,-0.000000,8882.471304
4160.831379,1608.800546,-222.061783,8512.368333
4160.831694,612.876398,-222.061783,9104.533087
4160.832009,0.000000,370.102971,9474.636058
4160.832325,-842.705048,814.226536,9844.739029
4160.832640,-919.314598,518.144159,9622.677246
4160.832955,-383.047749,-370.102971,10140.821405
4160.833270,76.609550,-444.123565,9696.697840
4160.833585,0.000000,-1036.288319,9770.718434
4160.833901,-459.657299,-666.185348,9992.780217
4160.834216,-1302.362347,592.164754,10658.965565
4160.834531,-1455.581446,1406.391290,9548.656652
4160.834846,-842.705048,1036.288319,9326.594869
4160.835162,153.219100,370.102971,8956.491898
4160.835477,995.924147,-0.000000,8734.430116
4160.835792,0.000000,-296.082377,8290.306550
4160.836107,-383.047749,-0.000000,9474.636058
4160.836422,-1532.190996,888.247130,9770.718434
4160.836738,-1915.238745,666.185348,9622.677246
4160.837053,-1072.533697,-0.000000,9474.636058
4160.837368,306.438199,-1258.350101,9474.636058
4160.837683,229.828649,-740.205942,9178.553681
4160.837999,0.000000,-592.164754,9400.615463
4160.838314,-995.924147,-0.000000,9844.739029
4160.838629,-1225.752797,592.164754,9326.594869
4160.838944,-459.657299,592.164754,9400.615463
4160.839259,-306.438199,74.020594,9548.656652
4160.839575,536.266849,-444.123565,9326.594869
4160.839890,536.266849,-222.061783,9474.636058
4160.840205,306.438199,-0.000000,10066.800811
4160.840520,-153.219100,666.185348,10732.986159
4160.840836,-689.485948,888.247130,10140.821405
4160.841151,0.000000,740.205942,10288.862594
4160.841466,766.095498,-0.000000,9696.697840
4160.841781,1225.752797,-296.082377,9844.739029
4160.842096,1302.362347,-0.000000,9622.677246
4160.842412,0.000000,148.041188,9844.739029
4160.842727,-229.828649,1110.308913,10066.800811
4160.843042,-383.047749,1628.453072,9326.594869
4160.843357,153.219100,370.102971,8956.491898
4160.843673,1302.362347,-296.082377,9548.656652
4160.843988,1149.143247,-222.061783,10066.800811
4160.844303,1072.533697,-222.061783,9992.780217
4160.844618,229.828649,-74.020594,10436.903782
4160.844933,-536.266849,1184.329507,10140.821405
4160.845249,1072.533697,1406.391290,9770.718434
4160.845564,1455.581446,1110.308913,9474.636058
4160.845879,1838.629195,296.082377,8586.388927
4160.846194,1762.019645,296.082377,8882.471304
4160.846510,995.924147,-0.000000,8808.450710
4160.846825,153.219100,740.205942,9622.677246
4160.847140,-536.266849,1036.288319,9770.718434
4160.847455,-459.657299,370.102971,9400.615463
4160.847771,383.047749,-666.185348,9622.677246
4160.848086,919.314598,-888.247130,9696.697840
4160.848401,383.047749,-370.102971,9844.739029
4160.848716,0.000000,-518.144159,9918.759623
4160.849031,-612.876398,370.102971,9844.739029
4160.849347,-229.828649,1184.329507,9770.718434
4160.849662,842.705048,592.164754,8882.471304
4160.849977,1455.581446,-444.123565,8734.430116
4160.850292,1378.971896,-74.020594,9030.512492
4160.850608,766.095498,-0.000000,8808.450710
4160.850923,0.000000,296.082377,9548.656652
4160.851238,-536.266849,592.164754,10214.842000
4160.851553,-1225.752797,370.102971,9474.636058
4160.851868,0.000000,-518.144159,9770.718434
4160.852184,383.047749,-666.185348,9474.636058
4160.852499,-383.047749,-1036.288319,10214.842000
4160.852814,-383.047749,-814.226536,10288.862594
4160.853129,-612.876398,370.102971,10584.944971
4160.853445,-766.095498,740.205942,10066.800811
4160.853760,-383.047749,962.267725,9696.697840
4160.854075,766.095498,666.185348,9178.553681
4160.854390,1302.362347,444.123565,9178.553681
4160.854705,689.485948,-0.000000,9474.636058
4160.855021,0.000000,444.123565,9844.739029
4160.855336,-842.705048,962.267725,9622.677246
4160.855651,-995.924147,888.247130,9770.718434
4160.855966,-612.876398,-74.020594,10214.842000
4160.856282,229.828649,-814.226536,9992.780217
4160.856597,0.000000,-888.247130,9770.718434
4160.856912,-229.828649,-666.185348,9474.636058
4160.857227,-1072.533697,-222.061783,10066.800811
4160.857542,-1302.362347,740.205942,10214.842000
4160.857858,-842.705048,814.226536,9548.656652
4160.858173,0.000000,518.144159,9400.615463
4160.858488,689.485948,296.082377,8734.430116
4160.858803,919.314598,-296.082377,8586.388927
4160.859119,612.876398,-592.164754,9696.697840
4160.859434,-306.438199,-0.000000,9696.697840
4160.859749,-766.095498,296.082377,9548.656652
4160.860064,-689.485948,296.082377,9918.759623
4160.860380,76.609550,-148.041188,9252.574275
4160.860695,612.876398,-1406.391290,9104.533087
4160.861010,383.047749,-888.247130,9622.677246
4160.861325,0.000000,-370.102971,9252.574275
4160.861640,-536.266849,-0.000000,9474.636058
4160.861956,-229.828649,666.185348,9326.594869
4160.862271,0.000000,370.102971,9474.636058
4160.862586,612.876398,-0.000000,9326.594869
4160.862901,1302.362347,-74.020594,8956.491898
4160.863217,995.924147,-0.000000,9474.636058
4160.863532,383.047749,-0.000000,10362.883188
4160.863847,0.000000,962.267725,10214.842000
4160.864162,0.000000,1554.432478,9474.636058
4160.864477,153.219100,370.102971,9622.677246
4160.864793,919.314598,-0.000000,9474.636058
4160.865108,1378.971896,-222.061783,9474.636058
4160.865423,459.657299,-148.041188,9622.677246
4160.865738,76.609550,-222.061783,10140.821405
4160.866054,-306.438199,814.226536,10214.842000
4160.866369,0.000000,962.267725,9400.615463
4160.866684,766.095498,370.102971,9696.697840
4160.866999,1608.800546,-222.061783,9104.533087
4160.867314,1378.971896,-148.041188,9030.512492
4160.867630,842.705048,296.082377,9400.615463
4160.867945,459.657299,592.164754,9474.636058
4160.868260,-459.657299,1332.370696,9696.697840
4160.868575,-229.828649,888.247130,9474.636058
4160.868891,153.219100,222.061783,9474.636058
4160.869206,612.876398,-592.164754,9622.677246
4160.869521,0.000000,-444.123565,9474.636058
4160.869836,-536.266849,-370.102971,10288.862594
4160.870151,-842.705048,-0.000000,10807.006753
4160.870467,-1302.362347,1036.288319,9844.739029
4160.870782,-383.047749,444.123565,10066.800811
4160.871097,689.485948,-592.164754,9548.656652
4160.871412,536.266849,-74.020594,9548.656652
4160.871728,229.828649,-148.041188,9622.677246
4160.872043,0.000000,-0.000000,9548.656652
4160.872358,-536.266849,1036.288319,9252.574275
4160.872673,-306.438199,1110.308913,9326.594869
4160.872988,-76.609550,-74.020594,9548.656652
4160.873304,459.657299,-444.123565,9474.636058
4160.873619,536.266849,-666.185348,9474.636058
4160.873934,-459.657299,-888.247130,10436.903782
4160.874249,-842.705048,-222.061783,10807.006753
4160.874565,-612.876398,296.082377,10584.944971
4160.874880,-383.047749,592.164754,9918.759623
4160.875195,536.266849,-0.000000,9770.718434
4160.875510,1455.581446,-0.000000,9326.594869
4160.875826,1225.752797,296.082377,9622.677246
4160.876141,536.266849,296.082377,9696.697840
4160.876456,-229.828649,1406.391290,9548.656652
4160.876771,-536.266849,1480.411884,9548.656652
4160.877086,-229.828649,666.185348,9696.697840
4160.877402,612.876398,-0.000000,9474.636058
4160.877717,459.657299,-1184.329507,9622.677246
4160.878032,-229.828649,-1110.308913,9918.759623
4160.878347,-612.876398,-814.226536,10362.883188
4160.878663,-1149.143247,-0.000000,9770.718434
4160.878978,-536.266849,-0.000000,9400.615463
4160.879293,229.828649,-222.061783,9326.594869
4160.879608,1225.752797,-666.185348,8364.327145
4160.879923,1149.143247,-592.164754,7994.224174
4160.880239,842.705048,-0.000000,8364.327145
4160.880554,612.876398,814.226536,8882.471304
4160.880869,0.000000,1036.288319,9104.533087
4160.881184,0.000000,740.205942,9104.533087
4160.881500,0.000000,-0.000000,9474.636058
4160.881815,459.657299,-666.185348,9770.718434
4160.882130,0.000000,-1258.350101,10214.842000
4160.882445,-919.314598,-814.226536,10362.883188
4160.882760,-1455.581446,-444.123565,10436.903782
4160.883076,-919.314598,666.185348,10066.800811
4160.883391,-536.266849,444.123565,9622.677246
4160.883706,612.876398,222.061783,9474.636058
4160.884021,1378.971896,296.082377,9104.533087
4160.884337,612.876398,444.123565,8438.347739
4160.884652,229.828649,888.247130,9252.574275
4160.884967,0.000000,1480.411884,9474.636058
4160.885282,-306.438199,1184.329507,9252.574275
4160.885597,-153.219100,74.020594,9696.697840
4160.885913,383.047749,-296.082377,9770.718434
4160.886228,383.047749,-370.102971,10140.821405
4160.886543,-459.657299,-296.082377,10807.006753
4160.886858,-689.485948,370.102971,11103.089130
4160.887174,-995.924147,1258.350101,10732.986159
4160.887489,-842.705048,1258.350101,10288.862594
4160.887804,1225.752797,888.247130,9622.677246
4160.888119,1455.581446,592.164754,9474.636058
4160.888434,1302.362347,740.205942,9326.594869
4160.888750,689.485948,1406.391290,9474.636058
4160.889065,0.000000,1480.411884,9918.759623
4160.889380,-306.438199,1924.535449,9918.759623
4160.889695,76.609550,518.144159,9770.718434
4160.890011,0.000000,-370.102971,9474.636058
4160.890326,383.047749,-1184.329507,9918.759623
4160.890641,0.000000,-666.185348,10214.842000
4160.890956,-766.095498,-814.226536,10066.800811
4160.891272,-612.876398,-0.000000,10214.842000
4160.891587,-689.485948,370.102971,9992.780217
4160.891902,0.000000,-0.000000,9770.718434
4160.892217,1225.752797,-296.082377,8808.450710
4160.892532,766.095498,-296.082377,9326.594869
4160.892848,1072.533697,-0.000000,9474.636058
4160.893163,229.828649,-0.000000,8956.491898
4160.893478,153.219100,518.144159,9474.636058
4160.893793,0.000000,666.185348,9030.512492
4160.894109,919.314598,-296.082377,9030.512492
4160.894424,1225.752797,-370.102971,9178.553681
4160.894739,612.876398,-1258.350101,9622.677246
4160.895054,0.000000,-1110.308913,10066.800811
4160.895369,-459.657299,-1110.308913,9992.780217
4160.895685,-995.924147,-148.041188,9992.780217
4160.896000,-689.485948,-222.061783,9548.656652
4160.896315,459.657299,-444.123565,9400.615463
4160.896630,1149.143247,-296.082377,8956.491898
4160.896946,995.924147,-296.082377,8586.388927
4160.897261,766.095498,-0.000000,9104.533087
4160.897576,76.609550,814.226536,9326.594869
4160.897891,-383.047749,1258.350101,9178.553681
4160.898206,0.000000,518.144159,9104.533087
4160.898522,612.876398,-0.000000,8956.491898
4160.898837,842.705048,-518.144159,9474.636058
4160.899152,459.657299,-222.061783,9548.656652
4160.899467,-459.657299,-0.000000,9548.656652
4160.899783,-1072.533697,444.123565,10214.842000
4160.900098,-919.314598,740.205942,9474.636058
4160.900413,-229.828649,-0.000000,9622.677246
4160.900728,229.828649,-962.267725,9326.594869
4160.901043,229.828649,-740.205942,9252.574275
4160.901359,0.000000,-370.102971,9622.677246
4160.901674,-536.266849,518.144159,9622.677246
4160.901989,-919.314598,888.247130,9474.636058
4160.902304,-995.924147,962.267725,9178.553681
4160.902620,0.000000,518.144159,9400.615463
4160.902935,536.266849,-518.144159,8808.450710
4160.903250,76.609550,-592.164754,8882.471304
4160.903565,-459.657299,-814.226536,10362.883188
4160.903881,-1455.581446,222.061783,10436.903782
4160.904196,-1762.019645,888.247130,10732.986159
4160.904511,-842.705048,296.082377,10214.842000
4160.904826,229.828649,-444.123565,10066.800811
4160.905141,995.924147,-518.144159,9474.636058
4160.905457,612.876398,-0.000000,9770.718434
4160.905772,0.000000,962.267725,9696.697840
4160.906087,-229.828649,1628.453072,9548.656652
4160.906402,-229.828649,1406.391290,9474.636058
4160.906718,383.047749,814.226536,9844.739029
4160.907033,842.705048,-0.000000,9992.780217
4160.907348,842.705048,-0.000000,9844.739029
4160.907663,153.219100,-296.082377,10362.883188
4160.907978,0.000000,444.123565,10732.986159
4160.908294,-689.485948,1480.411884,10732.986159
4160.908609,-536.266849,444.123565,10807.006753
4160.908924,842.705048,592.164754,10362.883188
4160.909239,1608.800546,-74.020594,9326.594869
4160.909555,1685.410096,518.144159,9326.594869
4160.909870,1225.752797,1036.288319,9252.574275
4160.910185,536.266849,1406.391290,9474.636058
4160.910500,306.438199,1702.473667,8882.471304
4160.910816,383.047749,888.247130,9326.594869
4160.911131,766.095498,-518.144159,9474.636058
4160.911446,1302.362347,-814.226536,9622.677246
4160.911762,306.438199,-962.267725,9548.656652
4160.912077,-153.219100,-962.267725,10214.842000
4160.912392,-689.485948,-0.000000,10066.800811
4160.912707,-459.657299,148.041188,9400.615463
4160.913023,229.828649,-0.000000,9030.512492
4160.913338,1455.581446,-518.144159,8734.430116
4160.913653,1685.410096,-0.000000,8068.244768
4160.913969,1302.362347,-0.000000,8216.285956
4160.914284,383.047749,592.164754,8512.368333
4160.914599,0.000000,888.247130,9400.615463
4160.914914,-459.657299,444.123565,8808.450710
4160.915230,229.828649,-444.123565,9030.512492
4160.915545,842.705048,-1184.329507,9326.594869
4160.915860,459.657299,-1480.411884,9474.636058
4160.916175,-153.219100,-1406.391290,9992.780217
4160.916491,-842.705048,-592.164754,10214.842000
4160.916806,-1072.533697,296.082377,9770.718434
4160.917121,-383.047749,296.082377,9178.553681
4160.917437,842.705048,-296.082377,8808.450710
4160.917752,1455.581446,-222.061783,9104.533087
4160.918067,612.876398,-222.061783,9178.553681
4160.918382,153.219100,592.164754,9548.656652
4160.918698,-536.266849,1258.350101,9474.636058
4160.919013,-919.314598,1480.411884,9474.636058
4160.919328,-689.485948,740.205942,9844.739029
4160.919644,153.219100,-592.164754,10436.903782
4160.919959,0.000000,-296.082377,10214.842000
4160.920274,-459.657299,-592.164754,10362.883188
4160.920589,-1149.143247,222.061783,10436.903782
4160.920905,-1915.238745,1110.308913,10510.924376
4160.921220,-1149.143247,1110.308913,9992.780217
4160.921535,-306.438199,518.144159,9992.780217
4160.921850,536.266849,148.041188,9252.574275
4160.922166,536.266849,222.061783,9326.594869
4160.922481,76.609550,444.123565,9400.615463
4160.922796,-919.314598,592.164754,9696.697840
4160.923112,-919.314598,1332.370696,9696.697840
4160.923427,-306.438199,666.185348,9548.656652
4160.923742,0.000000,-0.000000,9770.718434
4160.924057,919.314598,-518.144159,9622.677246
4160.924373,0.000000,-962.267725,9696.697840
4160.924688,-536.266849,-740.205942,10288.862594
4160.925003,-766.095498,-74.020594,10510.924376
4160.925319,-842.705048,296.082377,10510.924376
4160.925634,306.438199,518.144159,9622.677246
4160.925949,1455.581446,-0.000000,9104.533087
4160.926264,2451.505594,-222.061783,8882.471304
4160.926580,2145.067394,-370.102971,9104.533087
4160.926895,1225.752797,-74.020594,9400.615463
4160.927210,459.657299,1184.329507,9178.553681
4160.927525,76.609550,666.185348,9252.574275
4160.927841,766.095498,-0.000000,8882.471304
4160.928156,1378.971896,-1258.350101,8956.491898
4160.928471,1225.752797,-1406.391290,9030.512492
4160.928787,153.219100,-1036.288319,9844.739029
4160.929102,-383.047749,-518.144159,10584.944971
4160.929417,-536.266849,740.205942,9992.780217
4160.929732,76.609550,888.247130,9474.636058
4160.930048,842.705048,592.164754,9400.615463
4160.930363,1608.800546,518.144159,8882.471304
4160.930678,1455.581446,370.102971,8956.491898
4160.930994,1072.533697,518.144159,9326.594869
4160.931309,842.705048,1332.370696,9474.636058
4160.931624,0.000000,1702.473667,9326.594869
4160.931939,0.000000,1110.308913,9030.512492
4160.932255,842.705048,-74.020594,9104.533087
4160.932570,536.266849,-962.267725,8734.430116
4160.932885,-306.438199,-666.185348,9400.615463
4160.933201,-1149.143247,-148.041188,10288.862594
4160.933516,-1762.019645,296.082377,9844.739029
4160.933831,-1762.019645,222.061783,9474.636058
4160.934146,-842.705048,-222.061783,9326.594869
4160.934462,459.657299,-1628.453072,9474.636058
4160.934777,459.657299,-370.102971,9178.553681
4160.935092,153.219100,-74.020594,9474.636058
4160.935407,0.000000,592.164754,9844.739029
4160.935723,0.000000,1850.514855,9474.636058
4160.936038,0.000000,1776.494261,9104.533087
4160.936353,536.266849,666.185348,9030.512492
4160.936669,842.705048,-0.000000,8956.491898
4160.936984,612.876398,-592.164754,9326.594869
4160.937299,-306.438199,-740.205942,10140.821405
4160.937614,-995.924147,-74.020594,11177.109724
4160.937930,-1915.238745,518.144159,10584.944971
4160.938245,-1302.362347,-0.000000,10066.800811
4160.938560,0.000000,-814.226536,10214.842000
4160.938876,612.876398,-666.185348,9992.780217
4160.939191,76.609550,-296.082377,9918.759623
4160.939506,0.000000,-0.000000,10066.800811
4160.939821,-383.047749,1110.308913,9992.780217
4160.940137,0.000000,1480.411884,9770.718434
4160.940452,459.657299,1110.308913,9474.636058
4160.940767,1302.362347,444.123565,9474.636058
4160.941082,1072.533697,-0.000000,9844.739029
4160.941398,153.219100,-296.082377,10066.800811
4160.941713,0.000000,222.061783,10510.924376
4160.942028,-766.095498,222.061783,10214.842000
4160.942344,-919.314598,518.144159,10288.862594
4160.942659,-76.609550,-296.082377,10214.842000
4160.942974,842.705048,-814.226536,9622.677246
4160.943289,689.485948,-1110.308913,9104.533087
4160.943605,306.438199,-592.164754,9326.594869
4160.943920,153.219100,222.061783,9252.574275
4160.944235,0.000000,888.247130,8882.471304
4160.944551,383.047749,814.226536,8512.368333
4160.944866,1149.143247,-74.020594,8660.409521
4160.945181,1378.971896,-1332.370696,8438.347739
4160.945496,689.485948,-740.205942,8956.491898
4160.945812,0.000000,-666.185348,9474.636058
4160.946127,-153.219100,-370.102971,9474.636058
4160.946442,-766.095498,222.061783,9326.594869
4160.946758,76.609550,-444.123565,8734.430116
4160.947073,459.657299,-592.164754,9400.615463
4160.947388,919.314598,-518.144159,8808.450710
4160.947703,689.485948,-0.000000,8734.430116
4160.948019,0.000000,296.082377,8882.471304
4160.948334,-306.438199,962.267725,9400.615463
4160.948649,-689.485948,740.205942,8808.450710
4160.948964,153.219100,370.102971,8808.450710
4160.949280,766.095498,-222.061783,9474.636058
4160.949595,459.657299,-518.144159,9474.636058
4160.949910,0.000000,-518.144159,9696.697840
4160.950226,0.000000,296.082377,10140.821405
4160.950541,-842.705048,1110.308913,9770.718434
4160.950856,0.000000,1036.288319,9622.677246
4160.951171,536.266849,592.164754,9326.594869
4160.951487,766.095498,740.205942,9326.594869
4160.951802,459.657299,444.123565,9696.697840
4160.952117,-306.438199,444.123565,9844.739029
4160.952433,-995.924147,740.205942,10732.986159
4160.952748,-1149.143247,1480.411884,10436.903782
4160.953063,-689.485948,888.247130,10658.965565
4160.953378,-153.219100,740.205942,10807.006753
4160.953694,153.219100,296.082377,10066.800811
4160.954009,-536.266849,222.061783,10807.006753
4160.954324,-306.438199,370.102971,10732.986159
4160.954639,-229.828649,962.267725,10881.027347
4160.954955,153.219100,1480.411884,10066.800811
4160.955270,229.828649,888.247130,9770.718434
4160.955585,1455.581446,296.082377,9252.574275
4160.955901,1225.752797,-148.041188,9474.636058
4160.956216,689.485948,296.082377,9548.656652
4160.956531,306.438199,148.041188,9622.677246
4160.956846,-383.047749,1258.350101,10140.821405
4160.957162,-459.657299,666.185348,9474.636058
4160.957477,229.828649,-592.164754,9622.677246
4160.957792,153.219100,-1258.350101,9918.759623
4160.958108,306.438199,-888.247130,9918.759623
4160.958423,153.219100,-740.205942,9918.759623
4160.958738,0.000000,-0.000000,10362.883188
4160.959053,0.000000,740.205942,9918.759623
4160.959369,612.876398,814.226536,9474.636058
4160.959684,1532.190996,370.102971,8956.491898
4160.959999,1532.190996,-222.061783,8808.450710
4160.960315,995.924147,-148.041188,9104.533087
4160.960630,536.266849,-0.000000,9548.656652
4160.960945,-229.828649,666.185348,9918.759623
4160.961260,0.000000,296.082377,9030.512492
4160.961576,383.047749,-148.041188,9178.553681
4160.961891,689.485948,-962.267725,9474.636058
4160.962206,306.438199,-1184.329507,8956.491898
4160.962521,-459.657299,-1184.329507,9474.636058
4160.962837,-383.047749,-148.041188,9474.636058
4160.963152,-995.924147,296.082377,9474.636058
4160.963467,-766.095498,740.205942,8882.471304
4160.963783,0.000000,-148.041188,8882.471304
4160.964098,612.876398,-518.144159,8586.388927
4160.964413,383.047749,-370.102971,8808.450710
4160.964728,0.000000,444.123565,8734.430116
4160.965044,-459.657299,370.102971,9696.697840
4160.965359,-766.095498,1036.288319,9400.615463
4160.965674,-459.657299,592.164754,9252.574275
4160.965990,0.000000,-0.000000,9474.636058
4160.966305,0.000000,-370.102971,8956.491898
4160.966620,-306.438199,-592.164754,9696.697840
4160.966935,-612.876398,-518.144159,9992.780217
4160.967251,-1225.752797,-0.000000,10214.842000
4160.967566,-1532.190996,740.205942,9474.636058
4160.967881,-536.266849,-0.000000,9474.636058
4160.968196,0.000000,-148.041188,9030.512492
4160.968512,689.485948,148.041188,9104.533087
4160.968827,229.828649,518.144159,9622.677246
4160.969142,-229.828649,666.185348,9770.718434
4160.969458,-612.876398,1406.391290,9992.780217
4160.969773,-153.219100,1110.308913,10288.862594
4160.970088,0.000000,1036.288319,9474.636058
4160.970403,536.266849,592.164754,9844.739029
4160.970719,306.438199,222.061783,10140.821405
4160.971034,306.438199,-0.000000,10584.944971
4160.971349,-689.485948,518.144159,11399.171507
4160.971665,-1225.752797,740.205942,11621.233289
4160.971980,-459.657299,444.123565,10732.986159
4160.972295,689.485948,-0.000000,10584.944971
4160.972610,1455.581446,-0.000000,10214.842000
4160.972926,919.314598,-0.000000,9622.677246
4160.973241,383.047749,296.082377,9844.739029
4160.973556,383.047749,1110.308913,9992.780217
4160.973871,306.438199,1332.370696,8956.491898
4160.974187,995.924147,666.185348,9474.636058
4160.974502,2451.505594,-0.000000,8512.368333
4160.974817,1608.800546,-0.000000,9252.574275
4160.975133,842.705048,-518.144159,9474.636058
4160.975448,383.047749,-888.247130,10436.903782
4160.975763,0.000000,-222.061783,10658.965565
4160.976078,-229.828649,-222.061783,10066.800811
4160.976394,306.438199,-148.041188,9326.594869
4160.976709,1225.752797,-518.144159,9474.636058
4160.977024,1378.971896,-222.061783,9178.553681
4160.977340,995.924147,-222.061783,9252.574275
4160.977655,612.876398,666.185348,9474.636058
4160.977970,0.000000,814.226536,9104.533087
4160.978285,383.047749,740.205942,8586.388927
4160.978601,1378.971896,-296.082377,8734.430116
4160.978916,1302.362347,-888.247130,8660.409521
4160.979231,459.657299,-1184.329507,8734.430116
4160.979547,-383.047749,-1184.329507,9400.615463
4160.979862,-612.876398,-814.226536,9326.594869
4160.980177,-766.095498,-74.020594,9030.512492
4160.980492,-459.657299,-444.123565,9178.553681
4160.980808,766.095498,-814.226536,8808.450710
4160.981123,766.095498,-888.247130,8734.430116
4160.981438,536.266849,-444.123565,8734.430116
4160.981753,0.000000,148.041188,8734.430116
4160.982069,-383.047749,1110.308913,9474.636058
4160.982384,-766.095498,1332.370696,9252.574275
4160.982699,-306.438199,740.205942,9770.718434
4160.983015,306.438199,-74.020594,9474.636058
4160.983330,0.000000,-740.205942,9696.697840
4160.983645,-842.705048,-518.144159,10436.903782
4160.983960,-2068.457845,-0.000000,10955.047942
4160.984276,-1991.848295,666.185348,10658.965565
4160.984591,-1608.800546,296.082377,10066.800811
4160.984906,-229.828649,-148.041188,9474.636058
4160.985222,0.000000,-740.205942,9474.636058
4160.985537,0.000000,-518.144159,9178.553681
4160.985852,-612.876398,222.061783,9474.636058
4160.986167,-995.924147,592.164754,9918.759623
4160.986483,-1378.971896,1332.370696,9696.697840
4160.986798,-306.438199,666.185348,9770.718434
4160.987113,0.000000,-444.123565,10510.924376
4160.987428,76.609550,-444.123565,10362.883188
4160.987744,0.000000,-518.144159,10658.965565
4160.988059,-766.095498,-444.123565,10732.986159
4160.988374,-1378.971896,592.164754,11103.089130
4160.988690,-842.705048,888.247130,10584.944971
4160.989005,383.047749,444.123565,9474.636058
4160.989320,1532.190996,444.123565,9474.636058
4160.989635,1608.800546,444.123565,9326.594869
4160.989951,536.266849,296.082377,9252.574275
4160.990266,229.828649,1110.308913,9548.656652
4160.990581,0.000000,1036.288319,9548.656652
4160.990897,153.219100,1258.350101,9474.636058
4160.991212,995.924147,444.123565,9326.594869
4160.991527,1378.971896,-666.185348,9918.759623
4160.991842,842.705048,-814.226536,10066.800811
4160.992158,612.876398,-370.102971,9992.780217
4160.992473,153.219100,666.185348,9622.677246
4160.992788,536.266849,1332.370696,9548.656652
4160.993104,1072.533697,1702.473667,9104.533087
4160.993419,1608.800546,740.205942,9030.512492
4160.993734,1608.800546,444.123565,8660.409521
4160.994049,1149.143247,296.082377,8660.409521
4160.994365,842.705048,592.164754,9474.636058
4160.994680,153.219100,740.205942,9696.697840
4160.994995,-536.266849,1702.473667,9178.553681
4160.995310,0.000000,148.041188,9696.697840
4160.995626,689.485948,-370.102971,9252.574275
4160.995941,689.485948,-962.267725,9844.739029
4160.996256,229.828649,-518.144159,9696.697840
4160.996572,-689.485948,-0.000000,9770.718434
4160.996887,-766.095498,740.205942,9474.636058
4160.997202,-306.438199,888.247130,9474.636058
4160.997517,612.876398,1110.308913,9178.553681
4160.997833,1149.143247,222.061783,8882.471304
4160.998148,612.876398,222.061783,9326.594869
4160.998463,536.266849,444.123565,9400.615463
4160.998779,0.000000,888.247130,9548.656652
4160.999094,-689.485948,962.267725,9696.697840
4160.999409,-842.705048,370.102971,9992.780217
4160.999724,-229.828649,-222.061783,9770.718434
4161.000040,153.219100,-370.102971,9400.615463
4161.000355,-383.047749,-518.144159,10362.883188
4161.000670,-689.485948,-74.020594,10955.047942
4161.000985,-1225.752797,296.082377,9918.759623
4161.001301,-1378.971896,444.123565,9844.739029
4161.001616,-459.657299,296.082377,9992.780217
4161.001931,689.485948,-148.041188,10362.883188
4161.002247,919.314598,222.061783,9326.594869
4161.002562,536.266849,-0.000000,9918.759623
4161.002877,76.609550,370.102971,9696.697840
4161.003192,-383.047749,1184.329507,10288.862594
4161.003508,0.000000,1184.329507,9622.677246
4161.003823,-229.828649,148.041188,10066.800811
4161.004138,76.609550,-444.123565,9992.780217
4161.004454,0.000000,-1184.329507,9696.697840
4161.004769,-612.876398,-666.185348,9992.780217
4161.005084,-995.924147,-296.082377,10807.006753
4161.005399,-1685.410096,-0.000000,10955.047942
4161.005715,-1149.143247,-222.061783,9992.780217
4161.006030,-229.828649,-148.041188,9770.718434
4161.006345,612.876398,-592.164754,9400.615463
4161.006661,1072.533697,-444.123565,9178.553681
4161.006976,459.657299,-518.144159,9326.594869
4161.007291,153.219100,-370.102971,9326.594869
4161.007606,-306.438199,370.102971,8734.430116
4161.007922,306.438199,-370.102971,8956.491898
4161.008237,842.705048,-296.082377,8808.450710
4161.008552,383.047749,-1110.308913,8734.430116
4161.008867,0.000000,-1406.391290,9178.553681
4161.009183,-995.924147,-592.164754,9178.553681
4161.009498,-689.485948,-370.102971,9548.656652
4161.009813,-919.314598,-148.041188,9622.677246
4161.010129,76.609550,-444.123565,9326.594869
4161.010444,1378.971896,-740.205942,9326.594869
4161.010759,1378.971896,-666.185348,8512.368333
4161.011075,1225.752797,-296.082377,9104.533087
4161.011390,689.485948,-0.000000,9400.615463
4161.011705,229.828649,1110.308913,9178.553681
4161.012021,459.657299,1480.411884,8290.306550
4161.012336,995.924147,296.082377,8512.368333
4161.012651,1455.581446,-0.000000,8734.430116
4161.012967,842.705048,-370.102971,9104.533087
4161.013282,0.000000,-592.164754,9622.677246
4161.013597,-612.876398,-74.020594,10214.842000
4161.013913,-919.314598,518.144159,9992.780217
4161.014228,0.000000,518.144159,9992.780217
4161.014543,689.485948,-222.061783,9918.759623
4161.014859,995.924147,-0.000000,9548.656652
4161.015174,459.657299,-0.000000,9104.533087
4161.015490,229.828649,1332.370696,9178.553681
4161.015805,153.219100,1702.473667,9474.636058
4161.016120,0.000000,1776.494261,9326.594869
4161.016436,306.438199,1110.308913,9474.636058
4161.016751,306.438199,592.164754,9622.677246
4161.017066,153.219100,-296.082377,9696.697840
4161.017382,-229.828649,-222.061783,10881.027347
4161.017697,-459.657299,444.123565,11251.130318
4161.018012,-612.876398,1036.288319,10362.883188
4161.018328,229.828649,518.144159,10362.883188
4161.018643,536.266849,444.123565,9918.759623
4161.018958,919.314598,518.144159,9474.636058
4161.019274,842.705048,814.226536,9622.677246
4161.019589,76.609550,888.247130,9770.718434
4161.019904,0.000000,1554.432478,9918.759623
4161.020220,-153.219100,1702.473667,9992.780217
4161.020535,0.000000,1110.308913,9992.780217
4161.020850,306.438199,666.185348,10288.862594
4161.021166,919.314598,-148.041188,10066.800811
4161.021481,612.876398,296.082377,10288.862594
4161.021797,383.047749,222.061783,10584.944971
4161.022112,76.609550,370.102971,10066.800811
4161.022427,0.000000,1036.288319,10288.862594
4161.022743,689.485948,444.123565,9474.636058
4161.023058,1455.581446,-0.000000,9326.594869
4161.023373,1302.362347,-0.000000,8734.430116
4161.023689,842.705048,-0.000000,9326.594869
4161.024004,0.000000,148.041188,9178.553681
4161.024319,-842.705048,370.102971,9178.553681
4161.024635,-612.876398,592.164754,9178.553681
4161.024950,-536.266849,-222.061783,9400.615463
4161.025265,76.609550,-592.164754,9474.636058
4161.025581,0.000000,-592.164754,9178.553681
4161.025896,-306.438199,-1110.308913,9770.718434
4161.026211,-689.485948,-0.000000,9992.780217
4161.026527,-1225.752797,518.144159,9770.718434
4161.026842,-1225.752797,592.164754,9252.574275
4161.027157,459.657299,-0.000000,9030.512492
4161.027473,306.438199,-592.164754,8290.306550
4161.027788,383.047749,-444.123565,8808.450710
4161.028104,-459.657299,-74.020594,8808.450710
4161.028419,-1149.143247,-0.000000,9400.615463
4161.028734,-1302.362347,296.082377,9178.553681
4161.029050,-842.705048,-444.123565,9030.512492
4161.029365,76.609550,-1258.350101,8956.491898
4161.029680,153.219100,-1258.350101,9178.553681
4161.029996,-229.828649,-888.247130,9548.656652
4161.030311,-919.314598,-592.164754,9548.656652
4161.030626,-1149.143247,592.164754,9548.656652
4161.030942,-612.876398,592.164754,9252.574275
4161.031257,76.609550,222.061783,8734.430116
4161.031572,919.314598,-0.000000,9104.533087
4161.031888,1685.410096,-74.020594,9474.636058
4161.032203,306.438199,-0.000000,10214.842000
4161.032518,-306.438199,-0.000000,9844.739029
4161.032834,-766.095498,370.102971,10066.800811
4161.033149,-229.828649,296.082377,10881.027347
4161.033464,612.876398,-0.000000,9992.780217
4161.033780,1302.362347,-518.144159,10214.842000
4161.034095,1225.752797,-0.000000,9326.594869
4161.034411,306.438199,-666.185348,10436.903782
4161.034726,-153.219100,518.144159,10288.862594
4161.035041,-612.876398,1258.350101,10584.944971
4161.035357,0.000000,1110.308913,9474.636058
4161.035672,1225.752797,-0.000000,9992.780217
4161.035987,1378.971896,222.061783,9548.656652
4161.036303,1532.190996,-222.061783,10214.842000
4161.036618,459.657299,-0.000000,10362.883188
4161.036933,0.000000,666.185348,10658.965565
4161.037249,-459.657299,962.267725,10584.944971
4161.037564,0.000000,592.164754,10362.883188
4161.037879,689.485948,370.102971,9918.759623
4161.038195,766.095498,-814.226536,9696.697840
4161.038510,153.219100,-814.226536,9918.759623
4161.038825,-229.828649,-0.000000,10288.862594
4161.039141,-459.657299,666.185348,10288.862594
4161.039456,-76.609550,1110.308913,9326.594869
4161.039771,689.485948,370.102971,9474.636058
4161.040087,1455.581446,-666.185348,9178.553681
4161.040402,1378.971896,-444.123565,8956.491898
4161.040718,689.485948,-370.102971,9474.636058
4161.041033,0.000000,-0.000000,9622.677246
4161.041348,0.000000,888.247130,9030.512492
4161.041664,612.876398,814.226536,8438.347739
4161.041979,919.314598,-74.020594,8438.347739
4161.042294,842.705048,-370.102971,8956.491898
4161.042610,0.000000,-518.144159,8808.450710
4161.042925,-536.266849,-518.144159,9844.739029
4161.043240,-1225.752797,296.082377,9770.718434
4161.043556,-1149.143247,-0.000000,9474.636058
4161.043871,-536.266849,-74.020594,9548.656652
4161.044186,383.047749,-518.144159,9326.594869
4161.044502,842.705048,-0.000000,9400.615463
4161.044817,766.095498,-0.000000,9400.615463
4161.045132,0.000000,666.185348,9400.615463
4161.045448,-536.266849,1110.308913,9474.636058
4161.045763,-536.266849,1184.329507,8808.450710
4161.046078,153.219100,444.123565,8586.388927
4161.046394,612.876398,-74.020594,9030.512492
4161.046709,76.609550,-296.082377,9030.512492
4161.047025,-766.095498,-370.102971,9918.759623
4161.047340,-1378.971896,-0.000000,10140.821405
4161.047655,-1532.190996,-0.000000,10066.800811
4161.047971,-1455.581446,518.144159,9770.718434
4161.048286,-153.219100,-444.123565,9918.759623
4161.048601,76.609550,-148.041188,9474.636058
4161.048917,0.000000,-0.000000,9992.780217
4161.049232,-306.438199,296.082377,9770.718434
4161.049547,-689.485948,1332.370696,9844.739029
4161.049863,-995.924147,1554.432478,9992.780217
4161.050178,-229.828649,1258.350101,9474.636058
4161.050493,383.047749,666.185348,9178.553681
4161.050809,306.438199,148.041188,9104.533087
4161.051124,0.000000,296.082377,9844.739029
4161.051439,-689.485948,-0.000000,10362.883188
4161.051755,-1302.362347,370.102971,10658.965565
4161.052070,-766.095498,444.123565,10584.944971
4161.052385,0.000000,-148.041188,9770.718434
4161.052701,919.314598,-74.020594,9622.677246
4161.053016,689.485948,-0.000000,9918.759623
4161.053332,0.000000,814.226536,9474.636058
4161.053647,229.828649,962.267725,9696.697840
4161.053962,306.438199,1776.494261,9548.656652
4161.054278,459.657299,1850.514855,9326.594869
4161.054593,919.314598,814.226536,9326.594869
4161.054908,1685.410096,-518.144159,9696.697840
4161.055224,919.314598,-222.061783,10066.800811
4161.055539,229.828649,-222.061783,10584.944971
4161.055854,229.828649,370.102971,10732.986159
4161.056170,-383.047749,740.205942,10807.006753
4161.056485,459.657299,148.041188,9844.739029
4161.056800,1532.190996,148.041188,9326.594869
4161.057116,995.924147,74.020594,8808.450710
4161.057431,766.095498,-0.000000,9400.615463
4161.057746,383.047749,-0.000000,9474.636058
4161.058062,0.000000,-74.020594,9770.718434
4161.058377,76.609550,666.185348,9770.718434
4161.058692,383.047749,-0.000000,9400.615463
4161.059008,995.924147,-666.185348,8956.491898
4161.059323,1072.533697,-518.144159,9770.718434
4161.059639,306.438199,-444.123565,9622.677246
4161.059954,-153.219100,-222.061783,9548.656652
4161.060269,-306.438199,370.102971,9844.739029
4161.060585,0.000000,-0.000000,9252.574275
4161.060900,459.657299,-296.082377,8956.491898
4161.061215,1072.533697,-740.205942,8660.409521
4161.061531,766.095498,-962.267725,8660.409521
4161.061846,229.828649,-444.123565,9326.594869
4161.062161,-383.047749,-296.082377,9178.553681
4161.062477,-689.485948,-0.000000,9474.636058
4161.062792,-536.266849,-0.000000,9474.636058
4161.063107,383.047749,-962.267725,9030.512492
4161.063423,689.485948,-814.226536,9400.615463
4161.063738,229.828649,-1184.329507,9622.677246
4161.064053,0.000000,-592.164754,9548.656652
4161.064369,-306.438199,-370.102971,9474.636058
4161.064684,-766.095498,222.061783,9104.533087
4161.064999,-229.828649,-148.041188,9548.656652
4161.065315,766.095498,-0.000000,8808.450710
4161.065630,689.485948,-444.123565,9178.553681
4161.065946,383.047749,-222.061783,9178.553681
4161.066261,0.000000,518.144159,9992.780217
4161.066576,-689.485948,740.205942,9622.677246
4161.066892,-612.876398,740.205942,9992.780217
4161.067207,0.000000,-0.000000,10066.800811
4161.067522,306.438199,-518.144159,9696.697840
4161.067838,153.219100,-592.164754,9548.656652
4161.068153,-459.657299,-518.144159,10436.903782
4161.068468,-1149.143247,666.185348,10214.842000
4161.068784,-1532.190996,1480.411884,10362.883188
4161.069099,-459.657299,814.226536,9992.780217
4161.069414,689.485948,-74.020594,9918.759623
4161.069730,1838.629195,-592.164754,9400.615463
4161.070045,766.095498,592.164754,9030.512492
4161.070360,383.047749,592.164754,9326.594869
4161.070676,0.000000,1258.350101,9918.759623
4161.070991,-536.266849,1776.494261,9400.615463
4161.071306,0.000000,-0.000000,9622.677246
4161.071622,229.828649,-370.102971,9844.739029
4161.071937,0.000000,-296.082377,9400.615463
4161.072253,-536.266849,-1036.288319,10066.800811
4161.072568,-1225.752797,-222.061783,11399.171507
4161.072883,-1685.410096,296.082377,10362.883188
4161.073199,-995.924147,888.247130,9696.697840
4161.073514,0.000000,296.082377,9918.759623
4161.073829,995.924147,222.061783,9030.512492
4161.074145,1302.362347,592.164754,9178.553681
4161.074460,689.485948,740.205942,9104.533087
4161.074775,0.000000,1332.370696,9622.677246
4161.075091,306.438199,1406.391290,9474.636058
4161.075406,536.266849,1036.288319,9400.615463
4161.075721,1072.533697,222.061783,8956.491898
4161.076037,1225.752797,-0.000000,9178.553681
4161.076352,612.876398,-296.082377,9474.636058
4161.076667,383.047749,-296.082377,9770.718434
4161.076983,-383.047749,222.061783,9844.739029
4161.077298,0.000000,592.164754,9474.636058
4161.077613,0.000000,296.082377,9400.615463
4161.077929,919.314598,-222.061783,9104.533087
4161.078244,1608.800546,-222.061783,8734.430116
4161.078560,1838.629195,296.082377,8956.491898
4161.078875,459.657299,666.185348,10140.821405
4161.079190,0.000000,1628.453072,9622.677246
4161.079506,0.000000,1480.411884,9400.615463
4161.079821,612.876398,592.164754,9548.656652
4161.080136,689.485948,-74.020594,9770.718434
4161.080452,0.000000,-814.226536,9696.697840
4161.080767,-459.657299,-296.082377,10436.903782
4161.081082,-766.095498,296.082377,11103.089130
4161.081398,-842.705048,518.144159,10436.903782
4161.081713,-383.047749,962.267725,9770.718434
4161.082028,536.266849,518.144159,9474.636058
4161.082344,842.705048,-740.205942,9400.615463
4161.082659,766.095498,-740.205942,9622.677246
4161.082974,306.438199,-740.205942,9252.574275
4161.083290,-383.047749,-0.000000,9770.718434
4161.083605,-536.266849,1184.329507,9252.574275
4161.083920,-153.219100,592.164754,9104.533087
4161.084236,459.657299,-148.041188,9474.636058
4161.084551,536.266849,-518.144159,9474.636058
4161.084867,0.000000,-666.185348,9770.718434
4161.085182,-766.095498,-296.082377,10584.944971
4161.085497,-842.705048,370.102971,10066.800811
4161.085813,-766.095498,222.061783,9992.780217
4161.086128,-306.438199,-0.000000,10066.800811
4161.086443,842.705048,-370.102971,9770.718434
4161.086759,766.095498,-296.082377,9622.677246
4161.087074,153.219100,444.123565,9474.636058
4161.087389,0.000000,888.247130,9474.636058
4161.087705,-383.047749,1184.329507,9178.553681
4161.088020,0.000000,444.123565,9178.553681
4161.088335,536.266849,-370.102971,9474.636058
4161.088651,612.876398,-962.267725,9622.677246
4161.088966,0.000000,-814.226536,9104.533087
4161.089281,-306.438199,-518.144159,9844.739029
4161.089597,-842.705048,-444.123565,10584.944971
4161.089912,-1149.143247,-0.000000,10436.903782
4161.090227,-383.047749,-74.020594,9770.718434
4161.090543,-153.219100,-444.123565,9474.636058
4161.090858,306.438199,-666.185348,8660.409521
4161.091174,306.438199,-370.102971,9252.574275
4161.091489,0.000000,592.164754,9474.636058
4161.091804,-536.266849,888.247130,9474.636058
4161.092120,-612.876398,814.226536,9400.615463
4161.092435,0.000000,222.061783,9326.594869
4161.092750,459.657299,-0.000000,8956.491898
4161.093066,229.828649,-1110.308913,9622.677246
4161.093381,-383.047749,-962.267725,9844.739029
4161.093696,-229.828649,-888.247130,9918.759623
4161.094012,-919.314598,-0.000000,10288.862594
4161.094327,-766.095498,-148.041188,9400.615463
4161.094642,153.219100,-148.041188,9178.553681
4161.094958,1302.362347,-296.082377,8808.450710
4161.095273,919.314598,-0.000000,8660.409521
4161.095588,459.657299,-0.000000,9178.553681
4161.095904,0.000000,814.226536,9326.594869
4161.096219,-306.438199,1480.411884,9622.677246
4161.096534,76.609550,1184.329507,9178.553681
4161.096850,919.314598,444.123565,9252.574275
4161.097165,1225.752797,-518.144159,9696.697840
4161.097481,689.485948,-148.041188,9770.718434
4161.097796,0.000000,-0.000000,10584.944971
4161.098111,0.000000,592.164754,10066.800811
4161.098427,-383.047749,962.267725,10214.842000
4161.098742,0.000000,592.164754,9770.718434
4161.099057,1072.533697,222.061783,9252.574275
4161.099373,1072.533697,-74.020594,8882.471304
4161.099688,536.266849,-0.000000,9474.636058
4161.100003,76.609550,814.226536,9918.759623
4161.100319,0.000000,1924.535449,9548.656652
4161.100634,-306.438199,1406.391290,9622.677246
4161.100949,0.000000,592.164754,10140.821405
4161.101265,383.047749,-0.000000,9622.677246
4161.101580,229.828649,-0.000000,9844.739029
4161.101895,153.219100,-296.082377,10658.965565
4161.102211,-306.438199,296.082377,10955.047942
4161.102526,-612.876398,1258.350101,9992.780217
4161.102841,-229.828649,666.185348,9548.656652
4161.103157,153.219100,592.164754,9400.615463
4161.103472,1378.971896,-0.000000,9252.574275
4161.103788,995.924147,222.061783,9326.594869
4161.104103,612.876398,-0.000000,9992.780217
4161.104418,0.000000,-0.000000,9770.718434
4161.104734,-612.876398,740.205942,8808.450710
4161.105049,0.000000,296.082377,9474.636058
4161.105364,229.828649,-222.061783,9770.718434
4161.105680,229.828649,-740.205942,9474.636058
4161.105995,0.000000,-888.247130,9992.780217
4161.106310,-1149.143247,-814.226536,9992.780217
4161.106626,-842.705048,-0.000000,10140.821405
4161.106941,-459.657299,962.267725,9622.677246
4161.107256,0.000000,444.123565,9326.594869
4161.107572,995.924147,-666.185348,9178.553681
4161.107887,1072.533697,-518.144159,8956.491898
4161.108202,459.657299,-370.102971,9474.636058
4161.108518,0.000000,592.164754,9474.636058
4161.108833,-383.047749,1258.350101,9326.594869
4161.109148,-459.657299,518.144159,9104.533087
4161.109464,76.609550,-296.082377,9400.615463
4161.109779,306.438199,-1184.329507,9474.636058
4161.110095,-536.266849,-1332.370696,9326.594869
4161.110410,-1072.533697,-666.185348,9770.718434
4161.110725,-1072.533697,148.041188,10140.821405
4161.111041,-1225.752797,444.123565,9770.718434
4161.111356,-612.876398,592.164754,9400.615463
4161.111671,153.219100,-0.000000,9474.636058
4161.111987,1302.362347,-0.000000,9400.615463
4161.112302,459.657299,-148.041188,9326.594869
4161.112617,76.609550,518.144159,9622.677246
4161.112933,-306.438199,1258.350101,9918.759623
4161.113248,-536.266849,1554.432478,9178.553681
4161.113563,153.219100,518.144159,9104.533087
4161.113879,536.266849,-0.000000,9474.636058
4161.114194,-306.438199,-518.144159,9474.636058
4161.114509,-842.705048,-518.144159,10214.842000
4161.114825,-1302.362347,-444.123565,11103.089130
4161.115140,-1302.362347,-148.041188,10807.006753
4161.115455,-842.705048,-0.000000,10066.800811
4161.115771,0.000000,-222.061783,9918.759623
4161.116086,1378.971896,-0.000000,9696.697840
4161.116402,1608.800546,296.082377,8956.491898
4161.116717,1685.410096,518.144159,8882.471304
4161.117032,1838.629195,1332.370696,8808.450710
4161.117348,766.095498,1554.432478,8586.388927
4161.117663,1072.533697,1036.288319,8734.430116
4161.117978,1762.019645,444.123565,9178.553681
4161.118293,1608.800546,-74.020594,8956.491898
4161.118609,1225.752797,-518.144159,9474.636058
4161.118924,0.000000,-148.041188,10658.965565
4161.119239,-766.095498,-0.000000,10955.047942
4161.119555,-383.047749,-0.000000,11029.068536
4161.119870,-229.828649,-0.000000,10510.924376
4161.120185,919.314598,-0.000000,10288.862594
4161.120501,1149.143247,-0.000000,9770.718434
4161.120816,842.705048,666.185348,9622.677246
4161.121131,842.705048,1776.494261,9474.636058
4161.121447,459.657299,2220.617826,9622.677246
4161.121762,459.657299,2072.576638,9104.533087
4161.122077,766.095498,888.247130,9252.574275
4161.122392,1225.752797,-148.041188,9178.553681
4161.122708,612.876398,-1110.308913,9696.697840
4161.123023,-153.219100,-814.226536,10066.800811
4161.123338,-1225.752797,-518.144159,10436.903782
4161.123654,-1532.190996,-148.041188,10807.006753
4161.123969,-1072.533697,148.041188,9696.697840
4161.124284,-76.609550,-814.226536,9548.656652
4161.124600,919.314598,-814.226536,9252.574275
4161.124915,766.095498,-222.061783,9252.574275
4161.125230,0.000000,-444.123565,9400.615463
4161.125545,-689.485948,814.226536,9252.574275
4161.125861,-842.705048,1110.308913,9252.574275
4161.126176,153.219100,740.205942,9104.533087
4161.126491,842.705048,-444.123565,9104.533087
4161.126807,766.095498,-1036.288319,9474.636058
4161.127122,-229.828649,-888.247130,9844.739029
4161.127437,-842.705048,-0.000000,10214.842000
4161.127753,-1225.752797,370.102971,10066.800811
4161.128068,-919.314598,222.061783,9770.718434
4161.128383,-383.047749,-0.000000,9474.636058
4161.128698,536.266849,-518.144159,8956.491898
4161.129014,459.657299,-962.267725,8734.430116
4161.129329,229.828649,-222.061783,9104.533087
4161.129644,-536.266849,370.102971,9104.533087
4161.129960,-995.924147,1036.288319,9474.636058
4161.130275,-689.485948,592.164754,9178.553681
4161.130590,229.828649,-222.061783,9178.553681
4161.130906,919.314598,-592.164754,9474.636058
4161.131221,229.828649,-518.144159,9474.636058
4161.131536,-383.047749,-0.000000,10066.800811
4161.131851,-919.314598,814.226536,10066.800811
4161.132167,-995.924147,740.205942,10066.800811
4161.132482,-536.266849,444.123565,9844.739029
4161.132797,536.266849,-0.000000,9548.656652
4161.133113,689.485948,-148.041188,9400.615463
4161.133428,689.485948,-296.082377,9696.697840
4161.133743,0.000000,222.061783,9918.759623
4161.134059,-689.485948,888.247130,9548.656652
4161.134374,-383.047749,888.247130,9474.636058
4161.134689,306.438199,370.102971,9030.512492
4161.135004,1378.971896,-444.123565,8882.471304
4161.135320,1225.752797,-296.082377,9474.636058
4161.135635,0.000000,-444.123565,9844.739029
4161.135950,-153.219100,-0.000000,10510.924376
4161.136266,-689.485948,444.123565,9844.739029
4161.136581,-153.219100,370.102971,8882.471304
4161.136896,919.314598,-0.000000,9474.636058
4161.137212,1838.629195,-74.020594,8586.388927
4161.137527,1455.581446,-222.061783,9178.553681
4161.137842,383.047749,222.061783,9696.697840
4161.138157,229.828649,740.205942,9770.718434
4161.138473,0.000000,1184.329507,9696.697840
4161.138788,612.876398,1110.308913,9474.636058
4161.139103,1149.143247,-0.000000,9992.780217
4161.139419,995.924147,-222.061783,9474.636058
4161.139734,766.095498,-444.123565,9844.739029
4161.140049,383.047749,222.061783,10066.800811
4161.140365,0.000000,740.205942,9918.759623
4161.140680,-306.438199,1036.288319,9696.697840
4161.140995,383.047749,592.164754,9844.739029
4161.141310,1532.190996,296.082377,9400.615463
4161.141626,1532.190996,-0.000000,9030.512492
4161.141941,689.485948,-0.000000,9770.718434
4161.142256,0.000000,888.247130,10140.821405
4161.142572,-306.438199,962.267725,10436.903782
4161.142887,0.000000,888.247130,9548.656652
4161.143202,536.266849,-0.000000,9622.677246
4161.143518,1149.143247,-0.000000,9696.697840
4161.143833,76.609550,-370.102971,9696.697840
4161.144148,-229.828649,-444.123565,10066.800811
4161.144463,-919.314598,-74.020594,10288.862594
4161.144779,-842.705048,296.082377,9844.739029
4161.145094,-459.657299,296.082377,9844.739029
4161.145409,76.609550,-0.000000,9548.656652
4161.145725,766.095498,-222.061783,9178.553681
4161.146040,383.047749,-444.123565,9104.533087
4161.146355,76.609550,-148.041188,9548.656652
4161.146671,-766.095498,-0.000000,9474.636058
4161.146986,-995.924147,666.185348,9252.574275
4161.147301,76.609550,-148.041188,9104.533087
4161.147617,536.266849,-740.205942,9030.512492
4161.147932,306.438199,-592.164754,9104.533087
4161.148247,-383.047749,-518.144159,9326.594869
4161.148562,-1072.533697,-592.164754,9918.759623
4161.148878,-1225.752797,148.041188,9844.739029
4161.149193,-995.924147,-74.020594,9918.759623
4161.149508,0.000000,-0.000000,9178.553681
4161.149824,459.657299,-518.144159,9326.594869
4161.150139,383.047749,-0.000000,9326.594869
4161.150454,153.219100,-148.041188,9548.656652
4161.150770,-153.219100,592.164754,9400.615463
4161.151085,-383.047749,888.247130,9918.759623
4161.151400,0.000000,962.267725,9326.594869
4161.151715,995.924147,666.185348,9104.533087
4161.152031,842.705048,-0.000000,8660.409521
4161.152346,306.438199,-148.041188,9474.636058
4161.152661,-306.438199,-0.000000,9844.739029
4161.152977,-995.924147,-0.000000,10732.986159
4161.153292,-1225.752797,592.164754,11029.068536
4161.153607,-383.047749,370.102971,9622.677246
4161.153923,689.485948,-0.000000,9548.656652
4161.154238,1072.533697,-74.020594,9844.739029
4161.154553,536.266849,-0.000000,9844.739029
4161.154868,153.219100,296.082377,9474.636058
4161.155184,229.828649,740.205942,9622.677246
4161.155499,0.000000,1258.350101,9474.636058
4161.155814,612.876398,592.164754,9326.594869
4161.156130,995.924147,296.082377,9030.512492
4161.156445,689.485948,-222.061783,9622.677246
4161.156760,536.266849,-518.144159,10066.800811
4161.157076,-689.485948,-296.082377,10658.965565
4161.157391,-766.095498,518.144159,10584.944971
4161.157706,-689.485948,-0.000000,9918.759623
4161.158021,766.095498,-296.082377,9548.656652
4161.158337,1378.971896,-0.000000,9104.533087
4161.158652,1608.800546,-740.205942,8956.491898
4161.158967,0.000000,444.123565,9252.574275
4161.159283,-459.657299,740.205942,9474.636058
4161.159598,-383.047749,1406.391290,9696.697840
4161.159913,76.609550,814.226536,8734.430116
4161.160229,306.438199,-0.000000,9474.636058
4161.160544,459.657299,-0.000000,9770.718434
4161.160859,689.485948,-0.000000,9178.553681
4161.161174,76.609550,-0.000000,9844.739029
4161.161490,-383.047749,740.205942,10066.800811
4161.161805,-306.438199,592.164754,10510.924376
4161.162120,383.047749,814.226536,9622.677246
4161.162436,1225.752797,592.164754,8956.491898
4161.162751,1455.581446,-0.000000,8956.491898
4161.163066,766.095498,-74.020594,9696.697840
4161.163382,229.828649,370.102971,10214.842000
4161.163697,-766.095498,814.226536,10288.862594
4161.164012,-536.266849,1480.411884,9770.718434
4161.164327,383.047749,592.164754,9178.553681
4161.164643,1378.971896,-296.082377,9178.553681
4161.164958,995.924147,-592.164754,9400.615463
4161.165273,459.657299,-444.123565,9992.780217
4161.165589,76.609550,-0.000000,10140.821405
4161.165904,-306.438199,666.185348,9918.759623
4161.166219,76.609550,444.123565,9252.574275
4161.166535,766.095498,-0.000000,9400.615463
4161.166850,766.095498,-74.020594,9548.656652
4161.167165,459.657299,-518.144159,9770.718434
4161.167480,-612.876398,-0.000000,9548.656652
4161.167796,-766.095498,222.061783,9992.780217
4161.168111,-842.705048,-0.000000,10510.924376
4161.168426,-459.657299,-0.000000,9844.739029
4161.168742,153.219100,-444.123565,9844.739029
4161.169057,766.095498,-666.185348,10066.800811
4161.169372,76.609550,-518.144159,9622.677246
4161.169688,-306.438199,-296.082377,9844.739029
4161.170003,-689.485948,444.123565,9844.739029
4161.170318,-383.047749,814.226536,9104.533087
4161.170634,689.485948,-0.000000,9400.615463
4161.170949,766.095498,-296.082377,8068.244768
4161.171264,383.047749,-666.185348,8290.306550
4161.171579,153.219100,-592.164754,9474.636058
4161.171895,-766.095498,-148.041188,9326.594869
4161.172210,-842.705048,-0.000000,9474.636058
4161.172525,-612.876398,-148.041188,10214.842000
4161.172841,-229.828649,-370.102971,9696.697840
4161.173156,76.609550,-1332.370696,9696.697840
4161.173471,-766.095498,-222.061783,9548.656652
4161.173787,-689.485948,-148.041188,9474.636058
4161.174102,0.000000,-0.000000,9844.739029
4161.174417,-612.876398,962.267725,9918.759623
4161.174732,0.000000,740.205942,9104.533087
4161.175048,842.705048,-148.041188,9400.615463
4161.175363,689.485948,-0.000000,8956.491898
4161.175678,459.657299,-74.020594,9548.656652
4161.175994,-766.095498,148.041188,9622.677246
4161.176309,-1378.971896,444.123565,10140.821405
4161.176624,-1149.143247,296.082377,9770.718434
4161.176940,0.000000,-222.061783,9178.553681
4161.177255,153.219100,-74.020594,8956.491898
4161.177570,0.000000,-444.123565,9918.759623
4161.177885,-536.266849,-370.102971,10066.800811
4161.178201,-459.657299,-0.000000,10140.821405
4161.178516,-842.705048,740.205942,9770.718434
4161.178831,76.609550,1036.288319,9770.718434
4161.179147,766.095498,518.144159,9252.574275
4161.179462,1072.533697,-0.000000,9104.533087
4161.179777,995.924147,-0.000000,9104.533087
4161.180093,459.657299,-518.144159,9696.697840
4161.180408,-383.047749,814.226536,9474.636058
4161.180723,-383.047749,1406.391290,9770.718434
4161.181038,0.000000,740.205942,9474.636058
4161.181354,842.705048,-0.000000,9252.574275
4161.181669,919.314598,-518.144159,9030.512492
4161.181984,536.266849,-148.041188,9918.759623
4161.182300,229.828649,-0.000000,9992.780217
4161.182615,76.609550,740.205942,10140.821405
4161.182930,306.438199,1406.391290,9844.739029
4161.183246,1072.533697,666.185348,9400.615463
4161.183561,1685.410096,222.061783,9474.636058
4161.183876,1072.533697,-0.000000,9252.574275
4161.184191,459.657299,148.041188,9474.636058
4161.184507,689.485948,1110.308913,9622.677246
4161.184822,0.000000,1480.411884,9992.780217
4161.185137,383.047749,962.267725,9400.615463
4161.185453,766.095498,296.082377,9770.718434
4161.185768,995.924147,-0.000000,9474.636058
4161.186083,689.485948,-0.000000,9622.677246
4161.186399,0.000000,-0.000000,10510.924376
4161.186714,-229.828649,740.205942,10362.883188
4161.187029,-153.219100,962.267725,9770.718434
4161.187344,536.266849,888.247130,9474.636058
4161.187660,1149.143247,370.102971,9104.533087
4161.187975,1072.533697,-0.000000,9030.512492
4161.188290,689.485948,-222.061783,9474.636058
4161.188606,0.000000,370.102971,9770.718434
4161.188921,-766.095498,740.205942,9548.656652
4161.189236,-689.485948,888.247130,9696.697840
4161.189552,0.000000,592.164754,9326.594869
4161.189867,459.657299,-296.082377,9474.636058
4161.190182,459.657299,-740.205942,9474.636058
4161.190497,-612.876398,-1184.329507,10066.800811
4161.190813,-459.657299,-296.082377,9992.780217
4161.191128,-842.705048,296.082377,10288.862594
4161.191443,-459.657299,444.123565,9992.780217
4161.191759,229.828649,222.061783,9622.677246
4161.192074,842.705048,-148.041188,9252.574275
4161.192389,612.876398,-74.020594,9252.574275
4161.192705,76.609550,-0.000000,9400.615463
4161.193020,-229.828649,888.247130,9474.636058
4161.193335,-842.705048,666.185348,9474.636058
4161.193651,-612.876398,74.020594,9326.594869
4161.193966,-306.438199,-296.082377,9474.636058
4161.194281,-306.438199,-1406.391290,9474.636058
4161.194596,-459.657299,-1258.350101,10066.800811
4161.194912,-766.095498,-962.267725,10436.903782
4161.195227,-1072.533697,-222.061783,10362.883188
4161.195542,-1532.190996,148.041188,9918.759623
4161.195858,-612.876398,-0.000000,9104.533087
4161.196173,689.485948,-296.082377,8956.491898
4161.196488,1072.533697,-0.000000,8364.327145
4161.196804,76.609550,222.061783,8734.430116
4161.197119,0.000000,370.102971,9178.553681
4161.197434,-766.095498,814.226536,9400.615463
4161.197749,-995.924147,888.247130,9326.594869
4161.198065,229.828649,-74.020594,9474.636058
4161.198380,459.657299,-444.123565,9474.636058
4161.198695,0.000000,-814.226536,9474.636058
4161.199011,-383.047749,-1406.391290,10658.965565
4161.199326,-919.314598,-0.000000,10584.944971
4161.199641,-919.314598,592.164754,9622.677246
4161.199957,0.000000,740.205942,9400.615463
4161.200272,1072.533697,296.082377,9474.636058
4161.200587,1685.410096,296.082377,8808.450710
4161.200902,1532.190996,-0.000000,8882.471304
4161.201218,842.705048,1110.308913,8808.450710
4161.201533,459.657299,1184.329507,9474.636058
4161.201848,76.609550,1628.453072,8734.430116
4161.202164,612.876398,-0.000000,9918.759623
4161.202479,842.705048,-296.082377,9696.697840
4161.202794,919.314598,-666.185348,9622.677246
4161.203110,612.876398,-592.164754,10362.883188
4161.203425,0.000000,-814.226536,11103.089130
4161.203740,-383.047749,592.164754,10584.944971
4161.204055,76.609550,1258.350101,9918.759623
4161.204371,1378.971896,518.144159,9474.636058
4161.204686,2451.505594,-0.000000,8882.471304
4161.205001,1838.629195,-148.041188,8512.368333
4161.205317,842.705048,222.061783,9696.697840
4161.205632,229.828649,1036.288319,9696.697840
4161.205947,-153.219100,814.226536,10066.800811
4161.206263,306.438199,518.144159,9548.656652
4161.206578,919.314598,-0.000000,9770.718434
4161.206893,766.095498,-666.185348,9918.759623
4161.207208,76.609550,-296.082377,9918.759623
4161.207524,-383.047749,-370.102971,10510.924376
4161.207839,-459.657299,666.185348,10436.903782
4161.208154,-842.705048,592.164754,10214.842000
4161.208470,0.000000,888.247130,9326.594869
4161.208785,995.924147,370.102971,9252.574275
4161.209100,1302.362347,592.164754,9030.512492
4161.209416,842.705048,-0.000000,9030.512492
4161.209731,0.000000,370.102971,9696.697840
4161.210046,-536.266849,1110.308913,9844.739029
4161.210361,-612.876398,740.205942,9104.533087
4161.210677,0.000000,444.123565,8882.471304
4161.210992,842.705048,-296.082377,9030.512492
4161.211307,76.609550,-814.226536,9622.677246
4161.211623,-1225.752797,-444.123565,10362.883188
4161.211938,-1455.581446,-222.061783,10066.800811
4161.212253,-1762.019645,296.082377,10140.821405
4161.212569,-1149.143247,444.123565,9622.677246
4161.212884,153.219100,-74.020594,9548.656652
4161.213199,842.705048,-222.061783,9622.677246
4161.213514,919.314598,-370.102971,9400.615463
4161.213830,459.657299,296.082377,8956.491898
4161.214145,459.657299,444.123565,9400.615463
4161.214460,153.219100,888.247130,9548.656652
4161.214776,383.047749,814.226536,8364.327145
4161.215091,1149.143247,-370.102971,9030.512492
4161.215406,766.095498,-888.247130,8586.388927
4161.215722,-306.438199,-1036.288319,9252.574275
4161.216037,-1302.362347,-1258.350101,10362.883188
4161.216352,-1991.848295,-518.144159,10510.924376
4161.216668,-1762.019645,-370.102971,10288.862594
4161.216983,-612.876398,-222.061783,10066.800811
4161.217298,76.609550,-888.247130,9770.718434
4161.217614,842.705048,-74.020594,9548.656652
4161.217929,0.000000,-370.102971,9992.780217
4161.218244,76.609550,518.144159,9474.636058
4161.218560,383.047749,814.226536,9548.656652
4161.218875,229.828649,1332.370696,9030.512492
4161.219190,459.657299,592.164754,8734.430116
4161.219506,689.485948,-74.020594,8882.471304
4161.219821,383.047749,-740.205942,8956.491898
4161.220136,-383.047749,-888.247130,9400.615463
4161.220452,-842.705048,-518.144159,10362.883188
4161.220767,-1455.581446,148.041188,9992.780217
4161.221082,-689.485948,222.061783,9992.780217
4161.221398,153.219100,-592.164754,9474.636058
4161.221713,1378.971896,-74.020594,9474.636058
4161.222028,383.047749,-0.000000,9178.553681
4161.222344,153.219100,962.267725,9474.636058
4161.222659,76.609550,1628.453072,9770.718434
4161.222974,76.609550,1998.556043,9326.594869
4161.223290,612.876398,1702.473667,9548.656652
4161.223605,1378.971896,666.185348,8734.430116
4161.223920,766.095498,222.061783,9326.594869
4161.224236,229.828649,-0.000000,10214.842000
4161.224551,-536.266849,148.041188,10214.842000
4161.224866,-1455.581446,222.061783,10214.842000
4161.225182,-536.266849,-0.000000,10510.924376
4161.225497,153.219100,-148.041188,10436.903782
4161.225812,919.314598,-444.123565,9326.594869
4161.226128,1149.143247,-518.144159,9474.636058
4161.226443,383.047749,-148.041188,9696.697840
4161.226758,0.000000,1036.288319,9326.594869
4161.227074,0.000000,1406.391290,9030.512492
4161.227389,229.828649,888.247130,9178.553681
4161.227704,1149.143247,148.041188,9548.656652
4161.228020,1302.362347,-0.000000,9400.615463
4161.228335,842.705048,-0.000000,9992.780217
4161.228650,306.438199,-222.061783,10732.986159
4161.228966,-383.047749,296.082377,10214.842000
4161.229281,-536.266849,518.144159,10362.883188
4161.229596,229.828649,444.123565,10807.006753
4161.229912,689.485948,-0.000000,9992.780217
4161.230227,1149.143247,-148.041188,9770.718434
4161.230542,919.314598,-222.061783,9326.594869
4161.230858,612.876398,148.041188,9696.697840
4161.231173,-306.438199,1110.308913,8734.430116
4161.231488,76.609550,444.123565,8660.409521
4161.231804,842.705048,814.226536,9622.677246
4161.232119,919.314598,296.082377,8216.285956
4161.232434,766.095498,-962.267725,9400.615463
4161.232750,229.828649,-888.247130,9696.697840
4161.233065,-919.314598,-0.000000,9548.656652
4161.233380,-1302.362347,-0.000000,9918.759623
4161.233696,-766.095498,444.123565,9400.615463
4161.234011,612.876398,-0.000000,9030.512492
4161.234326,689.485948,-666.185348,9030.512492
4161.234642,153.219100,-296.082377,8956.491898
4161.234957,-306.438199,148.041188,9400.615463
4161.235272,-689.485948,888.247130,9474.636058
4161.235588,-842.705048,1036.288319,9030.512492
4161.235903,-536.266849,-0.000000,9400.615463
4161.236218,153.219100,-296.082377,9548.656652
4161.236534,153.219100,-740.205942,9326.594869
4161.236849,-383.047749,-814.226536,9622.677246
4161.237164,-689.485948,-74.020594,10288.862594
4161.237480,-1149.143247,222.061783,10214.842000
4161.237795,-1072.533697,296.082377,9844.739029
4161.238110,-383.047749,-0.000000,9030.512492
4161.238426,766.095498,-370.102971,9030.512492
4161.238741,919.314598,-444.123565,9252.574275
4161.239056,0.000000,-222.061783,9992.780217
4161.239372,-76.609550,592.164754,10066.800811
4161.239687,-842.705048,592.164754,9696.697840
4161.240002,-536.266849,222.061783,9474.636058
4161.240318,229.828649,-444.123565,9696.697840
4161.240633,536.266849,-518.144159,9918.759623
4161.240948,153.219100,-518.144159,9548.656652
4161.241264,-536.266849,-444.123565,10214.842000
4161.241579,-306.438199,-0.000000,10362.883188
4161.241894,-919.314598,1258.350101,10214.842000
4161.242210,0.000000,962.267725,9992.780217
4161.242525,689.485948,222.061783,9474.636058
4161.242840,1225.752797,-222.061783,9400.615463
4161.243156,919.314598,-74.020594,9474.636058
4161.243471,0.000000,-0.000000,9992.780217
4161.243786,-229.828649,888.247130,9622.677246
4161.244102,0.000000,1258.350101,9400.615463
4161.244417,536.266849,962.267725,9326.594869
4161.244732,1072.533697,518.144159,9252.574275
4161.245048,842.705048,-222.061783,8882.471304
4161.245363,229.828649,-444.123565,9696.697840
4161.245678,76.609550,-0.000000,10066.800811
4161.245994,0.000000,370.102971,10362.883188
4161.246309,306.438199,592.164754,9474.636058
4161.246624,1378.971896,814.226536,9474.636058
4161.246940,1991.848295,1036.288319,9178.553681
4161.247255,2145.067394,-0.000000,8956.491898
4161.247570,1072.533697,296.082377,9252.574275
4161.247886,689.485948,370.102971,10510.924376
4161.248201,0.000000,962.267725,9622.677246
4161.248516,229.828649,222.061783,9696.697840
4161.248832,1149.143247,-0.000000,9400.615463
4161.249147,1378.971896,-592.164754,9400.615463
4161.249462,919.314598,-962.267725,9030.512492
4161.249778,536.266849,-592.164754,9696.697840
4161.250093,-306.438199,148.041188,9918.759623
4161.250408,-459.657299,888.247130,9548.656652
4161.250724,229.828649,370.102971,9622.677246
4161.251039,1302.362347,-222.061783,9548.656652
4161.251354,1455.581446,-888.247130,9548.656652
4161.251670,459.657299,-518.144159,9474.636058
4161.251985,0.000000,-370.102971,10140.821405
4161.252300,-689.485948,1110.308913,9992.780217
4161.252616,0.000000,888.247130,9474.636058
4161.252931,306.438199,592.164754,9474.636058
4161.253246,536.266849,-0.000000,9178.553681
4161.253562,306.438199,-444.123565,9326.594869
4161.253877,-459.657299,-814.226536,10066.800811
4161.254192,-1302.362347,-222.061783,9844.739029
4161.254508,-1532.190996,-0.000000,9992.780217
4161.254823,-1455.581446,148.041188,9770.718434
4161.255138,153.219100,-222.061783,9252.574275
4161.255454,459.657299,-222.061783,9178.553681
4161.255769,0.000000,-222.061783,9104.533087
4161.256084,-919.314598,-148.041188,9622.677246
4161.256400,-1072.533697,888.247130,9474.636058
4161.256715,-995.924147,1406.391290,9252.574275
4161.257030,-383.047749,1036.288319,8660.409521
4161.257346,0.000000,370.102971,8438.347739
4161.257661,306.438199,-74.020594,8660.409521
4161.257976,-766.095498,-0.000000,9548.656652
4161.258292,-1225.752797,-0.000000,9918.759623
4161.258607,-1838.629195,518.144159,9992.780217
4161.258922,-1455.581446,-0.000000,9622.677246
4161.259238,-842.705048,-148.041188,9696.697840
4161.259553,153.219100,-370.102971,9400.615463
4161.259868,536.266849,-444.123565,9104.533087
4161.260184,153.219100,-222.061783,9696.697840
4161.260499,0.000000,666.185348,9696.697840
4161.260814,-459.657299,962.267725,9548.656652
4161.261130,-383.047749,962.267725,9474.636058
4161.261445,612.876398,-0.000000,9400.615463
4161.261760,1072.533697,-296.082377,9178.553681
4161.262076,1149.143247,-888.247130,9770.718434
4161.262391,229.828649,-888.247130,10066.800811
4161.262706,-153.219100,-0.000000,10658.965565
4161.263022,-612.876398,296.082377,10140.821405
4161.263337,0.000000,148.041188,10214.842000
4161.263652,1302.362347,222.061783,9548.656652
4161.263968,2068.457845,-0.000000,9548.656652
4161.264283,1608.800546,74.020594,9326.594869
4161.264598,459.657299,518.144159,9622.677246
4161.264913,0.000000,1258.350101,9992.780217
4161.265229,153.219100,1480.411884,9252.574275
4161.265544,612.876398,740.205942,9474.636058
4161.265859,1378.971896,-0.000000,9474.636058
4161.266175,919.314598,-0.000000,9548.656652
4161.266490,153.219100,-0.000000,10436.903782
4161.266805,-306.438199,222.061783,10436.903782
4161.267121,-766.095498,740.205942,10362.883188
4161.267436,0.000000,888.247130,9844.739029
4161.267751,612.876398,296.082377,9178.553681
4161.268067,1302.362347,-0.000000,8956.491898
4161.268382,1225.752797,148.041188,9030.512492
4161.268697,459.657299,444.123565,9326.594869
4161.269013,229.828649,444.123565,9548.656652
4161.269328,-536.266849,1406.391290,9326.594869
4161.269643,-383.047749,888.247130,8808.450710
4161.269959,306.438199,-0.000000,9622.677246
4161.270274,842.705048,-444.123565,9622.677246
4161.270589,76.609550,-1110.308913,10066.800811
4161.270905,-842.705048,-814.226536,10436.903782
4161.271220,-1455.581446,-74.020594,10584.944971
4161.271535,-1225.752797,962.267725,9918.759623
4161.271851,-459.657299,666.185348,9252.574275
4161.272166,919.314598,296.082377,9178.553681
4161.272481,1072.533697,-74.020594,8660.409521
4161.272797,229.828649,-222.061783,9326.594869
4161.273112,-612.876398,444.123565,9326.594869
4161.273427,-1149.143247,740.205942,9474.636058
4161.273743,-689.485948,592.164754,9918.759623
4161.274058,-383.047749,-370.102971,9400.615463
4161.274373,153.219100,-592.164754,9696.697840
4161.274689,-383.047749,-962.267725,9622.677246
4161.275004,-766.095498,-1110.308913,10436.903782
4161.275319,-995.924147,-0.000000,10584.944971
4161.275635,-1455.581446,444.123565,10214.842000
4161.275950,-842.705048,518.144159,9548.656652
4161.276265,76.609550,-0.000000,9474.636058
4161.276581,1225.752797,-74.020594,8808.450710
4161.276896,1072.533697,-74.020594,9400.615463
4161.277211,76.609550,888.247130,8956.491898
4161.277527,-612.876398,962.267725,9844.739029
4161.277842,-459.657299,1702.473667,9474.636058
4161.278157,536.266849,-0.000000,9252.574275
4161.278473,995.924147,-814.226536,8808.450710
4161.278788,842.705048,-1184.329507,9474.636058
4161.279103,306.438199,-1332.370696,9622.677246
4161.279419,-459.657299,-666.185348,9844.739029
4161.279734,-306.438199,370.102971,10066.800811
4161.280049,-536.266849,296.082377,9548.656652
4161.280365,229.828649,-0.000000,8364.327145
4161.280680,1378.971896,-74.020594,8586.388927
4161.280995,1608.800546,-148.041188,8660.409521
4161.281311,842.705048,222.061783,9548.656652
4161.281626,0.000000,1110.308913,9474.636058
4161.281941,-459.657299,888.247130,10288.862594
4161.282257,-153.219100,592.164754,9918.759623
4161.282572,459.657299,148.041188,9474.636058
4161.282887,842.705048,-518.144159,9326.594869
4161.283203,306.438199,-518.144159,9474.636058
4161.283518,-459.657299,-74.020594,10658.965565
4161.283833,-995.924147,740.205942,10066.800811
4161.284149,-995.924147,518.144159,9696.697840
4161.284464,0.000000,-814.226536,9622.677246
4161.284779,612.876398,-518.144159,9844.739029
4161.285095,1225.752797,-518.144159,9030.512492
4161.285410,689.485948,-592.164754,9474.636058
4161.285725,0.000000,444.123565,9844.739029
4161.286041,-306.438199,518.144159,9548.656652
4161.286356,0.000000,1406.391290,9548.656652
4161.286671,383.047749,518.144159,9622.677246
4161.286987,995.924147,222.061783,9474.636058
4161.287302,1072.533697,-370.102971,9622.677246
4161.287617,612.876398,-370.102971,10288.862594
4161.287933,0.000000,-0.000000,10436.903782
4161.288248,-536.266849,888.247130,10214.842000
4161.288563,0.000000,814.226536,9992.780217
4161.288879,1225.752797,814.226536,9400.615463
4161.289194,1608.800546,296.082377,9104.533087
4161.289509,536.266849,148.041188,8734.430116
4161.289825,536.266849,-0.000000,9622.677246
4161.290140,-153.219100,518.144159,9696.697840
4161.290455,-689.485948,814.226536,9104.533087
4161.290771,-229.828649,1036.288319,9326.594869
4161.291086,536.266849,-148.041188,9030.512492
4161.291401,536.266849,-592.164754,8808.450710
4161.291717,0.000000,-814.226536,9400.615463
4161.292032,-842.705048,-370.102971,9696.697840
4161.292347,-1608.800546,-0.000000,9992.780217
4161.292663,-995.924147,814.226536,9992.780217
4161.292978,-229.828649,518.144159,9326.594869
4161.293293,689.485948,-148.041188,9474.636058
4161.293609,919.314598,-296.082377,9030.512492
4161.293924,459.657299,-0.000000,9252.574275
4161.294239,76.609550,962.267725,9548.656652
4161.294555,-995.924147,1702.473667,9622.677246
4161.294870,-383.047749,1184.329507,9622.677246
4161.295185,153.219100,-0.000000,9622.677246
4161.295501,1225.752797,-814.226536,10066.800811
4161.295816,153.219100,-962.267725,9918.759623
4161.296131,-612.876398,-814.226536,10510.924376
4161.296447,-766.095498,-0.000000,10584.944971
4161.296762,-766.095498,518.144159,10362.883188
4161.297077,76.609550,444.123565,9696.697840
4161.297393,842.705048,-0.000000,9178.553681
4161.297708,1378.971896,-444.123565,9104.533087
4161.298023,1072.533697,-370.102971,9326.594869
4161.298339,306.438199,518.144159,9474.636058
4161.298654,0.000000,740.205942,9474.636058
4161.298969,0.000000,962.267725,9178.553681
4161.299285,153.219100,222.061783,9326.594869
4161.299600,689.485948,-740.205942,10214.842000
4161.299915,383.047749,-814.226536,9770.718434
4161.300231,0.000000,-1110.308913,9992.780217
4161.300546,-766.095498,-592.164754,10955.047942
4161.300861,-229.828649,-0.000000,10362.883188
4161.301177,-536.266849,296.082377,9474.636058
4161.301492,536.266849,-74.020594,9178.553681
4161.301807,1685.410096,-222.061783,9400.615463
4161.302123,1302.362347,-370.102971,8956.491898
4161.302438,842.705048,592.164754,8586.388927
4161.302753,0.000000,740.205942,8438.347739
4161.303069,-612.876398,1036.288319,9326.594869
4161.303384,0.000000,-0.000000,9326.594869
4161.303699,459.657299,-666.185348,8956.491898
4161.304015,0.000000,-888.247130,9548.656652
4161.304330,-153.219100,-1184.329507,9770.718434
4161.304645,-612.876398,-148.041188,10510.924376
4161.304961,-459.657299,296.082377,10362.883188
4161.305276,-919.314598,740.205942,10288.862594
4161.305591,-459.657299,222.061783,9844.739029
4161.305907,995.924147,222.061783,9474.636058
4161.306222,1532.190996,-0.000000,8586.388927
4161.306537,459.657299,370.102971,9178.553681
4161.306853,0.000000,962.267725,9252.574275
4161.307168,-306.438199,1332.370696,9326.594869
4161.307483,-153.219100,888.247130,9178.553681
4161.307799,153.219100,-74.020594,9696.697840
4161.308114,766.095498,-666.185348,10214.842000
4161.308429,536.266849,-1036.288319,9918.759623
4161.308745,306.438199,-1036.288319,10362.883188
4161.309060,536.266849,-444.123565,11103.089130
4161.309375,919.314598,-296.082377,10362.883188
4161.309691,1378.971896,296.082377,9474.636058
4161.310006,2221.676944,222.061783,9030.512492
4161.310321,3217.601092,-0.000000,8660.409521
4161.310637,2757.943793,222.061783,8364.327145
4161.310952,1762.019645,-0.000000,9030.512492
4161.311267,995.924147,-0.000000,9474.636058
4161.311583,766.095498,-222.061783,9770.718434
4161.311898,689.485948,-888.247130,10066.800811
4161.312213,1302.362347,-1628.453072,10362.883188
4161.312529,1378.971896,-2442.679609,10362.883188
4161.312844,1225.752797,-2294.638420,10510.924376
4161.313159,766.095498,-1406.391290,10214.842000
4161.313475,1149.143247,-962.267725,10658.965565
4161.313790,1685.410096,-222.061783,9474.636058
4161.314105,2221.676944,-296.082377,9622.677246
4161.314421,2834.553343,-592.164754,8882.471304
4161.314736,3064.381992,-1258.350101,8734.430116
4161.315051,3064.381992,-1184.329507,8364.327145
4161.315367,2451.505594,-1110.308913,9326.594869
4161.315682,2451.505594,-1184.329507,9474.636058
4161.315997,2221.676944,-1110.308913,10362.883188
4161.316313,2221.676944,-1924.535449,10140.821405
4161.316628,2221.676944,-2960.823768,10140.821405
4161.316943,2604.724693,-2886.803174,9918.759623
4161.317259,2451.505594,-2664.741391,9474.636058
4161.317574,2298.286494,-2146.597232,9474.636058
4161.317889,2068.457845,-1258.350101,9030.512492
4161.318205,2221.676944,-1702.473667,9326.594869
4161.318520,2221.676944,-1110.308913,9252.574275
4161.318835,1838.629195,-1776.494261,9400.615463
4161.319151,1915.238745,-2072.576638,9104.533087
4161.319466,1991.848295,-2516.700203,8882.471304
4161.319781,1915.238745,-3108.864956,8956.491898
4161.320096,1838.629195,-2812.782580,8956.491898
4161.320412,1302.362347,-2590.720797,9104.533087
4161.320727,1378.971896,-2812.782580,10288.862594
4161.321042,1072.533697,-1850.514855,9770.718434
4161.321357,995.924147,-1998.556043,10066.800811
4161.321673,459.657299,-2368.659014,9770.718434
4161.321988,995.924147,-2960.823768,9474.636058
4161.322303,1455.581446,-2886.803174,9400.615463
4161.322618,1532.190996,-3034.844362,9474.636058
4161.322934,1685.410096,-2738.761985,9696.697840
4161.323249,1762.019645,-2590.720797,9770.718434
4161.323564,2298.286494,-2516.700203,9770.718434
4161.323880,2451.505594,-2368.659014,10140.821405
4161.324195,2298.286494,-2442.679609,9474.636058
4161.324510,2451.505594,-2812.782580,9030.512492
4161.324825,2451.505594,-3256.906145,9104.533087
4161.325141,2987.772442,-3182.885551,8808.450710
4161.325456,2451.505594,-2294.638420,8290.306550
4161.325771,1991.848295,-1776.494261,8142.265362
4161.326086,1608.800546,-1332.370696,8586.388927
4161.326402,1455.581446,-2072.576638,8808.450710
4161.326717,995.924147,-2590.720797,9548.656652
4161.327032,689.485948,-3552.988522,9918.759623
4161.327347,383.047749,-4293.194464,10288.862594
4161.327663,1455.581446,-3997.112087,10066.800811
4161.327978,2298.286494,-3182.885551,9474.636058
4161.328293,2451.505594,-1776.494261,9252.574275
4161.328608,2451.505594,-666.185348,8438.347739
4161.328924,2221.676944,444.123565,8586.388927
4161.329239,2298.286494,444.123565,8882.471304
4161.329554,2221.676944,-0.000000,9178.553681
4161.329869,1685.410096,-1110.308913,9918.759623
4161.330185,1072.533697,-2442.679609,11177.109724
4161.330500,1915.238745,-3256.906145,11399.171507
4161.330815,2374.896044,-3404.947333,11029.068536
4161.331130,2834.553343,-2886.803174,10807.006753
4161.331446,2987.772442,-1776.494261,10214.842000
4161.331761,2681.334243,-444.123565,9326.594869
4161.332076,2451.505594,296.082377,9252.574275
4161.332391,2528.115143,740.205942,8216.285956
4161.332707,2145.067394,-222.061783,8068.244768
4161.333022,2145.067394,-518.144159,9030.512492
4161.333337,1532.190996,-2664.741391,10288.862594
4161.333652,1762.019645,-3775.050304,11473.192101
4161.333968,2451.505594,-3923.091493,12213.398043
4161.334283,3140.991542,-3478.967927,11843.295072
4161.334598,3447.429741,-1998.556043,10881.027347
4161.334913,4060.306139,-740.205942,10436.903782
4161.335229,4596.572988,-0.000000,9474.636058
4161.335544,4596.572988,1036.288319,7846.182985
4161.335859,4060.306139,1332.370696,7105.977043
4161.336175,2528.115143,962.267725,6513.812290
4161.336490,1608.800546,-888.247130,8142.265362
4161.336805,995.924147,-2590.720797,9474.636058
4161.337120,76.609550,-3849.070898,10881.027347
4161.337436,0.000000,-4441.235652,12065.356855
4161.337751,229.828649,-4737.318029,13101.645173
4161.338066,1915.238745,-5255.462188,13027.624579
4161.338381,3294.210641,-4293.194464,11695.253884
4161.338697,4673.182538,-2442.679609,9696.697840
4161.339012,5362.668486,-296.082377,7846.182985
4161.339327,5592.497135,1628.453072,7179.997637
4161.339642,5286.058936,2294.638420,5107.421000
4161.339958,4060.306139,2368.659014,5181.441594
4161.340273,2604.724693,1258.350101,6143.709319
4161.340588,383.047749,-666.185348,8364.327145
4161.340903,-995.924147,-2812.782580,10362.883188
4161.341219,-1378.971896,-5033.400406,12213.398043
4161.341534,-2068.457845,-6365.771101,12509.480420
4161.341849,-1608.800546,-6735.874072,13841.851115
