#time,accel_x,accel_y,accel_z
4097.305774,-2757.943793,-592.164754,11103.089130
4097.306089,-2068.457845,-740.205942,10658.965565
4097.306404,-2374.896044,-222.061783,10288.862594
4097.306719,-1762.019645,148.041188,9326.594869
4097.307035,-995.924147,592.164754,8660.409521
4097.307350,-383.047749,740.205942,8438.347739
4097.307665,76.609550,296.082377,8438.347739
4097.307980,383.047749,962.267725,8216.285956
4097.308296,459.657299,888.247130,8438.347739
4097.308611,383.047749,666.185348,9104.533087
4097.308926,689.485948,-148.041188,9400.615463
4097.309241,76.609550,-148.041188,9918.759623
4097.309557,-306.438199,-592.164754,9992.780217
4097.309872,-153.219100,-1036.288319,9622.677246
4097.310187,76.609550,-1184.329507,9696.697840
4097.310502,0.000000,-1110.308913,9622.677246
4097.310818,0.000000,-962.267725,9252.574275
4097.311133,0.000000,-888.247130,8660.409521
4097.311448,0.000000,-1110.308913,8586.388927
4097.311763,306.438199,-1332.370696,8438.347739
4097.312079,919.314598,-1036.288319,8660.409521
4097.312394,842.705048,-1258.350101,8808.450710
4097.312709,459.657299,-1406.391290,8660.409521
4097.313024,459.657299,-888.247130,8882.471304
4097.313340,766.095498,-370.102971,8438.347739
4097.313655,766.095498,-296.082377,8882.471304
4097.313970,536.266849,-592.164754,9104.533087
4097.314285,383.047749,-518.144159,9474.636058
4097.314601,0.000000,-296.082377,9400.615463
4097.314916,-383.047749,-296.082377,9548.656652
4097.315231,-1149.143247,-518.144159,9844.739029
4097.315546,-1149.143247,-1110.308913,10214.842000
4097.315862,-1072.533697,-1036.288319,10066.800811
4097.316177,-1072.533697,-814.226536,9992.780217
4097.316492,-1072.533697,-740.205942,9696.697840
4097.316807,-536.266849,-222.061783,9770.718434
4097.317123,-842.705048,-0.000000,9326.594869
4097.317438,-766.095498,222.061783,8956.491898
4097.317753,-536.266849,814.226536,8882.471304
4097.318068,-612.876398,370.102971,9104.533087
4097.318384,0.000000,740.205942,9474.636058
4097.318699,-612.876398,296.082377,9474.636058
4097.319014,-306.438199,222.061783,9992.780217
4097.319329,0.000000,592.164754,9844.739029
4097.319645,153.219100,740.205942,9992.780217
4097.319960,0.000000,1110.308913,10066.800811
4097.320275,536.266849,1258.350101,9400.615463
4097.320590,689.485948,1332.370696,9030.512492
4097.320906,842.705048,1480.411884,8808.450710
4097.321221,459.657299,1628.453072,9030.512492
4097.321536,383.047749,1110.308913,9548.656652
4097.321851,383.047749,888.247130,9696.697840
4097.322167,306.438199,962.267725,9696.697840
4097.322482,76.609550,740.205942,9918.759623
4097.322797,1225.752797,962.267725,9844.739029
4097.323112,383.047749,1110.308913,10066.800811
4097.323428,612.876398,1110.308913,9844.739029
4097.323743,612.876398,1332.370696,9474.636058
4097.324058,766.095498,1554.432478,9326.594869
4097.324373,919.314598,888.247130,9622.677246
4097.324689,76.609550,1332.370696,9992.780217
4097.325004,0.000000,1184.329507,10584.944971
4097.325319,153.219100,1258.350101,10584.944971
4097.325634,0.000000,1036.288319,10510.924376
4097.325950,0.000000,888.247130,10584.944971
4097.326265,383.047749,592.164754,10584.944971
4097.326580,153.219100,592.164754,10214.842000
4097.326895,76.609550,444.123565,9770.718434
4097.327211,76.609550,148.041188,9622.677246
4097.327526,612.876398,74.020594,9844.739029
4097.327841,76.609550,-0.000000,10066.800811
4097.328156,0.000000,-0.000000,9992.780217
4097.328472,383.047749,-0.000000,9844.739029
4097.328787,306.438199,-148.041188,10066.800811
4097.329102,536.266849,-222.061783,9844.739029
4097.329417,229.828649,-0.000000,9474.636058
4097.329733,612.876398,-0.000000,9548.656652
4097.330048,689.485948,296.082377,9030.512492
4097.330363,919.314598,-0.000000,9030.512492
4097.330678,612.876398,-222.061783,9030.512492
4097.330994,766.095498,-370.102971,9178.553681
4097.331309,153.219100,-518.144159,8956.491898
4097.331624,229.828649,-592.164754,8956.491898
4097.331939,0.000000,-666.185348,9548.656652
4097.332255,-459.657299,-666.185348,9622.677246
4097.332570,-383.047749,-888.247130,9104.533087
4097.332885,-306.438199,-888.247130,8956.491898
4097.333200,-459.657299,-740.205942,9104.533087
4097.333516,-229.828649,-296.082377,9400.615463
4097.333831,0.000000,-370.102971,9326.594869
4097.334146,0.000000,-444.123565,9474.636058
4097.334461,0.000000,-666.185348,8882.471304
4097.334777,76.609550,-592.164754,9252.574275
4097.335092,153.219100,-370.102971,9622.677246
4097.335407,0.000000,-296.082377,9696.697840
4097.335722,0.000000,-518.144159,9474.636058
4097.336038,-306.438199,-1036.288319,9474.636058
4097.336353,306.438199,-814.226536,9474.636058
4097.336668,0.000000,-592.164754,9474.636058
4097.336983,153.219100,-370.102971,9474.636058
4097.337299,0.000000,-592.164754,9548.656652
4097.337614,0.000000,-444.123565,9548.656652
4097.337929,0.000000,-592.164754,9474.636058
4097.338244,-229.828649,-592.164754,9622.677246
4097.338560,0.000000,-296.082377,9770.718434
4097.338875,76.609550,-148.041188,9622.677246
4097.339190,0.000000,-74.020594,9696.697840
4097.339505,-153.219100,-444.123565,10214.842000
4097.339821,0.000000,-0.000000,9474.636058
4097.340136,76.609550,148.041188,9474.636058
4097.340451,383.047749,296.082377,9770.718434
4097.340766,153.219100,444.123565,9770.718434
4097.341082,306.438199,-0.000000,9548.656652
4097.341397,153.219100,444.123565,9770.718434
4097.341712,76.609550,444.123565,9770.718434
4097.342027,153.219100,518.144159,9548.656652
4097.342343,229.828649,518.144159,9326.594869
4097.342658,0.000000,592.164754,10214.842000
4097.342973,0.000000,740.205942,9918.759623
4097.343288,0.000000,666.185348,9696.697840
4097.343603,0.000000,592.164754,9770.718434
4097.343919,306.438199,740.205942,9622.677246
4097.344234,153.219100,888.247130,9548.656652
4097.344549,0.000000,1110.308913,10140.821405
4097.344864,0.000000,1036.288319,9992.780217
4097.345180,0.000000,1184.329507,9474.636058
4097.345495,306.438199,962.267725,9622.677246
4097.345810,153.219100,1036.288319,9844.739029
4097.346126,0.000000,1110.308913,9770.718434
4097.346441,0.000000,1184.329507,9844.739029
4097.346756,76.609550,1036.288319,9770.718434
4097.347072,306.438199,962.267725,9770.718434
4097.347387,0.000000,592.164754,9844.739029
4097.347702,153.219100,962.267725,9992.780217
4097.348017,0.000000,740.205942,10362.883188
4097.348333,0.000000,444.123565,9696.697840
4097.348648,-306.438199,-0.000000,10066.800811
4097.348963,-229.828649,222.061783,9696.697840
4097.349279,-459.657299,370.102971,9696.697840
4097.349594,0.000000,222.061783,9622.677246
4097.349909,76.609550,-0.000000,10140.821405
4097.350224,229.828649,-148.041188,9844.739029
4097.350540,0.000000,-0.000000,9474.636058
4097.350855,-153.219100,-0.000000,9400.615463
4097.351170,0.000000,222.061783,9622.677246
4097.351486,76.609550,-0.000000,9474.636058
4097.351801,459.657299,-222.061783,9326.594869
4097.352116,0.000000,-148.041188,9474.636058
4097.352431,153.219100,-222.061783,9474.636058
4097.352747,0.000000,-222.061783,9178.553681
4097.353062,-229.828649,-0.000000,9030.512492
4097.353377,383.047749,-444.123565,9696.697840
4097.353693,229.828649,-296.082377,9252.574275
4097.354008,229.828649,-222.061783,9104.533087
4097.354323,0.000000,-444.123565,9030.512492
4097.354638,229.828649,-148.041188,8882.471304
4097.354954,383.047749,-296.082377,8734.430116
4097.355269,306.438199,-0.000000,9400.615463
4097.355584,229.828649,-0.000000,9252.574275
4097.355900,153.219100,-148.041188,9030.512492
4097.356215,459.657299,-296.082377,8734.430116
4097.356530,76.609550,-444.123565,9474.636058
4097.356845,0.000000,-74.020594,9252.574275
4097.357161,76.609550,-444.123565,9252.574275
4097.357476,76.609550,-444.123565,9178.553681
4097.357791,0.000000,-222.061783,9474.636058
4097.358107,-229.828649,-148.041188,9326.594869
4097.358422,-383.047749,-0.000000,9474.636058
4097.358737,0.000000,-74.020594,9474.636058
4097.359052,76.609550,-370.102971,9400.615463
4097.359368,153.219100,-0.000000,9400.615463
4097.359683,-306.438199,-74.020594,9770.718434
4097.359998,0.000000,-0.000000,9548.656652
4097.360314,-383.047749,-148.041188,9474.636058
4097.360629,0.000000,-148.041188,9622.677246
4097.360944,153.219100,-148.041188,9992.780217
4097.361259,0.000000,-0.000000,9400.615463
4097.361575,0.000000,-0.000000,9474.636058
4097.361890,153.219100,222.061783,9770.718434
4097.362205,76.609550,148.041188,9548.656652
4097.362521,76.609550,148.041188,9770.718434
4097.362836,0.000000,-0.000000,9770.718434
4097.363151,0.000000,296.082377,9918.759623
4097.363466,0.000000,-0.000000,9622.677246
4097.363782,306.438199,740.205942,9844.739029
4097.364097,306.438199,518.144159,10214.842000
4097.364412,153.219100,444.123565,9770.718434
4097.364728,153.219100,370.102971,9844.739029
4097.365043,153.219100,592.164754,9918.759623
4097.365358,612.876398,518.144159,9770.718434
4097.365673,0.000000,444.123565,9844.739029
4097.365989,0.000000,814.226536,9992.780217
4097.366304,0.000000,814.226536,10140.821405
4097.366619,459.657299,888.247130,9696.697840
4097.366935,536.266849,592.164754,9474.636058
4097.367250,383.047749,962.267725,9992.780217
4097.367565,306.438199,962.267725,9992.780217
4097.367880,612.876398,814.226536,9844.739029
4097.368196,76.609550,592.164754,9622.677246
4097.368511,306.438199,666.185348,9770.718434
4097.368826,76.609550,592.164754,9770.718434
4097.369142,153.219100,814.226536,9918.759623
4097.369457,153.219100,888.247130,9992.780217
4097.369772,229.828649,666.185348,9548.656652
4097.370087,612.876398,666.185348,9770.718434
4097.370403,0.000000,370.102971,9622.677246
4097.370718,76.609550,518.144159,9696.697840
4097.371033,0.000000,444.123565,9918.759623
4097.371349,536.266849,296.082377,9770.718434
4097.371664,306.438199,148.041188,9992.780217
4097.371979,0.000000,370.102971,9474.636058
4097.372294,-153.219100,-0.000000,9696.697840
4097.372610,0.000000,222.061783,9770.718434
4097.372925,306.438199,-74.020594,9548.656652
4097.373240,76.609550,-148.041188,9548.656652
4097.373556,0.000000,-148.041188,9548.656652
4097.373871,0.000000,-0.000000,9696.697840
4097.374186,229.828649,-0.000000,9474.636058
4097.374501,306.438199,-0.000000,9400.615463
4097.374817,306.438199,-0.000000,9548.656652
4097.375132,-153.219100,-592.164754,9326.594869
4097.375447,0.000000,-370.102971,9400.615463
4097.375763,229.828649,-592.164754,9474.636058
4097.376078,306.438199,-148.041188,9326.594869
4097.376393,229.828649,-74.020594,9326.594869
4097.376708,76.609550,-148.041188,9326.594869
4097.377024,76.609550,-0.000000,9474.636058
4097.377339,383.047749,-222.061783,9104.533087
4097.377654,306.438199,-222.061783,9178.553681
4097.377970,383.047749,-296.082377,9474.636058
4097.378285,0.000000,-74.020594,9548.656652
4097.378600,383.047749,-222.061783,9474.636058
4097.378915,306.438199,-296.082377,9178.553681
4097.379231,306.438199,-370.102971,9252.574275
4097.379546,306.438199,-370.102971,9178.553681
4097.379861,229.828649,-0.000000,9178.553681
4097.380176,76.609550,-74.020594,9844.739029
4097.380492,76.609550,-370.102971,9104.533087
4097.380807,0.000000,-0.000000,9252.574275
4097.381122,0.000000,-148.041188,9474.636058
4097.381438,0.000000,-0.000000,9548.656652
4097.381753,153.219100,-148.041188,9252.574275
4097.382068,76.609550,296.082377,9326.594869
4097.382383,153.219100,-148.041188,9622.677246
4097.382699,0.000000,-148.041188,9400.615463
4097.383014,229.828649,-148.041188,9400.615463
4097.383329,76.609550,-0.000000,9622.677246
4097.383645,153.219100,-0.000000,9400.615463
4097.383960,153.219100,-0.000000,9474.636058
4097.384275,76.609550,-74.020594,9770.718434
4097.384590,0.000000,370.102971,9622.677246
4097.384906,229.828649,222.061783,9474.636058
4097.385221,76.609550,222.061783,9400.615463
4097.385536,153.219100,-0.000000,9622.677246
4097.385852,76.609550,444.123565,9844.739029
4097.386167,0.000000,-0.000000,9548.656652
4097.386482,-229.828649,296.082377,9622.677246
4097.386797,76.609550,444.123565,9696.697840
4097.387113,306.438199,222.061783,9622.677246
4097.387428,0.000000,444.123565,9474.636058
4097.387743,76.609550,444.123565,9622.677246
4097.388059,0.000000,370.102971,9696.697840
4097.388374,383.047749,666.185348,9622.677246
4097.388689,229.828649,296.082377,9844.739029
4097.389004,0.000000,518.144159,9918.759623
4097.389320,0.000000,592.164754,9770.718434
4097.389635,383.047749,592.164754,9918.759623
4097.389950,153.219100,370.102971,10140.821405
4097.390266,153.219100,370.102971,9622.677246
4097.390581,0.000000,444.123565,9770.718434
4097.390896,153.219100,666.185348,9992.780217
4097.391211,229.828649,666.185348,9622.677246
4097.391527,-306.438199,740.205942,9770.718434
4097.391842,0.000000,444.123565,9548.656652
4097.392157,0.000000,518.144159,9548.656652
4097.392473,76.609550,370.102971,9474.636058
4097.392788,76.609550,444.123565,9622.677246
4097.393103,459.657299,222.061783,10214.842000
4097.393418,229.828649,148.041188,9548.656652
4097.393734,0.000000,148.041188,9622.677246
4097.394049,76.609550,370.102971,9918.759623
4097.394364,153.219100,-0.000000,9770.718434
4097.394680,0.000000,-0.000000,9622.677246
4097.394995,0.000000,148.041188,10140.821405
4097.395310,0.000000,-74.020594,9844.739029
4097.395625,229.828649,222.061783,9400.615463
4097.395941,306.438199,296.082377,9548.656652
4097.396256,76.609550,-148.041188,9474.636058
4097.396571,0.000000,-222.061783,9474.636058
4097.396887,0.000000,-0.000000,9474.636058
4097.397202,153.219100,-0.000000,9622.677246
4097.397517,0.000000,-148.041188,9474.636058
4097.397832,0.000000,-148.041188,9696.697840
4097.398148,153.219100,-0.000000,9474.636058
4097.398463,76.609550,-0.000000,9474.636058
4097.398778,306.438199,-0.000000,9474.636058
4097.399094,229.828649,-148.041188,9474.636058
4097.399409,229.828649,-370.102971,9548.656652
4097.399724,0.000000,-0.000000,9548.656652
4097.400039,153.219100,-0.000000,9474.636058
4097.400355,0.000000,-222.061783,9252.574275
4097.400670,76.609550,-0.000000,9548.656652
4097.400985,-229.828649,-222.061783,9474.636058
4097.401301,0.000000,-0.000000,9252.574275
4097.401616,76.609550,148.041188,9622.677246
4097.401931,76.609550,-74.020594,9104.533087
4097.402246,229.828649,-0.000000,9474.636058
4097.402562,0.000000,-0.000000,9474.636058
4097.402877,-229.828649,-74.020594,9474.636058
4097.403192,0.000000,-0.000000,9326.594869
4097.403508,0.000000,-148.041188,9474.636058
4097.403823,0.000000,-148.041188,9770.718434
4097.404138,0.000000,222.061783,9326.594869
4097.404453,306.438199,-0.000000,9474.636058
4097.404769,229.828649,-0.000000,9474.636058
4097.405084,229.828649,-0.000000,9622.677246
4097.405399,153.219100,-0.000000,9696.697840
4097.405715,153.219100,222.061783,9696.697840
4097.406030,76.609550,-0.000000,9548.656652
4097.406345,153.219100,-0.000000,9696.697840
4097.406660,153.219100,-0.000000,9400.615463
4097.406976,76.609550,-0.000000,9770.718434
4097.407291,0.000000,-0.000000,9918.759623
4097.407606,153.219100,-0.000000,9622.677246
4097.407922,76.609550,222.061783,9622.677246
4097.408237,0.000000,296.082377,9548.656652
4097.408552,-383.047749,-0.000000,9696.697840
4097.408867,306.438199,518.144159,9770.718434
4097.409183,0.000000,740.205942,9770.718434
4097.409498,383.047749,518.144159,9622.677246
4097.409813,76.609550,444.123565,9474.636058
4097.410129,459.657299,666.185348,9992.780217
4097.410444,0.000000,296.082377,9548.656652
4097.410759,0.000000,592.164754,10066.800811
4097.411074,0.000000,518.144159,9844.739029
4097.411390,76.609550,518.144159,9548.656652
4097.411705,-459.657299,666.185348,9844.739029
4097.412020,0.000000,666.185348,9770.718434
4097.412336,0.000000,592.164754,9622.677246
4097.412651,229.828649,518.144159,9400.615463
4097.412966,76.609550,592.164754,9548.656652
4097.413281,76.609550,-74.020594,9918.759623
4097.413597,-306.438199,444.123565,9696.697840
4097.413912,-229.828649,666.185348,9844.739029
4097.414227,153.219100,296.082377,9696.697840
4097.414543,306.438199,518.144159,9696.697840
4097.414858,383.047749,370.102971,10066.800811
4097.415173,76.609550,370.102971,9622.677246
4097.415488,153.219100,296.082377,9548.656652
4097.415804,0.000000,444.123565,9622.677246
4097.416119,0.000000,-0.000000,9622.677246
4097.416434,383.047749,222.061783,9992.780217
4097.416750,153.219100,222.061783,9918.759623
4097.417065,383.047749,-0.000000,9696.697840
4097.417380,459.657299,-0.000000,9400.615463
4097.417695,229.828649,-0.000000,9474.636058
4097.418011,0.000000,-0.000000,9400.615463
4097.418326,0.000000,-74.020594,9622.677246
4097.418641,229.828649,-0.000000,9696.697840
4097.418957,229.828649,-0.000000,9474.636058
4097.419272,229.828649,222.061783,9696.697840
4097.419587,536.266849,-0.000000,9474.636058
4097.419902,459.657299,-0.000000,9548.656652
4097.420218,76.609550,-296.082377,9474.636058
4097.420533,153.219100,-370.102971,9622.677246
4097.420848,0.000000,-0.000000,9992.780217
4097.421164,0.000000,-0.000000,9474.636058
4097.421479,0.000000,-0.000000,9622.677246
4097.421794,0.000000,-74.020594,9474.636058
4097.422109,0.000000,-148.041188,9548.656652
4097.422425,306.438199,-74.020594,9770.718434
4097.422740,0.000000,-0.000000,9622.677246
4097.423055,306.438199,-0.000000,9474.636058
4097.423371,306.438199,-74.020594,9104.533087
4097.423686,76.609550,-0.000000,9104.533087
4097.424001,-383.047749,-0.000000,9696.697840
4097.424316,0.000000,-74.020594,9400.615463
4097.424632,306.438199,-0.000000,9474.636058
4097.424947,153.219100,-74.020594,9474.636058
4097.425262,0.000000,-148.041188,9474.636058
4097.425578,153.219100,-0.000000,9252.574275
4097.425893,0.000000,-0.000000,9770.718434
4097.426208,76.609550,-0.000000,9474.636058
4097.426523,153.219100,-0.000000,9548.656652
4097.426839,0.000000,-0.000000,9474.636058
4097.427154,0.000000,222.061783,9770.718434
4097.427469,76.609550,-0.000000,9696.697840
4097.427785,76.609550,-0.000000,9548.656652
4097.428100,306.438199,-0.000000,9400.615463
4097.428415,229.828649,-148.041188,9474.636058
4097.428730,76.609550,-444.123565,9326.594869
4097.429046,0.000000,-0.000000,9400.615463
4097.429361,0.000000,74.020594,9474.636058
4097.429676,153.219100,-0.000000,9992.780217
4097.429992,536.266849,296.082377,9918.759623
4097.430307,0.000000,148.041188,9474.636058
4097.430622,229.828649,222.061783,9696.697840
4097.430937,0.000000,222.061783,9474.636058
4097.431253,306.438199,-0.000000,9918.759623
4097.431568,76.609550,296.082377,9992.780217
4097.431883,0.000000,-0.000000,9844.739029
4097.432199,229.828649,518.144159,9844.739029
4097.432514,76.609550,370.102971,9622.677246
4097.432829,229.828649,370.102971,9474.636058
4097.433144,76.609550,-0.000000,10140.821405
4097.433460,0.000000,370.102971,9844.739029
4097.433775,0.000000,518.144159,9548.656652
4097.434090,153.219100,666.185348,9474.636058
4097.434406,76.609550,518.144159,9474.636058
4097.434721,-612.876398,-0.000000,9622.677246
4097.435036,0.000000,370.102971,9696.697840
4097.435351,153.219100,518.144159,9474.636058
4097.435667,0.000000,296.082377,9252.574275
4097.435982,76.609550,222.061783,9474.636058
4097.436297,76.609550,444.123565,9622.677246
4097.436612,0.000000,-0.000000,9400.615463
4097.436928,76.609550,518.144159,9548.656652
4097.437243,229.828649,444.123565,9326.594869
4097.437558,383.047749,518.144159,9770.718434
4097.437874,0.000000,222.061783,9696.697840
4097.438189,0.000000,222.061783,9770.718434
4097.438504,76.609550,444.123565,9696.697840
4097.438819,153.219100,296.082377,9326.594869
4097.439135,306.438199,-74.020594,9474.636058
4097.439450,0.000000,-74.020594,9770.718434
4097.439765,306.438199,-0.000000,9474.636058
4097.440081,0.000000,-0.000000,9548.656652
4097.440396,0.000000,-74.020594,9696.697840
4097.440711,229.828649,-0.000000,9770.718434
4097.441026,0.000000,444.123565,9696.697840
4097.441342,0.000000,444.123565,9474.636058
4097.441657,459.657299,-0.000000,9770.718434
4097.441972,612.876398,-296.082377,9844.739029
4097.442288,383.047749,-0.000000,9548.656652
4097.442603,0.000000,222.061783,9770.718434
4097.442918,0.000000,-0.000000,9474.636058
4097.443233,0.000000,148.041188,9622.677246
4097.443549,383.047749,-0.000000,9474.636058
4097.443864,0.000000,-0.000000,9992.780217
4097.444179,76.609550,222.061783,9474.636058
4097.444495,-153.219100,296.082377,9178.553681
4097.444810,0.000000,-0.000000,9400.615463
4097.445125,-153.219100,296.082377,9400.615463
4097.445440,76.609550,148.041188,9326.594869
4097.445756,-76.609550,-0.000000,9400.615463
4097.446071,229.828649,-0.000000,9400.615463
4097.446386,0.000000,148.041188,9400.615463
4097.446702,306.438199,222.061783,9252.574275
4097.447017,0.000000,-0.000000,9548.656652
4097.447332,0.000000,-0.000000,9400.615463
4097.447647,0.000000,296.082377,9474.636058
4097.447963,0.000000,-0.000000,9474.636058
4097.448278,-229.828649,-0.000000,9400.615463
4097.448593,383.047749,148.041188,9548.656652
4097.448909,153.219100,-0.000000,9548.656652
4097.449224,229.828649,-0.000000,9474.636058
4097.449539,153.219100,-0.000000,9400.615463
4097.449854,536.266849,-0.000000,9326.594869
4097.450170,306.438199,-0.000000,9474.636058
4097.450485,0.000000,-0.000000,9844.739029
4097.450800,76.609550,-74.020594,9696.697840
4097.451115,383.047749,-0.000000,9622.677246
4097.451430,153.219100,-0.000000,10214.842000
4097.451746,153.219100,148.041188,9474.636058
4097.452061,0.000000,370.102971,9400.615463
4097.452376,306.438199,222.061783,9918.759623
4097.452691,459.657299,-0.000000,9548.656652
4097.453007,153.219100,296.082377,9992.780217
4097.453322,0.000000,296.082377,9844.739029
4097.453637,0.000000,296.082377,9844.739029
4097.453952,76.609550,296.082377,9770.718434
4097.454267,0.000000,444.123565,9548.656652
4097.454583,-842.705048,296.082377,9844.739029
4097.454898,229.828649,148.041188,9844.739029
4097.455213,-229.828649,814.226536,9474.636058
4097.455528,-536.266849,888.247130,9548.656652
4097.455844,-766.095498,444.123565,9844.739029
4097.456159,-919.314598,592.164754,9770.718434
4097.456474,-1149.143247,518.144159,9696.697840
4097.456789,-612.876398,888.247130,9696.697840
4097.457104,-689.485948,666.185348,9548.656652
4097.457420,-689.485948,-0.000000,9622.677246
4097.457735,-306.438199,888.247130,9548.656652
4097.458050,-842.705048,888.247130,9178.553681
4097.458365,-536.266849,962.267725,9178.553681
4097.458681,-689.485948,1258.350101,9030.512492
4097.458996,-306.438199,1628.453072,8512.368333
4097.459311,-919.314598,1628.453072,8808.450710
4097.459626,-1608.800546,1258.350101,8734.430116
4097.459941,-1915.238745,1258.350101,9474.636058
4097.460257,-2221.676944,1036.288319,9252.574275
4097.460572,-2374.896044,666.185348,9548.656652
4097.460887,-2911.162892,518.144159,9844.739029
4097.461202,-2987.772442,814.226536,9844.739029
4097.461518,-2681.334243,1110.308913,10140.821405
4097.461833,-2604.724693,1480.411884,9918.759623
4097.462148,-2451.505594,1702.473667,9918.759623
4097.462463,-1762.019645,2294.638420,9474.636058
4097.462778,-1225.752797,2738.761985,8956.491898
4097.463094,-1149.143247,3108.864956,9474.636058
4097.463409,-1378.971896,2812.782580,9400.615463
4097.463724,-1302.362347,2368.659014,9770.718434
4097.464039,-1608.800546,2368.659014,9548.656652
4097.464355,-1762.019645,2294.638420,9696.697840
4097.464670,-1685.410096,2294.638420,9474.636058
4097.464985,-2068.457845,2220.617826,9622.677246
4097.465300,-2374.896044,2146.597232,9992.780217
4097.465615,-2298.286494,2516.700203,9400.615463
4097.465931,-2451.505594,2738.761985,9178.553681
4097.466246,-2451.505594,2664.741391,9252.574275
4097.466561,-2451.505594,2664.741391,9400.615463
4097.466876,-2451.505594,3552.988522,9622.677246
4097.467192,-2987.772442,3108.864956,9474.636058
4097.467507,-2757.943793,3627.009116,9696.697840
4097.467822,-2374.896044,3701.029710,9622.677246
4097.468137,-2374.896044,3330.926739,9992.780217
4097.468452,-2298.286494,3997.112087,10140.821405
4097.468768,-2298.286494,3923.091493,9918.759623
4097.469083,-2451.505594,3849.070898,9992.780217
4097.469398,-2298.286494,4145.153275,9918.759623
4097.469713,-2298.286494,4663.297435,9844.739029
4097.470029,-2298.286494,4663.297435,9622.677246
4097.470344,-2374.896044,4145.153275,9474.636058
4097.470659,-2451.505594,3997.112087,9696.697840
4097.470974,-2451.505594,3627.009116,9474.636058
4097.471289,-2221.676944,2812.782580,9844.739029
4097.471605,-2374.896044,3182.885551,10955.047942
4097.471920,-2451.505594,2960.823768,10955.047942
4097.472235,-1838.629195,2664.741391,11103.089130
4097.472550,-536.266849,2590.720797,10807.006753
4097.472866,-383.047749,2960.823768,10510.924376
4097.473181,76.609550,3330.926739,9474.636058
4097.473496,459.657299,3701.029710,8956.491898
4097.473811,689.485948,4219.173869,8882.471304
4097.474127,383.047749,4293.194464,8068.244768
4097.474442,-306.438199,3997.112087,8142.265362
4097.474757,-1532.190996,2960.823768,8586.388927
4097.475072,-2681.334243,2368.659014,9326.594869
4097.475387,-3370.820191,1850.514855,10214.842000
4097.475703,-3983.696590,666.185348,11547.212695
4097.476018,-4060.306139,370.102971,11621.233289
4097.476333,-4443.353888,370.102971,11399.171507
4097.476648,-4060.306139,518.144159,11547.212695
4097.476964,-3064.381992,962.267725,11769.274478
4097.477279,-1532.190996,1776.494261,10881.027347
4097.477594,-689.485948,2294.638420,9770.718434
4097.477909,459.657299,2886.803174,9104.533087
4097.478224,1072.533697,3478.967927,8068.244768
4097.478540,1455.581446,3627.009116,7698.141797
4097.478855,766.095498,2664.741391,7698.141797
4097.479170,0.000000,2294.638420,7698.141797
4097.479485,-1378.971896,1480.411884,8068.244768
4097.479801,-2528.115143,370.102971,7772.162391
4097.480116,-3140.991542,-592.164754,8586.388927
4097.480431,-4903.011187,-1332.370696,9252.574275
4097.480746,-5286.058936,-1776.494261,10584.944971
4097.481061,-4903.011187,-1184.329507,9696.697840
4097.481377,-4903.011187,-1036.288319,10510.924376
4097.481692,-4060.306139,-888.247130,10732.986159
4097.482007,-2528.115143,-518.144159,10584.944971
4097.482322,-766.095498,592.164754,10288.862594
4097.482638,459.657299,1628.453072,9548.656652
4097.482953,1302.362347,3034.844362,8808.450710
4097.483268,2068.457845,4367.215058,8216.285956
4097.483583,1915.238745,5107.421000,6957.935855
4097.483898,919.314598,4589.276840,6143.709319
4097.484214,-229.828649,4441.235652,6217.729913
4097.484529,-2221.676944,2738.761985,7105.977043
4097.484844,-3983.696590,-0.000000,8882.471304
4097.485159,-5515.887586,-2368.659014,11769.274478
4097.485475,-6665.030833,-3552.988522,11769.274478
4097.485790,-7201.297681,-4515.256246,13915.871710
4097.486105,-5975.544884,-4219.173869,14878.139434
4097.486420,-3830.477490,-2886.803174,13249.686362
4097.486735,-536.266849,-592.164754,11177.109724
4097.487051,1991.848295,2886.803174,9104.533087
4097.487366,2987.772442,6291.750507,6735.874072
4097.487681,4673.182538,7994.224174,5329.482782
4097.487996,4826.401637,8512.368333,3775.050304
4097.488312,3294.210641,8068.244768,4145.153275
4097.488627,919.314598,6217.729913,6809.894666
4097.488942,-1455.581446,2368.659014,9548.656652
4097.489257,-3677.258390,-2516.700203,12879.583391
4097.489572,-4979.620737,-4737.318029,15618.345376
4097.489888,-4903.011187,-6439.791695,17320.819043
4097.490203,-4903.011187,-6513.812290,16136.489536
4097.490518,-3600.648841,-3478.967927,12657.521608
4097.490833,-1685.410096,-518.144159,11325.150913
4097.491149,1378.971896,3108.864956,8438.347739
4097.491464,3600.648841,6365.771101,4737.318029
4097.491779,4443.353888,9178.553681,2886.803174
4097.492094,3983.696590,9474.636058,2590.720797
4097.492409,2528.115143,6291.750507,5329.482782
4097.492725,1149.143247,2590.720797,8882.471304
4097.493040,-229.828649,-1332.370696,11769.274478
4097.493355,-1455.581446,-4145.153275,14359.995275
4097.493670,-1991.848295,-4885.359217,15692.365970
4097.493986,-1225.752797,-4959.379811,15248.242405
4097.494301,-1378.971896,-3108.864956,12139.377449
4097.494616,-995.924147,-0.000000,10955.047942
4097.494931,459.657299,2664.741391,7624.121203
4097.495246,1608.800546,4737.318029,5255.462188
4097.495562,2451.505594,5403.503377,4515.256246
4097.495877,842.705048,4145.153275,5847.626942
4097.496192,-612.876398,1850.514855,7624.121203
4097.496507,-919.314598,-592.164754,10436.903782
4097.496823,-1149.143247,-2516.700203,12065.356855
4097.497138,-612.876398,-2442.679609,13323.706956
4097.497453,536.266849,-2072.576638,12953.603985
4097.497768,1225.752797,-1924.535449,11769.274478
4097.498083,1532.190996,-74.020594,9918.759623
4097.498399,1225.752797,888.247130,9104.533087
4097.498714,1149.143247,2368.659014,7105.977043
4097.499029,1302.362347,3182.885551,5477.523971
4097.499344,153.219100,2886.803174,5699.585753
4097.499660,-1225.752797,1036.288319,7476.080014
4097.499975,-2298.286494,-962.267725,9030.512492
4097.500290,-2604.724693,-2516.700203,10807.006753
4097.500605,-2374.896044,-2738.761985,11991.336260
4097.500920,-1455.581446,-2664.741391,12583.501014
4097.501236,0.000000,-2072.576638,11917.315666
4097.501551,1302.362347,-1998.556043,11621.233289
4097.501866,1838.629195,-814.226536,10436.903782
4097.502181,2528.115143,74.020594,9548.656652
4097.502497,2757.943793,2220.617826,7846.182985
4097.502812,2911.162892,2738.761985,6587.832884
4097.503127,2298.286494,2294.638420,5255.462188
4097.503442,1225.752797,1406.391290,6217.729913
4097.503757,76.609550,592.164754,7105.977043
4097.504073,-842.705048,-1184.329507,8808.450710
4097.504388,-1225.752797,-2886.803174,10584.944971
4097.504703,-1762.019645,-3108.864956,11991.336260
4097.505018,-1685.410096,-3256.906145,12879.583391
4097.505334,-1685.410096,-3701.029710,13619.789333
4097.505649,-842.705048,-3256.906145,13397.727550
4097.505964,612.876398,-2368.659014,12065.356855
4097.506279,1455.581446,-370.102971,9770.718434
4097.506594,2834.553343,1998.556043,7624.121203
4097.506910,3217.601092,3701.029710,5847.626942
4097.507225,3370.820191,4737.318029,4811.338623
4097.507540,2451.505594,4219.173869,5477.523971
4097.507855,1072.533697,2368.659014,7179.997637
4097.508171,-153.219100,-370.102971,9918.759623
4097.508486,-995.924147,-2664.741391,11621.233289
4097.508801,-2528.115143,-4959.379811,14063.912898
4097.509116,-2528.115143,-6365.771101,15322.262999
4097.509431,-2221.676944,-5773.606348,14211.954086
4097.509747,-995.924147,-3552.988522,12287.418637
4097.510062,153.219100,-592.164754,9400.615463
4097.510377,1685.410096,2590.720797,7476.080014
4097.510692,2298.286494,4885.359217,5107.421000
4097.511008,2145.067394,5551.544565,3849.070898
4097.511323,1455.581446,4293.194464,5403.503377
4097.511638,1149.143247,1998.556043,7402.059420
4097.511953,76.609550,-296.082377,9918.759623
4097.512268,-459.657299,-3034.844362,12139.377449
4097.512584,-995.924147,-3923.091493,13175.665768
4097.512899,-1378.971896,-3478.967927,13101.645173
4097.513214,-612.876398,-2368.659014,12731.542202
4097.513529,76.609550,-740.205942,10807.006753
4097.513845,0.000000,814.226536,8512.368333
4097.514160,-383.047749,2738.761985,6809.894666
4097.514475,-76.609550,3775.050304,5773.606348
4097.514790,-229.828649,2738.761985,6513.812290
4097.515105,-383.047749,1110.308913,7550.100608
4097.515421,-1149.143247,-518.144159,8882.471304
4097.515736,-1149.143247,-1258.350101,10436.903782
4097.516051,-689.485948,-1332.370696,11399.171507
4097.516366,0.000000,-666.185348,11621.233289
4097.516682,153.219100,-222.061783,11547.212695
4097.516997,612.876398,518.144159,11029.068536
4097.517312,0.000000,962.267725,10214.842000
4097.517627,153.219100,1998.556043,9252.574275
4097.517942,76.609550,2590.720797,8364.327145
4097.518258,-229.828649,2590.720797,8216.285956
4097.518573,-766.095498,1702.473667,8290.306550
4097.518888,-1149.143247,962.267725,8882.471304
4097.519203,-766.095498,518.144159,9474.636058
4097.519519,0.000000,-0.000000,10288.862594
4097.519834,0.000000,-0.000000,10658.965565
4097.520149,-459.657299,-0.000000,11177.109724
4097.520464,-229.828649,-0.000000,11325.150913
4097.520780,0.000000,-148.041188,11621.233289
4097.521095,76.609550,222.061783,10955.047942
4097.521410,306.438199,962.267725,9992.780217
4097.521725,536.266849,1776.494261,9326.594869
4097.522040,689.485948,2368.659014,8438.347739
4097.522356,1149.143247,2442.679609,7402.059420
4097.522671,1532.190996,2220.617826,7476.080014
4097.522986,1225.752797,2294.638420,8290.306550
4097.523301,689.485948,1258.350101,9030.512492
4097.523617,-306.438199,592.164754,9918.759623
4097.523932,-842.705048,-222.061783,11325.150913
4097.524247,-1072.533697,-1184.329507,11843.295072
4097.524562,-1455.581446,-2368.659014,13027.624579
4097.524877,-995.924147,-2072.576638,12213.398043
4097.525193,0.000000,-1036.288319,11177.109724
4097.525508,995.924147,592.164754,9104.533087
4097.525823,2068.457845,2072.576638,7772.162391
4097.526138,2987.772442,3256.906145,6587.832884
4097.526454,2834.553343,3182.885551,6809.894666
4097.526769,2068.457845,2220.617826,7105.977043
4097.527084,1455.581446,1110.308913,8290.306550
4097.527399,612.876398,444.123565,9844.739029
4097.527714,-459.657299,-2368.659014,11547.212695
4097.528030,-1225.752797,-3849.070898,12879.583391
4097.528345,-1378.971896,-3997.112087,13027.624579
4097.528660,-612.876398,-3627.009116,11695.253884
4097.528975,153.219100,-1480.411884,9992.780217
4097.529291,689.485948,1184.329507,7920.203579
4097.529606,1225.752797,2294.638420,7328.038826
4097.529921,1302.362347,2886.803174,6513.812290
4097.530236,1149.143247,1480.411884,6883.915261
4097.530551,766.095498,962.267725,7550.100608
4097.530867,0.000000,-814.226536,9474.636058
4097.531182,-1149.143247,-2146.597232,10807.006753
4097.531497,-1149.143247,-3034.844362,12287.418637
4097.531812,-1072.533697,-3330.926739,12065.356855
4097.532128,-459.657299,-2590.720797,11695.253884
4097.532443,-229.828649,-814.226536,10658.965565
4097.532758,0.000000,370.102971,8660.409521
4097.533073,-306.438199,1406.391290,7476.080014
4097.533388,0.000000,1036.288319,7402.059420
4097.533704,0.000000,814.226536,7328.038826
4097.534019,-689.485948,-296.082377,8216.285956
4097.534334,-919.314598,-1184.329507,9030.512492
4097.534649,-612.876398,-1628.453072,9474.636058
4097.534965,-612.876398,-1480.411884,10140.821405
4097.535280,-229.828649,-1628.453072,10362.883188
4097.535595,0.000000,-518.144159,9992.780217
4097.535910,0.000000,-0.000000,9770.718434
4097.536225,-536.266849,370.102971,9326.594869
4097.536541,0.000000,740.205942,8956.491898
4097.536856,76.609550,592.164754,8882.471304
4097.537171,-306.438199,-0.000000,9104.533087
4097.537486,-383.047749,-296.082377,9178.553681
4097.537802,153.219100,-518.144159,8734.430116
4097.538117,459.657299,-0.000000,9030.512492
4097.538432,919.314598,814.226536,9326.594869
4097.538747,842.705048,1258.350101,9474.636058
4097.539062,842.705048,962.267725,9178.553681
4097.539378,76.609550,1332.370696,9622.677246
4097.539693,536.266849,592.164754,10436.903782
4097.540008,0.000000,-0.000000,10658.965565
4097.540323,0.000000,-444.123565,10732.986159
4097.540639,0.000000,-592.164754,10955.047942
4097.540954,153.219100,-666.185348,10140.821405
4097.541269,842.705048,518.144159,9696.697840
4097.541584,1302.362347,1702.473667,9030.512492
4097.541899,1455.581446,2886.803174,8660.409521
4097.542215,1455.581446,3256.906145,8364.327145
4097.542530,766.095498,2664.741391,9326.594869
4097.542845,229.828649,888.247130,10436.903782
4097.543160,0.000000,-444.123565,11325.150913
4097.543476,-689.485948,-1554.432478,12213.398043
4097.543791,-842.705048,-1850.514855,12287.418637
4097.544106,-536.266849,-1036.288319,11621.233289
4097.544421,536.266849,222.061783,10288.862594
4097.544736,1302.362347,1406.391290,9104.533087
4097.545052,2068.457845,3108.864956,8142.265362
4097.545367,1532.190996,3923.091493,7105.977043
4097.545682,1072.533697,3552.988522,7476.080014
4097.545997,919.314598,2294.638420,8882.471304
4097.546313,0.000000,666.185348,9844.739029
4097.546628,-1225.752797,-1184.329507,11251.130318
4097.546943,-1302.362347,-2220.617826,12287.418637
4097.547258,-1455.581446,-1628.453072,12213.398043
4097.547574,-536.266849,-1332.370696,11547.212695
4097.547889,459.657299,-0.000000,10288.862594
4097.548204,766.095498,1998.556043,9178.553681
4097.548519,689.485948,2738.761985,7772.162391
4097.548835,689.485948,2738.761985,7476.080014
4097.549150,1072.533697,2664.741391,7772.162391
4097.549465,229.828649,1258.350101,8438.347739
4097.549780,-689.485948,-148.041188,9326.594869
4097.550096,-689.485948,-1628.453072,10066.800811
4097.550411,-1072.533697,-1628.453072,10807.006753
4097.550726,-766.095498,-1184.329507,10362.883188
4097.551041,-383.047749,-666.185348,10140.821405
4097.551357,-76.609550,-0.000000,9844.739029
4097.551672,0.000000,518.144159,9252.574275
4097.551987,0.000000,962.267725,8364.327145
4097.552303,0.000000,814.226536,8512.368333
4097.552618,-536.266849,444.123565,8882.471304
4097.552933,-612.876398,-370.102971,9474.636058
4097.553248,-995.924147,-1036.288319,9548.656652
4097.553564,-459.657299,-1184.329507,10436.903782
4097.553879,76.609550,-888.247130,9770.718434
4097.554194,459.657299,-222.061783,9252.574275
4097.554509,766.095498,444.123565,9030.512492
4097.554825,459.657299,740.205942,8956.491898
4097.555140,0.000000,444.123565,9178.553681
4097.555455,76.609550,-74.020594,9548.656652
4097.555770,-153.219100,-592.164754,9918.759623
4097.556086,0.000000,-1998.556043,10362.883188
4097.556401,-229.828649,-1924.535449,10214.842000
4097.556716,0.000000,-1480.411884,10214.842000
4097.557031,612.876398,-888.247130,9252.574275
4097.557347,1149.143247,-0.000000,9178.553681
4097.557662,1378.971896,888.247130,8438.347739
4097.557977,1685.410096,1110.308913,8438.347739
4097.558293,1225.752797,370.102971,8808.450710
4097.558608,842.705048,-0.000000,9622.677246
4097.558923,153.219100,-592.164754,10140.821405
4097.559238,0.000000,-2368.659014,10807.006753
4097.559554,0.000000,-2294.638420,11029.068536
4097.559869,153.219100,-2072.576638,10881.027347
4097.560184,842.705048,-740.205942,9770.718434
4097.560499,1378.971896,592.164754,9178.553681
4097.560815,1302.362347,1850.514855,8512.368333
4097.561130,1378.971896,1850.514855,8216.285956
4097.561445,459.657299,1480.411884,8216.285956
4097.561760,306.438199,518.144159,9030.512492
4097.562076,0.000000,-666.185348,10214.842000
4097.562391,-612.876398,-1998.556043,11177.109724
4097.562706,-919.314598,-2368.659014,11547.212695
4097.563021,-536.266849,-1702.473667,10881.027347
4097.563337,229.828649,-814.226536,10066.800811
4097.563652,919.314598,592.164754,9252.574275
4097.563967,689.485948,1850.514855,7994.224174
4097.564283,842.705048,2294.638420,7698.141797
4097.564598,229.828649,1998.556043,7550.100608
4097.564913,153.219100,1184.329507,8068.244768
4097.565228,-919.314598,222.061783,9622.677246
4097.565544,-1455.581446,-1184.329507,10510.924376
4097.565859,-1072.533697,-1702.473667,11029.068536
4097.566174,-842.705048,-1258.350101,11325.150913
4097.566489,0.000000,-222.061783,10288.862594
4097.566805,0.000000,592.164754,9844.739029
4097.567120,612.876398,1924.535449,8956.491898
4097.567435,306.438199,2072.576638,8216.285956
4097.567750,0.000000,2072.576638,7846.182985
4097.568066,153.219100,1776.494261,7994.224174
4097.568381,-306.438199,814.226536,8882.471304
4097.568696,-766.095498,-222.061783,9770.718434
4097.569011,-1225.752797,-1184.329507,10658.965565
4097.569327,-995.924147,-962.267725,10732.986159
4097.569642,-383.047749,-296.082377,11103.089130
4097.569957,76.609550,814.226536,9918.759623
4097.570273,229.828649,1184.329507,8956.491898
4097.570588,306.438199,1628.453072,9178.553681
4097.570903,-229.828649,1628.453072,8882.471304
4097.571218,306.438199,1406.391290,9252.574275
4097.571534,76.609550,1110.308913,9622.677246
4097.571849,-612.876398,-0.000000,10362.883188
4097.572164,0.000000,-222.061783,10658.965565
4097.572479,0.000000,-74.020594,10436.903782
4097.572795,383.047749,518.144159,10510.924376
4097.573110,842.705048,740.205942,9844.739029
4097.573425,1149.143247,1702.473667,9474.636058
4097.573740,689.485948,1554.432478,9030.512492
4097.574056,306.438199,1480.411884,9178.553681
4097.574371,229.828649,814.226536,9918.759623
4097.574686,76.609550,-0.000000,9918.759623
4097.575002,0.000000,-740.205942,10362.883188
4097.575317,-229.828649,-1184.329507,10955.047942
4097.575632,153.219100,-962.267725,10140.821405
4097.575947,689.485948,-74.020594,9474.636058
4097.576263,1378.971896,592.164754,9252.574275
4097.576578,1455.581446,1332.370696,8438.347739
4097.576893,1225.752797,1702.473667,8660.409521
4097.577208,1149.143247,1702.473667,8882.471304
4097.577524,689.485948,740.205942,9474.636058
4097.577839,383.047749,-0.000000,10214.842000
4097.578154,-153.219100,-1924.535449,10807.006753
4097.578469,-459.657299,-1924.535449,10732.986159
4097.578785,0.000000,-1628.453072,10732.986159
4097.579100,306.438199,-888.247130,9622.677246
4097.579415,536.266849,296.082377,9178.553681
4097.579730,689.485948,1702.473667,8216.285956
4097.580046,383.047749,1702.473667,7698.141797
4097.580361,306.438199,1036.288319,8216.285956
4097.580676,0.000000,296.082377,8364.327145
4097.580992,-689.485948,-1036.288319,9326.594869
4097.581307,-1072.533697,-1924.535449,10214.842000
4097.581622,-1302.362347,-2220.617826,11177.109724
4097.581937,-919.314598,-1628.453072,10436.903782
4097.582253,-306.438199,-592.164754,10140.821405
4097.582568,153.219100,444.123565,9178.553681
4097.582883,229.828649,1554.432478,8364.327145
4097.583198,306.438199,2146.597232,7920.203579
4097.583514,0.000000,1332.370696,8364.327145
4097.583829,0.000000,814.226536,8956.491898
4097.584144,-459.657299,-222.061783,9474.636058
4097.584459,-995.924147,-1628.453072,10732.986159
4097.584775,-1378.971896,-2072.576638,11029.068536
4097.585090,-612.876398,-1850.514855,11251.130318
4097.585405,76.609550,-592.164754,10066.800811
4097.585720,919.314598,518.144159,9252.574275
4097.586036,1225.752797,1184.329507,8660.409521
4097.586351,842.705048,1480.411884,7920.203579
4097.586666,1072.533697,1332.370696,8512.368333
4097.586982,153.219100,592.164754,8882.471304
4097.587297,0.000000,-74.020594,9548.656652
4097.587612,-383.047749,-1184.329507,10436.903782
4097.587927,-459.657299,-1480.411884,10658.965565
4097.588243,0.000000,-1332.370696,10807.006753
4097.588558,383.047749,-444.123565,10807.006753
4097.588873,766.095498,444.123565,10214.842000
4097.589188,1072.533697,1554.432478,9326.594869
4097.589504,995.924147,1332.370696,9178.553681
4097.589819,153.219100,1110.308913,8808.450710
4097.590134,1302.362347,1036.288319,9474.636058
4097.590449,612.876398,-0.000000,9844.739029
4097.590765,0.000000,-888.247130,10510.924376
4097.591080,383.047749,-888.247130,10881.027347
4097.591395,536.266849,-518.144159,10436.903782
4097.591710,919.314598,-0.000000,9696.697840
4097.592026,1455.581446,1110.308913,9474.636058
4097.592341,1072.533697,1406.391290,8956.491898
4097.592656,459.657299,1258.350101,8882.471304
4097.592972,306.438199,1110.308913,9326.594869
4097.593287,0.000000,814.226536,9548.656652
4097.593602,0.000000,-0.000000,10066.800811
4097.593917,-459.657299,-592.164754,10881.027347
4097.594233,-536.266849,-888.247130,11251.130318
4097.594548,0.000000,-592.164754,10510.924376
4097.594863,842.705048,-0.000000,9474.636058
4097.595178,766.095498,1258.350101,8956.491898
4097.595494,689.485948,2072.576638,8586.388927
4097.595809,459.657299,2294.638420,8290.306550
4097.596124,229.828649,1480.411884,8660.409521
4097.596439,-459.657299,592.164754,9548.656652
4097.596755,-842.705048,-814.226536,10362.883188
4097.597070,-1072.533697,-1776.494261,10955.047942
4097.597385,-1072.533697,-1850.514855,10955.047942
4097.597701,-612.876398,-1110.308913,10436.903782
4097.598016,459.657299,-74.020594,9474.636058
4097.598331,689.485948,1332.370696,8734.430116
4097.598646,1072.533697,2368.659014,8142.265362
4097.598962,689.485948,2072.576638,7772.162391
4097.599277,153.219100,2072.576638,8438.347739
4097.599592,76.609550,814.226536,8734.430116
4097.599907,-689.485948,-740.205942,9918.759623
4097.600223,-842.705048,-1554.432478,11029.068536
4097.600538,-1225.752797,-1998.556043,11029.068536
4097.600853,-612.876398,-1036.288319,10732.986159
4097.601168,153.219100,-0.000000,10214.842000
4097.601484,536.266849,1036.288319,9252.574275
4097.601799,689.485948,1628.453072,9104.533087
4097.602114,459.657299,2146.597232,7772.162391
4097.602429,459.657299,1554.432478,8216.285956
4097.602745,76.609550,962.267725,9104.533087
4097.603060,-459.657299,-74.020594,9844.739029
4097.603375,-766.095498,-1184.329507,11325.150913
4097.603691,-766.095498,-1480.411884,11103.089130
4097.604006,-383.047749,-1480.411884,10881.027347
4097.604321,76.609550,-740.205942,10584.944971
4097.604636,612.876398,592.164754,9474.636058
4097.604952,1072.533697,1258.350101,8734.430116
4097.605267,536.266849,1332.370696,8586.388927
4097.605582,536.266849,1406.391290,8364.327145
4097.605897,229.828649,296.082377,9178.553681
4097.606213,-229.828649,-444.123565,9770.718434
4097.606528,-459.657299,-1554.432478,10807.006753
4097.606843,-536.266849,-1850.514855,10732.986159
4097.607158,-306.438199,-1332.370696,10584.944971
4097.607474,76.609550,-1184.329507,10288.862594
4097.607789,459.657299,-0.000000,9474.636058
4097.608104,766.095498,740.205942,9252.574275
4097.608419,842.705048,1406.391290,8438.347739
4097.608735,153.219100,1036.288319,8882.471304
4097.609050,0.000000,444.123565,8956.491898
4097.609365,76.609550,-444.123565,9548.656652
4097.609681,-229.828649,-1628.453072,10584.944971
4097.609996,0.000000,-1480.411884,10732.986159
4097.610311,0.000000,-1406.391290,10214.842000
4097.610626,383.047749,-444.123565,9622.677246
4097.610942,612.876398,666.185348,8882.471304
4097.611257,919.314598,1184.329507,8142.265362
4097.611572,766.095498,1332.370696,8290.306550
4097.611887,536.266849,962.267725,8882.471304
4097.612203,0.000000,518.144159,9474.636058
4097.612518,-612.876398,-74.020594,10288.862594
4097.612833,-995.924147,-1110.308913,10436.903782
4097.613148,-766.095498,-1628.453072,10362.883188
4097.613464,-383.047749,-666.185348,10881.027347
4097.613779,229.828649,222.061783,9474.636058
4097.614094,459.657299,1332.370696,8956.491898
4097.614410,919.314598,2146.597232,8290.306550
4097.614725,0.000000,2072.576638,7920.203579
4097.615040,0.000000,1628.453072,8364.327145
4097.615355,-306.438199,814.226536,9474.636058
4097.615671,-842.705048,-148.041188,9992.780217
4097.615986,-842.705048,-1850.514855,10881.027347
4097.616301,-842.705048,-1924.535449,11103.089130
4097.616616,-536.266849,-1258.350101,10140.821405
4097.616932,383.047749,-296.082377,9622.677246
4097.617247,1149.143247,666.185348,8956.491898
4097.617562,1225.752797,2146.597232,7846.182985
4097.617877,842.705048,1702.473667,7994.224174
4097.618193,536.266849,1776.494261,7846.182985
4097.618508,0.000000,888.247130,8956.491898
4097.618823,0.000000,-222.061783,9918.759623
4097.619138,-689.485948,-1702.473667,11177.109724
4097.619454,-842.705048,-1628.453072,11251.130318
4097.619769,0.000000,-1036.288319,10881.027347
4097.620084,689.485948,-0.000000,10362.883188
4097.620400,1225.752797,962.267725,9548.656652
4097.620715,1225.752797,1776.494261,9400.615463
4097.621030,995.924147,2294.638420,8586.388927
4097.621345,153.219100,1628.453072,8660.409521
4097.621661,536.266849,1184.329507,9326.594869
4097.621976,0.000000,-74.020594,10214.842000
4097.622291,-459.657299,-1406.391290,11029.068536
4097.622606,-459.657299,-1332.370696,11177.109724
4097.622922,0.000000,-888.247130,10881.027347
4097.623237,995.924147,-222.061783,10584.944971
4097.623552,1608.800546,1036.288319,9696.697840
4097.623867,1302.362347,1628.453072,8956.491898
4097.624183,919.314598,1850.514855,8734.430116
4097.624498,536.266849,1628.453072,9030.512492
4097.624813,689.485948,1036.288319,9474.636058
4097.625128,0.000000,-0.000000,9992.780217
4097.625444,-459.657299,-1110.308913,10510.924376
4097.625759,-536.266849,-962.267725,10658.965565
4097.626074,-383.047749,-592.164754,10140.821405
4097.626390,383.047749,-74.020594,9696.697840
4097.626705,153.219100,888.247130,9030.512492
4097.627020,153.219100,1480.411884,8956.491898
4097.627335,0.000000,1258.350101,8512.368333
4097.627651,-306.438199,592.164754,9030.512492
4097.627966,-459.657299,-74.020594,9474.636058
4097.628281,-1072.533697,-666.185348,10066.800811
4097.628596,-1149.143247,-1702.473667,10436.903782
4097.628912,-689.485948,-1776.494261,10214.842000
4097.629227,-153.219100,-962.267725,9696.697840
4097.629542,306.438199,-592.164754,9104.533087
4097.629857,766.095498,888.247130,7994.224174
4097.630173,842.705048,1480.411884,8290.306550
4097.630488,76.609550,1628.453072,7994.224174
4097.630803,459.657299,1110.308913,8734.430116
4097.631118,0.000000,-0.000000,9696.697840
4097.631434,-766.095498,-1406.391290,10288.862594
4097.631749,-1225.752797,-2442.679609,10658.965565
4097.632064,-1302.362347,-2368.659014,10732.986159
4097.632380,-459.657299,-1702.473667,10584.944971
4097.632695,459.657299,-148.041188,10066.800811
4097.633010,1072.533697,1406.391290,8512.368333
4097.633325,1072.533697,2146.597232,8142.265362
4097.633641,1302.362347,2146.597232,8142.265362
4097.633956,919.314598,1110.308913,8808.450710
4097.634271,612.876398,148.041188,8734.430116
4097.634586,0.000000,-814.226536,10214.842000
4097.634902,0.000000,-1554.432478,11251.130318
4097.635217,-842.705048,-1628.453072,11325.150913
4097.635532,229.828649,-814.226536,10881.027347
4097.635847,766.095498,-148.041188,10140.821405
4097.636163,1685.410096,1110.308913,9326.594869
4097.636478,1532.190996,1702.473667,8734.430116
4097.636793,1302.362347,2072.576638,8364.327145
4097.637109,612.876398,1480.411884,8734.430116
4097.637424,919.314598,666.185348,9548.656652
4097.637739,612.876398,-444.123565,10066.800811
4097.638054,-229.828649,-1628.453072,10658.965565
4097.638370,0.000000,-1628.453072,10881.027347
4097.638685,612.876398,-1036.288319,10584.944971
4097.639000,612.876398,-74.020594,10362.883188
4097.639315,1302.362347,962.267725,9326.594869
4097.639631,689.485948,1258.350101,8364.327145
4097.639946,459.657299,1406.391290,8438.347739
4097.640261,153.219100,1110.308913,9326.594869
4097.640576,0.000000,-0.000000,9104.533087
4097.640892,-383.047749,-814.226536,10436.903782
4097.641207,-995.924147,-1110.308913,10658.965565
4097.641522,-842.705048,-1258.350101,11103.089130
4097.641837,-229.828649,-666.185348,10288.862594
4097.642153,229.828649,222.061783,10066.800811
4097.642468,229.828649,1184.329507,9326.594869
4097.642783,0.000000,1554.432478,8290.306550
4097.643099,0.000000,1776.494261,8734.430116
4097.643414,-383.047749,1258.350101,9252.574275
4097.643729,-842.705048,370.102971,9548.656652
4097.644044,-995.924147,-740.205942,10510.924376
4097.644360,-1225.752797,-1554.432478,11103.089130
4097.644675,-995.924147,-1332.370696,10584.944971
4097.644990,-689.485948,-666.185348,10066.800811
4097.645305,0.000000,444.123565,9400.615463
4097.645621,306.438199,1480.411884,8882.471304
4097.645936,306.438199,2146.597232,8216.285956
4097.646251,0.000000,1776.494261,8438.347739
4097.646566,-229.828649,1110.308913,8882.471304
4097.646882,-229.828649,222.061783,9474.636058
4097.647197,-1072.533697,-518.144159,10584.944971
4097.647512,-1072.533697,-1036.288319,10807.006753
4097.647827,-995.924147,-1110.308913,10881.027347
4097.648143,76.609550,-740.205942,10140.821405
4097.648458,689.485948,518.144159,9474.636058
4097.648773,842.705048,1776.494261,8586.388927
4097.649089,766.095498,2220.617826,7994.224174
4097.649404,459.657299,2220.617826,7846.182985
4097.649719,383.047749,1110.308913,8660.409521
4097.650034,-229.828649,-0.000000,8956.491898
4097.650350,-766.095498,-1480.411884,10140.821405
4097.650665,-766.095498,-1776.494261,11029.068536
4097.650980,-766.095498,-1628.453072,10881.027347
4097.651295,-153.219100,-592.164754,10066.800811
4097.651611,995.924147,148.041188,9400.615463
4097.651926,1378.971896,1702.473667,8882.471304
4097.652241,1455.581446,1924.535449,8290.306550
4097.652556,1455.581446,1776.494261,8216.285956
4097.652872,1225.752797,1110.308913,8586.388927
4097.653187,1225.752797,814.226536,9252.574275
4097.653502,0.000000,-962.267725,10436.903782
4097.653817,-459.657299,-1554.432478,11177.109724
4097.654133,0.000000,-1332.370696,11103.089130
4097.654448,536.266849,-740.205942,10362.883188
4097.654763,919.314598,-0.000000,10066.800811
4097.655078,1225.752797,1184.329507,9474.636058
4097.655394,919.314598,1776.494261,8734.430116
4097.655709,306.438199,1702.473667,8364.327145
4097.656024,612.876398,296.082377,8882.471304
4097.656339,306.438199,370.102971,9696.697840
4097.656655,0.000000,-962.267725,10436.903782
4097.656970,-689.485948,-1702.473667,10955.047942
4097.657285,-459.657299,-1258.350101,10881.027347
4097.657600,229.828649,-740.205942,10362.883188
4097.657916,612.876398,666.185348,9548.656652
4097.658231,383.047749,1332.370696,9030.512492
4097.658546,229.828649,1628.453072,8364.327145
4097.658861,-153.219100,1554.432478,8512.368333
4097.659177,-229.828649,444.123565,9030.512492
4097.659492,-766.095498,-222.061783,9844.739029
4097.659807,-995.924147,-814.226536,9992.780217
4097.660122,-1302.362347,-1554.432478,10732.986159
4097.660438,-1455.581446,-1554.432478,10436.903782
4097.660753,0.000000,-740.205942,9992.780217
4097.661068,536.266849,-0.000000,9252.574275
4097.661383,383.047749,1332.370696,8586.388927
4097.661699,383.047749,1924.535449,7994.224174
4097.662014,229.828649,1554.432478,7920.203579
4097.662329,306.438199,962.267725,8734.430116
4097.662645,-459.657299,-74.020594,9400.615463
4097.662960,-536.266849,-1184.329507,10288.862594
4097.663275,-612.876398,-1924.535449,10732.986159
4097.663590,-383.047749,-1258.350101,10584.944971
4097.663906,76.609550,-592.164754,9992.780217
4097.664221,383.047749,296.082377,9030.512492
4097.664536,842.705048,1480.411884,8586.388927
4097.664851,1225.752797,1702.473667,8068.244768
4097.665167,766.095498,1480.411884,8216.285956
4097.665482,383.047749,1258.350101,9400.615463
4097.665797,0.000000,518.144159,9696.697840
4097.666112,-536.266849,-888.247130,10658.965565
4097.666428,-383.047749,-1850.514855,11029.068536
4097.666743,-383.047749,-1110.308913,11029.068536
4097.667058,612.876398,-888.247130,10510.924376
4097.667373,995.924147,-0.000000,9844.739029
4097.667689,1302.362347,1258.350101,9104.533087
4097.668004,1455.581446,1776.494261,8438.347739
4097.668319,536.266849,1702.473667,8438.347739
4097.668634,383.047749,962.267725,9030.512492
4097.668950,229.828649,444.123565,9474.636058
4097.669265,-306.438199,-666.185348,10288.862594
4097.669580,-383.047749,-1776.494261,10881.027347
4097.669895,-306.438199,-1776.494261,11177.109724
4097.670211,153.219100,-740.205942,10510.924376
4097.670526,536.266849,518.144159,9918.759623
4097.670841,842.705048,1480.411884,9178.553681
4097.671156,1302.362347,2072.576638,8586.388927
4097.671472,536.266849,2072.576638,8586.388927
4097.671787,306.438199,1332.370696,8808.450710
4097.672102,-459.657299,-0.000000,10066.800811
4097.672417,-919.314598,-888.247130,10881.027347
4097.672733,-995.924147,-1702.473667,11103.089130
4097.673048,-842.705048,-1258.350101,10732.986159
4097.673363,0.000000,-444.123565,10214.842000
4097.673678,383.047749,444.123565,9474.636058
4097.673994,612.876398,1554.432478,8882.471304
4097.674309,229.828649,1776.494261,8438.347739
4097.674624,0.000000,1628.453072,8216.285956
4097.674940,76.609550,1036.288319,8882.471304
4097.675255,-306.438199,296.082377,9326.594869
4097.675570,-459.657299,-962.267725,10584.944971
4097.675885,-612.876398,-1554.432478,10510.924376
4097.676201,-612.876398,-962.267725,10584.944971
4097.676516,76.609550,-0.000000,9992.780217
4097.676831,612.876398,1184.329507,9622.677246
4097.677146,842.705048,1702.473667,8438.347739
4097.677462,842.705048,1924.535449,7920.203579
4097.677777,306.438199,1776.494261,8438.347739
4097.678092,0.000000,888.247130,9030.512492
4097.678407,-612.876398,-74.020594,10066.800811
4097.678723,-689.485948,-1258.350101,11251.130318
4097.679038,-689.485948,-1628.453072,11177.109724
4097.679353,-306.438199,-1332.370696,10658.965565
4097.679668,306.438199,-444.123565,10288.862594
4097.679984,612.876398,592.164754,9252.574275
4097.680299,919.314598,1554.432478,8068.244768
4097.680614,995.924147,2146.597232,8142.265362
4097.680929,612.876398,1924.535449,8290.306550
4097.681245,612.876398,1184.329507,8808.450710
4097.681560,-383.047749,-74.020594,10214.842000
4097.681875,-766.095498,-1702.473667,10510.924376
4097.682190,-919.314598,-2146.597232,11399.171507
4097.682506,-536.266849,-1480.411884,11103.089130
4097.682821,229.828649,-888.247130,10214.842000
4097.683136,612.876398,148.041188,9548.656652
4097.683451,1302.362347,1480.411884,9030.512492
4097.683767,995.924147,1924.535449,8068.244768
4097.684082,919.314598,2072.576638,8512.368333
4097.684397,612.876398,1184.329507,8808.450710
4097.684712,229.828649,-444.123565,9474.636058
4097.685028,459.657299,-1110.308913,10214.842000
4097.685343,0.000000,-1702.473667,10732.986159
4097.685658,-459.657299,-1776.494261,10584.944971
4097.685973,536.266849,-666.185348,10288.862594
4097.686289,612.876398,296.082377,9474.636058
4097.686604,995.924147,1258.350101,8660.409521
4097.686919,919.314598,1628.453072,8438.347739
4097.687234,766.095498,1776.494261,8216.285956
4097.687550,306.438199,1036.288319,9178.553681
4097.687865,76.609550,-0.000000,9548.656652
4097.688180,-229.828649,-814.226536,10362.883188
4097.688496,-995.924147,-1332.370696,11103.089130
4097.688811,-842.705048,-1110.308913,10955.047942
4097.689126,-459.657299,-518.144159,10436.903782
4097.689441,0.000000,370.102971,9770.718434
4097.689757,229.828649,1480.411884,8956.491898
4097.690072,0.000000,1702.473667,8364.327145
4097.690387,-459.657299,1184.329507,9178.553681
4097.690702,-229.828649,518.144159,9400.615463
4097.691018,-1225.752797,-0.000000,9474.636058
4097.691333,-995.924147,-1406.391290,10584.944971
4097.691648,-383.047749,-1184.329507,10658.965565
4097.691963,-536.266849,-814.226536,10362.883188
4097.692279,536.266849,-592.164754,9844.739029
4097.692594,689.485948,888.247130,8956.491898
4097.692909,919.314598,2220.617826,8364.327145
4097.693224,459.657299,1998.556043,7920.203579
4097.693540,76.609550,1554.432478,8586.388927
4097.693855,0.000000,888.247130,9400.615463
4097.694170,-229.828649,-370.102971,10066.800811
4097.694485,-1225.752797,-1628.453072,10732.986159
4097.694801,-995.924147,-1628.453072,11695.253884
4097.695116,-383.047749,-1332.370696,10807.006753
4097.695431,1149.143247,-222.061783,9992.780217
4097.695746,1378.971896,1110.308913,9326.594869
4097.696062,1532.190996,1850.514855,8068.244768
4097.696377,1378.971896,2220.617826,7994.224174
4097.696692,995.924147,2072.576638,8142.265362
4097.697007,919.314598,1332.370696,8882.471304
4097.697323,229.828649,222.061783,9326.594869
4097.697638,306.438199,-1258.350101,10658.965565
4097.697953,0.000000,-1998.556043,11029.068536
4097.698268,0.000000,-1554.432478,10732.986159
4097.698584,689.485948,-666.185348,10658.965565
4097.698899,1072.533697,370.102971,9696.697840
4097.699214,1225.752797,1850.514855,9178.553681
4097.699529,995.924147,1924.535449,8586.388927
4097.699845,689.485948,1776.494261,8290.306550
4097.700160,153.219100,962.267725,9474.636058
4097.700475,-612.876398,-222.061783,10066.800811
4097.700791,-995.924147,-1554.432478,11103.089130
4097.701106,-689.485948,-1554.432478,11103.089130
4097.701421,0.000000,-962.267725,11103.089130
4097.701736,689.485948,-222.061783,9918.759623
4097.702052,1685.410096,666.185348,9622.677246
4097.702367,995.924147,1554.432478,8882.471304
4097.702682,459.657299,1776.494261,8660.409521
4097.702997,229.828649,1332.370696,8512.368333
4097.703313,0.000000,370.102971,8808.450710
4097.703628,-153.219100,-962.267725,9474.636058
4097.703943,-1072.533697,-1924.535449,10362.883188
4097.704258,-1302.362347,-1998.556043,10732.986159
4097.704574,-842.705048,-1480.411884,10214.842000
4097.704889,0.000000,-0.000000,9548.656652
4097.705204,306.438199,1258.350101,8660.409521
4097.705519,689.485948,1628.453072,8438.347739
4097.705835,306.438199,1480.411884,8364.327145
4097.706150,-153.219100,1184.329507,8290.306550
4097.706465,-306.438199,444.123565,9252.574275
4097.706780,-842.705048,-666.185348,9918.759623
4097.707096,-1608.800546,-1554.432478,10510.924376
4097.707411,-1608.800546,-1628.453072,10732.986159
4097.707726,-689.485948,-888.247130,10436.903782
4097.708041,229.828649,-370.102971,9474.636058
4097.708357,612.876398,1258.350101,9104.533087
4097.708672,842.705048,2146.597232,8364.327145
4097.708987,536.266849,1850.514855,7772.162391
4097.709302,459.657299,1332.370696,7994.224174
4097.709618,383.047749,814.226536,9104.533087
4097.709933,229.828649,-444.123565,10140.821405
4097.710248,-153.219100,-1776.494261,10658.965565
4097.710563,-306.438199,-1628.453072,10807.006753
4097.710879,-229.828649,-1036.288319,10584.944971
4097.711194,229.828649,-74.020594,9992.780217
4097.711509,919.314598,962.267725,9474.636058
4097.711824,842.705048,1554.432478,8808.450710
4097.712140,459.657299,1998.556043,8364.327145
4097.712455,306.438199,1628.453072,8734.430116
4097.712770,612.876398,592.164754,9474.636058
4097.713085,153.219100,-296.082377,10288.862594
4097.713401,-459.657299,-1036.288319,11103.089130
4097.713716,-459.657299,-1332.370696,11251.130318
4097.714031,306.438199,-1110.308913,10658.965565
4097.714347,1225.752797,-74.020594,10362.883188
4097.714662,1149.143247,1184.329507,9474.636058
4097.714977,1455.581446,1628.453072,8734.430116
4097.715292,995.924147,2146.597232,8290.306550
4097.715608,306.438199,1332.370696,8586.388927
4097.715923,536.266849,-0.000000,9030.512492
4097.716238,0.000000,-370.102971,9992.780217
4097.716553,-842.705048,-1702.473667,10807.006753
4097.716869,-459.657299,-1628.453072,10881.027347
4097.717184,0.000000,-1110.308913,10288.862594
4097.717499,229.828649,-370.102971,10140.821405
4097.717814,842.705048,666.185348,9548.656652
4097.718130,689.485948,1406.391290,8808.450710
4097.718445,536.266849,1850.514855,8734.430116
4097.718760,306.438199,1702.473667,9030.512492
4097.719075,306.438199,962.267725,9474.636058
4097.719391,-383.047749,-74.020594,9844.739029
4097.719706,-612.876398,-888.247130,10732.986159
4097.720021,-842.705048,-1036.288319,10436.903782
4097.720336,-459.657299,-1184.329507,10510.924376
4097.720652,76.609550,-0.000000,9844.739029
4097.720967,0.000000,518.144159,9178.553681
4097.721282,0.000000,1184.329507,8290.306550
4097.721597,-229.828649,888.247130,8512.368333
4097.721913,0.000000,666.185348,9030.512492
4097.722228,-536.266849,-0.000000,9474.636058
4097.722543,-1225.752797,-370.102971,10288.862594
4097.722858,-1149.143247,-1036.288319,10955.047942
4097.723174,-766.095498,-1480.411884,10510.924376
4097.723489,229.828649,-888.247130,10658.965565
4097.723804,229.828649,296.082377,9696.697840
4097.724119,306.438199,1258.350101,8956.491898
4097.724435,689.485948,2072.576638,8290.306550
4097.724750,0.000000,1924.535449,8586.388927
4097.725065,0.000000,1480.411884,9178.553681
4097.725380,0.000000,518.144159,9622.677246
4097.725696,-1149.143247,-1036.288319,10584.944971
4097.726011,-1302.362347,-2146.597232,10955.047942
4097.726326,-919.314598,-1924.535449,11103.089130
4097.726642,-383.047749,-1480.411884,10288.862594
4097.726957,383.047749,-74.020594,9770.718434
4097.727272,919.314598,1258.350101,8882.471304
4097.727587,1302.362347,1924.535449,7846.182985
4097.727903,1455.581446,1850.514855,7402.059420
4097.728218,1378.971896,1258.350101,8216.285956
4097.728533,383.047749,296.082377,9104.533087
4097.728848,-383.047749,-592.164754,9992.780217
4097.729164,-459.657299,-1628.453072,11251.130318
4097.729479,-459.657299,-1702.473667,11251.130318
4097.729794,383.047749,-1110.308913,10510.924376
4097.730109,1072.533697,-148.041188,10066.800811
4097.730425,1149.143247,962.267725,9474.636058
4097.730740,1225.752797,2146.597232,8660.409521
4097.731055,919.314598,1924.535449,8586.388927
4097.731370,766.095498,1702.473667,9326.594869
4097.731686,229.828649,740.205942,9844.739029
4097.732001,153.219100,-518.144159,10362.883188
4097.732316,-306.438199,-1480.411884,10807.006753
4097.732631,-306.438199,-1702.473667,11473.192101
4097.732947,76.609550,-1184.329507,10732.986159
4097.733262,306.438199,-0.000000,9918.759623
4097.733577,842.705048,1406.391290,9252.574275
4097.733892,306.438199,1776.494261,8734.430116
4097.734208,383.047749,1702.473667,8068.244768
4097.734523,0.000000,814.226536,9178.553681
4097.734838,-536.266849,-148.041188,9474.636058
4097.735153,-1072.533697,-1110.308913,9992.780217
4097.735469,-1149.143247,-1702.473667,10584.944971
4097.735784,-1149.143247,-1332.370696,10584.944971
4097.736099,-459.657299,-1184.329507,10214.842000
4097.736414,76.609550,-0.000000,9622.677246
4097.736730,76.609550,1110.308913,8660.409521
4097.737045,153.219100,2146.597232,8290.306550
4097.737360,-229.828649,1776.494261,7920.203579
4097.737675,0.000000,1184.329507,8512.368333
4097.737991,-612.876398,222.061783,9400.615463
4097.738306,-919.314598,-1036.288319,10214.842000
4097.738621,-919.314598,-1702.473667,10288.862594
4097.738936,-995.924147,-1258.350101,10584.944971
4097.739252,-306.438199,-444.123565,9696.697840
4097.739567,153.219100,370.102971,9252.574275
4097.739882,766.095498,1184.329507,8660.409521
4097.740198,689.485948,1776.494261,8290.306550
4097.740513,459.657299,1628.453072,8068.244768
4097.740828,0.000000,1406.391290,8660.409521
4097.741143,0.000000,1036.288319,9548.656652
4097.741459,-919.314598,-814.226536,9770.718434
4097.741774,-536.266849,-1628.453072,10732.986159
4097.742089,-612.876398,-1628.453072,11325.150913
4097.742404,-306.438199,-592.164754,11029.068536
4097.742720,536.266849,518.144159,9918.759623
4097.743035,919.314598,1850.514855,8734.430116
4097.743350,689.485948,2220.617826,8216.285956
4097.743665,612.876398,1628.453072,8364.327145
4097.743981,306.438199,1332.370696,8956.491898
4097.744296,0.000000,518.144159,9474.636058
4097.744611,76.609550,-1036.288319,10658.965565
4097.744926,-306.438199,-1184.329507,11103.089130
4097.745242,-306.438199,-1480.411884,11325.150913
4097.745557,76.609550,-592.164754,10658.965565
4097.745872,919.314598,-0.000000,10214.842000
4097.746187,1302.362347,1184.329507,9178.553681
4097.746503,1378.971896,1776.494261,8364.327145
4097.746818,842.705048,1776.494261,8586.388927
4097.747133,766.095498,1110.308913,9104.533087
4097.747448,459.657299,-0.000000,9622.677246
4097.747764,0.000000,-1036.288319,10510.924376
4097.748079,-306.438199,-1776.494261,10955.047942
4097.748394,0.000000,-1110.308913,10881.027347
4097.748709,612.876398,-444.123565,10214.842000
4097.749025,1302.362347,-0.000000,9474.636058
4097.749340,1302.362347,1332.370696,8734.430116
4097.749655,995.924147,1554.432478,8364.327145
4097.749971,536.266849,1406.391290,8290.306550
4097.750286,459.657299,1036.288319,8734.430116
4097.750601,0.000000,-0.000000,9622.677246
4097.750917,-229.828649,-740.205942,10288.862594
4097.751232,-919.314598,-1998.556043,10807.006753
4097.751547,-1072.533697,-1480.411884,10584.944971
4097.751863,-229.828649,-740.205942,10362.883188
4097.752178,459.657299,-74.020594,9696.697840
4097.752493,612.876398,1184.329507,8956.491898
4097.752808,306.438199,1702.473667,8512.368333
4097.753124,153.219100,1776.494261,8512.368333
4097.753439,76.609550,1258.350101,8438.347739
4097.753754,0.000000,444.123565,9400.615463
4097.754070,-842.705048,-666.185348,10066.800811
4097.754385,-995.924147,-1628.453072,10584.944971
4097.754700,-1149.143247,-1924.535449,10584.944971
4097.755016,-536.266849,-1184.329507,10362.883188
4097.755331,153.219100,-74.020594,9918.759623
4097.755646,459.657299,888.247130,8660.409521
4097.755962,229.828649,1406.391290,8364.327145
4097.756277,0.000000,1184.329507,8660.409521
4097.756592,0.000000,666.185348,8734.430116
4097.756907,0.000000,-0.000000,9252.574275
4097.757223,-919.314598,-888.247130,10584.944971
4097.757538,-995.924147,-1554.432478,11029.068536
4097.757853,0.000000,-1258.350101,10584.944971
4097.758169,306.438199,-370.102971,9918.759623
4097.758484,689.485948,-0.000000,9326.594869
4097.758799,1225.752797,1480.411884,8734.430116
4097.759115,766.095498,1628.453072,8364.327145
4097.759430,229.828649,1628.453072,8808.450710
4097.759745,0.000000,814.226536,9474.636058
4097.760061,-766.095498,-518.144159,9474.636058
4097.760376,-459.657299,-1480.411884,10362.883188
4097.760691,-536.266849,-1776.494261,11473.192101
4097.761007,-612.876398,-1554.432478,11325.150913
4097.761322,459.657299,-962.267725,10214.842000
4097.761637,1149.143247,370.102971,9770.718434
4097.761952,1838.629195,1554.432478,8882.471304
4097.762268,1302.362347,1702.473667,8364.327145
4097.762583,1378.971896,2072.576638,7994.224174
4097.762898,766.095498,1258.350101,8660.409521
4097.763214,536.266849,-0.000000,9474.636058
4097.763529,-383.047749,-814.226536,10436.903782
4097.763844,-689.485948,-1776.494261,11251.130318
4097.764160,-383.047749,-1554.432478,10881.027347
4097.764475,0.000000,-1480.411884,11251.130318
4097.764790,459.657299,-148.041188,10140.821405
4097.765106,536.266849,814.226536,9474.636058
4097.765421,459.657299,1776.494261,8660.409521
4097.765736,153.219100,1924.535449,8438.347739
4097.766051,229.828649,1184.329507,9104.533087
4097.766367,0.000000,592.164754,9474.636058
4097.766682,-383.047749,-740.205942,10214.842000
4097.766997,-766.095498,-1332.370696,10732.986159
4097.767313,-229.828649,-1110.308913,10807.006753
4097.767628,76.609550,-444.123565,9770.718434
4097.767943,766.095498,222.061783,9474.636058
4097.768259,536.266849,1480.411884,8882.471304
4097.768574,0.000000,1702.473667,7920.203579
4097.768889,536.266849,1332.370696,8068.244768
4097.769205,76.609550,444.123565,9030.512492
4097.769520,-766.095498,-296.082377,9252.574275
4097.769835,-842.705048,-1480.411884,10140.821405
4097.770150,-1302.362347,-1776.494261,10584.944971
4097.770466,-536.266849,-1628.453072,11103.089130
4097.770781,153.219100,-444.123565,9770.718434
4097.771096,536.266849,962.267725,8956.491898
4097.771412,766.095498,1850.514855,8808.450710
4097.771727,536.266849,2368.659014,7994.224174
4097.772042,536.266849,1998.556043,8290.306550
4097.772358,229.828649,1850.514855,9104.533087
4097.772673,-612.876398,-0.000000,10288.862594
4097.772988,-1149.143247,-962.267725,10658.965565
4097.773304,-1225.752797,-1258.350101,10807.006753
4097.773619,-536.266849,-1184.329507,11251.130318
4097.773934,229.828649,-740.205942,10807.006753
4097.774250,536.266849,-0.000000,9770.718434
4097.774565,995.924147,1332.370696,8882.471304
4097.774880,919.314598,2220.617826,8216.285956
4097.775195,842.705048,1850.514855,8438.347739
4097.775511,689.485948,1480.411884,8734.430116
4097.775826,229.828649,-0.000000,9770.718434
4097.776141,-383.047749,-1110.308913,10510.924376
4097.776457,-459.657299,-1702.473667,10807.006753
4097.776772,0.000000,-1554.432478,11029.068536
4097.777087,536.266849,-518.144159,10436.903782
4097.777403,766.095498,-0.000000,9918.759623
4097.777718,919.314598,1480.411884,8882.471304
4097.778033,306.438199,1258.350101,8956.491898
4097.778349,612.876398,1554.432478,8512.368333
4097.778664,919.314598,666.185348,9252.574275
4097.778979,536.266849,-74.020594,9474.636058
4097.779294,153.219100,-888.247130,10510.924376
4097.779610,0.000000,-1184.329507,10510.924376
4097.779925,153.219100,-1036.288319,10732.986159
4097.780240,1302.362347,-888.247130,10140.821405
4097.780556,1608.800546,296.082377,9474.636058
4097.780871,1685.410096,1332.370696,8364.327145
4097.781186,1302.362347,1554.432478,8290.306550
4097.781502,689.485948,1110.308913,8068.244768
4097.781817,459.657299,222.061783,8290.306550
4097.782132,0.000000,-592.164754,9252.574275
4097.782448,-919.314598,-1554.432478,10066.800811
4097.782763,-1225.752797,-2146.597232,10732.986159
4097.783078,-919.314598,-1628.453072,10584.944971
4097.783393,153.219100,-962.267725,10362.883188
4097.783709,229.828649,370.102971,9474.636058
4097.784024,766.095498,1628.453072,8882.471304
4097.784339,153.219100,2072.576638,8364.327145
4097.784655,153.219100,1628.453072,8364.327145
4097.784970,76.609550,1480.411884,9030.512492
4097.785285,-459.657299,370.102971,9548.656652
4097.785601,-919.314598,-1110.308913,10584.944971
4097.785916,-383.047749,-1332.370696,10436.903782
4097.786231,-995.924147,-1406.391290,10510.924376
4097.786547,0.000000,-518.144159,10140.821405
4097.786862,0.000000,-0.000000,9474.636058
4097.787177,0.000000,1702.473667,8734.430116
4097.787493,-229.828649,1702.473667,8438.347739
4097.787808,-306.438199,1554.432478,8586.388927
4097.788123,-306.438199,740.205942,9178.553681
4097.788438,-1072.533697,-222.061783,9918.759623
4097.788754,-995.924147,-1184.329507,10584.944971
4097.789069,-842.705048,-1406.391290,11177.109724
4097.789384,0.000000,-962.267725,10807.006753
4097.789700,459.657299,-222.061783,10436.903782
4097.790015,919.314598,1036.288319,9474.636058
4097.790330,919.314598,2220.617826,8956.491898
4097.790646,612.876398,2294.638420,8364.327145
4097.790961,459.657299,1332.370696,8882.471304
4097.791276,0.000000,666.185348,9400.615463
4097.791592,-766.095498,-592.164754,10362.883188
4097.791907,-842.705048,-2146.597232,11325.150913
4097.792222,-995.924147,-1924.535449,10807.006753
4097.792537,-383.047749,-1628.453072,10658.965565
4097.792853,306.438199,-888.247130,10288.862594
4097.793168,995.924147,296.082377,9326.594869
4097.793483,1762.019645,1406.391290,8586.388927
4097.793799,1378.971896,1924.535449,8068.244768
4097.794114,1072.533697,1924.535449,8142.265362
4097.794429,612.876398,1110.308913,9030.512492
4097.794745,76.609550,-0.000000,9622.677246
4097.795060,383.047749,-1776.494261,10658.965565
4097.795375,-229.828649,-1554.432478,11251.130318
4097.795691,0.000000,-1332.370696,11029.068536
4097.796006,229.828649,-592.164754,10584.944971
4097.796321,459.657299,444.123565,9770.718434
4097.796636,995.924147,1406.391290,8660.409521
4097.796952,842.705048,1776.494261,8364.327145
4097.797267,689.485948,1258.350101,8512.368333
4097.797582,459.657299,888.247130,8586.388927
4097.797898,306.438199,444.123565,9326.594869
4097.798213,0.000000,-1184.329507,10066.800811
4097.798528,0.000000,-1184.329507,9918.759623
4097.798844,0.000000,-1332.370696,9992.780217
4097.799159,306.438199,-370.102971,9770.718434
4097.799474,689.485948,444.123565,9400.615463
4097.799790,229.828649,1702.473667,7846.182985
4097.800105,0.000000,1776.494261,7994.224174
4097.800420,-229.828649,1110.308913,8956.491898
4097.800735,-689.485948,148.041188,9400.615463
4097.801051,-612.876398,-296.082377,9992.780217
4097.801366,-995.924147,-1332.370696,10955.047942
4097.801681,-1378.971896,-1850.514855,10955.047942
4097.801997,-612.876398,-814.226536,10881.027347
4097.802312,0.000000,-0.000000,9992.780217
4097.802627,842.705048,888.247130,9474.636058
4097.802943,1149.143247,2072.576638,8290.306550
4097.803258,459.657299,2220.617826,7550.100608
4097.803573,229.828649,1850.514855,8660.409521
4097.803889,0.000000,740.205942,9400.615463
4097.804204,-689.485948,-518.144159,9992.780217
4097.804519,-766.095498,-1850.514855,10732.986159
4097.804835,-842.705048,-1998.556043,11325.150913
4097.805150,-229.828649,-1332.370696,10658.965565
4097.805465,459.657299,-222.061783,10066.800811
4097.805780,995.924147,1036.288319,9474.636058
4097.806096,1225.752797,1998.556043,8660.409521
4097.806411,919.314598,2442.679609,8068.244768
4097.806726,612.876398,1776.494261,8660.409521
4097.807042,536.266849,814.226536,9400.615463
4097.807357,76.609550,-0.000000,10732.986159
4097.807672,-689.485948,-1036.288319,11103.089130
4097.807988,-842.705048,-1776.494261,11325.150913
4097.808303,-689.485948,-888.247130,10807.006753
4097.808618,153.219100,-222.061783,10362.883188
4097.808934,306.438199,592.164754,9770.718434
4097.809249,842.705048,1480.411884,9104.533087
4097.809564,536.266849,1850.514855,8808.450710
4097.809879,153.219100,888.247130,8956.491898
4097.810195,229.828649,518.144159,9474.636058
4097.810510,153.219100,-148.041188,9918.759623
4097.810825,0.000000,-1184.329507,10066.800811
4097.811141,-229.828649,-1184.329507,10807.006753
4097.811456,-153.219100,-1184.329507,10881.027347
4097.811771,459.657299,-296.082377,9474.636058
4097.812087,689.485948,740.205942,8882.471304
4097.812402,536.266849,1258.350101,8364.327145
4097.812717,153.219100,1554.432478,8290.306550
4097.813033,0.000000,666.185348,8808.450710
4097.813348,0.000000,-592.164754,9548.656652
4097.813663,-153.219100,-1184.329507,9622.677246
4097.813978,-1072.533697,-1776.494261,10288.862594
4097.814294,-766.095498,-1628.453072,10658.965565
4097.814609,-459.657299,-740.205942,10214.842000
4097.814924,995.924147,-0.000000,9326.594869
4097.815240,919.314598,814.226536,8586.388927
4097.815555,1149.143247,1628.453072,7994.224174
4097.815870,766.095498,1850.514855,7846.182985
4097.816186,536.266849,1332.370696,8216.285956
4097.816501,229.828649,740.205942,8660.409521
4097.816816,-306.438199,-370.102971,9696.697840
4097.817132,-842.705048,-1702.473667,10510.924376
4097.817447,-842.705048,-1406.391290,11029.068536
4097.817762,-536.266849,-1036.288319,10362.883188
4097.818078,-383.047749,-888.247130,10066.800811
4097.818393,536.266849,888.247130,9178.553681
4097.818708,306.438199,1628.453072,8364.327145
4097.819023,153.219100,1702.473667,8364.327145
4097.819339,0.000000,1776.494261,8512.368333
4097.819654,229.828649,1184.329507,9548.656652
4097.819969,0.000000,-0.000000,9918.759623
4097.820285,-612.876398,-814.226536,10732.986159
4097.820600,-306.438199,-962.267725,11177.109724
4097.820915,76.609550,-888.247130,10362.883188
4097.821231,766.095498,-0.000000,9918.759623
4097.821546,1225.752797,1184.329507,9326.594869
4097.821861,919.314598,1850.514855,8882.471304
4097.822177,459.657299,2072.576638,8512.368333
4097.822492,842.705048,1406.391290,9030.512492
4097.822807,-229.828649,592.164754,9696.697840
4097.823122,-153.219100,-592.164754,10658.965565
4097.823438,-306.438199,-1406.391290,11473.192101
4097.823753,-766.095498,-1628.453072,11473.192101
4097.824068,229.828649,-1924.535449,11473.192101
4097.824384,1225.752797,-148.041188,10510.924376
4097.824699,1378.971896,962.267725,9400.615463
4097.825014,1608.800546,2146.597232,8808.450710
4097.825330,1225.752797,2368.659014,8290.306550
4097.825645,842.705048,1702.473667,8512.368333
4097.825960,536.266849,740.205942,9030.512492
4097.826276,0.000000,-740.205942,9992.780217
4097.826591,-612.876398,-1480.411884,10807.006753
4097.826906,-919.314598,-1776.494261,11103.089130
4097.827221,-459.657299,-2072.576638,11399.171507
4097.827537,0.000000,-592.164754,10436.903782
4097.827852,153.219100,444.123565,9622.677246
4097.828167,229.828649,1110.308913,8734.430116
4097.828483,612.876398,1554.432478,8512.368333
4097.828798,-842.705048,740.205942,8512.368333
4097.829113,0.000000,814.226536,9178.553681
4097.829429,-1072.533697,-222.061783,9844.739029
4097.829744,-919.314598,-1332.370696,10066.800811
4097.830059,-1302.362347,-1184.329507,9770.718434
4097.830375,0.000000,-962.267725,9844.739029
4097.830690,153.219100,-222.061783,9400.615463
4097.831005,153.219100,962.267725,9178.553681
4097.831321,0.000000,1406.391290,8142.265362
4097.831636,-689.485948,1332.370696,8142.265362
4097.831951,-76.609550,518.144159,8216.285956
4097.832266,-459.657299,-148.041188,8734.430116
4097.832582,-1072.533697,-1110.308913,9918.759623
4097.832897,-1532.190996,-1776.494261,10362.883188
4097.833212,-1378.971896,-1184.329507,10140.821405
4097.833528,0.000000,-592.164754,9474.636058
4097.833843,459.657299,444.123565,9104.533087
4097.834158,766.095498,1480.411884,8364.327145
4097.834474,1072.533697,1850.514855,7920.203579
4097.834789,612.876398,1776.494261,8216.285956
4097.835104,229.828649,1258.350101,8512.368333
4097.835420,-536.266849,222.061783,9770.718434
4097.835735,-842.705048,-1406.391290,10658.965565
4097.836050,-1149.143247,-1406.391290,11399.171507
4097.836365,-536.266849,-1184.329507,11103.089130
4097.836681,612.876398,-740.205942,10288.862594
4097.836996,766.095498,296.082377,9992.780217
4097.837311,1455.581446,2146.597232,9030.512492
4097.837627,1302.362347,2738.761985,8290.306550
4097.837942,1149.143247,2664.741391,8216.285956
4097.838257,1378.971896,2294.638420,8734.430116
4097.838573,842.705048,962.267725,9548.656652
4097.838888,0.000000,-148.041188,11029.068536
4097.839203,-383.047749,-1258.350101,11547.212695
4097.839519,-766.095498,-962.267725,11843.295072
4097.839834,306.438199,-666.185348,11029.068536
4097.840149,766.095498,-148.041188,10955.047942
4097.840464,995.924147,1110.308913,9770.718434
4097.840780,1378.971896,1924.535449,8512.368333
4097.841095,1302.362347,2368.659014,8734.430116
4097.841410,1072.533697,1850.514855,8956.491898
4097.841726,766.095498,740.205942,9918.759623
4097.842041,383.047749,-148.041188,10510.924376
4097.842356,306.438199,-1036.288319,10955.047942
4097.842672,229.828649,-1036.288319,10807.006753
4097.842987,842.705048,-666.185348,10288.862594
4097.843302,995.924147,-222.061783,10362.883188
4097.843618,1302.362347,814.226536,9474.636058
4097.843933,1072.533697,1480.411884,8438.347739
4097.844248,612.876398,1258.350101,8068.244768
4097.844564,76.609550,592.164754,9030.512492
4097.844879,0.000000,296.082377,9474.636058
4097.845194,-919.314598,-888.247130,9992.780217
4097.845509,-919.314598,-1554.432478,10881.027347
4097.845825,-995.924147,-2146.597232,10436.903782
4097.846140,0.000000,-1406.391290,9770.718434
4097.846455,229.828649,-148.041188,9474.636058
4097.846771,689.485948,740.205942,8586.388927
4097.847086,153.219100,1480.411884,7994.224174
4097.847401,153.219100,1184.329507,7994.224174
4097.847717,76.609550,1184.329507,8438.347739
4097.848032,-536.266849,-0.000000,8808.450710
4097.848347,-995.924147,-1184.329507,9696.697840
4097.848663,-1225.752797,-1998.556043,10140.821405
4097.848978,-1225.752797,-2220.617826,10214.842000
4097.849293,-459.657299,-1258.350101,9918.759623
4097.849608,0.000000,-296.082377,9474.636058
4097.849924,0.000000,740.205942,9104.533087
4097.850239,76.609550,1406.391290,8364.327145
4097.850554,0.000000,1406.391290,8290.306550
4097.850869,-459.657299,888.247130,9104.533087
4097.851184,-612.876398,-444.123565,9400.615463
4097.851499,-995.924147,-1184.329507,10288.862594
4097.851815,-689.485948,-1776.494261,10584.944971
4097.852130,-153.219100,-1702.473667,10436.903782
4097.852445,153.219100,-592.164754,9992.780217
4097.852760,995.924147,888.247130,9770.718434
4097.853075,1225.752797,1036.288319,8290.306550
4097.853390,995.924147,1776.494261,7846.182985
4097.853705,689.485948,1258.350101,8142.265362
4097.854021,229.828649,592.164754,9400.615463
4097.854336,-536.266849,-370.102971,10214.842000
4097.854651,-766.095498,-1628.453072,10510.924376
4097.854966,-1225.752797,-2072.576638,11177.109724
4097.855281,-229.828649,-1480.411884,11399.171507
4097.855596,459.657299,-888.247130,10658.965565
4097.855911,1225.752797,370.102971,10214.842000
4097.856227,1455.581446,1110.308913,9326.594869
4097.856542,1378.971896,2220.617826,8586.388927
4097.856857,842.705048,2072.576638,8364.327145
4097.857172,689.485948,1776.494261,9104.533087
4097.857487,459.657299,592.164754,9770.718434
4097.857802,0.000000,-666.185348,10881.027347
4097.858117,-76.609550,-1554.432478,10955.047942
4097.858433,-459.657299,-1406.391290,11325.150913
4097.858748,153.219100,-888.247130,10955.047942
4097.859063,536.266849,-0.000000,10066.800811
4097.859378,919.314598,1036.288319,9326.594869
4097.859693,766.095498,1850.514855,8438.347739
4097.860008,689.485948,1998.556043,8438.347739
4097.860324,612.876398,1406.391290,8586.388927
4097.860639,153.219100,444.123565,9474.636058
4097.860954,-229.828649,-296.082377,10436.903782
4097.861269,-536.266849,-888.247130,10732.986159
4097.861584,-229.828649,-814.226536,10881.027347
4097.861899,153.219100,-74.020594,10214.842000
4097.862214,306.438199,444.123565,9622.677246
4097.862530,459.657299,1406.391290,9400.615463
4097.862845,0.000000,2146.597232,8512.368333
4097.863160,-383.047749,1924.535449,8290.306550
4097.863475,-536.266849,1036.288319,8956.491898
4097.863790,-689.485948,-0.000000,9326.594869
4097.864105,-766.095498,-1332.370696,9918.759623
4097.864420,-1532.190996,-1554.432478,10288.862594
4097.864736,-1072.533697,-1184.329507,10807.006753
4097.865051,-383.047749,-222.061783,9844.739029
4097.865366,306.438199,740.205942,8882.471304
4097.865681,689.485948,1998.556043,8068.244768
4097.865996,459.657299,2294.638420,7772.162391
4097.866311,0.000000,1998.556043,8142.265362
4097.866627,-536.266849,1036.288319,8808.450710
4097.866942,-919.314598,370.102971,9696.697840
4097.867257,-1302.362347,-1184.329507,10510.924376
4097.867572,-1225.752797,-1554.432478,10955.047942
4097.867887,-919.314598,-1332.370696,11177.109724
4097.868202,-306.438199,-444.123565,10584.944971
4097.868517,0.000000,592.164754,10288.862594
4097.868833,919.314598,2368.659014,8808.450710
4097.869148,919.314598,2516.700203,8290.306550
4097.869463,459.657299,2442.679609,8216.285956
4097.869778,306.438199,1554.432478,8808.450710
4097.870093,153.219100,-0.000000,9992.780217
4097.870408,-306.438199,-1406.391290,11029.068536
4097.870723,-536.266849,-1406.391290,11251.130318
4097.871039,-229.828649,-1036.288319,11547.212695
4097.871354,229.828649,-666.185348,10807.006753
4097.871669,842.705048,-222.061783,10584.944971
4097.871984,1685.410096,1406.391290,9178.553681
4097.872299,1072.533697,1776.494261,8808.450710
4097.872614,689.485948,1924.535449,8660.409521
4097.872929,612.876398,1110.308913,8734.430116
4097.873245,842.705048,-0.000000,9844.739029
4097.873560,153.219100,-962.267725,10584.944971
4097.873875,76.609550,-1480.411884,11251.130318
4097.874190,0.000000,-1776.494261,11029.068536
4097.874505,1149.143247,-1110.308913,10658.965565
4097.874820,766.095498,-74.020594,10140.821405
4097.875136,1072.533697,740.205942,9252.574275
4097.875451,842.705048,1332.370696,8808.450710
4097.875766,536.266849,1184.329507,8290.306550
4097.876081,153.219100,-0.000000,8808.450710
4097.876396,76.609550,-592.164754,9326.594869
4097.876711,-229.828649,-1628.453072,9696.697840
4097.877026,-459.657299,-2072.576638,10362.883188
4097.877342,-153.219100,-1850.514855,10214.842000
4097.877657,1072.533697,-1258.350101,9622.677246
4097.877972,919.314598,-740.205942,9326.594869
4097.878287,919.314598,222.061783,8734.430116
4097.878602,536.266849,888.247130,8216.285956
4097.878917,306.438199,518.144159,8142.265362
4097.879232,306.438199,-0.000000,8586.388927
4097.879548,-229.828649,-666.185348,9104.533087
4097.879863,-842.705048,-1702.473667,10140.821405
4097.880178,-842.705048,-1998.556043,10288.862594
4097.880493,-536.266849,-1776.494261,10140.821405
4097.880808,229.828649,-1036.288319,9770.718434
4097.881123,689.485948,370.102971,9400.615463
4097.881439,919.314598,1184.329507,8290.306550
4097.881754,306.438199,1554.432478,8068.244768
4097.882069,229.828649,1406.391290,8290.306550
4097.882384,0.000000,592.164754,8808.450710
4097.882699,-689.485948,-0.000000,9252.574275
4097.883014,-766.095498,-1480.411884,10362.883188
4097.883329,-1149.143247,-1628.453072,10288.862594
4097.883645,0.000000,-1628.453072,10362.883188
4097.883960,0.000000,-666.185348,9918.759623
4097.884275,229.828649,666.185348,9474.636058
4097.884590,229.828649,2146.597232,8808.450710
4097.884905,229.828649,2220.617826,8290.306550
4097.885220,76.609550,1924.535449,8438.347739
4097.885535,0.000000,1184.329507,9178.553681
4097.885851,0.000000,-0.000000,9622.677246
4097.886166,-766.095498,-740.205942,10732.986159
4097.886481,-766.095498,-1258.350101,10955.047942
4097.886796,-306.438199,-444.123565,11177.109724
4097.887111,459.657299,222.061783,10288.862594
4097.887426,1072.533697,1110.308913,9548.656652
4097.887741,1455.581446,2220.617826,9178.553681
4097.888057,842.705048,2812.782580,8364.327145
4097.888372,689.485948,2442.679609,8734.430116
4097.888687,306.438199,1258.350101,9400.615463
4097.889002,306.438199,148.041188,10288.862594
4097.889317,-536.266849,-814.226536,10955.047942
4097.889632,-766.095498,-962.267725,11547.212695
4097.889948,-229.828649,-740.205942,11473.192101
4097.890263,383.047749,-0.000000,10510.924376
4097.890578,1149.143247,666.185348,9918.759623
4097.890893,1455.581446,1702.473667,9104.533087
4097.891208,1149.143247,2442.679609,8512.368333
4097.891523,919.314598,2442.679609,9030.512492
4097.891838,689.485948,1554.432478,9252.574275
4097.892154,383.047749,518.144159,10066.800811
4097.892469,0.000000,-962.267725,10658.965565
4097.892784,-689.485948,-1776.494261,11177.109724
4097.893099,76.609550,-740.205942,10436.903782
4097.893414,536.266849,-592.164754,10288.862594
4097.893729,536.266849,740.205942,9548.656652
4097.894044,459.657299,1702.473667,8956.491898
4097.894360,0.000000,1998.556043,7994.224174
4097.894675,0.000000,1184.329507,8660.409521
4097.894990,-306.438199,370.102971,9104.533087
4097.895305,-459.657299,-592.164754,9770.718434
4097.895620,-842.705048,-1184.329507,10214.842000
4097.895935,-689.485948,-1406.391290,10658.965565
4097.896251,0.000000,-1184.329507,10066.800811
4097.896566,306.438199,-296.082377,9474.636058
4097.896881,306.438199,740.205942,9030.512492
4097.897196,612.876398,1480.411884,7920.203579
4097.897511,153.219100,1628.453072,7920.203579
4097.897826,0.000000,1184.329507,7920.203579
4097.898141,0.000000,592.164754,8882.471304
4097.898457,-919.314598,-814.226536,9474.636058
4097.898772,-1302.362347,-2146.597232,11029.068536
4097.899087,-459.657299,-2072.576638,10510.924376
4097.899402,-153.219100,-1628.453072,9992.780217
4097.899717,306.438199,-888.247130,9770.718434
4097.900032,919.314598,518.144159,8882.471304
4097.900347,1225.752797,1628.453072,8068.244768
4097.900663,766.095498,1406.391290,7920.203579
4097.900978,612.876398,1184.329507,8290.306550
4097.901293,153.219100,444.123565,8882.471304
4097.901608,-306.438199,-814.226536,9474.636058
4097.901923,-612.876398,-1850.514855,10955.047942
4097.902238,-766.095498,-1924.535449,11177.109724
4097.902554,-383.047749,-1924.535449,11103.089130
4097.902869,229.828649,-888.247130,10807.006753
4097.903184,689.485948,-0.000000,10140.821405
4097.903499,689.485948,1258.350101,9178.553681
4097.903814,536.266849,1850.514855,8586.388927
4097.904129,536.266849,1258.350101,8586.388927
4097.904444,229.828649,740.205942,9474.636058
4097.904760,-459.657299,-222.061783,10066.800811
4097.905075,-689.485948,-2072.576638,10658.965565
4097.905390,0.000000,-1998.556043,10881.027347
4097.905705,153.219100,-1702.473667,10807.006753
4097.906020,689.485948,-814.226536,10436.903782
4097.906335,536.266849,444.123565,9918.759623
4097.906650,1072.533697,962.267725,8882.471304
4097.906966,919.314598,1480.411884,7994.224174
4097.907281,689.485948,888.247130,8438.347739
4097.907596,306.438199,222.061783,8882.471304
4097.907911,-306.438199,-666.185348,9844.739029
4097.908226,-766.095498,-1406.391290,10288.862594
4097.908541,-842.705048,-1480.411884,10955.047942
4097.908856,0.000000,-1184.329507,10140.821405
4097.909172,689.485948,-444.123565,9844.739029
4097.909487,995.924147,814.226536,9178.553681
4097.909802,1302.362347,1776.494261,8660.409521
4097.910117,766.095498,1998.556043,7550.100608
4097.910432,306.438199,1036.288319,8216.285956
4097.910747,229.828649,666.185348,9104.533087
4097.911063,-229.828649,-148.041188,9696.697840
4097.911378,-612.876398,-1184.329507,10436.903782
4097.911693,-306.438199,-1258.350101,10881.027347
4097.912008,-306.438199,-814.226536,10140.821405
4097.912323,0.000000,-0.000000,9474.636058
4097.912638,689.485948,1554.432478,8956.491898
4097.912953,536.266849,1850.514855,8734.430116
4097.913269,306.438199,1628.453072,8438.347739
4097.913584,0.000000,1554.432478,8882.471304
4097.913899,0.000000,888.247130,9474.636058
4097.914214,-536.266849,-0.000000,10214.842000
4097.914529,-612.876398,-518.144159,10881.027347
4097.914844,-766.095498,-592.164754,11251.130318
4097.915159,153.219100,-444.123565,10510.924376
4097.915475,842.705048,666.185348,9844.739029
4097.915790,689.485948,1850.514855,9104.533087
4097.916105,1225.752797,2368.659014,8142.265362
4097.916420,229.828649,2368.659014,8290.306550
4097.916735,0.000000,1776.494261,8882.471304
4097.917050,-536.266849,740.205942,9474.636058
4097.917366,-612.876398,-370.102971,10214.842000
4097.917681,-1072.533697,-1406.391290,10955.047942
4097.917996,-1302.362347,-1628.453072,11399.171507
4097.918311,-459.657299,-1110.308913,11251.130318
4097.918626,153.219100,-0.000000,10288.862594
4097.918941,842.705048,1406.391290,9474.636058
4097.919256,1378.971896,2368.659014,8438.347739
4097.919572,995.924147,3034.844362,7846.182985
4097.919887,766.095498,1850.514855,8512.368333
4097.920202,612.876398,1258.350101,9326.594869
4097.920517,383.047749,-74.020594,10584.944971
4097.920832,229.828649,-1406.391290,10584.944971
4097.921147,-383.047749,-1998.556043,11177.109724
4097.921462,153.219100,-1406.391290,11103.089130
4097.921778,536.266849,-814.226536,10288.862594
4097.922093,995.924147,296.082377,9548.656652
4097.922408,919.314598,592.164754,8808.450710
4097.922723,919.314598,1332.370696,8438.347739
4097.923038,536.266849,962.267725,8290.306550
4097.923353,76.609550,1184.329507,8438.347739
4097.923668,-229.828649,-296.082377,9622.677246
4097.923984,0.000000,-1776.494261,11029.068536
4097.924299,-306.438199,-1258.350101,11177.109724
4097.924614,0.000000,-1406.391290,10510.924376
4097.924929,536.266849,-370.102971,9992.780217
4097.925244,766.095498,666.185348,9474.636058
4097.925559,919.314598,1110.308913,8734.430116
4097.925875,76.609550,1110.308913,8364.327145
4097.926190,-229.828649,888.247130,8660.409521
4097.926505,-383.047749,222.061783,9178.553681
4097.926820,-459.657299,-962.267725,9622.677246
4097.927135,-766.095498,-2220.617826,10807.006753
4097.927450,-1225.752797,-1998.556043,10510.924376
4097.927765,-689.485948,-1776.494261,10140.821405
4097.928081,229.828649,-666.185348,9548.656652
4097.928396,689.485948,-0.000000,8808.450710
4097.928711,153.219100,1184.329507,8290.306550
4097.929026,153.219100,1480.411884,7772.162391
4097.929341,-229.828649,814.226536,8068.244768
4097.929656,-306.438199,370.102971,9326.594869
4097.929971,-459.657299,-962.267725,9622.677246
4097.930287,-842.705048,-2368.659014,10362.883188
4097.930602,-689.485948,-1628.453072,10955.047942
4097.930917,-383.047749,-1554.432478,10436.903782
4097.931232,459.657299,-518.144159,10066.800811
4097.931547,1149.143247,666.185348,8956.491898
4097.931862,612.876398,1332.370696,7772.162391
4097.932178,689.485948,1480.411884,8364.327145
4097.932493,459.657299,1036.288319,7994.224174
4097.932808,306.438199,-0.000000,9178.553681
4097.933123,-229.828649,-666.185348,10214.842000
4097.933438,-612.876398,-1628.453072,10436.903782
4097.933753,-536.266849,-1850.514855,10288.862594
4097.934068,153.219100,-888.247130,10066.800811
4097.934384,766.095498,-148.041188,9992.780217
4097.934699,1225.752797,888.247130,9252.574275
4097.935014,766.095498,2146.597232,8808.450710
4097.935329,536.266849,2220.617826,8586.388927
4097.935644,0.000000,1702.473667,8956.491898
4097.935959,153.219100,888.247130,9992.780217
4097.936274,0.000000,-370.102971,10807.006753
4097.936590,-153.219100,-1036.288319,11695.253884
4097.936905,0.000000,-592.164754,11251.130318
4097.937220,306.438199,-296.082377,10807.006753
4097.937535,1225.752797,666.185348,10066.800811
4097.937850,1532.190996,1406.391290,9178.553681
4097.938165,1302.362347,2220.617826,8734.430116
4097.938480,995.924147,2294.638420,8364.327145
4097.938796,766.095498,1406.391290,8438.347739
4097.939111,383.047749,518.144159,9178.553681
4097.939426,0.000000,-518.144159,9918.759623
4097.939741,-536.266849,-1332.370696,11473.192101
4097.940056,-919.314598,-1184.329507,11103.089130
4097.940371,-229.828649,-888.247130,10436.903782
4097.940687,1225.752797,-0.000000,10436.903782
4097.941002,383.047749,1332.370696,9326.594869
4097.941317,536.266849,2220.617826,8512.368333
4097.941632,153.219100,2590.720797,8438.347739
4097.941947,153.219100,1702.473667,9178.553681
4097.942262,153.219100,740.205942,9178.553681
4097.942577,0.000000,-592.164754,9992.780217
4097.942893,-383.047749,-814.226536,10807.006753
4097.943208,-766.095498,-888.247130,10510.924376
4097.943523,0.000000,-740.205942,10288.862594
4097.943838,1149.143247,-222.061783,9844.739029
4097.944153,306.438199,1184.329507,8882.471304
4097.944468,306.438199,1554.432478,8068.244768
4097.944783,0.000000,1480.411884,8068.244768
4097.945099,229.828649,814.226536,8660.409521
4097.945414,-383.047749,-0.000000,9474.636058
4097.945729,-383.047749,-518.144159,10140.821405
4097.946044,-689.485948,-1480.411884,10658.965565
4097.946359,-612.876398,-1480.411884,11103.089130
4097.946674,0.000000,-740.205942,10362.883188
4097.946990,919.314598,518.144159,9548.656652
4097.947305,995.924147,1850.514855,9104.533087
4097.947620,766.095498,2220.617826,7994.224174
4097.947935,536.266849,1628.453072,8364.327145
4097.948250,306.438199,1110.308913,8808.450710
4097.948565,76.609550,-0.000000,9474.636058
4097.948880,-612.876398,-1258.350101,10140.821405
4097.949195,-1072.533697,-2146.597232,10955.047942
4097.949510,-1072.533697,-2072.576638,10658.965565
4097.949825,0.000000,-1628.453072,10436.903782
4097.950141,536.266849,-518.144159,9844.739029
4097.950456,995.924147,666.185348,9474.636058
4097.950771,766.095498,962.267725,8216.285956
4097.951086,919.314598,1110.308913,8068.244768
4097.951401,229.828649,740.205942,8734.430116
4097.951716,76.609550,-0.000000,9400.615463
4097.952031,0.000000,-740.205942,10214.842000
4097.952346,-153.219100,-1628.453072,10436.903782
4097.952661,0.000000,-2072.576638,11177.109724
4097.952976,76.609550,-1628.453072,9770.718434
4097.953292,306.438199,-444.123565,9918.759623
4097.953607,536.266849,518.144159,9474.636058
4097.953922,229.828649,740.205942,8586.388927
4097.954237,229.828649,740.205942,8586.388927
4097.954552,153.219100,296.082377,9104.533087
4097.954867,-306.438199,-0.000000,9474.636058
4097.955182,-842.705048,-1110.308913,10140.821405
4097.955497,-995.924147,-1480.411884,10436.903782
4097.955812,-536.266849,-1258.350101,10732.986159
4097.956127,383.047749,-740.205942,10214.842000
4097.956443,536.266849,-0.000000,9844.739029
4097.956758,766.095498,1184.329507,9030.512492
4097.957073,612.876398,1628.453072,8512.368333
4097.957388,383.047749,1332.370696,8586.388927
4097.957703,-229.828649,1406.391290,9252.574275
4097.958018,-536.266849,814.226536,9474.636058
4097.958333,-919.314598,-666.185348,10066.800811
4097.958648,-766.095498,-1258.350101,10584.944971
4097.958963,-995.924147,-1702.473667,10658.965565
4097.959278,76.609550,-444.123565,9696.697840
4097.959594,229.828649,666.185348,9918.759623
4097.959909,536.266849,1406.391290,9400.615463
4097.960224,536.266849,2072.576638,7994.224174
4097.960539,229.828649,1628.453072,7698.141797
4097.960854,383.047749,1406.391290,8734.430116
4097.961169,0.000000,740.205942,9696.697840
4097.961484,-689.485948,-222.061783,10288.862594
4097.961799,-766.095498,-1554.432478,10436.903782
4097.962114,-536.266849,-1110.308913,10881.027347
4097.962429,229.828649,-518.144159,9992.780217
4097.962745,842.705048,592.164754,9622.677246
4097.963060,995.924147,1628.453072,9178.553681
4097.963375,995.924147,2220.617826,9030.512492
4097.963690,229.828649,1850.514855,8068.244768
4097.964005,0.000000,1258.350101,8808.450710
4097.964320,0.000000,370.102971,9992.780217
4097.964635,-459.657299,-888.247130,10288.862594
4097.964950,-612.876398,-1406.391290,11103.089130
4097.965265,0.000000,-962.267725,11769.274478
4097.965580,459.657299,-592.164754,10140.821405
4097.965896,1072.533697,666.185348,9622.677246
4097.966211,1149.143247,1776.494261,8660.409521
4097.966526,1378.971896,2220.617826,8364.327145
4097.966841,995.924147,2146.597232,8438.347739
4097.967156,612.876398,1554.432478,8808.450710
4097.967471,0.000000,518.144159,9844.739029
4097.967786,-536.266849,-740.205942,10658.965565
4097.968101,-689.485948,-1332.370696,11325.150913
4097.968416,-383.047749,-1406.391290,11251.130318
4097.968731,0.000000,-814.226536,10732.986159
4097.969047,306.438199,370.102971,9992.780217
4097.969362,689.485948,1554.432478,8660.409521
4097.969677,766.095498,2146.597232,8290.306550
4097.969992,229.828649,1924.535449,8438.347739
4097.970307,229.828649,1110.308913,8660.409521
4097.970622,0.000000,-0.000000,9400.615463
4097.970937,-536.266849,-962.267725,9992.780217
4097.971252,-995.924147,-1702.473667,10140.821405
4097.971567,-306.438199,-1554.432478,10658.965565
4097.971883,306.438199,-592.164754,10510.924376
4097.972198,536.266849,296.082377,9400.615463
4097.972513,383.047749,1480.411884,8660.409521
4097.972828,383.047749,2072.576638,8660.409521
4097.973143,0.000000,1184.329507,8364.327145
4097.973458,0.000000,666.185348,8882.471304
4097.973773,-612.876398,-370.102971,9696.697840
4097.974088,-689.485948,-1776.494261,10510.924376
4097.974403,-766.095498,-2072.576638,10140.821405
4097.974718,-153.219100,-1554.432478,10362.883188
4097.975034,536.266849,-888.247130,10140.821405
4097.975349,995.924147,444.123565,9400.615463
4097.975664,995.924147,1184.329507,8364.327145
4097.975979,1225.752797,1554.432478,8290.306550
4097.976294,689.485948,1110.308913,8438.347739
4097.976609,153.219100,148.041188,8808.450710
4097.976924,0.000000,-592.164754,9696.697840
4097.977239,0.000000,-1924.535449,10732.986159
4097.977554,-612.876398,-2516.700203,11251.130318
4097.977869,0.000000,-1924.535449,10955.047942
4097.978185,306.438199,-888.247130,10214.842000
4097.978500,1149.143247,-0.000000,9474.636058
4097.978815,1302.362347,888.247130,8808.450710
4097.979130,1225.752797,1406.391290,8216.285956
4097.979445,766.095498,814.226536,8734.430116
4097.979760,459.657299,592.164754,8438.347739
4097.980075,0.000000,-148.041188,9326.594869
4097.980390,0.000000,-1554.432478,10584.944971
4097.980705,-383.047749,-1850.514855,10955.047942
4097.981020,0.000000,-1776.494261,10732.986159
4097.981336,306.438199,-1406.391290,10510.924376
4097.981651,612.876398,-0.000000,9770.718434
4097.981966,766.095498,962.267725,8660.409521
4097.982281,842.705048,1480.411884,7772.162391
4097.982596,689.485948,1406.391290,8660.409521
4097.982911,383.047749,1036.288319,8882.471304
4097.983226,229.828649,370.102971,9400.615463
4097.983541,0.000000,-1036.288319,9992.780217
4097.983856,-153.219100,-1110.308913,10510.924376
4097.984171,-306.438199,-1036.288319,10510.924376
4097.984487,229.828649,-592.164754,10436.903782
4097.984802,536.266849,148.041188,9992.780217
4097.985117,1072.533697,1184.329507,8882.471304
4097.985432,153.219100,1850.514855,8216.285956
4097.985747,0.000000,1554.432478,8956.491898
4097.986062,0.000000,592.164754,9548.656652
4097.986377,-536.266849,370.102971,9622.677246
4097.986692,0.000000,-740.205942,9844.739029
4097.987007,-689.485948,-888.247130,10584.944971
4097.987322,-766.095498,-814.226536,10362.883188
4097.987638,0.000000,-74.020594,9992.780217
4097.987953,383.047749,1258.350101,9474.636058
4097.988268,612.876398,1998.556043,8660.409521
4097.988583,0.000000,2368.659014,8882.471304
4097.988898,-229.828649,2220.617826,8808.450710
4097.989213,-229.828649,1406.391290,9474.636058
4097.989528,-612.876398,-74.020594,10362.883188
4097.989843,-1302.362347,-1036.288319,11177.109724
4097.990158,-1378.971896,-592.164754,11621.233289
4097.990473,-1455.581446,-814.226536,11177.109724
4097.990789,-229.828649,-0.000000,10066.800811
4097.991104,229.828649,1036.288319,10362.883188
4097.991419,383.047749,2220.617826,8586.388927
4097.991734,76.609550,2516.700203,8438.347739
4097.992049,0.000000,2294.638420,8660.409521
4097.992364,0.000000,1628.453072,9178.553681
4097.992679,0.000000,518.144159,9326.594869
4097.992994,-383.047749,-1036.288319,10510.924376
4097.993309,-612.876398,-1480.411884,11473.192101
4097.993624,-153.219100,-1258.350101,10881.027347
4097.993940,459.657299,-74.020594,10140.821405
4097.994255,995.924147,666.185348,9400.615463
4097.994570,1072.533697,1702.473667,8660.409521
4097.994885,919.314598,2294.638420,7920.203579
4097.995200,689.485948,1998.556043,8364.327145
4097.995515,842.705048,1332.370696,8882.471304
4097.995830,229.828649,-148.041188,9474.636058
4097.996145,-306.438199,-1554.432478,10510.924376
4097.996460,0.000000,-1776.494261,10732.986159
4097.996775,0.000000,-1480.411884,11177.109724
4097.997091,842.705048,-1110.308913,10732.986159
4097.997406,1302.362347,296.082377,9474.636058
4097.997721,1762.019645,1628.453072,8882.471304
4097.998036,1072.533697,1998.556043,8216.285956
4097.998351,995.924147,1628.453072,8290.306550
4097.998666,766.095498,888.247130,8808.450710
4097.998981,459.657299,-0.000000,9474.636058
4097.999296,76.609550,-1628.453072,9918.759623
4097.999611,0.000000,-1924.535449,10584.944971
4097.999926,536.266849,-1702.473667,10881.027347
4098.000242,306.438199,-1110.308913,10140.821405
4098.000557,612.876398,-148.041188,9770.718434
4098.000872,766.095498,592.164754,9326.594869
4098.001187,0.000000,1036.288319,8068.244768
4098.001502,0.000000,592.164754,8364.327145
4098.001817,0.000000,296.082377,9104.533087
4098.002132,-689.485948,-740.205942,9474.636058
4098.002447,-766.095498,-1554.432478,10288.862594
4098.002762,-995.924147,-1702.473667,10807.006753
4098.003077,-536.266849,-1628.453072,10214.842000
4098.003393,229.828649,-740.205942,9696.697840
4098.003708,383.047749,444.123565,9326.594869
4098.004023,536.266849,1258.350101,9178.553681
4098.004338,-229.828649,1184.329507,8512.368333
4098.004653,-459.657299,1036.288319,8512.368333
4098.004968,-766.095498,370.102971,8956.491898
4098.005283,-1302.362347,-740.205942,9400.615463
4098.005598,-1225.752797,-1998.556043,10362.883188
4098.005913,-995.924147,-2442.679609,10140.821405
4098.006228,-766.095498,-1924.535449,10140.821405
4098.006544,76.609550,-666.185348,9326.594869
4098.006859,459.657299,592.164754,8882.471304
4098.007174,459.657299,1406.391290,8216.285956
4098.007489,306.438199,2072.576638,7698.141797
4098.007804,76.609550,1480.411884,8586.388927
4098.008119,0.000000,1036.288319,9030.512492
4098.008434,-459.657299,-148.041188,9844.739029
4098.008749,-919.314598,-962.267725,10881.027347
4098.009064,-1378.971896,-1110.308913,11103.089130
4098.009379,-459.657299,-814.226536,11177.109724
4098.009695,153.219100,148.041188,10362.883188
4098.010010,612.876398,1184.329507,9474.636058
4098.010325,536.266849,2294.638420,8882.471304
4098.010640,459.657299,2442.679609,8216.285956
4098.010955,689.485948,2220.617826,8438.347739
4098.011270,229.828649,1332.370696,9178.553681
4098.011585,0.000000,148.041188,10436.903782
4098.011900,0.000000,-888.247130,10584.944971
4098.012215,76.609550,-1406.391290,10807.006753
4098.012530,229.828649,-1036.288319,11177.109724
4098.012846,1149.143247,-222.061783,10436.903782
4098.013161,1455.581446,888.247130,9844.739029
4098.013476,1378.971896,2072.576638,8808.450710
4098.013791,919.314598,1850.514855,8512.368333
4098.014106,842.705048,1998.556043,8290.306550
4098.014421,612.876398,1332.370696,9474.636058
4098.014736,383.047749,370.102971,10362.883188
4098.015051,-536.266849,-1110.308913,10955.047942
4098.015366,-766.095498,-1110.308913,10732.986159
4098.015681,0.000000,-1628.453072,10881.027347
4098.015997,689.485948,-666.185348,10584.944971
4098.016312,995.924147,444.123565,9992.780217
4098.016627,766.095498,1480.411884,8956.491898
4098.016942,306.438199,2368.659014,8956.491898
4098.017257,459.657299,1036.288319,8512.368333
4098.017572,229.828649,814.226536,8808.450710
4098.017887,0.000000,-666.185348,9474.636058
4098.018202,-383.047749,-1480.411884,10066.800811
4098.018517,-995.924147,-1628.453072,10362.883188
4098.018832,-459.657299,-1184.329507,9844.739029
4098.019148,0.000000,-444.123565,9918.759623
4098.019463,306.438199,962.267725,8808.450710
4098.019778,0.000000,1258.350101,8290.306550
4098.020093,0.000000,1258.350101,9104.533087
4098.020408,-689.485948,740.205942,8882.471304
4098.020723,-766.095498,592.164754,9622.677246
4098.021038,-766.095498,-222.061783,10214.842000
4098.021353,-1225.752797,-1184.329507,10658.965565
4098.021668,-842.705048,-1332.370696,10510.924376
4098.021983,-383.047749,-814.226536,10288.862594
4098.022299,383.047749,222.061783,9696.697840
4098.022614,919.314598,1036.288319,8438.347739
4098.022929,306.438199,1702.473667,7550.100608
4098.023244,459.657299,1850.514855,7994.224174
4098.023559,153.219100,888.247130,8290.306550
4098.023874,-459.657299,-0.000000,9178.553681
4098.024189,-919.314598,-1110.308913,10066.800811
4098.024504,-1378.971896,-2368.659014,10732.986159
4098.024819,-1072.533697,-1998.556043,10881.027347
4098.025134,459.657299,-1850.514855,10362.883188
4098.025450,229.828649,-740.205942,10214.842000
4098.025765,766.095498,888.247130,9400.615463
4098.026080,689.485948,1776.494261,8586.388927
4098.026395,306.438199,1998.556043,8290.306550
4098.026710,383.047749,1406.391290,8734.430116
4098.027025,459.657299,592.164754,9474.636058
4098.027340,229.828649,-370.102971,9992.780217
4098.027655,-76.609550,-1850.514855,10955.047942
4098.027970,153.219100,-1924.535449,10881.027347
4098.028285,383.047749,-1110.308913,10881.027347
4098.028601,919.314598,-518.144159,10362.883188
4098.028916,1149.143247,592.164754,9400.615463
4098.029231,919.314598,1406.391290,8512.368333
4098.029546,919.314598,1332.370696,8290.306550
4098.029861,842.705048,1036.288319,9326.594869
4098.030176,0.000000,296.082377,9252.574275
4098.030491,0.000000,-296.082377,10066.800811
4098.030806,-306.438199,-1258.350101,11325.150913
4098.031121,0.000000,-1480.411884,11325.150913
4098.031436,459.657299,-1184.329507,10955.047942
4098.031752,842.705048,-148.041188,10436.903782
4098.032067,1225.752797,1332.370696,9474.636058
4098.032382,1225.752797,1998.556043,8586.388927
4098.032697,766.095498,1332.370696,8364.327145
4098.033012,536.266849,1184.329507,9252.574275
4098.033327,306.438199,962.267725,9178.553681
4098.033642,0.000000,-74.020594,9474.636058
4098.033957,-842.705048,-1332.370696,10362.883188
4098.034272,-1225.752797,-2072.576638,10732.986159
4098.034587,-612.876398,-1332.370696,10510.924376
4098.034903,76.609550,-296.082377,9844.739029
4098.035218,229.828649,666.185348,9178.553681
4098.035533,229.828649,1258.350101,8142.265362
4098.035848,229.828649,1406.391290,7920.203579
4098.036163,-306.438199,1110.308913,8734.430116
4098.036478,-536.266849,740.205942,9326.594869
4098.036793,-919.314598,-74.020594,9622.677246
4098.037108,-995.924147,-1258.350101,10362.883188
4098.037423,-612.876398,-1110.308913,10732.986159
4098.037738,76.609550,-518.144159,9770.718434
4098.038054,153.219100,296.082377,9548.656652
4098.038369,383.047749,1184.329507,8734.430116
4098.038684,383.047749,1850.514855,8142.265362
4098.038999,306.438199,1258.350101,7994.224174
4098.039314,-153.219100,1110.308913,8660.409521
4098.039629,-383.047749,370.102971,9548.656652
4098.039944,-995.924147,-666.185348,9918.759623
4098.040259,-842.705048,-2146.597232,10807.006753
4098.040574,-306.438199,-1628.453072,11251.130318
4098.040889,-383.047749,-814.226536,10362.883188
4098.041205,306.438199,518.144159,9326.594869
4098.041520,1149.143247,1702.473667,9252.574275
4098.041835,1455.581446,2442.679609,8586.388927
4098.042150,919.314598,2294.638420,8364.327145
4098.042465,536.266849,1924.535449,8882.471304
4098.042780,0.000000,962.267725,9696.697840
4098.043095,0.000000,-296.082377,10732.986159
4098.043410,-612.876398,-1332.370696,11769.274478
4098.043725,-383.047749,-1258.350101,11769.274478
4098.044040,76.609550,-888.247130,10955.047942
4098.044356,766.095498,-0.000000,9770.718434
4098.044671,1302.362347,1110.308913,9400.615463
4098.044986,1072.533697,1998.556043,8660.409521
4098.045301,919.314598,2072.576638,8216.285956
4098.045616,689.485948,1184.329507,8734.430116
4098.045931,612.876398,370.102971,9252.574275
4098.046246,0.000000,-814.226536,10066.800811
4098.046561,153.219100,-1554.432478,10807.006753
4098.046876,-229.828649,-1480.411884,11103.089130
4098.047191,306.438199,-1184.329507,10362.883188
4098.047507,689.485948,-222.061783,10066.800811
4098.047822,1072.533697,740.205942,8956.491898
4098.048137,919.314598,1184.329507,8290.306550
4098.048452,306.438199,1332.370696,8364.327145
4098.048767,0.000000,814.226536,8364.327145
4098.049082,-229.828649,222.061783,9252.574275
4098.049397,-919.314598,-1036.288319,9770.718434
4098.049712,-766.095498,-1924.535449,10288.862594
4098.050027,-1072.533697,-2220.617826,10362.883188
4098.050343,-306.438199,-1406.391290,10140.821405
4098.050658,383.047749,-370.102971,9474.636058
4098.050973,919.314598,518.144159,8734.430116
4098.051288,229.828649,1332.370696,8216.285956
4098.051603,76.609550,1184.329507,8068.244768
4098.051918,0.000000,888.247130,8512.368333
4098.052234,-306.438199,-0.000000,9400.615463
4098.052549,-306.438199,-370.102971,10214.842000
4098.052864,-1225.752797,-1184.329507,10362.883188
4098.053179,-1072.533697,-1332.370696,10658.965565
4098.053495,-383.047749,-888.247130,10066.800811
4098.053810,153.219100,370.102971,9844.739029
4098.054125,76.609550,1258.350101,9030.512492
4098.054440,229.828649,1924.535449,8438.347739
4098.054756,0.000000,2072.576638,8438.347739
4098.055071,0.000000,1480.411884,8956.491898
4098.055386,-383.047749,666.185348,9696.697840
4098.055701,-919.314598,-962.267725,10510.924376
4098.056016,-842.705048,-1480.411884,11177.109724
4098.056332,-689.485948,-1258.350101,10807.006753
4098.056647,0.000000,-888.247130,10510.924376
4098.056962,612.876398,222.061783,9622.677246
4098.057277,1072.533697,814.226536,8882.471304
4098.057593,919.314598,1998.556043,8216.285956
4098.057908,612.876398,1850.514855,7846.182985
4098.058223,459.657299,1406.391290,8586.388927
4098.058538,76.609550,222.061783,9474.636058
4098.058854,0.000000,-1036.288319,10214.842000
4098.059169,-306.438199,-1554.432478,11325.150913
4098.059484,-612.876398,-1554.432478,11251.130318
4098.059799,229.828649,-1258.350101,10881.027347
4098.060115,1149.143247,-0.000000,10214.842000
4098.060430,1225.752797,888.247130,9326.594869
4098.060745,1225.752797,1998.556043,9104.533087
4098.061060,1149.143247,2220.617826,8586.388927
4098.061376,995.924147,1850.514855,9252.574275
4098.061691,612.876398,1036.288319,9474.636058
4098.062006,459.657299,-592.164754,10436.903782
4098.062321,76.609550,-1332.370696,11029.068536
4098.062637,383.047749,-1554.432478,10658.965565
4098.062952,1302.362347,-1036.288319,10732.986159
4098.063267,1455.581446,-0.000000,9770.718434
4098.063582,1532.190996,1480.411884,8882.471304
4098.063898,1072.533697,2072.576638,8734.430116
4098.064213,842.705048,1702.473667,7994.224174
4098.064528,612.876398,1184.329507,8882.471304
4098.064843,153.219100,592.164754,9104.533087
4098.065159,-459.657299,-1110.308913,10066.800811
4098.065474,-842.705048,-1628.453072,10658.965565
4098.065789,-612.876398,-1036.288319,10732.986159
4098.066104,76.609550,-1036.288319,10214.842000
4098.066420,153.219100,222.061783,9622.677246
4098.066735,76.609550,1110.308913,9474.636058
4098.067050,-306.438199,1702.473667,8438.347739
4098.067365,0.000000,1776.494261,8364.327145
4098.067681,-229.828649,1110.308913,8364.327145
4098.067996,-612.876398,148.041188,9326.594869
4098.068311,-766.095498,-1036.288319,9992.780217
4098.068626,-1302.362347,-1850.514855,10362.883188
4098.068942,-919.314598,-1702.473667,10584.944971
4098.069257,-229.828649,-814.226536,9770.718434
4098.069572,306.438199,-0.000000,9252.574275
4098.069887,153.219100,740.205942,8808.450710
4098.070203,0.000000,1258.350101,7920.203579
4098.070518,0.000000,962.267725,8512.368333
4098.070833,-306.438199,592.164754,8438.347739
4098.071148,-995.924147,-74.020594,9326.594869
4098.071464,-1072.533697,-1332.370696,10658.965565
4098.071779,-1072.533697,-1702.473667,10584.944971
4098.072094,-306.438199,-1406.391290,10955.047942
4098.072409,536.266849,-370.102971,10362.883188
4098.072725,842.705048,740.205942,9548.656652
4098.073040,612.876398,1554.432478,9030.512492
4098.073355,383.047749,2220.617826,8142.265362
4098.073670,459.657299,1554.432478,8882.471304
4098.073986,153.219100,888.247130,9474.636058
4098.074301,-229.828649,-0.000000,9992.780217
4098.074616,-766.095498,-1332.370696,10658.965565
4098.074931,-689.485948,-1850.514855,11251.130318
4098.075247,-459.657299,-1406.391290,11547.212695
4098.075562,306.438199,-814.226536,10362.883188
4098.075877,919.314598,-74.020594,9992.780217
4098.076192,1378.971896,1406.391290,8956.491898
4098.076508,842.705048,1850.514855,8142.265362
4098.076823,459.657299,1702.473667,8512.368333
4098.077138,689.485948,1184.329507,9252.574275
4098.077453,76.609550,296.082377,9622.677246
4098.077769,0.000000,-962.267725,10584.944971
4098.078084,-383.047749,-1184.329507,11177.109724
4098.078399,0.000000,-1332.370696,10807.006753
4098.078714,536.266849,-814.226536,11103.089130
4098.079029,689.485948,-0.000000,10140.821405
4098.079345,919.314598,1184.329507,9400.615463
4098.079660,919.314598,2146.597232,8586.388927
4098.079975,919.314598,1406.391290,7994.224174
4098.080290,612.876398,666.185348,8438.347739
4098.080606,383.047749,518.144159,9030.512492
4098.080921,0.000000,-592.164754,9770.718434
4098.081236,0.000000,-1258.350101,10510.924376
4098.081551,306.438199,-1184.329507,10066.800811
4098.081867,919.314598,-1258.350101,9548.656652
4098.082182,995.924147,-0.000000,9696.697840
4098.082497,383.047749,962.267725,8438.347739
4098.082812,306.438199,1110.308913,8216.285956
4098.083128,306.438199,1480.411884,8438.347739
4098.083443,153.219100,888.247130,9252.574275
4098.083758,-306.438199,518.144159,9326.594869
4098.084073,-842.705048,-592.164754,9696.697840
4098.084389,-612.876398,-1036.288319,10955.047942
4098.084704,-612.876398,-1036.288319,11029.068536
4098.085019,306.438199,-0.000000,10288.862594
4098.085334,459.657299,814.226536,9548.656652
4098.085650,306.438199,1850.514855,8660.409521
4098.085965,229.828649,1850.514855,8216.285956
4098.086280,229.828649,1554.432478,8512.368333
4098.086595,-459.657299,962.267725,9104.533087
4098.086911,-1072.533697,222.061783,9844.739029
4098.087226,-1149.143247,-740.205942,10214.842000
4098.087541,-1302.362347,-1406.391290,11177.109724
4098.087856,-383.047749,-1702.473667,11103.089130
4098.088172,-229.828649,-962.267725,10584.944971
4098.088487,-153.219100,296.082377,10362.883188
4098.088802,536.266849,1480.411884,8956.491898
4098.089117,536.266849,1850.514855,8512.368333
4098.089433,459.657299,1628.453072,8586.388927
4098.089748,229.828649,1184.329507,9030.512492
4098.090063,-306.438199,518.144159,10066.800811
4098.090378,-612.876398,-518.144159,10436.903782
4098.090694,-689.485948,-1184.329507,10732.986159
4098.091009,0.000000,-1628.453072,11029.068536
4098.091324,459.657299,-1110.308913,10658.965565
4098.091639,689.485948,-444.123565,9992.780217
4098.091955,995.924147,888.247130,9622.677246
4098.092270,612.876398,1406.391290,8216.285956
4098.092585,459.657299,1406.391290,8216.285956
4098.092900,153.219100,888.247130,9474.636058
4098.093216,0.000000,222.061783,9474.636058
4098.093531,76.609550,-1480.411884,10288.862594
4098.093846,0.000000,-1998.556043,10732.986159
4098.094161,306.438199,-1924.535449,10732.986159
4098.094477,1149.143247,-888.247130,9844.739029
4098.094792,1532.190996,592.164754,9474.636058
4098.095107,919.314598,1480.411884,8586.388927
4098.095422,995.924147,1702.473667,8142.265362
4098.095738,383.047749,1036.288319,8290.306550
4098.096053,0.000000,518.144159,8660.409521
4098.096368,-536.266849,-0.000000,9474.636058
4098.096683,-1149.143247,-1776.494261,10214.842000
4098.096999,-995.924147,-2146.597232,11029.068536
4098.097314,-459.657299,-1998.556043,10807.006753
4098.097629,153.219100,-1110.308913,9844.739029
4098.097944,766.095498,370.102971,9400.615463
4098.098260,919.314598,1554.432478,8734.430116
4098.098575,1302.362347,2146.597232,8216.285956
4098.098890,536.266849,1702.473667,8068.244768
4098.099205,153.219100,962.267725,8142.265362
4098.099521,-229.828649,-74.020594,9030.512492
4098.099836,-536.266849,-1702.473667,9992.780217
4098.100151,-459.657299,-2368.659014,10436.903782
4098.100466,0.000000,-1480.411884,10658.965565
4098.100782,-306.438199,-962.267725,9918.759623
4098.101097,229.828649,518.144159,9400.615463
4098.101412,383.047749,1554.432478,8734.430116
4098.101727,536.266849,1776.494261,7772.162391
4098.102042,229.828649,1850.514855,8438.347739
4098.102358,0.000000,1406.391290,8882.471304
4098.102673,0.000000,518.144159,9622.677246
4098.102988,76.609550,-888.247130,10436.903782
4098.103303,-383.047749,-1184.329507,10584.944971
4098.103619,0.000000,-1036.288319,11177.109724
4098.103934,536.266849,444.123565,10140.821405
4098.104249,995.924147,1184.329507,9844.739029
4098.104564,766.095498,2368.659014,8808.450710
4098.104880,536.266849,2294.638420,8512.368333
4098.105195,383.047749,1850.514855,8586.388927
4098.105510,0.000000,1110.308913,9474.636058
4098.105825,0.000000,148.041188,10288.862594
4098.106141,-842.705048,-1184.329507,11177.109724
