#time,accel_x,accel_y,accel_z
4044.311715,-2068.457845,814.226536,9696.697840
4044.312030,-1991.848295,222.061783,9252.574275
4044.312345,-1762.019645,592.164754,9622.677246
4044.312660,-1685.410096,444.123565,9178.553681
4044.312976,-1762.019645,370.102971,9474.636058
4044.313291,-1455.581446,592.164754,9696.697840
4044.313606,-1455.581446,518.144159,9252.574275
4044.313921,-995.924147,-0.000000,9474.636058
4044.314236,-766.095498,-74.020594,9178.553681
4044.314551,-306.438199,-0.000000,8956.491898
4044.314866,0.000000,-0.000000,9030.512492
4044.315181,76.609550,370.102971,8438.347739
4044.315496,76.609550,222.061783,8882.471304
4044.315811,76.609550,-0.000000,8808.450710
4044.316126,536.266849,-0.000000,9030.512492
4044.316441,383.047749,-444.123565,8882.471304
4044.316756,459.657299,-444.123565,9400.615463
4044.317072,459.657299,-222.061783,9326.594869
4044.317387,153.219100,-518.144159,9400.615463
4044.317702,229.828649,-740.205942,9252.574275
4044.318017,536.266849,-740.205942,8882.471304
4044.318332,1072.533697,-444.123565,9104.533087
4044.318647,689.485948,-370.102971,9474.636058
4044.318962,459.657299,-74.020594,9326.594869
4044.319277,919.314598,-296.082377,9474.636058
4044.319592,612.876398,-296.082377,9400.615463
4044.319907,689.485948,-222.061783,9104.533087
4044.320222,689.485948,-296.082377,9474.636058
4044.320537,459.657299,-222.061783,9548.656652
4044.320852,306.438199,-370.102971,9918.759623
4044.321168,0.000000,-0.000000,9770.718434
4044.321483,76.609550,-74.020594,9548.656652
4044.321798,383.047749,-370.102971,9696.697840
4044.322113,306.438199,-148.041188,9918.759623
4044.322428,0.000000,-444.123565,9622.677246
4044.322743,0.000000,-370.102971,9992.780217
4044.323058,76.609550,-0.000000,9770.718434
4044.323373,153.219100,148.041188,9474.636058
4044.323688,153.219100,296.082377,9326.594869
4044.324003,0.000000,592.164754,9622.677246
4044.324318,-306.438199,592.164754,9252.574275
4044.324633,-689.485948,444.123565,9622.677246
4044.324948,-689.485948,518.144159,9548.656652
4044.325263,-383.047749,-0.000000,9474.636058
4044.325579,-689.485948,444.123565,9918.759623
4044.325894,-383.047749,814.226536,9622.677246
4044.326209,-229.828649,666.185348,9474.636058
4044.326524,-459.657299,962.267725,9400.615463
4044.326839,-229.828649,1406.391290,9400.615463
4044.327154,-383.047749,1184.329507,9104.533087
4044.327469,0.000000,888.247130,9474.636058
4044.327784,-229.828649,962.267725,9622.677246
4044.328099,-536.266849,1036.288319,9770.718434
4044.328414,-229.828649,666.185348,9326.594869
4044.328729,0.000000,888.247130,9696.697840
4044.329044,306.438199,1036.288319,9474.636058
4044.329359,536.266849,888.247130,9770.718434
4044.329675,995.924147,888.247130,9548.656652
4044.329990,995.924147,592.164754,9770.718434
4044.330305,612.876398,814.226536,9474.636058
4044.330620,689.485948,518.144159,9696.697840
4044.330935,459.657299,222.061783,9696.697840
4044.331250,689.485948,444.123565,10510.924376
4044.331565,766.095498,-0.000000,10436.903782
4044.331880,383.047749,222.061783,9474.636058
4044.332195,842.705048,-0.000000,9918.759623
4044.332510,612.876398,148.041188,9992.780217
4044.332825,459.657299,222.061783,9548.656652
4044.333140,306.438199,-0.000000,9474.636058
4044.333455,459.657299,-222.061783,9844.739029
4044.333771,919.314598,-0.000000,10362.883188
4044.334086,459.657299,-148.041188,9992.780217
4044.334401,153.219100,-518.144159,9992.780217
4044.334716,0.000000,-666.185348,10140.821405
4044.335031,0.000000,-370.102971,9770.718434
4044.335346,229.828649,-666.185348,9918.759623
4044.335661,229.828649,-444.123565,9844.739029
4044.335976,76.609550,-370.102971,9548.656652
4044.336291,0.000000,-592.164754,9326.594869
4044.336606,0.000000,-370.102971,9252.574275
4044.336921,76.609550,-296.082377,9474.636058
4044.337236,76.609550,-592.164754,9252.574275
4044.337551,0.000000,-370.102971,8956.491898
4044.337867,-229.828649,-370.102971,9326.594869
4044.338182,76.609550,-222.061783,8956.491898
4044.338497,306.438199,-74.020594,9400.615463
4044.338812,-229.828649,-222.061783,9178.553681
4044.339127,0.000000,-222.061783,8956.491898
4044.339442,0.000000,-0.000000,8882.471304
4044.339757,76.609550,-74.020594,8882.471304
4044.340072,0.000000,-148.041188,9474.636058
4044.340387,-229.828649,-74.020594,8882.471304
4044.340702,0.000000,-0.000000,9326.594869
4044.341017,0.000000,-74.020594,9400.615463
4044.341332,0.000000,-148.041188,9548.656652
4044.341647,0.000000,-222.061783,9696.697840
4044.341963,-229.828649,-222.061783,9622.677246
4044.342278,153.219100,-222.061783,9474.636058
4044.342593,229.828649,-0.000000,9326.594869
4044.342908,76.609550,-148.041188,9622.677246
4044.343223,76.609550,-296.082377,9844.739029
4044.343538,0.000000,-222.061783,9696.697840
4044.343853,153.219100,-0.000000,9770.718434
4044.344168,153.219100,-222.061783,9770.718434
4044.344483,0.000000,-148.041188,9992.780217
4044.344798,76.609550,-148.041188,9770.718434
4044.345113,0.000000,-0.000000,9770.718434
4044.345428,306.438199,-222.061783,10362.883188
4044.345743,153.219100,296.082377,10066.800811
4044.346059,306.438199,148.041188,10288.862594
4044.346374,383.047749,296.082377,10140.821405
4044.346689,612.876398,370.102971,9548.656652
4044.347004,459.657299,296.082377,9622.677246
4044.347319,-229.828649,444.123565,10140.821405
4044.347634,153.219100,222.061783,10214.842000
4044.347949,-383.047749,-0.000000,9992.780217
4044.348264,0.000000,370.102971,9696.697840
4044.348576,0.000000,370.102971,9844.739029
4044.348891,0.000000,814.226536,9918.759623
4044.349206,0.000000,888.247130,10066.800811
4044.349521,0.000000,518.144159,9548.656652
4044.349836,0.000000,962.267725,9770.718434
4044.350151,0.000000,814.226536,9474.636058
4044.350466,153.219100,888.247130,9474.636058
4044.350780,0.000000,740.205942,10066.800811
4044.351095,0.000000,666.185348,9474.636058
4044.351410,-229.828649,740.205942,9474.636058
4044.351725,-306.438199,814.226536,9770.718434
4044.352040,-153.219100,592.164754,9844.739029
4044.352355,0.000000,814.226536,9474.636058
4044.352670,0.000000,518.144159,9548.656652
4044.352985,0.000000,814.226536,9548.656652
4044.353300,76.609550,518.144159,8808.450710
4044.353615,0.000000,370.102971,9474.636058
4044.353930,-229.828649,296.082377,9400.615463
4044.354245,0.000000,370.102971,9474.636058
4044.354560,0.000000,222.061783,9326.594869
4044.354875,459.657299,-0.000000,9474.636058
4044.355190,76.609550,222.061783,9474.636058
4044.355505,0.000000,-0.000000,9474.636058
4044.355820,0.000000,-0.000000,9400.615463
4044.356135,76.609550,148.041188,9548.656652
4044.356450,153.219100,222.061783,9770.718434
4044.356765,0.000000,-296.082377,9696.697840
4044.357080,76.609550,-0.000000,9770.718434
4044.357395,383.047749,-0.000000,9548.656652
4044.357710,76.609550,-148.041188,9400.615463
4044.358025,0.000000,-518.144159,9474.636058
4044.358340,76.609550,-222.061783,9474.636058
4044.358655,76.609550,-592.164754,9474.636058
4044.358970,76.609550,-444.123565,9474.636058
4044.359285,0.000000,-296.082377,9474.636058
4044.359600,-153.219100,-444.123565,9474.636058
4044.359915,229.828649,-370.102971,9400.615463
4044.360230,306.438199,-148.041188,9474.636058
4044.360545,306.438199,-74.020594,9104.533087
4044.360860,229.828649,-148.041188,9030.512492
4044.361175,0.000000,-74.020594,9696.697840
4044.361490,0.000000,-0.000000,9548.656652
4044.361805,0.000000,-222.061783,9030.512492
4044.362120,76.609550,222.061783,9326.594869
4044.362435,76.609550,-0.000000,9400.615463
4044.362750,-306.438199,-0.000000,9474.636058
4044.363065,-306.438199,-222.061783,9400.615463
4044.363380,0.000000,296.082377,9474.636058
4044.363695,0.000000,370.102971,9326.594869
4044.364010,-153.219100,222.061783,9104.533087
4044.364325,612.876398,296.082377,9178.553681
4044.364640,0.000000,-0.000000,9326.594869
4044.364955,0.000000,-0.000000,9400.615463
4044.365270,0.000000,222.061783,9178.553681
4044.365585,229.828649,296.082377,9622.677246
4044.365900,306.438199,296.082377,9474.636058
4044.366215,153.219100,518.144159,9326.594869
4044.366530,0.000000,-0.000000,9474.636058
4044.366845,76.609550,222.061783,9622.677246
4044.367160,229.828649,296.082377,9696.697840
4044.367475,459.657299,-0.000000,9474.636058
4044.367790,306.438199,296.082377,9770.718434
4044.368105,383.047749,296.082377,9696.697840
4044.368420,306.438199,444.123565,9696.697840
4044.368735,536.266849,370.102971,9622.677246
4044.369050,1072.533697,-0.000000,9696.697840
4044.369365,306.438199,-0.000000,10140.821405
4044.369680,0.000000,-0.000000,10140.821405
4044.369995,306.438199,444.123565,10140.821405
4044.370310,229.828649,666.185348,9770.718434
4044.370625,459.657299,740.205942,10288.862594
4044.370940,0.000000,296.082377,9918.759623
4044.371255,306.438199,444.123565,9696.697840
4044.371570,383.047749,444.123565,9844.739029
4044.371885,76.609550,444.123565,10288.862594
4044.372200,536.266849,-0.000000,10436.903782
4044.372515,383.047749,666.185348,9696.697840
4044.372830,0.000000,296.082377,9844.739029
4044.373145,153.219100,518.144159,10066.800811
4044.373460,76.609550,444.123565,9918.759623
4044.373775,76.609550,-0.000000,9770.718434
4044.374090,0.000000,444.123565,9622.677246
4044.374405,0.000000,666.185348,9474.636058
4044.374720,76.609550,518.144159,9474.636058
4044.375035,306.438199,592.164754,9548.656652
4044.375350,612.876398,148.041188,9918.759623
4044.375665,153.219100,444.123565,9326.594869
4044.375980,153.219100,370.102971,9474.636058
4044.376295,229.828649,444.123565,9474.636058
4044.376610,229.828649,-0.000000,9474.636058
4044.376925,-229.828649,518.144159,9696.697840
4044.377240,0.000000,-0.000000,9326.594869
4044.377555,0.000000,-0.000000,9474.636058
4044.377870,0.000000,-0.000000,9474.636058
4044.378185,229.828649,-0.000000,9548.656652
4044.378500,306.438199,-0.000000,9474.636058
4044.378815,153.219100,-0.000000,9252.574275
4044.379130,306.438199,-0.000000,9474.636058
4044.379445,229.828649,-0.000000,9252.574275
4044.379760,383.047749,-370.102971,9622.677246
4044.380075,76.609550,-296.082377,9548.656652
4044.380390,76.609550,-296.082377,9474.636058
4044.380705,0.000000,-222.061783,9696.697840
4044.381020,153.219100,-296.082377,9622.677246
4044.381335,0.000000,-74.020594,9622.677246
4044.381650,383.047749,-148.041188,9326.594869
4044.381965,76.609550,-222.061783,9178.553681
4044.382280,229.828649,-222.061783,9548.656652
4044.382595,306.438199,-296.082377,9770.718434
4044.382910,306.438199,-296.082377,9918.759623
4044.383225,0.000000,-148.041188,9770.718434
4044.383540,0.000000,-74.020594,9548.656652
4044.383855,0.000000,-148.041188,9400.615463
4044.384170,76.609550,-148.041188,9474.636058
4044.384485,0.000000,-222.061783,10288.862594
4044.384800,0.000000,-74.020594,9548.656652
4044.385115,0.000000,-148.041188,9252.574275
4044.385430,153.219100,-0.000000,9548.656652
4044.385745,0.000000,-0.000000,9548.656652
4044.386060,76.609550,-0.000000,9696.697840
4044.386375,0.000000,-0.000000,9474.636058
4044.386690,0.000000,-0.000000,9326.594869
4044.387005,153.219100,-0.000000,9326.594869
4044.387320,306.438199,-0.000000,9548.656652
4044.387635,0.000000,444.123565,9622.677246
4044.387950,76.609550,-0.000000,9252.574275
4044.388265,306.438199,222.061783,9474.636058
4044.388580,0.000000,148.041188,9252.574275
4044.388895,-383.047749,-0.000000,9696.697840
4044.389210,306.438199,296.082377,9474.636058
4044.389525,0.000000,148.041188,9548.656652
4044.389840,229.828649,370.102971,9696.697840
4044.390155,76.609550,296.082377,9400.615463
4044.390470,229.828649,-0.000000,9474.636058
4044.390785,0.000000,-0.000000,9770.718434
4044.391100,229.828649,592.164754,9474.636058
4044.391415,0.000000,370.102971,9770.718434
4044.391730,76.609550,370.102971,9696.697840
4044.392045,689.485948,222.061783,10066.800811
4044.392360,0.000000,370.102971,9696.697840
4044.392675,76.609550,666.185348,9400.615463
4044.392990,153.219100,444.123565,9992.780217
4044.393305,0.000000,370.102971,10066.800811
4044.393620,153.219100,-0.000000,9992.780217
4044.393935,0.000000,592.164754,9770.718434
4044.394250,76.609550,370.102971,9474.636058
4044.394565,153.219100,370.102971,10066.800811
4044.394880,0.000000,296.082377,9844.739029
4044.395195,0.000000,222.061783,9844.739029
4044.395509,0.000000,444.123565,9548.656652
4044.395824,76.609550,296.082377,9770.718434
4044.396139,153.219100,370.102971,9770.718434
4044.396454,306.438199,-0.000000,9622.677246
4044.396769,76.609550,-0.000000,9548.656652
4044.397084,153.219100,-0.000000,9548.656652
4044.397399,0.000000,-0.000000,9622.677246
4044.397714,0.000000,148.041188,9696.697840
4044.398029,153.219100,296.082377,9474.636058
4044.398344,76.609550,-0.000000,9548.656652
4044.398659,76.609550,-0.000000,9400.615463
4044.398974,0.000000,148.041188,9400.615463
4044.399289,612.876398,-0.000000,9548.656652
4044.399604,153.219100,-0.000000,9474.636058
4044.399919,153.219100,-0.000000,9474.636058
4044.400234,0.000000,-0.000000,9400.615463
4044.400549,229.828649,-0.000000,9622.677246
4044.400864,383.047749,-148.041188,8882.471304
4044.401179,153.219100,-370.102971,9400.615463
4044.401494,153.219100,-0.000000,9622.677246
4044.401809,-153.219100,-74.020594,9178.553681
4044.402124,0.000000,-0.000000,9622.677246
4044.402439,153.219100,-0.000000,9992.780217
4044.402754,0.000000,-0.000000,9844.739029
4044.403069,153.219100,-74.020594,9252.574275
4044.403384,306.438199,-0.000000,9178.553681
4044.403699,383.047749,222.061783,9696.697840
4044.404014,-229.828649,-222.061783,9548.656652
4044.404329,-229.828649,-74.020594,9770.718434
4044.404644,0.000000,-148.041188,9474.636058
4044.404959,76.609550,-0.000000,9474.636058
4044.405274,229.828649,148.041188,9622.677246
4044.405589,-153.219100,-0.000000,9770.718434
4044.405904,0.000000,-0.000000,9770.718434
4044.406219,0.000000,-0.000000,9474.636058
4044.406534,229.828649,-0.000000,9474.636058
4044.406849,229.828649,-0.000000,9548.656652
4044.407164,0.000000,-0.000000,9474.636058
4044.407479,-306.438199,-0.000000,9770.718434
4044.407794,0.000000,-0.000000,9474.636058
4044.408109,0.000000,-0.000000,9474.636058
4044.408424,459.657299,148.041188,9992.780217
4044.408739,536.266849,-0.000000,9622.677246
4044.409054,0.000000,222.061783,9770.718434
4044.409369,153.219100,-0.000000,9548.656652
4044.409684,153.219100,148.041188,9622.677246
4044.409999,153.219100,-0.000000,9622.677246
4044.410314,306.438199,-0.000000,9474.636058
4044.410629,306.438199,444.123565,9474.636058
4044.410944,153.219100,296.082377,9548.656652
4044.411259,306.438199,296.082377,9548.656652
4044.411574,689.485948,370.102971,9474.636058
4044.411889,229.828649,-0.000000,9474.636058
4044.412204,306.438199,-0.000000,9696.697840
4044.412519,229.828649,148.041188,9474.636058
4044.412834,153.219100,296.082377,9622.677246
4044.413149,383.047749,222.061783,9992.780217
4044.413464,459.657299,-0.000000,9770.718434
4044.413779,229.828649,-0.000000,9252.574275
4044.414094,153.219100,370.102971,9252.574275
4044.414409,76.609550,592.164754,9992.780217
4044.414724,229.828649,-0.000000,9770.718434
4044.415039,76.609550,444.123565,9696.697840
4044.415354,76.609550,444.123565,9918.759623
4044.415669,0.000000,370.102971,9474.636058
4044.415984,0.000000,444.123565,9622.677246
4044.416299,153.219100,296.082377,9844.739029
4044.416614,0.000000,296.082377,9548.656652
4044.416929,153.219100,222.061783,9326.594869
4044.417244,-153.219100,222.061783,9400.615463
4044.417559,0.000000,370.102971,9622.677246
4044.417874,459.657299,222.061783,9770.718434
4044.418189,0.000000,370.102971,9770.718434
4044.418504,0.000000,148.041188,9548.656652
4044.418819,0.000000,-0.000000,9548.656652
4044.419134,0.000000,444.123565,9474.636058
4044.419449,76.609550,296.082377,9622.677246
4044.419764,153.219100,296.082377,9474.636058
4044.420079,0.000000,74.020594,9252.574275
4044.420394,153.219100,222.061783,9696.697840
4044.420709,229.828649,-0.000000,9474.636058
4044.421024,383.047749,-74.020594,9400.615463
4044.421339,153.219100,-0.000000,9474.636058
4044.421654,383.047749,-0.000000,9474.636058
4044.421969,306.438199,-0.000000,9622.677246
4044.422284,0.000000,-74.020594,9252.574275
4044.422599,153.219100,-222.061783,9696.697840
4044.422914,383.047749,-0.000000,9992.780217
4044.423229,459.657299,-0.000000,9474.636058
4044.423544,459.657299,-0.000000,9548.656652
4044.423859,459.657299,-0.000000,9844.739029
4044.424174,229.828649,-74.020594,9844.739029
4044.424489,229.828649,-0.000000,9326.594869
4044.424804,76.609550,-0.000000,9252.574275
4044.425119,229.828649,-0.000000,9992.780217
4044.425434,229.828649,-0.000000,9696.697840
4044.425749,383.047749,-0.000000,9918.759623
4044.426064,0.000000,-0.000000,9770.718434
4044.426379,153.219100,-0.000000,9252.574275
4044.426694,0.000000,-0.000000,9474.636058
4044.427009,0.000000,-0.000000,9622.677246
4044.427324,76.609550,-0.000000,9844.739029
4044.427639,-153.219100,-0.000000,9474.636058
4044.427954,0.000000,-0.000000,9474.636058
4044.428269,76.609550,-0.000000,9548.656652
4044.428584,0.000000,-0.000000,9696.697840
4044.428899,0.000000,-0.000000,9622.677246
4044.429214,0.000000,-74.020594,9474.636058
4044.429529,0.000000,-0.000000,9326.594869
4044.429844,76.609550,-0.000000,9030.512492
4044.430159,0.000000,-0.000000,9474.636058
4044.430474,76.609550,222.061783,9844.739029
4044.430789,0.000000,-0.000000,9104.533087
4044.431104,76.609550,148.041188,9474.636058
4044.431419,229.828649,-0.000000,9474.636058
4044.431734,76.609550,-0.000000,9474.636058
4044.432049,-76.609550,222.061783,9770.718434
4044.432364,76.609550,-0.000000,9474.636058
4044.432679,229.828649,370.102971,9844.739029
4044.432994,306.438199,222.061783,9326.594869
4044.433309,229.828649,-148.041188,9548.656652
4044.433624,229.828649,-0.000000,10066.800811
4044.433939,-229.828649,-0.000000,9918.759623
4044.434254,0.000000,222.061783,9696.697840
4044.434569,229.828649,222.061783,10066.800811
4044.434884,229.828649,222.061783,10066.800811
4044.435199,76.609550,-0.000000,9622.677246
4044.435514,0.000000,222.061783,9918.759623
4044.435829,459.657299,592.164754,9992.780217
4044.436144,306.438199,-0.000000,9696.697840
4044.436459,153.219100,222.061783,9844.739029
4044.436774,76.609550,296.082377,9992.780217
4044.437089,153.219100,296.082377,10140.821405
4044.437404,0.000000,296.082377,9622.677246
4044.437719,0.000000,296.082377,9622.677246
4044.438034,229.828649,222.061783,9844.739029
4044.438349,0.000000,222.061783,9770.718434
4044.438664,-229.828649,-0.000000,9622.677246
4044.438979,459.657299,518.144159,9844.739029
4044.439294,153.219100,518.144159,9548.656652
4044.439609,0.000000,296.082377,9622.677246
4044.439923,0.000000,-0.000000,9622.677246
4044.440238,536.266849,-0.000000,9474.636058
4044.440553,0.000000,370.102971,9326.594869
4044.440868,76.609550,-0.000000,9474.636058
4044.441183,0.000000,444.123565,9548.656652
4044.441498,0.000000,296.082377,9178.553681
4044.441813,536.266849,-0.000000,9178.553681
4044.442128,383.047749,-0.000000,9474.636058
4044.442443,76.609550,-74.020594,9252.574275
4044.442758,0.000000,296.082377,9326.594869
4044.443073,153.219100,222.061783,9178.553681
4044.443388,383.047749,296.082377,9622.677246
4044.443703,0.000000,-0.000000,9326.594869
4044.444018,229.828649,-148.041188,9622.677246
4044.444333,0.000000,-0.000000,9622.677246
4044.444648,0.000000,-0.000000,9400.615463
4044.444963,76.609550,-148.041188,9252.574275
4044.445278,0.000000,-0.000000,9918.759623
4044.445593,76.609550,222.061783,9548.656652
4044.445908,153.219100,-74.020594,9474.636058
4044.446223,153.219100,148.041188,9400.615463
4044.446538,229.828649,-296.082377,9770.718434
4044.446853,229.828649,-0.000000,9696.697840
4044.447168,0.000000,-0.000000,9844.739029
4044.447483,0.000000,-0.000000,9696.697840
4044.447798,76.609550,-0.000000,9622.677246
4044.448113,-229.828649,296.082377,9696.697840
4044.448428,0.000000,-0.000000,9696.697840
4044.448743,0.000000,-0.000000,9844.739029
4044.449058,0.000000,-0.000000,9770.718434
4044.449373,229.828649,-0.000000,9696.697840
4044.449688,383.047749,-222.061783,9622.677246
4044.450003,0.000000,-0.000000,9844.739029
4044.450318,0.000000,-0.000000,9474.636058
4044.450634,153.219100,-0.000000,9474.636058
4044.450949,76.609550,-0.000000,9326.594869
4044.451264,229.828649,-518.144159,9252.574275
4044.451579,153.219100,222.061783,9696.697840
4044.451894,76.609550,296.082377,9474.636058
4044.452209,-383.047749,-0.000000,9104.533087
4044.452524,0.000000,222.061783,9252.574275
4044.452839,153.219100,-0.000000,9474.636058
4044.453154,612.876398,592.164754,9474.636058
4044.453469,229.828649,370.102971,9474.636058
4044.453784,536.266849,296.082377,9030.512492
4044.454099,306.438199,444.123565,9030.512492
4044.454414,306.438199,-0.000000,9474.636058
4044.454729,153.219100,-0.000000,9622.677246
4044.455044,76.609550,-0.000000,9696.697840
4044.455359,-306.438199,296.082377,9474.636058
4044.455674,0.000000,-0.000000,9474.636058
4044.455989,153.219100,148.041188,9770.718434
4044.456304,383.047749,-0.000000,9548.656652
4044.456620,153.219100,-0.000000,9400.615463
4044.456935,229.828649,222.061783,9474.636058
4044.457250,153.219100,444.123565,9770.718434
4044.457565,306.438199,-0.000000,9918.759623
4044.457880,76.609550,444.123565,10066.800811
4044.458195,-229.828649,370.102971,9844.739029
4044.458510,0.000000,222.061783,9622.677246
4044.458825,229.828649,370.102971,9844.739029
4044.459140,76.609550,518.144159,10066.800811
4044.459455,0.000000,222.061783,10140.821405
4044.459770,76.609550,370.102971,9770.718434
4044.460085,153.219100,-0.000000,9696.697840
4044.460400,0.000000,-0.000000,9844.739029
4044.460715,-459.657299,-0.000000,9696.697840
4044.461030,-766.095498,296.082377,9844.739029
4044.461345,-306.438199,148.041188,9770.718434
4044.461660,-383.047749,444.123565,9474.636058
4044.461975,0.000000,296.082377,9696.697840
4044.462290,-766.095498,518.144159,9770.718434
4044.462605,-766.095498,444.123565,9696.697840
4044.462921,-612.876398,296.082377,9400.615463
4044.463236,-459.657299,370.102971,9474.636058
4044.463551,-229.828649,222.061783,9474.636058
4044.463866,0.000000,444.123565,9548.656652
4044.464181,-76.609550,740.205942,9326.594869
4044.464496,76.609550,740.205942,9104.533087
4044.464811,-229.828649,1184.329507,8808.450710
4044.465126,-383.047749,740.205942,8882.471304
4044.465441,-842.705048,740.205942,9104.533087
4044.465756,-1302.362347,814.226536,8956.491898
4044.466071,-1378.971896,888.247130,8808.450710
4044.466386,-1762.019645,666.185348,9030.512492
4044.466701,-1915.238745,666.185348,9474.636058
4044.467016,-2681.334243,962.267725,9696.697840
4044.467331,-2451.505594,1258.350101,9696.697840
4044.467646,-2528.115143,1184.329507,9326.594869
4044.467961,-2451.505594,1702.473667,9770.718434
4044.468276,-2451.505594,1924.535449,9548.656652
4044.468591,-2528.115143,2294.638420,9696.697840
4044.468906,-2451.505594,2294.638420,9252.574275
4044.469222,-2374.896044,2368.659014,8882.471304
4044.469537,-2221.676944,2516.700203,8808.450710
4044.469852,-3064.381992,3256.906145,8956.491898
4044.470167,-2987.772442,3108.864956,9622.677246
4044.470482,-3294.210641,3182.885551,9178.553681
4044.470797,-3600.648841,2664.741391,9400.615463
4044.471112,-3447.429741,2664.741391,9918.759623
4044.471427,-4136.915689,2146.597232,10140.821405
4044.471742,-4213.525239,2368.659014,9992.780217
4044.472057,-3524.039291,2738.761985,10140.821405
4044.472372,-3370.820191,3330.926739,10140.821405
4044.472687,-2987.772442,3849.070898,10288.862594
4044.473002,-2757.943793,4219.173869,9844.739029
4044.473317,-2451.505594,5477.523971,9622.677246
4044.473632,-2068.457845,5699.585753,8808.450710
4044.473947,-2298.286494,5921.647536,9326.594869
4044.474262,-2374.896044,5551.544565,9474.636058
4044.474577,-2451.505594,4885.359217,10288.862594
4044.474892,-2681.334243,4737.318029,10362.883188
4044.475207,-2528.115143,3849.070898,10584.944971
4044.475523,-2451.505594,3627.009116,11103.089130
4044.475838,-1991.848295,3404.947333,11325.150913
4044.476153,-1991.848295,3404.947333,11029.068536
4044.476468,-1225.752797,3404.947333,10436.903782
4044.476783,-306.438199,3627.009116,9548.656652
4044.477098,306.438199,4367.215058,8956.491898
4044.477413,766.095498,4367.215058,8882.471304
4044.477728,459.657299,4441.235652,8882.471304
4044.478043,306.438199,4589.276840,9030.512492
4044.478358,0.000000,4219.173869,9178.553681
4044.478673,-766.095498,3701.029710,9770.718434
4044.478988,-1225.752797,2516.700203,10658.965565
4044.479303,-1838.629195,1924.535449,11547.212695
4044.479618,-1915.238745,1184.329507,11843.295072
4044.479933,-1838.629195,518.144159,11843.295072
4044.480248,-1378.971896,1036.288319,11769.274478
4044.480563,-1149.143247,1258.350101,11325.150913
4044.480878,0.000000,1776.494261,10288.862594
4044.481193,536.266849,2072.576638,9770.718434
4044.481508,919.314598,2146.597232,9252.574275
4044.481824,1225.752797,1924.535449,8808.450710
4044.482139,1225.752797,1258.350101,8882.471304
4044.482454,766.095498,666.185348,9104.533087
4044.482769,842.705048,222.061783,9696.697840
4044.483084,1072.533697,-888.247130,9548.656652
4044.483399,612.876398,-1628.453072,10214.842000
4044.483714,0.000000,-1850.514855,10066.800811
4044.484029,0.000000,-1258.350101,9326.594869
4044.484344,76.609550,-1110.308913,9030.512492
4044.484659,-383.047749,-370.102971,8290.306550
4044.484974,0.000000,-370.102971,7994.224174
4044.485289,-995.924147,-296.082377,8142.265362
4044.485604,-1149.143247,-296.082377,7698.141797
4044.485919,-1685.410096,-444.123565,8142.265362
4044.486234,-2145.067394,-1110.308913,9326.594869
4044.486549,-2145.067394,-1702.473667,9622.677246
4044.486864,-2068.457845,-1998.556043,10658.965565
4044.487179,-1838.629195,-1850.514855,11103.089130
4044.487494,-1378.971896,-2368.659014,11103.089130
4044.487810,-383.047749,-1628.453072,11251.130318
4044.488125,766.095498,-1110.308913,10362.883188
4044.488440,1302.362347,-740.205942,9400.615463
4044.488755,995.924147,-296.082377,8734.430116
4044.489070,1225.752797,148.041188,7105.977043
4044.489385,383.047749,-0.000000,6809.894666
4044.489700,229.828649,148.041188,6957.935855
4044.490015,-689.485948,-962.267725,7179.997637
4044.490330,-1838.629195,-1702.473667,7254.018232
4044.490645,-2834.553343,-2738.761985,8660.409521
4044.490960,-3830.477490,-3182.885551,9918.759623
4044.491275,-4443.353888,-3775.050304,10955.047942
4044.491590,-3677.258390,-2960.823768,11325.150913
4044.491905,-2681.334243,-2812.782580,11177.109724
4044.492220,-2145.067394,-1924.535449,11399.171507
4044.492535,-919.314598,-1184.329507,11399.171507
4044.492850,153.219100,-0.000000,10510.924376
4044.493165,1608.800546,1332.370696,9474.636058
4044.493480,2451.505594,2368.659014,8364.327145
4044.493795,2834.553343,2664.741391,7328.038826
4044.494111,2911.162892,2220.617826,7179.997637
4044.494426,2834.553343,2294.638420,7105.977043
4044.494741,1455.581446,888.247130,7179.997637
4044.495056,383.047749,-148.041188,8290.306550
4044.495371,-919.314598,-962.267725,8660.409521
4044.495686,-2221.676944,-1554.432478,9400.615463
4044.496001,-3140.991542,-2368.659014,10288.862594
4044.496316,-3524.039291,-2442.679609,10510.924376
4044.496631,-2604.724693,-1850.514855,10807.006753
4044.496946,-1532.190996,-1332.370696,10881.027347
4044.497261,0.000000,370.102971,10658.965565
4044.497576,1455.581446,2072.576638,10214.842000
4044.497891,3217.601092,3182.885551,9252.574275
4044.498206,4596.572988,4441.235652,8734.430116
4044.498521,5745.716235,5551.544565,8586.388927
4044.498836,6281.983084,5181.441594,8290.306550
4044.499151,5209.449386,5255.462188,8586.388927
4044.499466,3753.867940,4293.194464,8512.368333
4044.499781,2451.505594,3256.906145,8808.450710
4044.500096,229.828649,1480.411884,9474.636058
4044.500412,-1685.410096,-370.102971,11325.150913
4044.500727,-3294.210641,-1406.391290,11695.253884
4044.501042,-4060.306139,-2146.597232,12139.377449
4044.501357,-3447.429741,-2146.597232,12583.501014
4044.501672,-2451.505594,-1776.494261,12879.583391
4044.501987,-1149.143247,-518.144159,12583.501014
4044.502302,919.314598,592.164754,11769.274478
4044.502617,2528.115143,2146.597232,10881.027347
4044.502932,4290.134789,3552.988522,9918.759623
4044.503247,5362.668486,4885.359217,8882.471304
4044.503562,5362.668486,4737.318029,8216.285956
4044.503877,4903.011187,4515.256246,7920.203579
4044.504192,3753.867940,3478.967927,7920.203579
4044.504507,1378.971896,1998.556043,8068.244768
4044.504822,-229.828649,-296.082377,9178.553681
4044.505137,-2757.943793,-2072.576638,10362.883188
4044.505452,-4749.792088,-3552.988522,11103.089130
4044.505767,-5822.325785,-4515.256246,12287.418637
4044.506082,-5898.935335,-4959.379811,13027.624579
4044.506397,-4826.401637,-4663.297435,12731.542202
4044.506713,-3677.258390,-3478.967927,12287.418637
4044.507028,-2068.457845,-1998.556043,11695.253884
4044.507343,153.219100,-148.041188,9992.780217
4044.507658,2528.115143,2072.576638,8660.409521
4044.507973,4213.525239,3256.906145,7254.018232
4044.508288,4596.572988,3627.009116,6513.812290
4044.508603,4673.182538,4145.153275,5995.668130
4044.508918,3983.696590,3330.926739,5921.647536
4044.509233,2604.724693,1998.556043,6291.750507
4044.509548,536.266849,-222.061783,6809.894666
4044.509863,-1608.800546,-2146.597232,8068.244768
4044.510178,-3983.696590,-4589.276840,10066.800811
4044.510493,-5669.106685,-5403.503377,10436.903782
4044.510808,-6281.983084,-6069.688724,11621.233289
4044.511123,-5898.935335,-5329.482782,11621.233289
4044.511438,-4596.572988,-4219.173869,11325.150913
4044.511753,-3064.381992,-2664.741391,11251.130318
4044.512068,-995.924147,-1554.432478,10288.862594
4044.512383,1762.019645,370.102971,9474.636058
4044.512698,3907.087040,2294.638420,8142.265362
4044.513014,5362.668486,3923.091493,6809.894666
4044.513329,5745.716235,4145.153275,6809.894666
4044.513644,5745.716235,4219.173869,6513.812290
4044.513959,4596.572988,3108.864956,6661.853478
4044.514274,2604.724693,1554.432478,7254.018232
4044.514589,306.438199,-518.144159,8290.306550
4044.514904,-1991.848295,-2886.803174,9252.574275
4044.515219,-3830.477490,-4885.359217,10881.027347
4044.515534,-5362.668486,-6069.688724,12287.418637
4044.515849,-6358.592633,-6439.791695,12879.583391
4044.516164,-5669.106685,-5847.626942,12509.480420
4044.516479,-3600.648841,-4293.194464,12435.459826
4044.516794,-1532.190996,-2294.638420,11473.192101
4044.517109,766.095498,296.082377,11103.089130
4044.517424,3677.258390,2960.823768,9030.512492
4044.517739,5822.325785,4515.256246,7550.100608
4044.518054,6894.859482,5551.544565,7105.977043
4044.518369,7277.907231,5551.544565,7105.977043
4044.518684,6435.202183,4885.359217,7254.018232
4044.519000,4749.792088,3849.070898,7179.997637
4044.519315,2145.067394,2220.617826,8068.244768
4044.519630,-612.876398,-0.000000,9548.656652
4044.519945,-3294.210641,-2294.638420,10881.027347
4044.520260,-5362.668486,-3849.070898,11769.274478
4044.520575,-6894.859482,-4811.338623,13249.686362
4044.520890,-6358.592633,-4959.379811,13545.768739
4044.521205,-4826.401637,-3552.988522,12953.603985
4044.521520,-2757.943793,-1332.370696,12213.398043
4044.521835,-459.657299,814.226536,11325.150913
4044.522150,2221.676944,3701.029710,9548.656652
4044.522465,5056.230287,5921.647536,7920.203579
4044.522780,6818.249932,7328.038826,6735.874072
4044.523095,7354.516781,7179.997637,6365.771101
4044.523410,6818.249932,7031.956449,6957.935855
4044.523725,4903.011187,5773.606348,7105.977043
4044.524040,2451.505594,3330.926739,8290.306550
4044.524355,-536.266849,740.205942,9178.553681
4044.524670,-2757.943793,-1258.350101,10214.842000
4044.524985,-5362.668486,-3404.947333,11843.295072
4044.525301,-6971.469032,-4219.173869,12879.583391
4044.525616,-7201.297681,-4737.318029,13323.706956
4044.525931,-6435.202183,-3997.112087,12361.439231
4044.526246,-4290.134789,-2368.659014,12435.459826
4044.526561,-1915.238745,-0.000000,11103.089130
4044.526876,766.095498,1554.432478,9622.677246
4044.527191,3524.039291,3627.009116,8808.450710
4044.527506,5822.325785,5329.482782,7402.059420
4044.527821,6894.859482,5847.626942,6587.832884
4044.528136,6818.249932,5995.668130,6143.709319
4044.528451,5515.887586,5403.503377,6069.688724
4044.528766,3217.601092,3701.029710,6587.832884
4044.529081,1225.752797,888.247130,8142.265362
4044.529396,-1685.410096,-1702.473667,9178.553681
4044.529711,-4519.963438,-4071.132681,10510.924376
4044.530026,-5975.544884,-5699.585753,11621.233289
4044.530341,-7354.516781,-6217.729913,12731.542202
4044.530656,-6511.811733,-5773.606348,13323.706956
4044.530971,-5515.887586,-4145.153275,12361.439231
4044.531286,-2987.772442,-2146.597232,11843.295072
4044.531602,76.609550,-148.041188,11029.068536
4044.531917,2528.115143,1998.556043,9252.574275
4044.532232,5056.230287,4219.173869,7105.977043
4044.532547,6971.469032,5477.523971,6587.832884
4044.532862,7507.735880,5847.626942,5921.647536
4044.533177,6741.640382,5181.441594,6069.688724
4044.533492,5056.230287,3997.112087,6143.709319
4044.533807,2528.115143,2072.576638,7328.038826
4044.534122,-459.657299,-148.041188,8068.244768
4044.534437,-2451.505594,-2368.659014,9400.615463
4044.534752,-5286.058936,-5181.441594,11177.109724
4044.535067,-6818.249932,-6291.750507,12435.459826
4044.535382,-7354.516781,-6883.915261,13101.645173
4044.535697,-6205.373534,-5847.626942,12953.603985
4044.536012,-4213.525239,-4145.153275,12805.562797
4044.536327,-1685.410096,-1924.535449,11769.274478
4044.536642,1685.410096,962.267725,9992.780217
4044.536957,4366.744339,3034.844362,8586.388927
4044.537272,6435.202183,4737.318029,6883.915261
4044.537587,7277.907231,5699.585753,6217.729913
4044.537903,7354.516781,5699.585753,6291.750507
4044.538218,6435.202183,4885.359217,6143.709319
4044.538533,3830.477490,2812.782580,6735.874072
4044.538848,1302.362347,666.185348,8068.244768
4044.539163,-1455.581446,-2146.597232,9326.594869
4044.539478,-3983.696590,-4293.194464,10807.006753
4044.539793,-6128.763984,-6291.750507,12065.356855
4044.540108,-7431.126331,-7031.956449,13101.645173
4044.540423,-6894.859482,-6957.935855,13545.768739
4044.540738,-5439.278036,-5403.503377,13101.645173
4044.541053,-3140.991542,-3256.906145,12287.418637
4044.541368,-612.876398,-888.247130,11029.068536
4044.541683,2451.505594,2146.597232,9696.697840
4044.541998,5209.449386,4515.256246,7994.224174
4044.542313,7354.516781,5403.503377,7031.956449
4044.542628,7354.516781,6143.709319,6809.894666
4044.542943,6665.030833,5921.647536,6069.688724
4044.543258,5515.887586,4811.338623,6661.853478
4044.543573,2834.553343,2368.659014,7328.038826
4044.543888,-383.047749,-148.041188,9104.533087
4044.544204,-3064.381992,-2368.659014,10436.903782
4044.544519,-5669.106685,-4737.318029,11621.233289
4044.544834,-7124.688131,-5921.647536,12731.542202
4044.545149,-7354.516781,-6587.832884,13619.789333
4044.545464,-6511.811733,-5255.462188,12953.603985
4044.545779,-4673.182538,-3627.009116,12213.398043
4044.546094,-2298.286494,-1332.370696,11473.192101
4044.546409,1225.752797,1554.432478,9992.780217
4044.546724,4366.744339,3923.091493,8290.306550
4044.547039,6588.421283,5773.606348,6809.894666
4044.547354,7354.516781,7179.997637,6069.688724
4044.547669,7890.783629,6883.915261,5773.606348
4044.547984,6971.469032,5921.647536,5921.647536
4044.548299,4826.401637,4071.132681,7105.977043
4044.548614,1608.800546,1702.473667,8438.347739
4044.548929,-1532.190996,-222.061783,8956.491898
4044.549244,-4060.306139,-2812.782580,10658.965565
4044.549559,-6435.202183,-4811.338623,11991.336260
4044.549874,-7584.345430,-5773.606348,13175.665768
4044.550190,-7201.297681,-5921.647536,13397.727550
4044.550505,-5515.887586,-4145.153275,12953.603985
4044.550820,-2911.162892,-1998.556043,12065.356855
4044.551135,-536.266849,296.082377,10732.986159
4044.551450,2604.724693,2664.741391,9622.677246
4044.551766,5209.449386,4737.318029,8290.306550
4044.552081,7354.516781,7031.956449,7031.956449
4044.552396,7890.783629,6883.915261,6291.750507
4044.552711,7507.735880,6809.894666,6143.709319
4044.553027,5822.325785,5255.462188,7179.997637
4044.553342,2298.286494,2812.782580,7476.080014
4044.553657,-459.657299,592.164754,8586.388927
4044.553972,-3217.601092,-1998.556043,10510.924376
4044.554287,-5669.106685,-4663.297435,11843.295072
4044.554603,-7584.345430,-5847.626942,13397.727550
4044.554918,-7814.174080,-6365.771101,13989.892304
4044.555233,-6665.030833,-5921.647536,13841.851115
4044.555548,-4903.011187,-3923.091493,12953.603985
4044.555863,-1991.848295,-1332.370696,12287.418637
4044.556179,1072.533697,962.267725,10510.924376
4044.556494,3983.696590,3034.844362,8586.388927
4044.556809,6741.640382,5477.523971,6883.915261
4044.557124,7584.345430,6513.812290,6143.709319
4044.557439,7201.297681,6661.853478,5847.626942
4044.557755,6281.983084,5625.565159,5847.626942
4044.558070,3983.696590,3108.864956,6513.812290
4044.558385,1225.752797,888.247130,7772.162391
4044.558700,-1762.019645,-1850.514855,9474.636058
4044.559015,-4903.011187,-4811.338623,10881.027347
4044.559331,-7201.297681,-6439.791695,12361.439231
4044.559646,-7737.564530,-7179.997637,13323.706956
4044.559961,-7354.516781,-6809.894666,13175.665768
4044.560276,-6052.154434,-4959.379811,11843.295072
4044.560591,-3983.696590,-2960.823768,12361.439231
4044.560907,-766.095498,-888.247130,10510.924376
4044.561222,2604.724693,1332.370696,8438.347739
4044.561537,5439.278036,4737.318029,7402.059420
4044.561852,7048.078582,5995.668130,6143.709319
4044.562168,7354.516781,6439.791695,6143.709319
4044.562483,7048.078582,6217.729913,5773.606348
4044.562798,5439.278036,4071.132681,5995.668130
4044.563113,2987.772442,1998.556043,7105.977043
4044.563428,-153.219100,-148.041188,8512.368333
4044.563744,-3064.381992,-3330.926739,10362.883188
4044.564059,-5286.058936,-5329.482782,11325.150913
4044.564374,-7890.783629,-6735.874072,13101.645173
4044.564689,-7431.126331,-7254.018232,13323.706956
4044.565004,-6281.983084,-6069.688724,13027.624579
4044.565320,-4519.963438,-3775.050304,12657.521608
4044.565635,-1225.752797,-1702.473667,11399.171507
4044.565950,1225.752797,1184.329507,9992.780217
4044.566265,4213.525239,3849.070898,8438.347739
4044.566580,6971.469032,5625.565159,7031.956449
4044.566896,7890.783629,6439.791695,6365.771101
4044.567211,7890.783629,6513.812290,6143.709319
4044.567526,6588.421283,5551.544565,6291.750507
4044.567841,3983.696590,3775.050304,6735.874072
4044.568156,1072.533697,1332.370696,7994.224174
4044.568472,-1762.019645,-1776.494261,9992.780217
4044.568787,-4596.572988,-4441.235652,11399.171507
4044.569102,-7201.297681,-5847.626942,12953.603985
4044.569417,-7890.783629,-6365.771101,14137.933492
4044.569732,-7584.345430,-6143.709319,13619.789333
4044.570048,-5515.887586,-4441.235652,12953.603985
4044.570363,-3294.210641,-2294.638420,12657.521608
4044.570678,0.000000,370.102971,11325.150913
4044.570993,2987.772442,3108.864956,9474.636058
4044.571309,5975.544884,5477.523971,7179.997637
4044.571624,7814.174080,7105.977043,6291.750507
4044.571939,8044.002729,7328.038826,5847.626942
4044.572254,7354.516781,6809.894666,6439.791695
4044.572569,5056.230287,4959.379811,6291.750507
4044.572885,2681.334243,2664.741391,7698.141797
4044.573200,0.000000,-0.000000,8956.491898
4044.573515,-3447.429741,-2812.782580,10214.842000
4044.573830,-5975.544884,-4737.318029,11621.233289
4044.574145,-7814.174080,-5995.668130,13545.768739
4044.574461,-7737.564530,-6217.729913,14137.933492
4044.574776,-6128.763984,-5403.503377,13249.686362
4044.575091,-4366.744339,-2738.761985,12287.418637
4044.575406,-1225.752797,-222.061783,11399.171507
4044.575721,1762.019645,2368.659014,9474.636058
4044.576037,4903.011187,4441.235652,8142.265362
4044.576352,7507.735880,6217.729913,6587.832884
4044.576667,7890.783629,7031.956449,5921.647536
4044.576982,7660.954980,6883.915261,5773.606348
4044.577297,6358.592633,5181.441594,6439.791695
4044.577613,3830.477490,3404.947333,7179.997637
4044.577928,459.657299,740.205942,7994.224174
4044.578243,-2451.505594,-1924.535449,9548.656652
4044.578558,-4903.011187,-4367.215058,11251.130318
4044.578873,-7201.297681,-6365.771101,12287.418637
4044.579189,-7967.393179,-7105.977043,13249.686362
4044.579504,-7124.688131,-6217.729913,13619.789333
4044.579819,-5439.278036,-4293.194464,12731.542202
4044.580134,-2987.772442,-2146.597232,11843.295072
4044.580450,0.000000,-0.000000,10288.862594
4044.580765,3217.601092,2664.741391,8956.491898
4044.581080,6128.763984,5403.503377,7105.977043
4044.581395,7814.174080,6069.688724,6143.709319
4044.581710,7967.393179,6143.709319,5699.585753
4044.582026,7660.954980,5847.626942,6069.688724
4044.582341,4979.620737,3997.112087,6365.771101
4044.582656,2451.505594,1850.514855,7550.100608
4044.582971,-919.314598,-740.205942,9030.512492
4044.583286,-3753.867940,-3701.029710,9918.759623
4044.583602,-5898.935335,-5773.606348,12065.356855
4044.583917,-7201.297681,-7254.018232,12657.521608
4044.584232,-7584.345430,-7105.977043,13471.748144
4044.584547,-6205.373534,-5773.606348,13027.624579
4044.584862,-4060.306139,-3404.947333,12361.439231
4044.585178,-1225.752797,-1184.329507,11547.212695
4044.585493,1762.019645,1480.411884,9548.656652
4044.585808,4596.572988,4145.153275,8142.265362
4044.586123,7048.078582,5847.626942,6809.894666
4044.586438,8044.002729,6883.915261,5847.626942
4044.586754,7737.564530,6291.750507,5921.647536
4044.587069,6052.154434,4885.359217,6661.853478
4044.587384,3677.258390,3108.864956,7105.977043
4044.587699,229.828649,740.205942,8216.285956
4044.588015,-2604.724693,-2072.576638,9992.780217
4044.588330,-5362.668486,-4811.338623,11251.130318
4044.588645,-7584.345430,-6365.771101,12509.480420
4044.588960,-8120.612279,-7105.977043,13841.851115
4044.589275,-7354.516781,-6069.688724,13249.686362
4044.589591,-5515.887586,-4589.276840,13027.624579
4044.589906,-2757.943793,-2442.679609,12509.480420
4044.590221,229.828649,370.102971,10214.842000
4044.590536,3907.087040,3330.926739,8882.471304
4044.590851,6741.640382,5403.503377,6661.853478
4044.591167,8120.612279,6291.750507,5847.626942
4044.591482,8120.612279,6883.915261,6143.709319
4044.591797,7354.516781,6365.771101,6069.688724
4044.592112,5056.230287,4441.235652,6661.853478
4044.592427,2451.505594,2072.576638,8068.244768
4044.592743,-612.876398,-370.102971,9326.594869
4044.593058,-3830.477490,-3627.009116,10732.986159
4044.593373,-6435.202183,-5699.585753,12361.439231
4044.593688,-7507.735880,-6587.832884,13175.665768
4044.594003,-7660.954980,-6957.935855,13249.686362
4044.594319,-6588.421283,-4959.379811,13249.686362
4044.594634,-3907.087040,-2812.782580,12435.459826
4044.594949,-1072.533697,-518.144159,11177.109724
4044.595264,2298.286494,2294.638420,9770.718434
4044.595579,5439.278036,4663.297435,8216.285956
4044.595895,7507.735880,6143.709319,7031.956449
4044.596210,8120.612279,7031.956449,5921.647536
4044.596525,7967.393179,6513.812290,5699.585753
4044.596840,6588.421283,5403.503377,6365.771101
4044.597156,3830.477490,3330.926739,7254.018232
4044.597471,612.876398,740.205942,9104.533087
4044.597786,-2374.896044,-2072.576638,10140.821405
4044.598101,-5209.449386,-4589.276840,11325.150913
4044.598416,-7277.907231,-6143.709319,12583.501014
4044.598732,-7431.126331,-6587.832884,13397.727550
4044.599047,-6818.249932,-6217.729913,14063.912898
4044.599362,-5286.058936,-4293.194464,12657.521608
4044.599677,-2451.505594,-1628.453072,11991.336260
4044.599992,612.876398,740.205942,10214.842000
4044.600308,3753.867940,2960.823768,8512.368333
4044.600623,6281.983084,5773.606348,7328.038826
4044.600938,7431.126331,6957.935855,6143.709319
4044.601253,8197.221829,7031.956449,5847.626942
4044.601568,7354.516781,6143.709319,5847.626942
4044.601884,5209.449386,3923.091493,7105.977043
4044.602199,2298.286494,1850.514855,8364.327145
4044.602514,-919.314598,-592.164754,9104.533087
4044.602829,-4136.915689,-3552.988522,10658.965565
4044.603144,-6741.640382,-6069.688724,12583.501014
4044.603460,-7431.126331,-6661.853478,13767.830521
4044.603775,-7814.174080,-6957.935855,13545.768739
4044.604090,-6588.421283,-5255.462188,12731.542202
4044.604405,-3677.258390,-3034.844362,12139.377449
4044.604720,-919.314598,-888.247130,10807.006753
4044.605036,1915.238745,1702.473667,9474.636058
4044.605351,4826.401637,4145.153275,7994.224174
4044.605666,7277.907231,5921.647536,6587.832884
4044.605981,7967.393179,6957.935855,5699.585753
4044.606297,7584.345430,6217.729913,5847.626942
4044.606612,6128.763984,5107.421000,6291.750507
4044.606927,3140.991542,2960.823768,7105.977043
4044.607242,0.000000,592.164754,8142.265362
4044.607557,-2528.115143,-2516.700203,10436.903782
4044.607873,-5592.497135,-5551.544565,11325.150913
4044.608188,-7584.345430,-6735.874072,12879.583391
4044.608503,-8044.002729,-7179.997637,13841.851115
4044.608818,-7584.345430,-6735.874072,12953.603985
4044.609133,-5898.935335,-4367.215058,12657.521608
4044.609449,-2298.286494,-2072.576638,11843.295072
4044.609764,536.266849,518.144159,9918.759623
4044.610079,3447.429741,3108.864956,8290.306550
4044.610394,6435.202183,5477.523971,7105.977043
4044.610709,7431.126331,6291.750507,6069.688724
4044.611025,7354.516781,6957.935855,5699.585753
4044.611340,6971.469032,6587.832884,5773.606348
4044.611655,4903.011187,4515.256246,6217.729913
4044.611970,2068.457845,2220.617826,7994.224174
4044.612285,-842.705048,-518.144159,8882.471304
4044.612601,-4213.525239,-3627.009116,10732.986159
4044.612916,-6818.249932,-5329.482782,12065.356855
4044.613231,-8120.612279,-6143.709319,13249.686362
4044.613546,-7737.564530,-6513.812290,13471.748144
4044.613861,-6128.763984,-5107.421000,13027.624579
4044.614177,-4366.744339,-2664.741391,13027.624579
4044.614492,-1149.143247,-814.226536,10732.986159
4044.614807,2374.896044,2368.659014,9252.574275
4044.615122,5592.497135,5033.400406,7698.141797
4044.615438,7354.516781,6291.750507,6439.791695
4044.615753,7814.174080,7105.977043,5995.668130
4044.616068,7737.564530,7105.977043,6143.709319
4044.616383,6052.154434,5477.523971,6513.812290
4044.616698,3677.258390,3330.926739,7031.956449
4044.617014,689.485948,1110.308913,8734.430116
4044.617329,-2451.505594,-2072.576638,10658.965565
4044.617644,-5439.278036,-4737.318029,11695.253884
4044.617959,-7354.516781,-6069.688724,13175.665768
4044.618274,-8044.002729,-6735.874072,14137.933492
4044.618590,-7124.688131,-6069.688724,14137.933492
4044.618905,-5056.230287,-3775.050304,13323.706956
4044.619220,-2451.505594,-1850.514855,11843.295072
4044.619535,689.485948,666.185348,10584.944971
4044.619850,4136.915689,3330.926739,8956.491898
4044.620166,6588.421283,5995.668130,7179.997637
4044.620481,8120.612279,6957.935855,6439.791695
4044.620796,8580.269578,6957.935855,5477.523971
4044.621111,7507.735880,5921.647536,6291.750507
4044.621426,4979.620737,3997.112087,6513.812290
4044.621742,1838.629195,1702.473667,7994.224174
4044.622057,-1072.533697,-1036.288319,9252.574275
4044.622372,-3983.696590,-3849.070898,10955.047942
4044.622687,-6511.811733,-5699.585753,12731.542202
4044.623002,-7967.393179,-6661.853478,13323.706956
4044.623318,-7660.954980,-7105.977043,13471.748144
4044.623633,-5975.544884,-5329.482782,13027.624579
4044.623948,-3677.258390,-3182.885551,12361.439231
4044.624263,-766.095498,-740.205942,11177.109724
4044.624579,1915.238745,2294.638420,9622.677246
4044.624894,5592.497135,4737.318029,7550.100608
4044.625209,7737.564530,5995.668130,5921.647536
4044.625524,8197.221829,6957.935855,5625.565159
4044.625839,8120.612279,6587.832884,5625.565159
4044.626155,5822.325785,4959.379811,6143.709319
4044.626470,3677.258390,2738.761985,7105.977043
4044.626785,612.876398,-0.000000,8142.265362
4044.627100,-2451.505594,-2812.782580,9622.677246
4044.627415,-5669.106685,-5255.462188,11251.130318
4044.627731,-7354.516781,-6661.853478,12953.603985
4044.628046,-8197.221829,-7179.997637,13471.748144
4044.628361,-7124.688131,-6513.812290,13545.768739
4044.628676,-5132.839837,-4441.235652,12657.521608
4044.628991,-2374.896044,-2294.638420,11843.295072
4044.629307,612.876398,296.082377,9844.739029
4044.629622,3600.648841,3034.844362,8808.450710
4044.629937,6358.592633,5255.462188,6809.894666
4044.630252,7737.564530,6735.874072,6143.709319
4044.630567,7660.954980,7031.956449,5329.482782
4044.630883,6818.249932,5921.647536,6217.729913
4044.631198,4826.401637,4219.173869,6661.853478
4044.631513,1378.971896,1332.370696,7698.141797
4044.631828,-1762.019645,-1184.329507,9104.533087
4044.632143,-4519.963438,-4441.235652,11325.150913
4044.632459,-7354.516781,-5921.647536,12657.521608
4044.632774,-8044.002729,-6735.874072,13841.851115
4044.633089,-7507.735880,-6957.935855,13619.789333
4044.633404,-6358.592633,-5107.421000,13027.624579
4044.633720,-4136.915689,-3034.844362,12213.398043
4044.634035,-995.924147,-518.144159,11177.109724
4044.634350,2221.676944,2442.679609,9474.636058
4044.634665,5669.106685,5255.462188,7772.162391
4044.634980,7354.516781,6661.853478,6513.812290
4044.635296,7660.954980,6809.894666,6069.688724
4044.635611,7737.564530,6661.853478,5995.668130
4044.635926,5669.106685,4885.359217,6143.709319
4044.636241,2834.553343,2664.741391,7328.038826
4044.636556,0.000000,222.061783,8734.430116
4044.636872,-3524.039291,-3256.906145,10140.821405
4044.637187,-6128.763984,-4885.359217,11843.295072
4044.637502,-7431.126331,-5921.647536,13249.686362
4044.637817,-7890.783629,-6513.812290,13619.789333
4044.638132,-7124.688131,-5625.565159,13397.727550
4044.638448,-4979.620737,-3256.906145,12879.583391
4044.638763,-1532.190996,-1036.288319,11547.212695
4044.639078,1302.362347,1406.391290,9992.780217
4044.639393,4673.182538,4145.153275,8512.368333
4044.639708,7124.688131,6365.771101,6957.935855
4044.640024,8580.269578,7105.977043,5773.606348
4044.640339,8810.098227,7179.997637,5699.585753
4044.640654,7124.688131,5995.668130,6439.791695
4044.640969,4519.963438,4071.132681,7105.977043
4044.641284,1378.971896,1924.535449,8290.306550
4044.641600,-1532.190996,-1406.391290,9474.636058
4044.641915,-4596.572988,-4219.173869,11029.068536
4044.642230,-6741.640382,-6217.729913,11843.295072
4044.642545,-7814.174080,-6661.853478,13249.686362
4044.642861,-7124.688131,-6513.812290,13545.768739
4044.643176,-5439.278036,-5033.400406,12805.562797
4044.643491,-2834.553343,-2294.638420,11917.315666
4044.643806,76.609550,-0.000000,10362.883188
4044.644121,3217.601092,2960.823768,8882.471304
4044.644437,5975.544884,5255.462188,7105.977043
4044.644752,7354.516781,6365.771101,6069.688724
4044.645067,8197.221829,6587.832884,6291.750507
4044.645382,7507.735880,6069.688724,5995.668130
4044.645697,5515.887586,4367.215058,6365.771101
4044.646013,2911.162892,2442.679609,7772.162391
4044.646328,0.000000,-222.061783,8512.368333
4044.646643,-2987.772442,-2960.823768,10066.800811
4044.646958,-5745.716235,-5329.482782,11695.253884
4044.647273,-7507.735880,-6439.791695,13101.645173
4044.647589,-7584.345430,-7254.018232,13545.768739
4044.647904,-6205.373534,-6069.688724,13545.768739
4044.648219,-4519.963438,-3701.029710,12657.521608
4044.648534,-1608.800546,-1184.329507,11547.212695
4044.648849,1838.629195,1480.411884,9992.780217
4044.649165,4673.182538,3997.112087,8290.306550
4044.649480,6588.421283,5773.606348,6809.894666
4044.649795,7737.564530,7031.956449,5921.647536
4044.650110,7814.174080,6735.874072,5329.482782
4044.650425,6511.811733,4959.379811,6587.832884
4044.650741,3907.087040,3182.885551,6809.894666
4044.651056,689.485948,222.061783,8586.388927
4044.651371,-2374.896044,-1924.535449,9844.739029
4044.651686,-5362.668486,-4515.256246,11177.109724
4044.652002,-7431.126331,-6143.709319,12435.459826
4044.652317,-7507.735880,-7105.977043,13545.768739
4044.652632,-7584.345430,-6661.853478,13323.706956
4044.652947,-5898.935335,-4663.297435,12361.439231
4044.653263,-3217.601092,-2294.638420,12287.418637
4044.653578,0.000000,-370.102971,10658.965565
4044.653893,2834.553343,2072.576638,9104.533087
4044.654208,5515.887586,4737.318029,7402.059420
4044.654524,7124.688131,6661.853478,6661.853478
4044.654839,7584.345430,6883.915261,5847.626942
4044.655154,7201.297681,6069.688724,5699.585753
4044.655469,5592.497135,4367.215058,6513.812290
4044.655785,2451.505594,1924.535449,7920.203579
4044.656100,-689.485948,-148.041188,8660.409521
4044.656415,-3294.210641,-3256.906145,9844.739029
4044.656730,-6128.763984,-5551.544565,11843.295072
4044.657046,-7737.564530,-6735.874072,13323.706956
4044.657361,-7890.783629,-6661.853478,13471.748144
4044.657676,-6741.640382,-5255.462188,13027.624579
4044.657991,-4519.963438,-3256.906145,12287.418637
4044.658307,-1608.800546,-1184.329507,11251.130318
4044.658622,1762.019645,1258.350101,9622.677246
4044.658937,4290.134789,3552.988522,8068.244768
4044.659252,6741.640382,5995.668130,6957.935855
4044.659568,8044.002729,7105.977043,5847.626942
4044.659883,7814.174080,7105.977043,5477.523971
4044.660198,6894.859482,5921.647536,6365.771101
4044.660513,3907.087040,3701.029710,6365.771101
4044.660829,1072.533697,1036.288319,8068.244768
4044.661144,-1762.019645,-1332.370696,9844.739029
4044.661459,-4903.011187,-3997.112087,11251.130318
4044.661774,-6894.859482,-5921.647536,12583.501014
4044.662090,-7814.174080,-6513.812290,13693.809927
4044.662405,-7124.688131,-6143.709319,13619.789333
4044.662720,-5669.106685,-4589.276840,13027.624579
4044.663035,-2987.772442,-1554.432478,12139.377449
4044.663351,0.000000,962.267725,10955.047942
4044.663666,3064.381992,3627.009116,9178.553681
4044.663981,6128.763984,5995.668130,7402.059420
4044.664296,7737.564530,6735.874072,6439.791695
4044.664612,7584.345430,6809.894666,5921.647536
4044.664927,7124.688131,6439.791695,6069.688724
4044.665242,5362.668486,4959.379811,6513.812290
4044.665557,2604.724693,2368.659014,7846.182985
4044.665873,-306.438199,-0.000000,9104.533087
4044.666188,-3447.429741,-2516.700203,10807.006753
4044.666503,-6205.373534,-5033.400406,11843.295072
4044.666818,-7507.735880,-6291.750507,13323.706956
4044.667134,-7737.564530,-6809.894666,13619.789333
4044.667449,-6818.249932,-5477.523971,13619.789333
4044.667764,-4519.963438,-3256.906145,13027.624579
4044.668079,-1378.971896,-888.247130,11621.233289
4044.668395,2221.676944,1628.453072,9548.656652
4044.668710,5362.668486,4219.173869,7994.224174
4044.669025,7201.297681,6143.709319,6809.894666
4044.669340,8273.831378,6735.874072,5847.626942
4044.669656,7890.783629,7105.977043,6069.688724
4044.669971,6894.859482,5403.503377,5995.668130
4044.670286,4443.353888,3182.885551,6365.771101
4044.670601,1225.752797,370.102971,8216.285956
4044.670917,-2068.457845,-2294.638420,9918.759623
4044.671232,-5056.230287,-4737.318029,11251.130318
4044.671547,-7048.078582,-6439.791695,12731.542202
4044.671862,-7967.393179,-7105.977043,13841.851115
4044.672178,-7354.516781,-6735.874072,13545.768739
4044.672493,-5515.887586,-4663.297435,12509.480420
4044.672808,-3140.991542,-2220.617826,12213.398043
4044.673123,229.828649,370.102971,10807.006753
4044.673439,3217.601092,2664.741391,8956.491898
4044.673754,5592.497135,4885.359217,6809.894666
4044.674069,8120.612279,6587.832884,6661.853478
4044.674384,8197.221829,6809.894666,5625.565159
4044.674700,6894.859482,5699.585753,5921.647536
4044.675015,4596.572988,4071.132681,6439.791695
4044.675330,1762.019645,1628.453072,7402.059420
4044.675645,-1072.533697,-1184.329507,8364.327145
4044.675961,-3600.648841,-4219.173869,10066.800811
4044.676276,-6205.373534,-6069.688724,11991.336260
4044.676591,-7584.345430,-7698.141797,13545.768739
4044.676906,-7584.345430,-7105.977043,13249.686362
4044.677222,-6358.592633,-5773.606348,12657.521608
4044.677537,-4060.306139,-3256.906145,12361.439231
4044.677852,-1072.533697,-740.205942,11251.130318
4044.678167,2298.286494,1702.473667,9326.594869
4044.678483,5132.839837,4145.153275,7846.182985
4044.678798,7431.126331,5625.565159,6439.791695
4044.679113,7814.174080,6439.791695,5551.544565
4044.679428,7890.783629,6143.709319,5773.606348
4044.679744,5975.544884,5107.421000,6217.729913
4044.680059,3370.820191,2960.823768,6883.915261
4044.680374,536.266849,444.123565,8438.347739
4044.680689,-2528.115143,-2590.720797,9548.656652
4044.681005,-5056.230287,-4811.338623,11325.150913
4044.681320,-7584.345430,-6143.709319,12953.603985
4044.681635,-7967.393179,-6883.915261,13841.851115
4044.681950,-7201.297681,-6439.791695,13693.809927
4044.682266,-5286.058936,-4367.215058,12731.542202
4044.682581,-2604.724693,-1924.535449,12213.398043
4044.682896,459.657299,962.267725,10288.862594
4044.683211,3677.258390,3552.988522,9178.553681
4044.683527,6435.202183,6143.709319,7105.977043
4044.683842,7737.564530,6661.853478,6291.750507
4044.684157,8273.831378,6809.894666,5625.565159
4044.684472,7431.126331,6513.812290,6217.729913
4044.684788,4979.620737,4145.153275,6957.935855
4044.685103,1838.629195,1776.494261,7846.182985
4044.685418,-1302.362347,-222.061783,9030.512492
4044.685733,-4136.915689,-3182.885551,10732.986159
4044.686049,-6588.421283,-5181.441594,11991.336260
4044.686364,-7737.564530,-6217.729913,13175.665768
4044.686679,-7737.564530,-6587.832884,13767.830521
4044.686994,-6665.030833,-4885.359217,13767.830521
4044.687310,-3677.258390,-2442.679609,12213.398043
4044.687625,-1072.533697,-0.000000,10955.047942
4044.687940,2068.457845,2516.700203,9474.636058
4044.688255,5439.278036,5329.482782,8290.306550
4044.688571,7584.345430,6809.894666,7031.956449
4044.688886,8197.221829,7105.977043,5847.626942
4044.689201,7814.174080,7105.977043,5773.606348
4044.689516,5822.325785,5477.523971,6439.791695
4044.689832,3140.991542,2886.803174,7105.977043
4044.690147,0.000000,370.102971,8586.388927
4044.690462,-2911.162892,-2590.720797,10140.821405
4044.690777,-5209.449386,-5181.441594,11399.171507
4044.691093,-7431.126331,-6439.791695,12805.562797
4044.691408,-7737.564530,-6513.812290,13397.727550
4044.691723,-7048.078582,-5921.647536,13545.768739
4044.692038,-4903.011187,-3256.906145,12583.501014
4044.692354,-1915.238745,-1110.308913,11769.274478
4044.692669,1225.752797,962.267725,9918.759623
4044.692984,4673.182538,3404.947333,8364.327145
4044.693299,6971.469032,5773.606348,7402.059420
4044.693615,8044.002729,6809.894666,5847.626942
4044.693930,8350.440928,6587.832884,5995.668130
4044.694245,6818.249932,5255.462188,6291.750507
4044.694560,4443.353888,3256.906145,7179.997637
4044.694876,1608.800546,1184.329507,8438.347739
4044.695191,-1608.800546,-1480.411884,8956.491898
4044.695506,-4443.353888,-4071.132681,10436.903782
4044.695821,-6818.249932,-5995.668130,11917.315666
4044.696137,-7890.783629,-6809.894666,13693.809927
4044.696452,-7354.516781,-6587.832884,13619.789333
4044.696767,-5592.497135,-5255.462188,12731.542202
4044.697082,-3447.429741,-2738.761985,12287.418637
4044.697398,-612.876398,-370.102971,11029.068536
4044.697713,2911.162892,2590.720797,9326.594869
4044.698028,5362.668486,4589.276840,7624.121203
4044.698343,7277.907231,5847.626942,6587.832884
4044.698659,7890.783629,6513.812290,6217.729913
4044.698974,7431.126331,5847.626942,5921.647536
4044.699289,5592.497135,3997.112087,6365.771101
4044.699604,3217.601092,1924.535449,7031.956449
4044.699920,76.609550,-222.061783,8290.306550
4044.700235,-2911.162892,-3256.906145,9622.677246
4044.700550,-5362.668486,-5181.441594,10955.047942
4044.700865,-7201.297681,-6661.853478,12287.418637
4044.701181,-7660.954980,-7105.977043,12879.583391
4044.701496,-6741.640382,-6217.729913,13027.624579
4044.701811,-4903.011187,-4071.132681,12583.501014
4044.702126,-1762.019645,-1998.556043,11547.212695
4044.702442,919.314598,666.185348,10362.883188
4044.702757,3600.648841,3256.906145,8882.471304
4044.703072,6358.592633,5329.482782,7402.059420
4044.703387,7354.516781,6439.791695,6143.709319
4044.703703,7890.783629,6439.791695,5403.503377
4044.704018,6435.202183,5403.503377,6365.771101
4044.704333,4213.525239,3627.009116,6735.874072
4044.704648,1149.143247,888.247130,7920.203579
4044.704964,-1608.800546,-1924.535449,9474.636058
4044.705279,-4903.011187,-3849.070898,11177.109724
4044.705594,-7277.907231,-5699.585753,11991.336260
4044.705909,-8197.221829,-6809.894666,13397.727550
4044.706225,-7737.564530,-6587.832884,13915.871710
4044.706540,-6205.373534,-5107.421000,13175.665768
4044.706855,-3677.258390,-2368.659014,12435.459826
4044.707170,-536.266849,148.041188,10658.965565
4044.707486,2604.724693,2664.741391,9474.636058
4044.707801,5439.278036,5033.400406,7698.141797
4044.708116,7201.297681,6661.853478,7031.956449
4044.708431,7737.564530,6957.935855,5847.626942
4044.708747,7584.345430,6291.750507,5551.544565
4044.709062,5592.497135,5107.421000,6661.853478
4044.709377,3064.381992,2664.741391,7624.121203
4044.709692,459.657299,740.205942,8734.430116
4044.710008,-2911.162892,-2072.576638,9770.718434
4044.710323,-5439.278036,-4811.338623,10881.027347
4044.710638,-7354.516781,-5773.606348,12731.542202
4044.710953,-7967.393179,-6439.791695,13397.727550
4044.711269,-6818.249932,-5551.544565,13175.665768
4044.711584,-4596.572988,-3034.844362,12657.521608
4044.711899,-1685.410096,-740.205942,11621.233289
4044.712214,1685.410096,1480.411884,10288.862594
4044.712530,4519.963438,4219.173869,8364.327145
4044.712845,7201.297681,6365.771101,7328.038826
4044.713160,8350.440928,7328.038826,5995.668130
4044.713475,8503.660028,7328.038826,5995.668130
4044.713791,7201.297681,6291.750507,6513.812290
4044.714106,4903.011187,4145.153275,6809.894666
4044.714421,1762.019645,1702.473667,7698.141797
4044.714736,-1685.410096,-1258.350101,9696.697840
4044.715052,-4443.353888,-3923.091493,11325.150913
4044.715367,-7048.078582,-5477.523971,13027.624579
4044.715682,-7890.783629,-6513.812290,13693.809927
4044.715997,-7354.516781,-6143.709319,13989.892304
4044.716313,-5745.716235,-4441.235652,13619.789333
4044.716628,-3370.820191,-1776.494261,12435.459826
4044.716943,-306.438199,370.102971,11177.109724
4044.717258,3064.381992,2812.782580,9696.697840
4044.717574,6052.154434,5403.503377,7772.162391
4044.717889,7660.954980,6661.853478,6587.832884
4044.718204,8120.612279,6587.832884,5847.626942
4044.718519,7660.954980,6365.771101,6217.729913
4044.718835,5669.106685,4441.235652,6439.791695
4044.719150,2757.943793,2146.597232,7254.018232
4044.719465,-229.828649,-74.020594,8586.388927
4044.719780,-3370.820191,-2886.803174,9992.780217
4044.720096,-6052.154434,-5255.462188,11695.253884
4044.720411,-7507.735880,-6661.853478,12731.542202
4044.720726,-7814.174080,-7328.038826,13841.851115
4044.721041,-7048.078582,-6439.791695,12953.603985
4044.721357,-4979.620737,-4145.153275,12805.562797
4044.721672,-2451.505594,-1776.494261,11695.253884
4044.721987,1838.629195,962.267725,9696.697840
4044.722302,4366.744339,3552.988522,8364.327145
4044.722618,7201.297681,5403.503377,6513.812290
4044.722933,7507.735880,6291.750507,6069.688724
4044.723248,7737.564530,6513.812290,5773.606348
4044.723563,6588.421283,5255.462188,5699.585753
4044.723879,4443.353888,3404.947333,6291.750507
4044.724194,1455.581446,740.205942,7698.141797
4044.724509,-1455.581446,-1850.514855,9622.677246
4044.724824,-4366.744339,-4589.276840,10510.924376
4044.725140,-6511.811733,-5995.668130,11769.274478
4044.725455,-8197.221829,-7328.038826,13249.686362
4044.725770,-7431.126331,-6883.915261,13323.706956
4044.726085,-6128.763984,-5255.462188,12657.521608
4044.726401,-3294.210641,-3108.864956,12065.356855
4044.726716,-459.657299,-518.144159,10732.986159
4044.727031,2757.943793,2146.597232,9252.574275
4044.727346,5362.668486,4737.318029,7772.162391
4044.727662,7584.345430,6217.729913,6809.894666
4044.727977,8273.831378,6809.894666,5847.626942
4044.728292,7584.345430,6217.729913,5773.606348
4044.728607,6205.373534,4737.318029,5921.647536
4044.728923,3370.820191,2442.679609,6883.915261
4044.729238,383.047749,-0.000000,8586.388927
4044.729553,-2528.115143,-2664.741391,9918.759623
4044.729868,-5439.278036,-5107.421000,11917.315666
4044.730184,-7507.735880,-6143.709319,13027.624579
4044.730499,-8273.831378,-6957.935855,13249.686362
4044.730814,-7201.297681,-6217.729913,13767.830521
4044.731129,-5209.449386,-4145.153275,12953.603985
4044.731445,-2451.505594,-1480.411884,12361.439231
4044.731760,919.314598,1110.308913,10807.006753
4044.732075,3907.087040,3775.050304,8808.450710
4044.732390,6971.469032,5773.606348,6735.874072
4044.732706,8197.221829,6883.915261,6365.771101
4044.733021,8350.440928,7328.038826,6291.750507
4044.733336,6435.202183,6291.750507,6143.709319
4044.733651,4290.134789,4589.276840,6809.894666
4044.733967,1608.800546,1998.556043,8142.265362
4044.734282,-1455.581446,-1036.288319,9178.553681
4044.734597,-4673.182538,-4071.132681,10658.965565
4044.734912,-7277.907231,-5625.565159,12805.562797
4044.735228,-8120.612279,-6513.812290,13989.892304
4044.735543,-7737.564530,-6661.853478,14063.912898
4044.735858,-6128.763984,-4367.215058,13397.727550
4044.736173,-4060.306139,-1850.514855,13101.645173
4044.736489,-766.095498,370.102971,10881.027347
4044.736804,2987.772442,2738.761985,9400.615463
4044.737119,5822.325785,5403.503377,7476.080014
4044.737434,7890.783629,7105.977043,6365.771101
4044.737750,8273.831378,7772.162391,4959.379811
4044.738065,7890.783629,7031.956449,6069.688724
4044.738380,5669.106685,5181.441594,6365.771101
4044.738695,3064.381992,2516.700203,7328.038826
4044.739011,0.000000,-0.000000,8734.430116
4044.739326,-3600.648841,-2960.823768,9992.780217
4044.739641,-5975.544884,-5033.400406,11843.295072
4044.739956,-7737.564530,-6365.771101,13249.686362
4044.740272,-7814.174080,-6809.894666,13471.748144
4044.740587,-6665.030833,-5773.606348,13471.748144
4044.740902,-4596.572988,-3775.050304,12509.480420
4044.741217,-1991.848295,-1258.350101,11103.089130
4044.741533,1608.800546,1184.329507,10288.862594
4044.741848,4519.963438,3923.091493,8438.347739
4044.742163,7354.516781,5921.647536,6809.894666
4044.742478,8044.002729,6661.853478,5921.647536
4044.742794,8503.660028,6809.894666,5181.441594
4044.743109,6818.249932,5181.441594,5551.544565
4044.743424,4443.353888,3552.988522,6439.791695
4044.743739,1302.362347,1184.329507,8290.306550
4044.744055,-1685.410096,-1554.432478,9178.553681
4044.744370,-4673.182538,-4515.256246,10881.027347
4044.744685,-6894.859482,-6735.874072,12065.356855
4044.745000,-8120.612279,-7328.038826,13471.748144
4044.745316,-7814.174080,-6957.935855,13989.892304
4044.745631,-5745.716235,-5107.421000,13249.686362
4044.745946,-3217.601092,-2664.741391,12657.521608
4044.746261,0.000000,-148.041188,10807.006753
4044.746577,3217.601092,2590.720797,9178.553681
4044.746892,5669.106685,4811.338623,7550.100608
4044.747207,7967.393179,6439.791695,6217.729913
4044.747522,8503.660028,6661.853478,5921.647536
4044.747838,7584.345430,5995.668130,5921.647536
4044.748153,5592.497135,4515.256246,6291.750507
4044.748468,2451.505594,2072.576638,7698.141797
4044.748783,-306.438199,-444.123565,8734.430116
4044.749099,-3600.648841,-3627.009116,10066.800811
4044.749414,-6588.421283,-5847.626942,11843.295072
4044.749729,-8273.831378,-6883.915261,13471.748144
4044.750044,-8656.879127,-7179.997637,13619.789333
4044.750360,-7048.078582,-6217.729913,13249.686362
4044.750675,-4903.011187,-3849.070898,12953.603985
4044.750990,-1915.238745,-1258.350101,11695.253884
4044.751305,995.924147,1036.288319,9770.718434
4044.751621,4290.134789,3923.091493,8142.265362
4044.751936,6741.640382,5699.585753,6513.812290
4044.752251,7890.783629,6735.874072,6143.709319
4044.752566,8044.002729,6957.935855,5329.482782
4044.752881,6358.592633,5403.503377,5995.668130
4044.753196,3447.429741,3108.864956,6439.791695
4044.753511,919.314598,888.247130,7846.182985
4044.753826,-2298.286494,-1628.453072,9326.594869
4044.754142,-5132.839837,-4589.276840,10732.986159
4044.754457,-7354.516781,-6217.729913,12731.542202
4044.754772,-8273.831378,-7105.977043,13545.768739
4044.755087,-7584.345430,-6587.832884,13471.748144
4044.755402,-5898.935335,-4663.297435,12879.583391
4044.755717,-3217.601092,-2072.576638,11991.336260
4044.756032,0.000000,592.164754,10288.862594
4044.756347,3294.210641,3034.844362,8808.450710
4044.756663,6205.373534,5107.421000,7328.038826
4044.756978,7431.126331,6587.832884,6069.688724
4044.757293,8120.612279,7402.059420,5847.626942
4044.757608,7507.735880,6587.832884,5995.668130
4044.757923,5669.106685,5033.400406,6513.812290
4044.758238,2528.115143,2664.741391,7994.224174
4044.758553,-766.095498,296.082377,9178.553681
4044.758868,-3907.087040,-2294.638420,10510.924376
4044.759184,-5745.716235,-5033.400406,11695.253884
4044.759499,-8044.002729,-6069.688724,13323.706956
4044.759814,-7814.174080,-6291.750507,13767.830521
4044.760129,-6818.249932,-5181.441594,13841.851115
4044.760444,-4443.353888,-2812.782580,13027.624579
4044.760759,-1378.971896,-0.000000,11769.274478
4044.761074,1838.629195,2294.638420,9992.780217
4044.761389,4826.401637,5181.441594,8290.306550
4044.761705,7201.297681,7105.977043,6957.935855
4044.762020,7967.393179,7328.038826,6365.771101
4044.762335,8427.050478,6957.935855,5551.544565
4044.762650,6358.592633,5995.668130,6291.750507
4044.762965,3753.867940,3552.988522,7402.059420
4044.763280,459.657299,1258.350101,8660.409521
4044.763595,-2221.676944,-1628.453072,9992.780217
4044.763910,-4903.011187,-4367.215058,11103.089130
4044.764225,-7048.078582,-5995.668130,13027.624579
4044.764541,-7890.783629,-6661.853478,13619.789333
4044.764856,-7048.078582,-6143.709319,13619.789333
4044.765171,-4903.011187,-4441.235652,13545.768739
4044.765486,-2374.896044,-1998.556043,11547.212695
4044.765801,612.876398,222.061783,10436.903782
4044.766116,3753.867940,2516.700203,9104.533087
4044.766431,6588.421283,5255.462188,7402.059420
4044.766746,7814.174080,6661.853478,6291.750507
4044.767062,8733.488677,6587.832884,5921.647536
4044.767377,7354.516781,5773.606348,6217.729913
4044.767692,5362.668486,3997.112087,5995.668130
4044.768007,2757.943793,1480.411884,7550.100608
4044.768322,-536.266849,-962.267725,8660.409521
4044.768637,-3447.429741,-3923.091493,10732.986159
4044.768952,-6052.154434,-5773.606348,12287.418637
4044.769267,-7507.735880,-7105.977043,12805.562797
4044.769583,-7507.735880,-7328.038826,13693.809927
4044.769898,-6052.154434,-5847.626942,12805.562797
4044.770213,-4060.306139,-3478.967927,12509.480420
4044.770528,-1455.581446,-888.247130,11251.130318
4044.770843,2068.457845,1480.411884,9252.574275
4044.771158,5132.839837,3849.070898,8216.285956
4044.771473,7201.297681,5625.565159,6587.832884
4044.771788,7737.564530,6365.771101,5699.585753
4044.772104,7354.516781,6217.729913,5699.585753
4044.772419,5822.325785,4441.235652,5995.668130
4044.772734,3753.867940,1998.556043,6809.894666
4044.773049,842.705048,-0.000000,8068.244768
4044.773364,-2528.115143,-2442.679609,9326.594869
4044.773679,-5362.668486,-4811.338623,11103.089130
4044.773994,-7354.516781,-6513.812290,12213.398043
4044.774309,-7967.393179,-7476.080014,13323.706956
4044.774625,-7354.516781,-6661.853478,12879.583391
4044.774940,-5745.716235,-4811.338623,12509.480420
4044.775255,-3064.381992,-2516.700203,11991.336260
4044.775570,153.219100,-0.000000,10510.924376
4044.775885,3907.087040,2368.659014,8660.409521
4044.776200,5898.935335,4811.338623,6957.935855
4044.776515,7354.516781,6291.750507,6291.750507
4044.776830,7737.564530,6735.874072,5773.606348
4044.777146,7124.688131,5847.626942,5773.606348
4044.777461,5209.449386,3997.112087,6291.750507
4044.777776,2221.676944,1850.514855,7624.121203
4044.778091,-1072.533697,-814.226536,8956.491898
4044.778406,-4060.306139,-3404.947333,10362.883188
4044.778721,-6741.640382,-5181.441594,11991.336260
4044.779036,-8120.612279,-6365.771101,13619.789333
4044.779351,-7737.564530,-6883.915261,13915.871710
4044.779666,-6511.811733,-5329.482782,13619.789333
4044.779982,-4519.963438,-2960.823768,12879.583391
4044.780297,-1149.143247,-592.164754,11029.068536
4044.780612,1685.410096,2442.679609,9474.636058
4044.780927,4903.011187,5255.462188,7698.141797
4044.781242,7354.516781,6957.935855,6735.874072
4044.781557,7967.393179,7328.038826,6069.688724
4044.781872,7890.783629,6661.853478,5995.668130
4044.782187,5898.935335,5847.626942,6587.832884
4044.782503,3217.601092,3923.091493,7254.018232
4044.782818,76.609550,1406.391290,8882.471304
4044.783133,-2834.553343,-1924.535449,10288.862594
4044.783448,-5592.497135,-4515.256246,11991.336260
4044.783763,-7354.516781,-5699.585753,13397.727550
4044.784078,-7890.783629,-5921.647536,13545.768739
4044.784393,-7048.078582,-5329.482782,13545.768739
4044.784708,-4979.620737,-3330.926739,12509.480420
4044.785024,-1915.238745,-888.247130,11843.295072
4044.785339,1072.533697,1480.411884,10436.903782
4044.785654,4443.353888,4145.153275,8290.306550
4044.785969,7277.907231,6217.729913,6661.853478
4044.786284,8656.879127,7179.997637,5847.626942
4044.786599,8810.098227,7254.018232,5847.626942
4044.786914,7048.078582,6291.750507,5847.626942
4044.787229,4826.401637,4145.153275,6735.874072
4044.787545,1838.629195,1850.514855,8068.244768
4044.787860,-1149.143247,-1554.432478,9104.533087
4044.788175,-4060.306139,-3775.050304,11177.109724
4044.788490,-7048.078582,-5477.523971,12213.398043
4044.788805,-8197.221829,-6365.771101,13471.748144
4044.789120,-7431.126331,-6069.688724,13767.830521
4044.789435,-5515.887586,-4737.318029,13249.686362
4044.789750,-3447.429741,-2368.659014,12583.501014
4044.790066,-383.047749,-0.000000,11103.089130
4044.790381,2911.162892,2664.741391,9622.677246
4044.790696,5898.935335,5033.400406,8142.265362
4044.791011,7737.564530,6365.771101,6291.750507
4044.791326,8120.612279,7105.977043,6365.771101
4044.791641,7660.954980,6661.853478,5995.668130
4044.791956,5669.106685,4737.318029,6735.874072
4044.792271,2757.943793,1924.535449,7550.100608
4044.792587,-383.047749,-222.061783,8438.347739
4044.792902,-3600.648841,-3256.906145,10214.842000
4044.793217,-6052.154434,-5773.606348,11547.212695
4044.793532,-7584.345430,-7105.977043,13027.624579
4044.793847,-7967.393179,-7402.059420,13693.809927
4044.794162,-7048.078582,-6439.791695,13619.789333
4044.794477,-4903.011187,-3775.050304,12583.501014
4044.794792,-2298.286494,-1702.473667,11399.171507
4044.795107,1072.533697,888.247130,9622.677246
4044.795423,3907.087040,3330.926739,8586.388927
4044.795738,7124.688131,5255.462188,6957.935855
4044.796053,7890.783629,5995.668130,6217.729913
4044.796368,7967.393179,6217.729913,5255.462188
4044.796683,6588.421283,5107.421000,5847.626942
4044.796998,4519.963438,3404.947333,6661.853478
4044.797313,919.314598,444.123565,7994.224174
4044.797628,-1991.848295,-2442.679609,9400.615463
4044.797944,-4596.572988,-5181.441594,10732.986159
4044.798259,-7124.688131,-7031.956449,11843.295072
4044.798574,-8197.221829,-7624.121203,13323.706956
4044.798889,-7431.126331,-7179.997637,13619.789333
4044.799204,-6052.154434,-4959.379811,12805.562797
4044.799519,-3140.991542,-2960.823768,11917.315666
4044.799834,0.000000,-370.102971,10288.862594
4044.800149,2911.162892,2368.659014,8956.491898
4044.800465,5822.325785,5181.441594,7254.018232
4044.800780,7737.564530,5921.647536,5625.565159
4044.801095,8580.269578,6587.832884,5551.544565
4044.801410,7431.126331,6069.688724,5773.606348
4044.801725,5286.058936,4515.256246,6513.812290
4044.802040,2451.505594,2294.638420,7328.038826
4044.802355,-306.438199,-222.061783,8882.471304
4044.802670,-3447.429741,-3330.926739,10140.821405
4044.802986,-6281.983084,-5477.523971,11843.295072
4044.803301,-7814.174080,-6069.688724,13323.706956
4044.803616,-8044.002729,-6587.832884,13619.789333
4044.803931,-6741.640382,-5551.544565,13397.727550
4044.804246,-4290.134789,-3108.864956,12361.439231
4044.804561,-1685.410096,-518.144159,11325.150913
4044.804876,1532.190996,1850.514855,9844.739029
4044.805191,4596.572988,4589.276840,8586.388927
4044.805507,7201.297681,6513.812290,6291.750507
4044.805822,7890.783629,7254.018232,6291.750507
4044.806137,7890.783629,7179.997637,5921.647536
4044.806452,6588.421283,5921.647536,6365.771101
4044.806767,3907.087040,3923.091493,7105.977043
4044.807082,766.095498,518.144159,8216.285956
4044.807397,-2451.505594,-1776.494261,9918.759623
4044.807712,-5286.058936,-3997.112087,11769.274478
4044.808027,-7201.297681,-5699.585753,13027.624579
4044.808343,-7814.174080,-6143.709319,13767.830521
4044.808658,-7201.297681,-5847.626942,13841.851115
4044.808973,-4979.620737,-3701.029710,13101.645173
4044.809288,-2221.676944,-888.247130,11769.274478
4044.809603,842.705048,1406.391290,10436.903782
4044.809918,3830.477490,4145.153275,8586.388927
4044.810233,6588.421283,5773.606348,7328.038826
4044.810548,7737.564530,7105.977043,6069.688724
4044.810864,8197.221829,7105.977043,5773.606348
4044.811179,7048.078582,6143.709319,6143.709319
4044.811494,4443.353888,4293.194464,6661.853478
4044.811809,1378.971896,1924.535449,8438.347739
4044.812124,-2068.457845,-740.205942,9770.718434
4044.812439,-4596.572988,-3404.947333,11177.109724
4044.812754,-6818.249932,-5255.462188,12509.480420
4044.813069,-7431.126331,-6143.709319,13471.748144
4044.813385,-7354.516781,-6143.709319,13915.871710
4044.813700,-6358.592633,-4441.235652,13545.768739
4044.814015,-3677.258390,-1924.535449,12435.459826
4044.814330,-459.657299,148.041188,11029.068536
4044.814645,2681.334243,2516.700203,9696.697840
4044.814960,5669.106685,4515.256246,7994.224174
4044.815275,7277.907231,5847.626942,6809.894666
4044.815590,7660.954980,6291.750507,5847.626942
4044.815906,7201.297681,5625.565159,5773.606348
4044.816221,5975.544884,4737.318029,6069.688724
4044.816536,3217.601092,1776.494261,7254.018232
4044.816851,76.609550,-0.000000,8290.306550
4044.817166,-3140.991542,-2960.823768,9474.636058
4044.817481,-5132.839837,-4959.379811,11029.068536
4044.817796,-7277.907231,-6809.894666,12435.459826
4044.818111,-7737.564530,-6809.894666,13249.686362
4044.818427,-6818.249932,-6143.709319,13101.645173
4044.818742,-4673.182538,-4071.132681,12287.418637
4044.819057,-1608.800546,-1628.453072,11325.150913
4044.819372,1225.752797,666.185348,9992.780217
4044.819687,3830.477490,2886.803174,8808.450710
4044.820002,6281.983084,5107.421000,7402.059420
4044.820317,7354.516781,5921.647536,5847.626942
4044.820632,7584.345430,5699.585753,6217.729913
4044.820948,6435.202183,4737.318029,6513.812290
4044.821263,4213.525239,2738.761985,6587.832884
4044.821578,1685.410096,888.247130,7772.162391
4044.821893,-1685.410096,-1776.494261,9030.512492
4044.822208,-4060.306139,-4293.194464,10658.965565
4044.822523,-6511.811733,-5995.668130,11843.295072
4044.822838,-7584.345430,-6735.874072,12657.521608
4044.823153,-7507.735880,-6809.894666,13249.686362
4044.823468,-5975.544884,-5551.544565,13027.624579
4044.823784,-3600.648841,-2738.761985,12435.459826
4044.824099,-612.876398,-444.123565,11251.130318
4044.824414,2528.115143,2072.576638,9548.656652
4044.824729,5822.325785,4367.215058,8512.368333
4044.825044,7507.735880,6069.688724,7105.977043
4044.825359,8120.612279,6661.853478,6439.791695
4044.825674,7507.735880,5847.626942,6143.709319
4044.825989,6052.154434,4589.276840,6365.771101
4044.826305,3217.601092,2368.659014,7105.977043
4044.826620,306.438199,-0.000000,8660.409521
4044.826935,-2834.553343,-2368.659014,9844.739029
4044.827250,-5362.668486,-4663.297435,11399.171507
4044.827565,-7124.688131,-5773.606348,12805.562797
4044.827880,-7660.954980,-6513.812290,13175.665768
4044.828195,-6971.469032,-5995.668130,13545.768739
4044.828510,-5056.230287,-3997.112087,12731.542202
4044.828826,-2528.115143,-1332.370696,11473.192101
4044.829141,766.095498,518.144159,9918.759623
4044.829456,4136.915689,3404.947333,8660.409521
4044.829771,6511.811733,6069.688724,7031.956449
4044.830086,7354.516781,6883.915261,5995.668130
4044.830401,7660.954980,7031.956449,6217.729913
4044.830716,6894.859482,6439.791695,6513.812290
4044.831031,4749.792088,4145.153275,6735.874072
4044.831347,1532.190996,1924.535449,8364.327145
4044.831662,-1685.410096,-888.247130,9400.615463
4044.831977,-4519.963438,-3256.906145,10807.006753
4044.832292,-6205.373534,-5255.462188,11325.150913
4044.832607,-8044.002729,-5625.565159,13027.624579
4044.832922,-7660.954980,-5403.503377,13397.727550
4044.833237,-6128.763984,-4367.215058,12805.562797
4044.833552,-3677.258390,-1776.494261,11843.295072
4044.833868,-766.095498,444.123565,10807.006753
4044.834183,2221.676944,2886.803174,9474.636058
4044.834498,5209.449386,5107.421000,8290.306550
4044.834813,7124.688131,6735.874072,6957.935855
4044.835128,8044.002729,7031.956449,6661.853478
4044.835443,7431.126331,6735.874072,6513.812290
4044.835758,5439.278036,5551.544565,6587.832884
4044.836073,2757.943793,3478.967927,7476.080014
4044.836389,-306.438199,518.144159,8734.430116
4044.836704,-2911.162892,-2664.741391,9992.780217
4044.837019,-5592.497135,-4589.276840,11695.253884
4044.837334,-7507.735880,-5403.503377,13101.645173
4044.837649,-8044.002729,-5773.606348,13545.768739
4044.837964,-7124.688131,-5255.462188,13323.706956
4044.838279,-5132.839837,-3108.864956,12657.521608
4044.838594,-1838.629195,-888.247130,11843.295072
4044.838909,1072.533697,962.267725,10140.821405
4044.839225,4443.353888,3627.009116,8808.450710
4044.839540,6741.640382,5255.462188,6957.935855
4044.839855,8273.831378,6587.832884,6291.750507
4044.840170,8197.221829,6217.729913,5921.647536
4044.840485,6741.640382,5403.503377,6217.729913
4044.840800,4519.963438,3330.926739,7179.997637
4044.841115,1991.848295,962.267725,7920.203579
4044.841430,-919.314598,-1628.453072,9104.533087
4044.841746,-3907.087040,-4293.194464,10658.965565
4044.842061,-6205.373534,-5995.668130,11843.295072
4044.842376,-7354.516781,-6735.874072,12731.542202
4044.842691,-7431.126331,-6809.894666,13471.748144
4044.843006,-5745.716235,-5107.421000,13471.748144
4044.843321,-3140.991542,-2960.823768,11991.336260
4044.843636,-383.047749,-740.205942,11029.068536
4044.843951,2681.334243,1702.473667,9622.677246
4044.844267,5439.278036,3849.070898,7994.224174
4044.844582,7354.516781,5699.585753,6957.935855
4044.844897,7737.564530,5995.668130,6069.688724
4044.845212,7660.954980,5847.626942,5847.626942
4044.845527,5822.325785,4219.173869,5921.647536
4044.845842,3217.601092,2072.576638,6883.915261
4044.846157,153.219100,-222.061783,7846.182985
4044.846472,-2911.162892,-3108.864956,9474.636058
4044.846788,-5209.449386,-5329.482782,11103.089130
4044.847103,-7277.907231,-6957.935855,12361.439231
4044.847418,-7507.735880,-7328.038826,13545.768739
4044.847733,-7201.297681,-6735.874072,13471.748144
4044.848048,-5439.278036,-4885.359217,12509.480420
4044.848363,-2681.334243,-1850.514855,12065.356855
4044.848678,766.095498,518.144159,10214.842000
4044.848993,3524.039291,2738.761985,8882.471304
4044.849309,6281.983084,5403.503377,7105.977043
4044.849624,7660.954980,6217.729913,6217.729913
4044.849939,7431.126331,6217.729913,5773.606348
4044.850254,7048.078582,5477.523971,6587.832884
4044.850569,4290.134789,3627.009116,6809.894666
4044.850884,1608.800546,962.267725,7476.080014
4044.851199,-1455.581446,-1776.494261,9252.574275
4044.851514,-4060.306139,-4367.215058,10214.842000
4044.851829,-6665.030833,-6069.688724,11473.192101
4044.852144,-7890.783629,-6587.832884,13101.645173
4044.852459,-8350.440928,-6439.791695,13619.789333
4044.852774,-6741.640382,-4885.359217,13027.624579
4044.853089,-4366.744339,-2664.741391,11695.253884
4044.853404,-1225.752797,-666.185348,10881.027347
4044.853720,2145.067394,1998.556043,9844.739029
4044.854035,4903.011187,4663.297435,8216.285956
4044.854350,6971.469032,6809.894666,6661.853478
4044.854665,7660.954980,7105.977043,5921.647536
4044.854980,7737.564530,7105.977043,5847.626942
4044.855295,5592.497135,5625.565159,6883.915261
4044.855610,2834.553343,3775.050304,7772.162391
4044.855925,153.219100,592.164754,8660.409521
4044.856240,-3140.991542,-2220.617826,9992.780217
4044.856555,-5669.106685,-4737.318029,11695.253884
4044.856870,-7737.564530,-5551.544565,13101.645173
4044.857185,-8350.440928,-5625.565159,13841.851115
4044.857500,-7277.907231,-5329.482782,13693.809927
4044.857815,-4903.011187,-3034.844362,13027.624579
4044.858131,-2221.676944,-222.061783,11769.274478
4044.858446,766.095498,2072.576638,10066.800811
4044.858761,3677.258390,4811.338623,8512.368333
4044.859076,6665.030833,6439.791695,7105.977043
4044.859391,8120.612279,7328.038826,6365.771101
4044.859706,8350.440928,7328.038826,6217.729913
4044.860021,6741.640382,6365.771101,6587.832884
4044.860336,4443.353888,4367.215058,6587.832884
4044.860651,1915.238745,1776.494261,8364.327145
4044.860966,-1915.238745,-666.185348,9992.780217
4044.861281,-4366.744339,-3404.947333,10807.006753
4044.861596,-6435.202183,-5181.441594,11917.315666
4044.861911,-7660.954980,-5921.647536,13323.706956
4044.862226,-6971.469032,-6217.729913,14211.954086
4044.862542,-5439.278036,-4145.153275,13249.686362
4044.862857,-2834.553343,-1554.432478,12213.398043
4044.863172,229.828649,-0.000000,11103.089130
4044.863487,3677.258390,3034.844362,9326.594869
4044.863802,6358.592633,4959.379811,7846.182985
4044.864117,8197.221829,6735.874072,6365.771101
4044.864432,8580.269578,7179.997637,6365.771101
4044.864747,7737.564530,6365.771101,5921.647536
4044.865062,5515.887586,4663.297435,6365.771101
4044.865377,2911.162892,2294.638420,7179.997637
4044.865692,-306.438199,-444.123565,8734.430116
4044.866007,-3524.039291,-2812.782580,10214.842000
4044.866322,-5898.935335,-5403.503377,11473.192101
4044.866637,-7967.393179,-6661.853478,13027.624579
4044.866952,-7814.174080,-6735.874072,13767.830521
4044.867268,-6588.421283,-5699.585753,13249.686362
4044.867583,-4519.963438,-3330.926739,12435.459826
4044.867898,-1378.971896,-888.247130,11547.212695
4044.868213,1838.629195,1184.329507,9770.718434
4044.868528,4290.134789,3478.967927,8364.327145
4044.868843,6281.983084,5181.441594,7179.997637
4044.869158,7354.516781,5847.626942,5995.668130
4044.869473,7660.954980,5477.523971,5773.606348
4044.869788,6281.983084,4811.338623,6217.729913
4044.870103,3753.867940,2368.659014,6957.935855
4044.870418,766.095498,222.061783,7994.224174
4044.870733,-2145.067394,-2368.659014,9030.512492
4044.871048,-4903.011187,-4959.379811,10510.924376
4044.871363,-7277.907231,-7031.956449,12065.356855
4044.871679,-8044.002729,-7254.018232,13175.665768
4044.871994,-7354.516781,-6735.874072,13767.830521
4044.872309,-5745.716235,-5181.441594,11917.315666
4044.872624,-3064.381992,-2886.803174,11695.253884
4044.872939,0.000000,-888.247130,10881.027347
4044.873254,2681.334243,1998.556043,9030.512492
4044.873569,5515.887586,4663.297435,7920.203579
4044.873884,7048.078582,5847.626942,6365.771101
4044.874199,7660.954980,5847.626942,6069.688724
4044.874514,6665.030833,5403.503377,5551.544565
4044.874829,4979.620737,3923.091493,6291.750507
4044.875144,2451.505594,1702.473667,7698.141797
4044.875459,-459.657299,-888.247130,8808.450710
4044.875774,-3064.381992,-3552.988522,10066.800811
4044.876090,-5745.716235,-6217.729913,11917.315666
4044.876405,-7277.907231,-6587.832884,12509.480420
4044.876720,-7431.126331,-6735.874072,12879.583391
4044.877035,-6741.640382,-5847.626942,13027.624579
4044.877350,-4366.744339,-3552.988522,12583.501014
4044.877665,-1608.800546,-1036.288319,11251.130318
4044.877980,1455.581446,1332.370696,9696.697840
4044.878295,4596.572988,3997.112087,8734.430116
4044.878610,7201.297681,6143.709319,7105.977043
4044.878925,8273.831378,6735.874072,6365.771101
4044.879240,7660.954980,6587.832884,6143.709319
4044.879555,6052.154434,5329.482782,6143.709319
4044.879870,3907.087040,3404.947333,6513.812290
4044.880185,1149.143247,1110.308913,8364.327145
4044.880501,-1762.019645,-1258.350101,9844.739029
4044.880816,-5132.839837,-3701.029710,10658.965565
4044.881131,-7201.297681,-5329.482782,11769.274478
4044.881446,-7660.954980,-5921.647536,13397.727550
4044.881761,-7124.688131,-5477.523971,13545.768739
4044.882076,-5439.278036,-3923.091493,13397.727550
4044.882391,-2911.162892,-1110.308913,12213.398043
4044.882706,306.438199,1110.308913,11251.130318
4044.883021,3677.258390,3775.050304,8734.430116
4044.883336,6128.763984,5551.544565,7476.080014
4044.883651,8044.002729,7031.956449,6809.894666
4044.883966,8044.002729,7476.080014,6217.729913
4044.884281,7507.735880,7254.018232,6069.688724
4044.884596,5439.278036,4959.379811,6809.894666
4044.884912,3140.991542,2220.617826,7476.080014
4044.885227,-842.705048,-296.082377,9178.553681
4044.885542,-3753.867940,-3108.864956,10510.924376
4044.885857,-5822.325785,-4737.318029,11843.295072
4044.886172,-7354.516781,-5921.647536,13397.727550
4044.886487,-7354.516781,-5847.626942,13767.830521
4044.886802,-6358.592633,-4737.318029,13323.706956
4044.887117,-3907.087040,-2442.679609,12435.459826
4044.887432,-1072.533697,-0.000000,11177.109724
4044.887747,1762.019645,2146.597232,9918.759623
4044.888062,4826.401637,4737.318029,8364.327145
4044.888377,7124.688131,6143.709319,6957.935855
4044.888692,7967.393179,6957.935855,6587.832884
4044.889007,7507.735880,6217.729913,6291.750507
4044.889323,6205.373534,4885.359217,6661.853478
4044.889638,3600.648841,3330.926739,7772.162391
4044.889953,612.876398,296.082377,8808.450710
4044.890268,-2604.724693,-2368.659014,9252.574275
4044.890583,-5132.839837,-4959.379811,10658.965565
4044.890898,-7124.688131,-6069.688724,12213.398043
4044.891213,-8120.612279,-6809.894666,13249.686362
4044.891528,-7354.516781,-6143.709319,13323.706956
4044.891843,-5362.668486,-4219.173869,12509.480420
4044.892158,-2451.505594,-1850.514855,11917.315666
4044.892473,383.047749,444.123565,10510.924376
4044.892788,3294.210641,2368.659014,8808.450710
4044.893103,6052.154434,4959.379811,7105.977043
4044.893418,7737.564530,5847.626942,6735.874072
4044.893734,7967.393179,6143.709319,5625.565159
4044.894049,6818.249932,5181.441594,5625.565159
4044.894364,4749.792088,3552.988522,6883.915261
4044.894679,1915.238745,814.226536,7476.080014
4044.894994,-1072.533697,-1924.535449,9178.553681
4044.895309,-3907.087040,-4441.235652,10436.903782
4044.895624,-6205.373534,-6291.750507,11547.212695
4044.895939,-7890.783629,-7031.956449,12879.583391
4044.896254,-7737.564530,-6957.935855,13175.665768
4044.896569,-5822.325785,-5921.647536,13175.665768
4044.896884,-3753.867940,-3478.967927,12213.398043
4044.897199,-995.924147,-1258.350101,11251.130318
4044.897514,2068.457845,1628.453072,9474.636058
4044.897829,4749.792088,3923.091493,7920.203579
4044.898145,6894.859482,5477.523971,7031.956449
4044.898460,7201.297681,6069.688724,6291.750507
4044.898775,7354.516781,6217.729913,5773.606348
4044.899090,5669.106685,4293.194464,6217.729913
4044.899405,2987.772442,2220.617826,7031.956449
4044.899720,0.000000,-148.041188,8438.347739
4044.900035,-3064.381992,-2886.803174,9770.718434
4044.900350,-5362.668486,-5477.523971,11399.171507
4044.900665,-7277.907231,-6513.812290,12361.439231
4044.900980,-7737.564530,-6957.935855,13545.768739
4044.901295,-7048.078582,-6217.729913,13249.686362
4044.901610,-4903.011187,-3849.070898,12583.501014
4044.901925,-1915.238745,-1924.535449,11843.295072
4044.902240,689.485948,666.185348,10584.944971
4044.902555,3983.696590,3404.947333,8882.471304
4044.902871,6205.373534,5773.606348,7328.038826
4044.903186,7660.954980,6735.874072,6217.729913
4044.903501,8044.002729,6587.832884,5699.585753
4044.903816,7277.907231,5995.668130,5921.647536
4044.904131,4826.401637,3849.070898,7105.977043
4044.904446,1762.019645,1702.473667,8068.244768
4044.904761,-1225.752797,-814.226536,9474.636058
4044.905076,-4213.525239,-3552.988522,10584.944971
4044.905391,-6358.592633,-5329.482782,11769.274478
4044.905706,-7814.174080,-5477.523971,13323.706956
4044.906021,-7584.345430,-5847.626942,13619.789333
4044.906336,-6358.592633,-3997.112087,13693.809927
4044.906651,-3447.429741,-1554.432478,12287.418637
4044.906966,-536.266849,740.205942,10955.047942
4044.907282,2451.505594,3478.967927,9548.656652
4044.907597,5592.497135,5773.606348,8216.285956
4044.907912,7431.126331,7031.956449,6809.894666
4044.908227,8350.440928,7328.038826,6069.688724
4044.908542,7660.954980,6735.874072,6217.729913
4044.908857,5745.716235,5329.482782,6957.935855
4044.909172,2834.553343,3478.967927,7920.203579
4044.909487,-459.657299,740.205942,9474.636058
4044.909802,-2911.162892,-2294.638420,9918.759623
4044.910117,-5745.716235,-4589.276840,11695.253884
4044.910432,-7660.954980,-5551.544565,12805.562797
4044.910747,-8197.221829,-5403.503377,13471.748144
4044.911062,-6281.983084,-4737.318029,13323.706956
4044.911377,-4519.963438,-2664.741391,12361.439231
4044.911693,-1608.800546,-296.082377,11473.192101
4044.912008,1302.362347,1702.473667,10288.862594
4044.912323,3830.477490,4293.194464,8660.409521
4044.912638,6588.421283,5773.606348,7402.059420
4044.912953,7584.345430,6809.894666,6661.853478
4044.913268,7967.393179,6735.874072,6439.791695
4044.913583,6435.202183,5551.544565,6291.750507
4044.913898,4060.306139,3330.926739,6809.894666
4044.914213,1225.752797,666.185348,8142.265362
4044.914528,-2221.676944,-1702.473667,9696.697840
4044.914843,-5056.230287,-4293.194464,11029.068536
4044.915158,-6971.469032,-6291.750507,11769.274478
4044.915473,-7737.564530,-6439.791695,12805.562797
4044.915788,-7431.126331,-6365.771101,12879.583391
4044.916104,-5515.887586,-4589.276840,13027.624579
4044.916419,-3370.820191,-2146.597232,11917.315666
4044.916734,-306.438199,-0.000000,10732.986159
4044.917049,3064.381992,2664.741391,9474.636058
4044.917364,5592.497135,4219.173869,7920.203579
4044.917679,7354.516781,5477.523971,7254.018232
4044.917994,7814.174080,5921.647536,6513.812290
4044.918309,7354.516781,5921.647536,5921.647536
4044.918624,6435.202183,4441.235652,6735.874072
4044.918939,2987.772442,1628.453072,7105.977043
4044.919254,0.000000,-666.185348,8290.306550
4044.919569,-3064.381992,-3478.967927,9696.697840
4044.919884,-5515.887586,-5773.606348,10955.047942
4044.920199,-6818.249932,-7105.977043,12287.418637
4044.920515,-7507.735880,-7105.977043,13027.624579
4044.920830,-6741.640382,-6365.771101,12805.562797
4044.921145,-4673.182538,-4145.153275,12583.501014
4044.921460,-1532.190996,-1480.411884,11325.150913
4044.921775,1608.800546,444.123565,9696.697840
4044.922090,4060.306139,2812.782580,8734.430116
4044.922405,6818.249932,5181.441594,7328.038826
4044.922720,7507.735880,6217.729913,6291.750507
4044.923035,7814.174080,5921.647536,5625.565159
4044.923350,6358.592633,4663.297435,6143.709319
4044.923665,4290.134789,2368.659014,7328.038826
4044.923980,1455.581446,296.082377,7920.203579
4044.924295,-1532.190996,-2072.576638,9104.533087
4044.924610,-4443.353888,-4663.297435,10510.924376
4044.924926,-6281.983084,-6365.771101,11917.315666
4044.925241,-7890.783629,-6735.874072,13027.624579
4044.925556,-7660.954980,-6809.894666,13175.665768
4044.925871,-5592.497135,-5255.462188,12805.562797
4044.926186,-2834.553343,-2664.741391,11473.192101
4044.926501,-76.609550,-74.020594,10510.924376
4044.926816,2757.943793,2368.659014,9474.636058
4044.927131,4903.011187,4737.318029,7920.203579
4044.927446,7048.078582,6291.750507,6735.874072
4044.927761,8273.831378,6217.729913,6143.709319
4044.928076,7354.516781,5773.606348,6217.729913
4044.928391,5209.449386,4441.235652,6735.874072
4044.928706,2374.896044,2368.659014,7328.038826
4044.929021,-383.047749,-0.000000,8734.430116
4044.929337,-3294.210641,-2442.679609,10288.862594
4044.929652,-5592.497135,-4737.318029,11621.233289
4044.929967,-7354.516781,-5699.585753,12879.583391
4044.930282,-7967.393179,-6069.688724,13101.645173
4044.930597,-7048.078582,-5255.462188,13249.686362
4044.930912,-4826.401637,-2738.761985,12583.501014
4044.931227,-1455.581446,-222.061783,11843.295072
4044.931542,1225.752797,2294.638420,10436.903782
4044.931857,4519.963438,4737.318029,8364.327145
4044.932172,7124.688131,6587.832884,7179.997637
4044.932487,7890.783629,7254.018232,6735.874072
4044.932802,7737.564530,7328.038826,6143.709319
4044.933117,6435.202183,6217.729913,6069.688724
4044.933432,4366.744339,4145.153275,6809.894666
4044.933747,1455.581446,1702.473667,8216.285956
4044.934063,-1608.800546,-1036.288319,9474.636058
4044.934378,-4903.011187,-3552.988522,11621.233289
4044.934693,-6818.249932,-4589.276840,11991.336260
4044.935008,-7660.954980,-5329.482782,12953.603985
4044.935323,-7431.126331,-5255.462188,13397.727550
4044.935638,-5515.887586,-4071.132681,13323.706956
4044.935953,-3140.991542,-1332.370696,11991.336260
4044.936268,-306.438199,518.144159,10881.027347
4044.936583,2987.772442,3108.864956,9104.533087
4044.936898,5822.325785,5181.441594,7994.224174
4044.937213,7124.688131,6513.812290,6957.935855
4044.937528,7507.735880,6513.812290,6587.832884
4044.937843,7354.516781,6365.771101,6217.729913
4044.938158,5515.887586,4515.256246,6587.832884
4044.938474,2911.162892,2368.659014,7550.100608
4044.938789,-229.828649,-296.082377,8808.450710
4044.939104,-2987.772442,-2368.659014,10510.924376
4044.939419,-5056.230287,-4737.318029,11325.150913
4044.939734,-6894.859482,-5773.606348,12879.583391
4044.940049,-7354.516781,-6143.709319,13841.851115
4044.940364,-6511.811733,-5699.585753,13471.748144
4044.940679,-4290.134789,-3404.947333,12805.562797
4044.940994,-1455.581446,-962.267725,11547.212695
4044.941309,1378.971896,888.247130,10066.800811
4044.941624,4290.134789,3478.967927,8956.491898
4044.941939,6435.202183,5403.503377,7105.977043
4044.942254,7660.954980,5995.668130,5921.647536
4044.942569,7660.954980,5773.606348,5773.606348
4044.942885,6358.592633,4885.359217,5847.626942
4044.943200,3677.258390,2738.761985,6957.935855
4044.943515,1072.533697,148.041188,7846.182985
4044.943830,-1762.019645,-2368.659014,8882.471304
4044.944145,-4673.182538,-4811.338623,10510.924376
4044.944460,-6435.202183,-6143.709319,12065.356855
4044.944775,-7354.516781,-6661.853478,12953.603985
4044.945090,-7277.907231,-6809.894666,12953.603985
4044.945405,-6052.154434,-5033.400406,12435.459826
4044.945720,-3677.258390,-3256.906145,11843.295072
4044.946035,-536.266849,-592.164754,11029.068536
4044.946350,2451.505594,1480.411884,9844.739029
4044.946665,5209.449386,3849.070898,7476.080014
4044.946980,7277.907231,5255.462188,6587.832884
4044.947296,7737.564530,5921.647536,6217.729913
4044.947611,6971.469032,5699.585753,5921.647536
4044.947926,5132.839837,3775.050304,5995.668130
4044.948241,3064.381992,2220.617826,6957.935855
4044.948556,153.219100,-666.185348,8068.244768
4044.948871,-2987.772442,-3552.988522,9622.677246
4044.949186,-5362.668486,-6143.709319,11029.068536
4044.949501,-7584.345430,-6661.853478,12435.459826
4044.949816,-7737.564530,-7031.956449,13397.727550
4044.950131,-6971.469032,-6217.729913,13619.789333
4044.950446,-4903.011187,-4071.132681,12435.459826
4044.950761,-2068.457845,-1850.514855,11843.295072
4044.951077,766.095498,1110.308913,9696.697840
4044.951392,3753.867940,3404.947333,8734.430116
4044.951707,6435.202183,5551.544565,7328.038826
4044.952022,7584.345430,6069.688724,6365.771101
4044.952337,7660.954980,6365.771101,6291.750507
4044.952652,6971.469032,5699.585753,6365.771101
4044.952967,4826.401637,3923.091493,7105.977043
4044.953282,1302.362347,1406.391290,7698.141797
4044.953598,-1838.629195,-962.267725,9326.594869
4044.953913,-5056.230287,-3627.009116,10881.027347
4044.954228,-6894.859482,-5551.544565,12139.377449
4044.954543,-8273.831378,-6291.750507,13619.789333
4044.954858,-8120.612279,-6365.771101,13841.851115
4044.955173,-6588.421283,-4515.256246,13249.686362
4044.955488,-3983.696590,-2146.597232,11917.315666
4044.955803,-766.095498,666.185348,11029.068536
4044.956119,2528.115143,3478.967927,9104.533087
4044.956434,5515.887586,6069.688724,7994.224174
4044.956749,8120.612279,7476.080014,6735.874072
4044.957064,8273.831378,7550.100608,5921.647536
4044.957379,7967.393179,7031.956449,6217.729913
4044.957694,5822.325785,5625.565159,6883.915261
4044.958009,3217.601092,3330.926739,7624.121203
4044.958324,0.000000,1036.288319,9178.553681
4044.958640,-2987.772442,-2368.659014,9992.780217
4044.958955,-5592.497135,-4441.235652,11769.274478
4044.959270,-7201.297681,-5551.544565,12583.501014
4044.959585,-7967.393179,-5847.626942,13693.809927
4044.959900,-7124.688131,-5107.421000,13841.851115
4044.960215,-4519.963438,-2516.700203,12805.562797
4044.960530,-1532.190996,-444.123565,11843.295072
4044.960845,1455.581446,1850.514855,10066.800811
4044.961160,4749.792088,4589.276840,8734.430116
4044.961476,7201.297681,6143.709319,7328.038826
4044.961791,8350.440928,7179.997637,6069.688724
4044.962106,8733.488677,7105.977043,5995.668130
4044.962421,6894.859482,5773.606348,6513.812290
4044.962736,3983.696590,3923.091493,7254.018232
4044.963051,919.314598,962.267725,8364.327145
4044.963366,-1991.848295,-1702.473667,9326.594869
4044.963681,-4673.182538,-4367.215058,11103.089130
4044.963997,-6894.859482,-5921.647536,12213.398043
4044.964312,-8350.440928,-6513.812290,13249.686362
4044.964627,-7431.126331,-6661.853478,13471.748144
4044.964942,-5822.325785,-5181.441594,12953.603985
4044.965257,-3217.601092,-2368.659014,12213.398043
4044.965572,-153.219100,-222.061783,10881.027347
4044.965887,3064.381992,2442.679609,9326.594869
4044.966202,5822.325785,3997.112087,7550.100608
4044.966518,7737.564530,5847.626942,5995.668130
4044.966833,8350.440928,6439.791695,6069.688724
4044.967148,7431.126331,5921.647536,5625.565159
4044.967463,5362.668486,3849.070898,6217.729913
4044.967778,2451.505594,1924.535449,7105.977043
4044.968093,0.000000,-740.205942,7920.203579
4044.968408,-2757.943793,-3552.988522,9548.656652
4044.968723,-5898.935335,-5921.647536,11399.171507
4044.969039,-7660.954980,-6957.935855,12361.439231
4044.969354,-7814.174080,-7328.038826,13249.686362
4044.969669,-6435.202183,-6217.729913,13545.768739
4044.969984,-4826.401637,-3923.091493,12435.459826
4044.970299,-1838.629195,-1998.556043,11103.089130
4044.970614,1762.019645,814.226536,9770.718434
4044.970929,4596.572988,3182.885551,8438.347739
4044.971244,6818.249932,5033.400406,7179.997637
4044.971560,7507.735880,6217.729913,6143.709319
4044.971875,7814.174080,5773.606348,5329.482782
4044.972190,7048.078582,4959.379811,6069.688724
4044.972505,5056.230287,3256.906145,6513.812290
4044.972820,1378.971896,296.082377,8290.306550
4044.973135,-1991.848295,-2072.576638,9400.615463
4044.973450,-4826.401637,-4737.318029,10732.986159
4044.973765,-7277.907231,-6587.832884,11695.253884
4044.974081,-8197.221829,-7550.100608,13027.624579
4044.974396,-8044.002729,-7031.956449,13989.892304
4044.974711,-6511.811733,-5329.482782,13323.706956
4044.975026,-3600.648841,-2442.679609,12139.377449
4044.975341,-536.266849,-296.082377,11103.089130
4044.975656,2911.162892,2294.638420,9400.615463
4044.975971,5745.716235,5107.421000,7846.182985
4044.976286,7507.735880,6735.874072,6439.791695
4044.976602,7967.393179,6735.874072,5921.647536
4044.976917,7507.735880,6143.709319,5625.565159
4044.977232,5362.668486,4663.297435,6809.894666
4044.977547,2604.724693,2220.617826,7402.059420
4044.977862,-229.828649,148.041188,8586.388927
4044.978177,-3447.429741,-2368.659014,9992.780217
4044.978492,-6205.373534,-5033.400406,11547.212695
4044.978807,-7507.735880,-6661.853478,12953.603985
4044.979123,-8120.612279,-6587.832884,13767.830521
4044.979438,-7124.688131,-5847.626942,13397.727550
4044.979753,-4749.792088,-3034.844362,12435.459826
4044.980068,-1838.629195,-444.123565,11177.109724
4044.980383,1378.971896,1998.556043,10288.862594
4044.980698,4366.744339,4811.338623,8438.347739
4044.981013,7048.078582,7031.956449,7031.956449
4044.981328,8580.269578,7772.162391,5995.668130
4044.981644,8580.269578,7698.141797,5847.626942
4044.981959,7048.078582,6735.874072,6365.771101
4044.982274,3907.087040,4441.235652,6809.894666
4044.982589,1072.533697,1850.514855,8068.244768
4044.982904,-2068.457845,-888.247130,9918.759623
4044.983219,-4979.620737,-3997.112087,11843.295072
4044.983534,-7354.516781,-5107.421000,13101.645173
4044.983849,-8503.660028,-6069.688724,13841.851115
4044.984165,-7354.516781,-5551.544565,13693.809927
4044.984480,-5822.325785,-3849.070898,13249.686362
4044.984795,-3217.601092,-1480.411884,12065.356855
4044.985110,229.828649,1110.308913,11399.171507
4044.985425,3524.039291,3701.029710,9252.574275
4044.985740,6511.811733,5921.647536,7698.141797
4044.986055,8197.221829,7105.977043,6735.874072
4044.986370,8580.269578,7328.038826,6069.688724
4044.986685,7660.954980,6809.894666,6291.750507
4044.987001,5822.325785,4959.379811,6365.771101
4044.987316,2681.334243,2146.597232,7328.038826
4044.987631,0.000000,-518.144159,8882.471304
4044.987946,-3064.381992,-3108.864956,10362.883188
4044.988261,-5745.716235,-5403.503377,11547.212695
4044.988576,-7584.345430,-6735.874072,12805.562797
4044.988891,-7584.345430,-6957.935855,13323.706956
4044.989206,-6665.030833,-5551.544565,13397.727550
4044.989522,-4213.525239,-3627.009116,12361.439231
4044.989837,-1532.190996,-740.205942,11029.068536
4044.990152,1915.238745,1702.473667,9918.759623
4044.990467,4903.011187,3849.070898,8882.471304
4044.990782,6511.811733,5551.544565,6809.894666
4044.991097,7737.564530,5995.668130,6069.688724
4044.991412,7967.393179,6365.771101,5921.647536
4044.991727,6588.421283,4885.359217,6143.709319
4044.992043,4213.525239,3034.844362,6661.853478
4044.992358,1149.143247,296.082377,8068.244768
4044.992673,-1915.238745,-2368.659014,9474.636058
4044.992988,-4826.401637,-4663.297435,10807.006753
4044.993303,-7048.078582,-6661.853478,11917.315666
4044.993618,-7967.393179,-7402.059420,13249.686362
4044.993933,-7201.297681,-7476.080014,13397.727550
4044.994248,-5822.325785,-5625.565159,13101.645173
4044.994564,-3294.210641,-3182.885551,12065.356855
4044.994879,-229.828649,-814.226536,10955.047942
4044.995194,2757.943793,2072.576638,9178.553681
4044.995509,5209.449386,4293.194464,7624.121203
4044.995824,7354.516781,5773.606348,6513.812290
4044.996139,7967.393179,6143.709319,5699.585753
4044.996454,7201.297681,5329.482782,5625.565159
4044.996769,5362.668486,4071.132681,6217.729913
4044.997085,2451.505594,1776.494261,6883.915261
4044.997400,-229.828649,-1110.308913,8438.347739
4044.997715,-3370.820191,-3997.112087,9918.759623
4044.998030,-5975.544884,-6143.709319,11621.233289
4044.998345,-8503.660028,-7402.059420,13323.706956
4044.998660,-8503.660028,-7402.059420,13471.748144
4044.998975,-7201.297681,-6513.812290,13323.706956
4044.999290,-5056.230287,-4441.235652,12287.418637
4044.999606,-2221.676944,-1924.535449,11547.212695
4044.999921,919.314598,962.267725,9844.739029
4045.000236,4290.134789,3552.988522,8142.265362
4045.000551,6588.421283,5847.626942,6217.729913
4045.000866,7584.345430,6883.915261,5329.482782
4045.001181,8044.002729,6291.750507,5921.647536
4045.001496,6358.592633,5329.482782,6069.688724
4045.001811,3830.477490,3775.050304,6587.832884
4045.002127,919.314598,1258.350101,8438.347739
4045.002442,-2298.286494,-1554.432478,9400.615463
4045.002757,-5439.278036,-3997.112087,11843.295072
4045.003072,-7737.564530,-5107.421000,12731.542202
4045.003387,-8350.440928,-6217.729913,13693.809927
4045.003702,-7507.735880,-5921.647536,14137.933492
4045.004017,-5592.497135,-3775.050304,13027.624579
4045.004332,-3064.381992,-1554.432478,11991.336260
4045.004648,76.609550,962.267725,10510.924376
4045.004963,3600.648841,4145.153275,9104.533087
4045.005278,6358.592633,6439.791695,7402.059420
4045.005593,8350.440928,7550.100608,6513.812290
4045.005908,8733.488677,7402.059420,6217.729913
4045.006223,7890.783629,7328.038826,6291.750507
4045.006538,5515.887586,5625.565159,6809.894666
4045.006853,2528.115143,3034.844362,7994.224174
4045.007169,-919.314598,222.061783,9474.636058
4045.007484,-4136.915689,-3034.844362,10955.047942
4045.007799,-6358.592633,-4737.318029,12287.418637
4045.008114,-7737.564530,-5551.544565,13545.768739
4045.008429,-8197.221829,-5773.606348,13767.830521
4045.008744,-6435.202183,-4663.297435,13915.871710
4045.009059,-4366.744339,-2220.617826,12583.501014
4045.009374,-1225.752797,148.041188,11325.150913
4045.009689,2145.067394,2812.782580,9696.697840
4045.010005,5515.887586,5403.503377,8364.327145
4045.010320,7507.735880,7105.977043,6439.791695
4045.010635,8503.660028,7105.977043,5995.668130
4045.010950,8197.221829,6957.935855,5847.626942
4045.011265,6511.811733,5477.523971,5921.647536
4045.011580,3830.477490,3552.988522,7328.038826
4045.011895,919.314598,592.164754,8438.347739
4045.012210,-2834.553343,-2368.659014,10362.883188
4045.012526,-5286.058936,-4589.276840,11103.089130
4045.012841,-7201.297681,-6365.771101,12361.439231
4045.013156,-8044.002729,-6365.771101,13767.830521
4045.013471,-7201.297681,-6587.832884,13915.871710
4045.013786,-5056.230287,-3997.112087,13027.624579
4045.014101,-1991.848295,-1776.494261,11843.295072
4045.014416,995.924147,962.267725,10807.006753
4045.014731,3907.087040,3627.009116,9252.574275
4045.015047,6741.640382,5773.606348,7105.977043
4045.015362,8044.002729,6587.832884,5625.565159
4045.015677,8273.831378,6143.709319,5551.544565
4045.015992,7201.297681,5329.482782,5921.647536
4045.016307,4903.011187,3182.885551,6587.832884
4045.016622,1532.190996,814.226536,7624.121203
4045.016937,-1915.238745,-1554.432478,8882.471304
4045.017252,-4443.353888,-4589.276840,10362.883188
4045.017568,-6971.469032,-6439.791695,11843.295072
4045.017883,-8273.831378,-7476.080014,13323.706956
4045.018198,-7967.393179,-7624.121203,14063.912898
4045.018513,-6435.202183,-5773.606348,13101.645173
4045.018828,-4060.306139,-3404.947333,12509.480420
4045.019143,-1072.533697,-962.267725,11251.130318
4045.019458,1991.848295,1332.370696,9474.636058
4045.019773,4903.011187,4071.132681,7624.121203
4045.020089,7431.126331,5625.565159,6513.812290
4045.020404,7890.783629,6143.709319,5995.668130
4045.020719,7584.345430,5921.647536,5699.585753
4045.021034,6281.983084,4663.297435,6365.771101
4045.021349,3217.601092,1924.535449,6883.915261
4045.021664,153.219100,-666.185348,8364.327145
4045.021979,-2834.553343,-3701.029710,9918.759623
4045.022294,-5592.497135,-5995.668130,11399.171507
4045.022610,-7584.345430,-6957.935855,12287.418637
4045.022925,-8273.831378,-7550.100608,13471.748144
4045.023240,-7201.297681,-6809.894666,13397.727550
4045.023555,-5056.230287,-4367.215058,12731.542202
4045.023870,-2374.896044,-1924.535449,11769.274478
4045.024185,919.314598,370.102971,10066.800811
4045.024500,3753.867940,3552.988522,8512.368333
4045.024815,6741.640382,5773.606348,7328.038826
4045.025131,7890.783629,6883.915261,6069.688724
4045.025446,8197.221829,6957.935855,5551.544565
4045.025761,7507.735880,5773.606348,5995.668130
4045.026076,4979.620737,4367.215058,6513.812290
4045.026391,1838.629195,1628.453072,8068.244768
4045.026706,-1608.800546,-1110.308913,9474.636058
4045.027021,-4519.963438,-3404.947333,10881.027347
4045.027336,-7201.297681,-5329.482782,12361.439231
4045.027652,-8273.831378,-6587.832884,13619.789333
4045.027967,-7737.564530,-6291.750507,13915.871710
4045.028282,-6435.202183,-4737.318029,13619.789333
4045.028597,-3907.087040,-1924.535449,12287.418637
4045.028912,-383.047749,592.164754,11103.089130
4045.029227,2528.115143,3256.906145,9474.636058
4045.029542,5898.935335,5551.544565,7772.162391
4045.029857,7737.564530,7254.018232,6291.750507
4045.030173,9039.926876,7698.141797,6069.688724
4045.030488,8197.221829,7179.997637,6069.688724
4045.030803,6588.421283,5477.523971,6513.812290
4045.031118,3064.381992,3034.844362,7328.038826
4045.031433,0.000000,592.164754,8882.471304
4045.031748,-2604.724693,-2368.659014,9992.780217
4045.032063,-5669.106685,-4663.297435,11843.295072
4045.032378,-7584.345430,-5847.626942,13249.686362
4045.032694,-8197.221829,-5847.626942,14063.912898
4045.033009,-7124.688131,-5329.482782,13841.851115
4045.033324,-4673.182538,-3256.906145,12213.398043
4045.033639,-1532.190996,-444.123565,11547.212695
4045.033954,1915.238745,2072.576638,10436.903782
4045.034269,4443.353888,4811.338623,8512.368333
4045.034584,7201.297681,6735.874072,7624.121203
4045.034899,8656.879127,7550.100608,6069.688724
4045.035214,8656.879127,7105.977043,5773.606348
4045.035530,6971.469032,5921.647536,6365.771101
4045.035845,4443.353888,3849.070898,6587.832884
4045.036160,1225.752797,1554.432478,8142.265362
4045.036475,-1455.581446,-1332.370696,9400.615463
4045.036790,-4519.963438,-4145.153275,11103.089130
4045.037105,-6741.640382,-6291.750507,12509.480420
4045.037420,-7814.174080,-6661.853478,13249.686362
4045.037735,-7354.516781,-6291.750507,13693.809927
4045.038051,-5898.935335,-4737.318029,13249.686362
4045.038366,-3370.820191,-2442.679609,12139.377449
4045.038681,-229.828649,-0.000000,10658.965565
4045.038996,3140.991542,2664.741391,9178.553681
4045.039311,6205.373534,4515.256246,7698.141797
4045.039626,7584.345430,5847.626942,6365.771101
4045.039941,8044.002729,6217.729913,6217.729913
4045.040256,7124.688131,5921.647536,5625.565159
4045.040572,5669.106685,3627.009116,6217.729913
4045.040887,2604.724693,1480.411884,7105.977043
4045.041202,-459.657299,-962.267725,8364.327145
4045.041517,-3753.867940,-3775.050304,10288.862594
4045.041832,-6128.763984,-5847.626942,11325.150913
4045.042147,-8197.221829,-6957.935855,12509.480420
4045.042462,-8044.002729,-7846.182985,13767.830521
4045.042777,-6971.469032,-6439.791695,12805.562797
4045.043093,-5286.058936,-4293.194464,12657.521608
4045.043408,-2298.286494,-1924.535449,11843.295072
4045.043723,1072.533697,740.205942,9770.718434
4045.044038,4290.134789,3552.988522,8068.244768
4045.044353,7048.078582,5551.544565,6957.935855
4045.044668,7431.126331,5995.668130,6217.729913
4045.044983,7584.345430,6291.750507,5921.647536
4045.045298,6588.421283,5107.421000,6365.771101
4045.045614,3983.696590,2812.782580,6661.853478
4045.045929,1072.533697,666.185348,7920.203579
4045.046244,-2298.286494,-2442.679609,9030.512492
4045.046559,-5209.449386,-5033.400406,10362.883188
4045.046874,-6971.469032,-6217.729913,12213.398043
4045.047189,-8120.612279,-7179.997637,13101.645173
4045.047504,-8197.221829,-6957.935855,13619.789333
4045.047819,-6281.983084,-4885.359217,12509.480420
4045.048135,-3677.258390,-2738.761985,12435.459826
4045.048450,-689.485948,-444.123565,10881.027347
4045.048765,2451.505594,2368.659014,9474.636058
4045.049080,5592.497135,4885.359217,7846.182985
4045.049395,7507.735880,6143.709319,6217.729913
4045.049710,8197.221829,6957.935855,6143.709319
4045.050025,7354.516781,6291.750507,5995.668130
4045.050340,5132.839837,4737.318029,6587.832884
4045.050656,2451.505594,2664.741391,7846.182985
4045.050971,-536.266849,-0.000000,8882.471304
4045.051286,-3217.601092,-2812.782580,10214.842000
4045.051601,-5745.716235,-5107.421000,11843.295072
4045.051916,-7354.516781,-5921.647536,13027.624579
4045.052231,-7967.393179,-6143.709319,13989.892304
4045.052546,-6665.030833,-5477.523971,13545.768739
4045.052861,-4749.792088,-3256.906145,12361.439231
4045.053177,-1455.581446,-444.123565,11547.212695
4045.053492,1762.019645,2368.659014,9844.739029
4045.053807,4903.011187,5181.441594,8068.244768
4045.054122,7354.516781,7031.956449,6513.812290
4045.054437,8886.707777,7254.018232,6291.750507
4045.054752,8580.269578,7402.059420,5921.647536
4045.055067,6818.249932,6513.812290,5921.647536
4045.055383,4290.134789,4737.318029,7254.018232
4045.055698,1991.848295,1850.514855,8364.327145
4045.056013,-1685.410096,-1184.329507,9474.636058
4045.056328,-4749.792088,-3552.988522,11103.089130
4045.056643,-7124.688131,-5033.400406,12287.418637
4045.056958,-8197.221829,-5329.482782,13619.789333
4045.057273,-7737.564530,-5107.421000,13841.851115
4045.057589,-5822.325785,-3701.029710,13471.748144
4045.057904,-3064.381992,-1480.411884,12213.398043
4045.058219,0.000000,1110.308913,11103.089130
4045.058534,3524.039291,3997.112087,9252.574275
4045.058849,6205.373534,5921.647536,7846.182985
4045.059164,8350.440928,7179.997637,6957.935855
4045.059480,8120.612279,7328.038826,6587.832884
4045.059795,7890.783629,6957.935855,6735.874072
4045.060110,5669.106685,5107.421000,6809.894666
4045.060425,2604.724693,2442.679609,7402.059420
4045.060740,-459.657299,-0.000000,8882.471304
4045.061055,-3677.258390,-2886.803174,10436.903782
4045.061371,-6205.373534,-5255.462188,11769.274478
4045.061686,-7890.783629,-6439.791695,13101.645173
4045.062001,-7967.393179,-6809.894666,13989.892304
4045.062316,-6741.640382,-5699.585753,13249.686362
4045.062631,-4673.182538,-3404.947333,12213.398043
4045.062946,-1762.019645,-1110.308913,11251.130318
4045.063262,1225.752797,962.267725,10066.800811
4045.063577,4213.525239,3330.926739,8660.409521
4045.063892,6818.249932,5403.503377,7105.977043
4045.064207,7507.735880,5995.668130,6069.688724
4045.064522,7737.564530,6069.688724,5773.606348
4045.064837,6665.030833,4811.338623,6069.688724
4045.065152,4136.915689,2516.700203,6735.874072
4045.065468,689.485948,518.144159,7994.224174
4045.065783,-2221.676944,-2368.659014,9474.636058
4045.066098,-4673.182538,-5181.441594,10288.862594
4045.066413,-6741.640382,-6661.853478,11917.315666
4045.066728,-7814.174080,-7254.018232,13175.665768
4045.067043,-7354.516781,-7254.018232,13101.645173
4045.067359,-5822.325785,-5773.606348,12583.501014
4045.067674,-3447.429741,-3182.885551,11917.315666
4045.067989,-306.438199,-888.247130,10658.965565
4045.068304,2681.334243,1850.514855,9030.512492
4045.068619,5515.887586,4293.194464,7624.121203
4045.068934,7584.345430,5699.585753,6291.750507
4045.069250,7967.393179,5921.647536,5847.626942
4045.069565,7507.735880,5181.441594,5625.565159
4045.069880,5592.497135,3923.091493,6439.791695
4045.070195,2911.162892,2072.576638,7624.121203
4045.070510,76.609550,-444.123565,8438.347739
4045.070825,-2757.943793,-3552.988522,9548.656652
4045.071140,-5286.058936,-5921.647536,10658.965565
4045.071456,-7354.516781,-6883.915261,12139.377449
4045.071771,-7584.345430,-7031.956449,13175.665768
4045.072086,-6818.249932,-6365.771101,13249.686362
4045.072401,-4366.744339,-4071.132681,12731.542202
4045.072716,-1991.848295,-2072.576638,11547.212695
4045.073031,995.924147,1036.288319,9918.759623
4045.073347,3907.087040,3404.947333,8808.450710
4045.073662,6665.030833,5329.482782,7105.977043
4045.073977,7584.345430,6069.688724,6513.812290
4045.074292,7431.126331,6587.832884,6365.771101
4045.074607,6511.811733,5699.585753,6365.771101
4045.074922,4290.134789,3627.009116,6883.915261
4045.075238,1149.143247,1110.308913,8438.347739
4045.075553,-1915.238745,-1184.329507,9918.759623
4045.075868,-4673.182538,-3849.070898,11177.109724
4045.076183,-6435.202183,-5699.585753,12065.356855
4045.076498,-7967.393179,-5995.668130,13101.645173
4045.076813,-7431.126331,-5921.647536,13545.768739
4045.077129,-5592.497135,-4145.153275,13323.706956
4045.077444,-3524.039291,-1628.453072,12361.439231
4045.077759,-76.609550,518.144159,10881.027347
4045.078074,3064.381992,3775.050304,9252.574275
4045.078389,5975.544884,5477.523971,7772.162391
4045.078704,7431.126331,7179.997637,6587.832884
4045.079019,8273.831378,7550.100608,6143.709319
4045.079335,7507.735880,7105.977043,6069.688724
4045.079650,5898.935335,5551.544565,7031.956449
4045.079965,2604.724693,3330.926739,7846.182985
4045.080280,-383.047749,518.144159,9030.512492
4045.080595,-3677.258390,-2146.597232,10658.965565
4045.080910,-5898.935335,-4589.276840,11843.295072
4045.081226,-7584.345430,-5551.544565,12657.521608
4045.081541,-8120.612279,-5625.565159,13693.809927
4045.081856,-6511.811733,-4515.256246,13619.789333
4045.082171,-3907.087040,-2220.617826,12583.501014
4045.082486,-1455.581446,-0.000000,11547.212695
4045.082801,1915.238745,2294.638420,9844.739029
4045.083117,4596.572988,4589.276840,8512.368333
4045.083432,6665.030833,6587.832884,6809.894666
4045.083747,7660.954980,6661.853478,6735.874072
4045.084062,7737.564530,6217.729913,6069.688724
4045.084377,6281.983084,5107.421000,6143.709319
4045.084692,3600.648841,2886.803174,6957.935855
4045.085007,612.876398,814.226536,8808.450710
4045.085323,-2068.457845,-1628.453072,9622.677246
4045.085638,-4979.620737,-4145.153275,10658.965565
4045.085953,-6971.469032,-6143.709319,12361.439231
4045.086268,-7431.126331,-6439.791695,13323.706956
4045.086583,-7124.688131,-6143.709319,13323.706956
4045.086898,-4979.620737,-4293.194464,12805.562797
4045.087214,-2451.505594,-1554.432478,11769.274478
4045.087529,766.095498,444.123565,11029.068536
4045.087844,3600.648841,2886.803174,9030.512492
4045.088159,5975.544884,4959.379811,7550.100608
4045.088474,7737.564530,6291.750507,6143.709319
4045.088789,7967.393179,6217.729913,5921.647536
4045.089105,6894.859482,5625.565159,5773.606348
4045.089420,4903.011187,3478.967927,6439.791695
4045.089735,2374.896044,1184.329507,7698.141797
4045.090050,-689.485948,-814.226536,8438.347739
4045.090365,-3524.039291,-3849.070898,10288.862594
4045.090680,-6128.763984,-5847.626942,11769.274478
4045.090996,-7737.564530,-6883.915261,13027.624579
4045.091311,-7507.735880,-7105.977043,13323.706956
4045.091626,-6435.202183,-5921.647536,13323.706956
4045.091941,-4519.963438,-3627.009116,12287.418637
4045.092256,-1225.752797,-1036.288319,11547.212695
