#time,accel_x,accel_y,accel_z
4199.148341,536.266849,-0.000000,9696.697840
4199.148657,306.438199,-0.000000,10066.800811
4199.148972,0.000000,148.041188,9474.636058
4199.149287,306.438199,296.082377,9622.677246
4199.149603,0.000000,-0.000000,9770.718434
4199.149918,0.000000,222.061783,9548.656652
4199.150234,76.609550,-0.000000,9474.636058
4199.150549,153.219100,148.041188,9696.697840
4199.150865,76.609550,444.123565,9622.677246
4199.151180,76.609550,-0.000000,9474.636058
4199.151496,-229.828649,-0.000000,9622.677246
4199.151811,153.219100,-0.000000,9696.697840
4199.152126,0.000000,148.041188,9548.656652
4199.152442,0.000000,74.020594,9474.636058
4199.152757,153.219100,296.082377,9548.656652
4199.153073,0.000000,-0.000000,9548.656652
4199.153388,229.828649,-0.000000,9474.636058
4199.153704,229.828649,-0.000000,9548.656652
4199.154019,0.000000,370.102971,9548.656652
4199.154334,0.000000,-0.000000,9474.636058
4199.154650,459.657299,222.061783,9474.636058
4199.154965,0.000000,-0.000000,10066.800811
4199.155281,0.000000,-0.000000,9918.759623
4199.155596,76.609550,518.144159,9474.636058
4199.155912,229.828649,-0.000000,9622.677246
4199.156227,229.828649,-0.000000,9918.759623
4199.156542,229.828649,-0.000000,9548.656652
4199.156858,306.438199,222.061783,9770.718434
4199.157173,0.000000,296.082377,9548.656652
4199.157489,0.000000,296.082377,9622.677246
4199.157804,0.000000,-0.000000,9622.677246
4199.158120,0.000000,370.102971,9844.739029
4199.158435,0.000000,370.102971,9696.697840
4199.158750,-229.828649,296.082377,9696.697840
4199.159066,0.000000,-0.000000,9474.636058
4199.159381,153.219100,-74.020594,9548.656652
4199.159697,0.000000,222.061783,9474.636058
4199.160012,0.000000,-0.000000,9696.697840
4199.160328,153.219100,-0.000000,9918.759623
4199.160643,229.828649,-0.000000,9622.677246
4199.160958,0.000000,-0.000000,9252.574275
4199.161274,153.219100,-222.061783,9474.636058
4199.161589,0.000000,-0.000000,9770.718434
4199.161905,76.609550,-0.000000,9400.615463
4199.162220,76.609550,-0.000000,9622.677246
4199.162536,383.047749,-0.000000,9474.636058
4199.162851,153.219100,222.061783,9474.636058
4199.163167,153.219100,-0.000000,9400.615463
4199.163482,0.000000,296.082377,9474.636058
4199.163797,153.219100,-74.020594,9474.636058
4199.164113,689.485948,-0.000000,9548.656652
4199.164428,306.438199,-0.000000,9844.739029
4199.164744,0.000000,148.041188,9918.759623
4199.165059,229.828649,-0.000000,9400.615463
4199.165375,153.219100,-0.000000,9548.656652
4199.165690,306.438199,-0.000000,9474.636058
4199.166005,383.047749,222.061783,9918.759623
4199.166321,0.000000,370.102971,9844.739029
4199.166636,0.000000,222.061783,9548.656652
4199.166952,383.047749,148.041188,9844.739029
4199.167267,0.000000,518.144159,9770.718434
4199.167583,0.000000,-74.020594,9696.697840
4199.167898,0.000000,148.041188,9844.739029
4199.168213,0.000000,-0.000000,9622.677246
4199.168529,-306.438199,-0.000000,9178.553681
4199.168844,0.000000,370.102971,9918.759623
4199.169160,-153.219100,370.102971,9770.718434
4199.169475,0.000000,148.041188,9548.656652
4199.169791,153.219100,-0.000000,9696.697840
4199.170106,0.000000,-0.000000,9548.656652
4199.170421,76.609550,-0.000000,9548.656652
4199.170737,-459.657299,-0.000000,9474.636058
4199.171052,-229.828649,148.041188,9548.656652
4199.171368,0.000000,-74.020594,9622.677246
4199.171683,383.047749,-0.000000,9104.533087
4199.171999,-612.876398,370.102971,9326.594869
4199.172314,-383.047749,296.082377,9696.697840
4199.172629,-689.485948,518.144159,9696.697840
4199.172945,-383.047749,222.061783,9696.697840
4199.173260,-766.095498,-0.000000,9474.636058
4199.173576,-689.485948,296.082377,9548.656652
4199.173891,-536.266849,444.123565,9474.636058
4199.174207,-383.047749,814.226536,9400.615463
4199.174522,-536.266849,666.185348,9326.594869
4199.174838,-689.485948,814.226536,9178.553681
4199.175153,-689.485948,1110.308913,9326.594869
4199.175468,-689.485948,1258.350101,9104.533087
4199.175784,-1149.143247,1110.308913,9030.512492
4199.176099,-1915.238745,962.267725,8956.491898
4199.176415,-1838.629195,888.247130,8956.491898
4199.176730,-2221.676944,1036.288319,9770.718434
4199.177046,-2681.334243,1332.370696,9474.636058
4199.177361,-2528.115143,1332.370696,9918.759623
4199.177676,-2757.943793,1110.308913,9770.718434
4199.177992,-2987.772442,1702.473667,9622.677246
4199.178307,-3064.381992,1628.453072,9696.697840
4199.178623,-2757.943793,2072.576638,9918.759623
4199.178938,-3294.210641,2368.659014,9474.636058
4199.179254,-2757.943793,2368.659014,9252.574275
4199.179569,-2298.286494,2738.761985,9252.574275
4199.179884,-2451.505594,2664.741391,9474.636058
4199.180200,-2681.334243,3034.844362,9400.615463
4199.180515,-2834.553343,2886.803174,9622.677246
4199.180831,-2298.286494,2590.720797,9770.718434
4199.181146,-2298.286494,2590.720797,10214.842000
4199.181462,-2528.115143,2368.659014,10214.842000
4199.181777,-2298.286494,1924.535449,10288.862594
4199.182092,-1378.971896,2368.659014,9918.759623
4199.182408,-1225.752797,2738.761985,9474.636058
4199.182723,-689.485948,3108.864956,9178.553681
4199.183039,-919.314598,3701.029710,8808.450710
4199.183354,-842.705048,3923.091493,8438.347739
4199.183670,-1762.019645,3552.988522,8438.347739
4199.183985,-1455.581446,3849.070898,8882.471304
4199.184300,-2068.457845,3330.926739,9326.594869
4199.184616,-2528.115143,2738.761985,10140.821405
4199.184931,-3140.991542,2590.720797,10658.965565
4199.185247,-2911.162892,2368.659014,11177.109724
4199.185562,-2528.115143,2738.761985,11399.171507
4199.185878,-2451.505594,3108.864956,11177.109724
4199.186193,-2374.896044,3775.050304,10510.924376
4199.186508,-2145.067394,4811.338623,9844.739029
4199.186824,-1685.410096,4959.379811,9104.533087
4199.187139,-1378.971896,5033.400406,8808.450710
4199.187455,-1455.581446,4737.318029,9104.533087
4199.187770,-1991.848295,4441.235652,9030.512492
4199.188086,-2145.067394,3552.988522,9548.656652
4199.188401,-2451.505594,3108.864956,10658.965565
4199.188717,-2681.334243,2220.617826,11251.130318
4199.189032,-2681.334243,1850.514855,11325.150913
4199.189347,-2681.334243,1850.514855,11621.233289
4199.189663,-1991.848295,1998.556043,11251.130318
4199.189978,-842.705048,2294.638420,10214.842000
4199.190294,0.000000,2812.782580,9474.636058
4199.190609,229.828649,3182.885551,9030.512492
4199.190925,153.219100,3478.967927,8290.306550
4199.191240,-229.828649,4071.132681,7994.224174
4199.191555,-383.047749,4071.132681,7624.121203
4199.191871,-1072.533697,3330.926739,8290.306550
4199.192186,-2298.286494,2738.761985,8882.471304
4199.192502,-3370.820191,1554.432478,9474.636058
4199.192817,-4213.525239,962.267725,10658.965565
4199.193133,-4443.353888,296.082377,11547.212695
4199.193448,-4443.353888,-370.102971,11325.150913
4199.193763,-4596.572988,148.041188,11695.253884
4199.194079,-3830.477490,444.123565,11399.171507
4199.194394,-3217.601092,740.205942,10436.903782
4199.194710,-1455.581446,1184.329507,9992.780217
4199.195025,-689.485948,2220.617826,9548.656652
4199.195341,306.438199,2886.803174,8512.368333
4199.195656,919.314598,3330.926739,8438.347739
4199.195971,766.095498,3182.885551,7920.203579
4199.196287,383.047749,2886.803174,7698.141797
4199.196602,-459.657299,2294.638420,7772.162391
4199.196918,-1915.238745,1924.535449,7402.059420
4199.197233,-3064.381992,370.102971,8216.285956
4199.197549,-3524.039291,-296.082377,8808.450710
4199.197864,-4979.620737,-1110.308913,9918.759623
4199.198179,-5209.449386,-1776.494261,11769.274478
4199.198495,-5209.449386,-1480.411884,10658.965565
4199.198810,-4979.620737,-1110.308913,11843.295072
4199.199126,-3217.601092,-1036.288319,12139.377449
4199.199441,-1455.581446,-0.000000,11473.192101
4199.199757,536.266849,1554.432478,9844.739029
4199.200072,1685.410096,3108.864956,8882.471304
4199.200388,2145.067394,5255.462188,7179.997637
4199.200703,2528.115143,5847.626942,5847.626942
4199.201018,2068.457845,6291.750507,4959.379811
4199.201334,306.438199,5255.462188,5329.482782
4199.201649,-1991.848295,3849.070898,6735.874072
4199.201965,-4826.401637,1036.288319,8808.450710
4199.202280,-5822.325785,-2294.638420,12731.542202
4199.202596,-7124.688131,-4145.153275,12879.583391
4199.202911,-8120.612279,-4663.297435,13767.830521
4199.203226,-7201.297681,-4145.153275,15100.201217
4199.203542,-5056.230287,-2590.720797,13841.851115
4199.203857,-1991.848295,1110.308913,10362.883188
4199.204173,689.485948,4441.235652,7624.121203
4199.204488,2298.286494,7920.203579,5403.503377
4199.204804,2987.772442,10066.800811,4293.194464
4199.205119,2604.724693,10362.883188,3849.070898
4199.205434,1225.752797,8512.368333,5329.482782
4199.205750,-536.266849,5551.544565,8882.471304
4199.206065,-2221.676944,2146.597232,12213.398043
4199.206381,-4290.134789,-1998.556043,14211.954086
4199.206696,-5209.449386,-3182.885551,16210.510130
4199.207012,-5132.839837,-3404.947333,15618.345376
4199.207327,-4366.744339,-2294.638420,13175.665768
4199.207642,-3370.820191,666.185348,10807.006753
4199.207958,-1915.238745,3627.009116,9696.697840
4199.208273,-766.095498,5625.565159,5847.626942
4199.208589,383.047749,7476.080014,4515.256246
4199.208904,1685.410096,7846.182985,4737.318029
4199.209220,-306.438199,7105.977043,6513.812290
4199.209535,-1532.190996,4663.297435,8734.430116
4199.209850,-1991.848295,2368.659014,10288.862594
4199.210166,-1991.848295,1258.350101,11547.212695
4199.210481,-1915.238745,814.226536,12657.521608
4199.210797,-2911.162892,1036.288319,12805.562797
4199.211112,-2604.724693,1036.288319,12953.603985
4199.211428,-3217.601092,1924.535449,11991.336260
4199.211743,-3140.991542,3404.947333,10436.903782
4199.212059,-3064.381992,3923.091493,8586.388927
4199.212374,-2834.553343,3701.029710,8216.285956
4199.212689,-2221.676944,3404.947333,7179.997637
4199.213005,-1225.752797,3849.070898,7328.038826
4199.213320,-1685.410096,3997.112087,8216.285956
4199.213636,-2145.067394,3404.947333,9548.656652
4199.213951,-2528.115143,2812.782580,10807.006753
4199.214267,-2528.115143,2146.597232,11695.253884
4199.214582,-2451.505594,740.205942,11473.192101
4199.214897,-1838.629195,-518.144159,11399.171507
4199.215213,-1378.971896,444.123565,10436.903782
4199.215528,-1991.848295,2368.659014,8882.471304
4199.215844,-1991.848295,3701.029710,8586.388927
4199.216159,-1685.410096,4885.359217,7624.121203
4199.216475,-2068.457845,5551.544565,7476.080014
4199.216790,-2681.334243,4737.318029,7402.059420
4199.217105,-3600.648841,2738.761985,9252.574275
4199.217421,-3983.696590,444.123565,10510.924376
4199.217736,-2911.162892,-370.102971,11473.192101
4199.218052,-3140.991542,-1036.288319,12361.439231
4199.218367,-2221.676944,-296.082377,13249.686362
4199.218683,-1455.581446,-148.041188,12435.459826
4199.218998,-766.095498,1628.453072,9918.759623
4199.219313,919.314598,3552.988522,7550.100608
4199.219629,1762.019645,4589.276840,6735.874072
4199.219944,1532.190996,5033.400406,6143.709319
4199.220259,459.657299,3997.112087,5921.647536
4199.220574,-1378.971896,3552.988522,6661.853478
4199.220890,-2911.162892,2368.659014,7920.203579
4199.221205,-3983.696590,-222.061783,9844.739029
4199.221520,-3524.039291,-1924.535449,11399.171507
4199.221835,-3524.039291,-2442.679609,13249.686362
4199.222151,-3677.258390,-2442.679609,13471.748144
4199.222466,-3753.867940,-1924.535449,14137.933492
4199.222781,-3370.820191,814.226536,12139.377449
4199.223096,-2298.286494,2220.617826,10362.883188
4199.223412,76.609550,3034.844362,8808.450710
4199.223727,1915.238745,4071.132681,6365.771101
4199.224042,2374.896044,4145.153275,5921.647536
4199.224357,1991.848295,3775.050304,6439.791695
4199.224673,229.828649,3997.112087,7105.977043
4199.224988,-919.314598,2590.720797,8808.450710
4199.225303,-842.705048,888.247130,9474.636058
4199.225618,-995.924147,-962.267725,10807.006753
4199.225934,-1072.533697,-3182.885551,11917.315666
4199.226249,-1991.848295,-3923.091493,12805.562797
4199.226564,-3140.991542,-2516.700203,12213.398043
4199.226879,-2834.553343,-370.102971,10658.965565
4199.227195,-1302.362347,962.267725,8734.430116
4199.227510,536.266849,2590.720797,7772.162391
4199.227825,1838.629195,3330.926739,6957.935855
4199.228140,1608.800546,3108.864956,6957.935855
4199.228456,536.266849,3775.050304,7105.977043
4199.228771,-383.047749,3330.926739,8364.327145
4199.229086,-459.657299,1998.556043,9696.697840
4199.229401,153.219100,296.082377,11325.150913
4199.229717,306.438199,-1406.391290,12139.377449
4199.230032,-612.876398,-2146.597232,12731.542202
4199.230347,-2145.067394,-1110.308913,12509.480420
4199.230662,-2374.896044,-296.082377,11325.150913
4199.230978,-612.876398,1258.350101,9622.677246
4199.231293,306.438199,2146.597232,7328.038826
4199.231608,995.924147,1776.494261,7402.059420
4199.231923,536.266849,1332.370696,7476.080014
4199.232239,-1149.143247,1924.535449,7254.018232
4199.232554,-1455.581446,1258.350101,8882.471304
4199.232869,-842.705048,1332.370696,9104.533087
4199.233184,76.609550,-0.000000,10214.842000
4199.233500,612.876398,-2590.720797,12731.542202
4199.233815,-2757.943793,-444.123565,11325.150913
4199.234130,-2451.505594,-2294.638420,11917.315666
4199.234445,-689.485948,-222.061783,11177.109724
4199.234761,-229.828649,1924.535449,9104.533087
4199.235076,995.924147,1998.556043,7920.203579
4199.235391,842.705048,1998.556043,7402.059420
4199.235706,-842.705048,2516.700203,7254.018232
4199.236022,-1532.190996,1184.329507,8142.265362
4199.236337,-919.314598,1258.350101,8364.327145
4199.236652,-919.314598,444.123565,9622.677246
4199.236967,0.000000,-2072.576638,10955.047942
4199.237283,-1378.971896,-1702.473667,11695.253884
4199.237598,-2911.162892,-1554.432478,11177.109724
4199.237913,-1302.362347,-2220.617826,12657.521608
4199.238228,0.000000,-296.082377,9992.780217
4199.238544,1302.362347,666.185348,8808.450710
4199.238859,2528.115143,1554.432478,8512.368333
4199.239174,1378.971896,2960.823768,6809.894666
4199.239489,766.095498,2738.761985,6883.915261
4199.239805,1455.581446,2368.659014,7328.038826
4199.240120,842.705048,2368.659014,8068.244768
4199.240435,1149.143247,592.164754,9326.594869
4199.240750,459.657299,-740.205942,10140.821405
4199.241066,-1685.410096,-1258.350101,11251.130318
4199.241381,-2221.676944,-1924.535449,12879.583391
4199.241696,-1455.581446,-2146.597232,11991.336260
4199.242011,229.828649,-1406.391290,11103.089130
4199.242327,1378.971896,-666.185348,10214.842000
4199.242642,995.924147,1036.288319,9104.533087
4199.242957,766.095498,2516.700203,7698.141797
4199.243272,1378.971896,2294.638420,8364.327145
4199.243588,2681.334243,2738.761985,7698.141797
4199.243903,3370.820191,1924.535449,7698.141797
4199.244218,2528.115143,888.247130,9474.636058
4199.244533,306.438199,296.082377,9844.739029
4199.244848,-229.828649,-888.247130,11177.109724
4199.245164,0.000000,-1628.453072,11695.253884
4199.245479,536.266849,-1924.535449,11769.274478
4199.245794,1225.752797,-2294.638420,11547.212695
4199.246109,612.876398,-1554.432478,10140.821405
4199.246425,229.828649,370.102971,9400.615463
4199.246740,153.219100,370.102971,9326.594869
4199.247055,1378.971896,888.247130,8586.388927
4199.247370,2221.676944,1258.350101,8142.265362
4199.247686,2451.505594,740.205942,8438.347739
4199.248001,842.705048,518.144159,7846.182985
4199.248316,-306.438199,-0.000000,9844.739029
4199.248631,-306.438199,-962.267725,11473.192101
4199.248947,0.000000,-1036.288319,10510.924376
4199.249262,229.828649,-2072.576638,10955.047942
4199.249577,-536.266849,-2368.659014,10658.965565
4199.249892,-2068.457845,-1554.432478,10436.903782
4199.250208,-1378.971896,-1628.453072,9992.780217
4199.250523,-1149.143247,-592.164754,9104.533087
4199.250838,-229.828649,-0.000000,8660.409521
4199.251153,689.485948,-0.000000,8660.409521
4199.251469,-612.876398,592.164754,8142.265362
4199.251784,-1608.800546,592.164754,8956.491898
4199.252099,-1685.410096,-370.102971,9918.759623
4199.252414,-1225.752797,-74.020594,9770.718434
4199.252730,-229.828649,-1184.329507,10066.800811
4199.253045,-306.438199,-1702.473667,10584.944971
4199.253360,-1532.190996,-666.185348,9844.739029
4199.253675,-1302.362347,-592.164754,10140.821405
4199.253991,-536.266849,444.123565,9474.636058
4199.254306,153.219100,-0.000000,8364.327145
4199.254621,1149.143247,-0.000000,8364.327145
4199.254936,612.876398,592.164754,7846.182985
4199.255252,-536.266849,592.164754,7624.121203
4199.255567,-612.876398,-74.020594,8660.409521
4199.255882,-459.657299,444.123565,8290.306550
4199.256197,153.219100,-296.082377,9326.594869
4199.256513,383.047749,-888.247130,9770.718434
4199.256828,-919.314598,-518.144159,10140.821405
4199.257143,-919.314598,-370.102971,10436.903782
4199.257458,76.609550,-592.164754,10807.006753
4199.257774,1225.752797,666.185348,9474.636058
4199.258089,1838.629195,814.226536,9844.739029
4199.258404,2451.505594,1332.370696,9178.553681
4199.258719,612.876398,3034.844362,8216.285956
4199.259035,766.095498,3034.844362,7846.182985
4199.259350,1302.362347,1554.432478,8808.450710
4199.259665,1302.362347,962.267725,9252.574275
4199.259980,1532.190996,-1258.350101,10807.006753
4199.260296,-612.876398,-1036.288319,10955.047942
4199.260611,-1455.581446,-666.185348,11251.130318
4199.260926,-229.828649,-1036.288319,11769.274478
4199.261241,229.828649,-370.102971,10881.027347
4199.261557,1915.238745,-74.020594,10362.883188
4199.261872,2145.067394,740.205942,9992.780217
4199.262187,1072.533697,1998.556043,8956.491898
4199.262502,919.314598,2442.679609,9030.512492
4199.262818,1915.238745,2960.823768,8956.491898
4199.263133,2298.286494,2294.638420,8586.388927
4199.263448,2221.676944,1036.288319,9400.615463
4199.263763,842.705048,-0.000000,10362.883188
4199.264079,-842.705048,-0.000000,11177.109724
4199.264394,-995.924147,-296.082377,11473.192101
4199.264709,153.219100,-888.247130,11843.295072
4199.265024,-459.657299,-666.185348,11177.109724
4199.265340,306.438199,-740.205942,11399.171507
4199.265655,-689.485948,296.082377,9696.697840
4199.265970,-1149.143247,1406.391290,9178.553681
4199.266285,0.000000,888.247130,8808.450710
4199.266601,919.314598,2146.597232,7328.038826
4199.266916,1149.143247,1628.453072,8142.265362
4199.267231,76.609550,888.247130,8512.368333
4199.267546,-1915.238745,814.226536,9326.594869
4199.267862,-2221.676944,-74.020594,10436.903782
4199.268177,-1762.019645,-1184.329507,11103.089130
4199.268492,-995.924147,-370.102971,10140.821405
4199.268807,-919.314598,-1554.432478,10807.006753
4199.269123,-2068.457845,-814.226536,10362.883188
4199.269438,-1762.019645,-148.041188,9696.697840
4199.269753,-842.705048,666.185348,9326.594869
4199.270068,-229.828649,1776.494261,7994.224174
4199.270384,306.438199,1628.453072,7476.080014
4199.270699,766.095498,1110.308913,7402.059420
4199.271014,-1072.533697,814.226536,7328.038826
4199.271329,-1762.019645,-592.164754,9104.533087
4199.271645,-842.705048,-740.205942,9622.677246
4199.271960,-383.047749,-1406.391290,9696.697840
4199.272275,76.609550,-2516.700203,10807.006753
4199.272590,-536.266849,-2146.597232,11547.212695
4199.272906,-1455.581446,-518.144159,9992.780217
4199.273221,-689.485948,-888.247130,9992.780217
4199.273536,612.876398,370.102971,9252.574275
4199.273851,1608.800546,592.164754,8290.306550
4199.274167,2145.067394,370.102971,8068.244768
4199.274482,536.266849,1110.308913,7698.141797
4199.274797,0.000000,740.205942,8660.409521
4199.275112,229.828649,-296.082377,9770.718434
4199.275428,842.705048,-74.020594,9844.739029
4199.275743,2221.676944,-1184.329507,10436.903782
4199.276058,1225.752797,-1258.350101,11103.089130
4199.276373,0.000000,-444.123565,10658.965565
4199.276689,153.219100,-666.185348,11029.068536
4199.277004,1149.143247,148.041188,10066.800811
4199.277319,1608.800546,962.267725,8956.491898
4199.277634,2298.286494,296.082377,9178.553681
4199.277950,1149.143247,1110.308913,8364.327145
4199.278265,-229.828649,1036.288319,8734.430116
4199.278580,0.000000,370.102971,9178.553681
4199.278895,689.485948,148.041188,9770.718434
4199.279210,1455.581446,-814.226536,10066.800811
4199.279526,1455.581446,-1332.370696,10955.047942
4199.279841,0.000000,-666.185348,11177.109724
4199.280156,0.000000,-518.144159,10732.986159
4199.280471,1225.752797,296.082377,10140.821405
4199.280787,1838.629195,1110.308913,9474.636058
4199.281102,2681.334243,518.144159,9474.636058
4199.281417,2528.115143,1110.308913,8512.368333
4199.281732,153.219100,1554.432478,8586.388927
4199.282048,0.000000,740.205942,9326.594869
4199.282363,0.000000,592.164754,9252.574275
4199.282678,536.266849,222.061783,9770.718434
4199.282993,1072.533697,-1480.411884,10362.883188
4199.283309,-766.095498,-1258.350101,10362.883188
4199.283624,-1685.410096,-1110.308913,10510.924376
4199.283939,-995.924147,-1110.308913,10584.944971
4199.284254,0.000000,222.061783,9992.780217
4199.284570,459.657299,-0.000000,9696.697840
4199.284885,536.266849,962.267725,9178.553681
4199.285200,-459.657299,2072.576638,8364.327145
4199.285515,-1149.143247,1258.350101,8660.409521
4199.285831,-766.095498,740.205942,9178.553681
4199.286146,-306.438199,814.226536,9474.636058
4199.286461,-306.438199,-74.020594,10066.800811
4199.286776,-1532.190996,-222.061783,10362.883188
4199.287092,-2834.553343,-0.000000,9770.718434
4199.287407,-2681.334243,-518.144159,10732.986159
4199.287722,-2374.896044,-74.020594,9992.780217
4199.288037,-1149.143247,-296.082377,9474.636058
4199.288353,-383.047749,-592.164754,9696.697840
4199.288668,-1685.410096,888.247130,9104.533087
4199.288983,-2298.286494,1036.288319,9252.574275
4199.289298,-1455.581446,1184.329507,8512.368333
4199.289614,-306.438199,444.123565,8660.409521
4199.289929,1225.752797,-0.000000,8882.471304
4199.290244,536.266849,-0.000000,9252.574275
4199.290559,-919.314598,1184.329507,9030.512492
4199.290875,-536.266849,-222.061783,9770.718434
4199.291190,229.828649,-0.000000,9474.636058
4199.291505,612.876398,-148.041188,9178.553681
4199.291820,1455.581446,-518.144159,9622.677246
4199.292136,0.000000,370.102971,9474.636058
4199.292451,-459.657299,1036.288319,9030.512492
4199.292766,153.219100,370.102971,9400.615463
4199.293081,766.095498,592.164754,8808.450710
4199.293397,1378.971896,296.082377,9474.636058
4199.293712,1378.971896,-0.000000,9104.533087
4199.294027,229.828649,1184.329507,9474.636058
4199.294342,-306.438199,814.226536,9844.739029
4199.294658,766.095498,296.082377,9474.636058
4199.294973,1455.581446,814.226536,9696.697840
4199.295288,1455.581446,-370.102971,10807.006753
4199.295603,842.705048,222.061783,10362.883188
4199.295919,-383.047749,888.247130,9844.739029
4199.296234,536.266849,666.185348,10288.862594
4199.296549,1072.533697,1110.308913,10214.842000
4199.296864,1532.190996,1036.288319,9400.615463
4199.297180,1608.800546,-296.082377,10066.800811
4199.297495,459.657299,-0.000000,9844.739029
4199.297810,0.000000,-0.000000,10288.862594
4199.298125,459.657299,-148.041188,10510.924376
4199.298441,766.095498,592.164754,9770.718434
4199.298756,1991.848295,-148.041188,9918.759623
4199.299071,1149.143247,-666.185348,9992.780217
4199.299386,-229.828649,-0.000000,9844.739029
4199.299702,0.000000,-74.020594,10732.986159
4199.300017,383.047749,-0.000000,9548.656652
4199.300332,1685.410096,518.144159,9252.574275
4199.300647,1608.800546,-0.000000,9474.636058
4199.300963,306.438199,-0.000000,9178.553681
4199.301278,-689.485948,-0.000000,9696.697840
4199.301593,-153.219100,-296.082377,10140.821405
4199.301908,612.876398,444.123565,9474.636058
4199.302224,995.924147,-0.000000,9252.574275
4199.302539,153.219100,-814.226536,9548.656652
4199.302854,-1225.752797,-74.020594,9400.615463
4199.303169,-1302.362347,-370.102971,10066.800811
4199.303485,-995.924147,-296.082377,10066.800811
4199.303800,0.000000,370.102971,9474.636058
4199.304115,459.657299,-0.000000,9104.533087
4199.304430,-842.705048,-740.205942,9548.656652
4199.304746,-1915.238745,222.061783,9178.553681
4199.305061,-1302.362347,-74.020594,9326.594869
4199.305376,-229.828649,-0.000000,8512.368333
4199.305691,76.609550,222.061783,8660.409521
4199.306007,-153.219100,-0.000000,9474.636058
4199.306322,-1608.800546,74.020594,9178.553681
4199.306637,-2145.067394,-148.041188,9474.636058
4199.306952,-1685.410096,-518.144159,10066.800811
4199.307268,-1149.143247,-444.123565,10288.862594
4199.307583,-153.219100,-1332.370696,9918.759623
4199.307898,-536.266849,-888.247130,10436.903782
4199.308213,-1378.971896,148.041188,9474.636058
4199.308529,-919.314598,-592.164754,9474.636058
4199.308844,229.828649,518.144159,9548.656652
4199.309159,995.924147,962.267725,9104.533087
4199.309474,1685.410096,-148.041188,8956.491898
4199.309790,612.876398,74.020594,8734.430116
4199.310105,-766.095498,740.205942,8882.471304
4199.310420,-383.047749,-74.020594,9992.780217
4199.310735,306.438199,-74.020594,9548.656652
4199.311051,919.314598,-0.000000,10066.800811
4199.311366,612.876398,-666.185348,9844.739029
4199.311681,-612.876398,370.102971,9992.780217
4199.311996,-612.876398,222.061783,10214.842000
4199.312311,459.657299,370.102971,9770.718434
4199.312627,1378.971896,814.226536,9326.594869
4199.312942,2145.067394,-0.000000,9474.636058
4199.313257,1378.971896,592.164754,9178.553681
4199.313572,-153.219100,740.205942,9474.636058
4199.313888,0.000000,-74.020594,10658.965565
4199.314203,153.219100,148.041188,9918.759623
4199.314518,1532.190996,-74.020594,9844.739029
4199.314833,1762.019645,-814.226536,10140.821405
4199.315149,1072.533697,592.164754,9326.594869
4199.315464,766.095498,-0.000000,8956.491898
4199.315779,1455.581446,518.144159,8956.491898
4199.316094,2451.505594,1184.329507,9326.594869
4199.316410,3370.820191,814.226536,9400.615463
4199.316725,2757.943793,1036.288319,9030.512492
4199.317040,689.485948,1480.411884,8586.388927
4199.317355,383.047749,222.061783,9770.718434
4199.317671,536.266849,-296.082377,9844.739029
4199.317986,383.047749,-814.226536,10214.842000
4199.318301,229.828649,-1184.329507,10140.821405
4199.318616,-612.876398,-740.205942,9992.780217
4199.318932,-1455.581446,-518.144159,10510.924376
4199.319247,-689.485948,-444.123565,10288.862594
4199.319562,76.609550,592.164754,9474.636058
4199.319877,1455.581446,814.226536,9474.636058
4199.320193,995.924147,888.247130,9548.656652
4199.320508,-306.438199,1480.411884,8364.327145
4199.320823,-536.266849,1110.308913,9030.512492
4199.321139,0.000000,296.082377,9474.636058
4199.321454,-229.828649,444.123565,9104.533087
4199.321769,0.000000,-74.020594,9252.574275
4199.322084,-1072.533697,-666.185348,9844.739029
4199.322400,-2374.896044,-0.000000,9622.677246
4199.322715,-1991.848295,-592.164754,10584.944971
4199.323030,-1149.143247,-518.144159,9326.594869
4199.323345,-919.314598,-370.102971,9622.677246
4199.323661,-612.876398,-740.205942,9474.636058
4199.323976,-1685.410096,-592.164754,9400.615463
4199.324291,-1838.629195,296.082377,9696.697840
4199.324606,-995.924147,370.102971,10214.842000
4199.324922,0.000000,1036.288319,9252.574275
4199.325237,1072.533697,666.185348,9474.636058
4199.325552,536.266849,444.123565,9770.718434
4199.325868,-1149.143247,1258.350101,9104.533087
4199.326183,-459.657299,-0.000000,9548.656652
4199.326498,459.657299,-148.041188,9474.636058
4199.326813,536.266849,-0.000000,9548.656652
4199.327129,536.266849,-518.144159,9844.739029
4199.327444,-1072.533697,-0.000000,9548.656652
4199.327759,-2374.896044,222.061783,9548.656652
4199.328074,-1302.362347,-0.000000,9474.636058
4199.328390,0.000000,222.061783,9400.615463
4199.328705,612.876398,-0.000000,9770.718434
4199.329020,229.828649,-888.247130,9992.780217
4199.329336,-919.314598,444.123565,9622.677246
4199.329651,-995.924147,814.226536,10214.842000
4199.329966,306.438199,666.185348,9770.718434
4199.330281,1915.238745,1554.432478,9400.615463
4199.330597,2298.286494,444.123565,9844.739029
4199.330912,1608.800546,666.185348,9400.615463
4199.331227,-153.219100,814.226536,9178.553681
4199.331542,153.219100,592.164754,9474.636058
4199.331858,1302.362347,740.205942,9770.718434
4199.332173,1685.410096,592.164754,9178.553681
4199.332488,1991.848295,-148.041188,9844.739029
4199.332804,459.657299,-518.144159,9326.594869
4199.333119,0.000000,-296.082377,9918.759623
4199.333434,459.657299,-370.102971,9918.759623
4199.333749,1608.800546,518.144159,9548.656652
4199.334065,2451.505594,148.041188,9696.697840
4199.334380,2374.896044,-0.000000,9622.677246
4199.334695,1149.143247,740.205942,9104.533087
4199.335010,766.095498,148.041188,10066.800811
4199.335326,919.314598,740.205942,9252.574275
4199.335641,1991.848295,962.267725,9474.636058
4199.335956,2298.286494,666.185348,9326.594869
4199.336272,1072.533697,222.061783,9474.636058
4199.336587,-229.828649,-0.000000,10066.800811
4199.336902,-536.266849,-0.000000,10510.924376
4199.337217,0.000000,-222.061783,10140.821405
4199.337533,766.095498,-222.061783,10140.821405
4199.337848,229.828649,-74.020594,10658.965565
4199.338163,-1608.800546,-148.041188,9844.739029
4199.338478,-1608.800546,-222.061783,9918.759623
4199.338794,-842.705048,-148.041188,9918.759623
4199.339109,-383.047749,370.102971,9474.636058
4199.339424,383.047749,-148.041188,10288.862594
4199.339740,-459.657299,222.061783,9622.677246
4199.340055,-1915.238745,592.164754,9030.512492
4199.340370,-1302.362347,-222.061783,9770.718434
4199.340685,-536.266849,-0.000000,9474.636058
4199.341001,-229.828649,-0.000000,9400.615463
4199.341316,-383.047749,-666.185348,10288.862594
4199.341631,-1838.629195,-148.041188,9548.656652
4199.341946,-2298.286494,-74.020594,9548.656652
4199.342262,-1532.190996,-814.226536,9548.656652
4199.342577,-995.924147,-296.082377,10140.821405
4199.342892,-229.828649,-666.185348,9622.677246
4199.343208,0.000000,-370.102971,9326.594869
4199.343523,-1378.971896,592.164754,9104.533087
4199.343838,-995.924147,-0.000000,8956.491898
4199.344153,0.000000,222.061783,9326.594869
4199.344469,689.485948,222.061783,8956.491898
4199.344784,1225.752797,-444.123565,9030.512492
4199.345099,153.219100,-0.000000,8882.471304
4199.345414,-612.876398,370.102971,9178.553681
4199.345730,-1072.533697,-222.061783,9548.656652
4199.346045,0.000000,-0.000000,9178.553681
4199.346360,842.705048,-592.164754,9178.553681
4199.346676,919.314598,-666.185348,9474.636058
4199.346991,-1302.362347,444.123565,9104.533087
4199.347306,-1608.800546,-74.020594,9400.615463
4199.347621,-306.438199,-0.000000,9474.636058
4199.347937,306.438199,222.061783,9548.656652
4199.348252,1532.190996,148.041188,9178.553681
4199.348567,612.876398,-444.123565,9696.697840
4199.348882,-536.266849,518.144159,9770.718434
4199.349198,306.438199,-0.000000,10214.842000
4199.349513,1149.143247,444.123565,9326.594869
4199.349828,1838.629195,814.226536,9474.636058
4199.350144,2221.676944,296.082377,9770.718434
4199.350459,995.924147,814.226536,8808.450710
4199.350774,306.438199,740.205942,8808.450710
4199.351089,919.314598,-0.000000,9178.553681
4199.351405,1302.362347,740.205942,9178.553681
4199.351720,1838.629195,-74.020594,9474.636058
4199.352035,1225.752797,370.102971,9474.636058
4199.352350,-306.438199,814.226536,9918.759623
4199.352666,229.828649,-0.000000,10288.862594
4199.352981,995.924147,370.102971,10214.842000
4199.353296,1455.581446,1110.308913,9992.780217
4199.353612,2068.457845,370.102971,10140.821405
4199.353927,1072.533697,592.164754,9548.656652
4199.354242,-459.657299,1184.329507,9770.718434
4199.354557,306.438199,518.144159,9770.718434
4199.354873,1149.143247,1110.308913,9400.615463
4199.355188,1532.190996,814.226536,9696.697840
4199.355503,995.924147,962.267725,9548.656652
4199.355818,-383.047749,1036.288319,9326.594869
4199.356134,-1302.362347,592.164754,9844.739029
4199.356449,-536.266849,296.082377,9844.739029
4199.356764,0.000000,296.082377,9770.718434
4199.357080,536.266849,-148.041188,9918.759623
4199.357395,-383.047749,-148.041188,10362.883188
4199.357710,-1608.800546,444.123565,9918.759623
4199.358025,-1915.238745,-74.020594,10214.842000
4199.358341,-1225.752797,518.144159,9918.759623
4199.358656,306.438199,-0.000000,9104.533087
4199.358971,153.219100,-0.000000,9770.718434
4199.359286,-1762.019645,444.123565,9696.697840
4199.359602,-2451.505594,148.041188,9992.780217
4199.359917,-1532.190996,-222.061783,10362.883188
4199.360232,-536.266849,-74.020594,10362.883188
4199.360548,229.828649,-814.226536,9992.780217
4199.360863,306.438199,-814.226536,10140.821405
4199.361178,-995.924147,592.164754,9326.594869
4199.361493,-1149.143247,740.205942,9104.533087
4199.361809,0.000000,222.061783,8808.450710
4199.362124,383.047749,222.061783,8216.285956
4199.362439,995.924147,-962.267725,8956.491898
4199.362754,-306.438199,-74.020594,8882.471304
4199.363070,-1762.019645,-148.041188,9104.533087
4199.363385,-1455.581446,-962.267725,10140.821405
4199.363700,-459.657299,-518.144159,9178.553681
4199.364016,536.266849,-370.102971,9770.718434
4199.364331,612.876398,-1110.308913,9844.739029
4199.364646,-459.657299,-222.061783,9178.553681
4199.364961,-689.485948,-0.000000,9326.594869
4199.365277,0.000000,-0.000000,9252.574275
4199.365592,842.705048,1036.288319,8512.368333
4199.365907,1685.410096,222.061783,8808.450710
4199.366222,1302.362347,-0.000000,8882.471304
4199.366538,-306.438199,-148.041188,8808.450710
4199.366853,-612.876398,-370.102971,9548.656652
4199.367168,153.219100,-74.020594,9992.780217
4199.367484,536.266849,-296.082377,9622.677246
4199.367799,766.095498,-888.247130,10732.986159
4199.368114,306.438199,-370.102971,9696.697840
4199.368429,0.000000,-0.000000,9474.636058
4199.368745,612.876398,-74.020594,9400.615463
4199.369060,1455.581446,518.144159,9326.594869
4199.369375,2451.505594,888.247130,8956.491898
4199.369690,2451.505594,1110.308913,9474.636058
4199.370006,459.657299,888.247130,9474.636058
4199.370321,459.657299,370.102971,9770.718434
4199.370636,919.314598,-0.000000,10214.842000
4199.370952,919.314598,296.082377,9770.718434
4199.371267,1302.362347,-74.020594,10732.986159
4199.371582,459.657299,-518.144159,9770.718434
4199.371897,-459.657299,-0.000000,10658.965565
4199.372213,0.000000,-0.000000,10732.986159
4199.372528,536.266849,740.205942,9178.553681
4199.372843,689.485948,814.226536,8956.491898
4199.373158,612.876398,666.185348,9622.677246
4199.373474,-766.095498,1110.308913,9104.533087
4199.373789,-1532.190996,370.102971,9326.594869
4199.374104,-306.438199,-0.000000,10436.903782
4199.374420,-306.438199,-0.000000,10140.821405
4199.374735,153.219100,-518.144159,10214.842000
4199.375050,-995.924147,-370.102971,10288.862594
4199.375365,-2221.676944,-0.000000,10214.842000
4199.375681,-689.485948,-444.123565,10510.924376
4199.375996,-383.047749,444.123565,9474.636058
4199.376311,0.000000,814.226536,9326.594869
4199.376626,153.219100,592.164754,9252.574275
4199.376942,-1149.143247,740.205942,9104.533087
4199.377257,-1991.848295,296.082377,9326.594869
4199.377572,-1302.362347,-222.061783,10066.800811
4199.377888,-689.485948,148.041188,9548.656652
4199.378203,0.000000,-444.123565,9622.677246
4199.378518,-383.047749,-592.164754,10066.800811
4199.378833,-536.266849,74.020594,10214.842000
4199.379149,-689.485948,-666.185348,10140.821405
4199.379464,229.828649,-0.000000,9474.636058
4199.379779,1072.533697,962.267725,9030.512492
4199.380094,1762.019645,518.144159,8586.388927
4199.380410,536.266849,888.247130,8290.306550
4199.380725,-536.266849,1184.329507,8660.409521
4199.381040,-612.876398,888.247130,9326.594869
4199.381356,0.000000,148.041188,9400.615463
4199.381671,766.095498,-0.000000,9252.574275
4199.381986,153.219100,-518.144159,10066.800811
4199.382301,-1149.143247,-740.205942,9622.677246
4199.382617,-1532.190996,-444.123565,10510.924376
4199.382932,-536.266849,-148.041188,10436.903782
4199.383247,612.876398,370.102971,9326.594869
4199.383562,1762.019645,888.247130,9104.533087
4199.383878,1378.971896,1184.329507,9178.553681
4199.384193,306.438199,1332.370696,9474.636058
4199.384508,383.047749,1702.473667,8660.409521
4199.384824,842.705048,592.164754,9548.656652
4199.385139,2068.457845,370.102971,9622.677246
4199.385454,2068.457845,-0.000000,9696.697840
4199.385769,306.438199,-74.020594,9696.697840
4199.386085,0.000000,-296.082377,9918.759623
4199.386400,459.657299,-740.205942,10362.883188
4199.386715,1225.752797,-0.000000,9696.697840
4199.387030,1378.971896,-0.000000,10140.821405
4199.387346,1532.190996,-74.020594,9696.697840
4199.387661,536.266849,592.164754,9696.697840
4199.387976,536.266849,444.123565,10140.821405
4199.388292,995.924147,222.061783,9770.718434
4199.388607,1532.190996,740.205942,9474.636058
4199.388922,2068.457845,-0.000000,10066.800811
4199.389237,995.924147,518.144159,9474.636058
4199.389553,76.609550,666.185348,9844.739029
4199.389868,76.609550,-222.061783,10436.903782
4199.390183,612.876398,370.102971,9770.718434
4199.390498,689.485948,-0.000000,9844.739029
4199.390814,536.266849,-444.123565,9474.636058
4199.391129,-1302.362347,-296.082377,9474.636058
4199.391444,-1915.238745,-592.164754,10584.944971
4199.391760,-1225.752797,-740.205942,9918.759623
4199.392075,-842.705048,-0.000000,9474.636058
4199.392390,-689.485948,-148.041188,9992.780217
4199.392705,-995.924147,-222.061783,9844.739029
4199.393021,-1991.848295,-0.000000,9696.697840
4199.393336,-1225.752797,-296.082377,9992.780217
4199.393651,-919.314598,-0.000000,9622.677246
4199.393966,0.000000,-0.000000,9622.677246
4199.394282,689.485948,-296.082377,10140.821405
4199.394597,-536.266849,370.102971,9474.636058
4199.394912,-1685.410096,592.164754,9474.636058
4199.395228,-919.314598,-592.164754,9252.574275
4199.395543,0.000000,-444.123565,8808.450710
4199.395858,383.047749,-296.082377,8734.430116
4199.396173,459.657299,-962.267725,8216.285956
4199.396489,-1225.752797,-370.102971,8364.327145
4199.396804,-1149.143247,-518.144159,9326.594869
4199.397119,153.219100,-740.205942,8734.430116
4199.397434,383.047749,-222.061783,8882.471304
4199.397750,1072.533697,-740.205942,9548.656652
4199.398065,612.876398,-222.061783,9326.594869
4199.398380,-766.095498,444.123565,8882.471304
4199.398696,-229.828649,370.102971,9474.636058
4199.399011,459.657299,814.226536,9474.636058
4199.399326,995.924147,444.123565,9474.636058
4199.399641,995.924147,-0.000000,9696.697840
4199.399957,0.000000,444.123565,9770.718434
4199.400272,-459.657299,148.041188,9696.697840
4199.400587,0.000000,74.020594,9992.780217
4199.400902,536.266849,222.061783,9844.739029
4199.401218,1302.362347,222.061783,10214.842000
4199.401533,1302.362347,-0.000000,9178.553681
4199.401848,-229.828649,592.164754,9326.594869
4199.402164,0.000000,444.123565,9918.759623
4199.402479,536.266849,444.123565,9992.780217
4199.402794,1378.971896,1110.308913,9326.594869
4199.403109,2374.896044,-0.000000,10140.821405
4199.403425,1149.143247,592.164754,9844.739029
4199.403740,153.219100,666.185348,9770.718434
4199.404055,842.705048,296.082377,10436.903782
4199.404370,1378.971896,814.226536,10362.883188
4199.404686,1915.238745,518.144159,10584.944971
4199.405001,1685.410096,814.226536,9992.780217
4199.405316,0.000000,1110.308913,9770.718434
4199.405632,-229.828649,444.123565,10214.842000
4199.405947,536.266849,-0.000000,10066.800811
4199.406262,766.095498,518.144159,10140.821405
4199.406577,1455.581446,-0.000000,9992.780217
4199.406893,383.047749,-296.082377,9696.697840
4199.407208,-919.314598,-370.102971,9770.718434
4199.407523,-229.828649,-0.000000,10288.862594
4199.407838,76.609550,370.102971,9030.512492
4199.408154,689.485948,666.185348,8882.471304
4199.408469,536.266849,-296.082377,8956.491898
4199.408784,-919.314598,814.226536,8808.450710
4199.409100,-1838.629195,-0.000000,9252.574275
4199.409415,-995.924147,-296.082377,9622.677246
4199.409730,-689.485948,-0.000000,10140.821405
4199.410045,-459.657299,-370.102971,9622.677246
4199.410361,-766.095498,-814.226536,10066.800811
4199.410676,-2068.457845,-0.000000,9622.677246
4199.410991,-1685.410096,-222.061783,9992.780217
4199.411306,-1072.533697,-0.000000,9178.553681
4199.411622,-536.266849,518.144159,9474.636058
4199.411937,306.438199,-0.000000,9622.677246
4199.412252,-842.705048,-0.000000,8956.491898
4199.412568,-1838.629195,444.123565,8512.368333
4199.412883,-842.705048,-592.164754,9252.574275
4199.413198,0.000000,-296.082377,9030.512492
4199.413513,536.266849,-370.102971,9178.553681
4199.413829,0.000000,-592.164754,9474.636058
4199.414144,-995.924147,370.102971,8882.471304
4199.414459,-1149.143247,222.061783,9474.636058
4199.414774,0.000000,-222.061783,9474.636058
4199.415090,383.047749,444.123565,9104.533087
4199.415405,1225.752797,-888.247130,9400.615463
4199.415720,383.047749,-0.000000,9252.574275
4199.416036,-1149.143247,592.164754,8808.450710
4199.416351,-612.876398,666.185348,9474.636058
4199.416666,153.219100,888.247130,9400.615463
4199.416981,1149.143247,814.226536,9326.594869
4199.417297,1455.581446,-148.041188,9548.656652
4199.417612,-306.438199,296.082377,9548.656652
4199.417927,-1072.533697,148.041188,9400.615463
4199.418242,0.000000,-518.144159,10288.862594
4199.418558,229.828649,518.144159,10288.862594
4199.418873,1149.143247,-0.000000,9918.759623
4199.419188,536.266849,296.082377,10288.862594
4199.419504,-306.438199,740.205942,9400.615463
4199.419819,153.219100,296.082377,10066.800811
4199.420134,995.924147,962.267725,9326.594869
4199.420449,1532.190996,592.164754,9696.697840
4199.420765,2068.457845,-370.102971,10362.883188
4199.421080,919.314598,-0.000000,9992.780217
4199.421395,383.047749,962.267725,9770.718434
4199.421711,995.924147,-0.000000,10881.027347
4199.422026,1149.143247,962.267725,9918.759623
4199.422342,2068.457845,888.247130,10214.842000
4199.422657,1915.238745,-0.000000,10214.842000
4199.422973,842.705048,-0.000000,9696.697840
4199.423288,76.609550,296.082377,10214.842000
4199.423604,689.485948,370.102971,9696.697840
4199.423919,1149.143247,888.247130,9770.718434
4199.424235,1685.410096,370.102971,9548.656652
4199.424550,1225.752797,-0.000000,9252.574275
4199.424865,153.219100,814.226536,9400.615463
4199.425181,76.609550,518.144159,9474.636058
4199.425496,229.828649,592.164754,9474.636058
4199.425812,383.047749,-0.000000,9474.636058
4199.426127,536.266849,-222.061783,10140.821405
4199.426443,-612.876398,370.102971,9474.636058
4199.426758,-2068.457845,-0.000000,9326.594869
4199.427074,-1302.362347,-444.123565,10066.800811
4199.427389,-842.705048,-0.000000,9474.636058
4199.427705,229.828649,-222.061783,9696.697840
4199.428020,-306.438199,-74.020594,9474.636058
4199.428336,-1532.190996,296.082377,9474.636058
4199.428651,-1455.581446,-0.000000,9326.594869
4199.428966,-536.266849,222.061783,8956.491898
4199.429282,229.828649,-0.000000,8734.430116
4199.429597,153.219100,-518.144159,9178.553681
4199.429913,-612.876398,-296.082377,9252.574275
4199.430228,-1685.410096,-0.000000,8808.450710
4199.430544,-1072.533697,-518.144159,9474.636058
4199.430859,-383.047749,222.061783,8956.491898
4199.431175,229.828649,-222.061783,9030.512492
4199.431490,383.047749,-740.205942,9030.512492
4199.431806,-689.485948,-0.000000,9104.533087
4199.432121,-842.705048,-444.123565,9104.533087
4199.432437,0.000000,-296.082377,9622.677246
4199.432752,536.266849,666.185348,9474.636058
4199.433067,1072.533697,888.247130,9474.636058
4199.433383,306.438199,222.061783,9622.677246
4199.433698,-689.485948,370.102971,9474.636058
4199.434014,-842.705048,-148.041188,10362.883188
4199.434329,153.219100,-0.000000,10140.821405
4199.434645,459.657299,-0.000000,9992.780217
4199.434960,842.705048,-0.000000,9844.739029
4199.435276,229.828649,370.102971,9104.533087
4199.435591,-383.047749,518.144159,9622.677246
4199.435907,306.438199,592.164754,9474.636058
4199.436222,383.047749,740.205942,9992.780217
4199.436538,1072.533697,666.185348,9696.697840
4199.436853,842.705048,592.164754,9474.636058
4199.437169,-383.047749,296.082377,9918.759623
4199.437484,-229.828649,-296.082377,10510.924376
4199.437799,536.266849,-0.000000,10066.800811
4199.438115,1302.362347,-370.102971,10066.800811
4199.438430,2068.457845,-444.123565,9992.780217
4199.438746,919.314598,666.185348,9696.697840
4199.439061,-306.438199,1110.308913,10214.842000
4199.439377,689.485948,444.123565,10214.842000
4199.439692,1302.362347,666.185348,9696.697840
4199.440008,2145.067394,370.102971,9548.656652
4199.440323,1838.629195,-296.082377,9696.697840
4199.440639,153.219100,518.144159,9918.759623
4199.440954,0.000000,-0.000000,9844.739029
4199.441270,1225.752797,-518.144159,9770.718434
4199.441585,1532.190996,222.061783,9400.615463
4199.441900,1762.019645,-296.082377,9474.636058
4199.442216,842.705048,-370.102971,9326.594869
4199.442531,-383.047749,518.144159,9178.553681
4199.442847,-229.828649,-222.061783,9400.615463
4199.443162,536.266849,-0.000000,9030.512492
4199.443478,842.705048,-74.020594,9400.615463
4199.443793,919.314598,-444.123565,9770.718434
4199.444109,-612.876398,-0.000000,9474.636058
4199.444424,-1608.800546,296.082377,9844.739029
4199.444740,-1072.533697,592.164754,10288.862594
4199.445055,-536.266849,962.267725,9770.718434
4199.445371,383.047749,-0.000000,9696.697840
4199.445686,153.219100,-592.164754,9474.636058
4199.446002,-1149.143247,222.061783,9252.574275
4199.446317,-1532.190996,-0.000000,9474.636058
4199.446632,-1455.581446,518.144159,9030.512492
4199.446948,-766.095498,740.205942,9030.512492
4199.447263,0.000000,-370.102971,8956.491898
4199.447579,-1378.971896,-814.226536,9918.759623
4199.447894,-2068.457845,-74.020594,9622.677246
4199.448210,-1608.800546,-148.041188,9696.697840
4199.448525,-612.876398,-0.000000,9622.677246
4199.448841,-383.047749,148.041188,9844.739029
4199.449156,229.828649,-74.020594,9622.677246
4199.449472,-689.485948,444.123565,8882.471304
4199.449787,-612.876398,370.102971,9548.656652
4199.450103,306.438199,888.247130,9474.636058
4199.450418,689.485948,1480.411884,8586.388927
4199.450733,919.314598,962.267725,8734.430116
4199.451049,0.000000,444.123565,9548.656652
4199.451364,-1225.752797,-0.000000,9474.636058
4199.451680,-306.438199,-0.000000,9918.759623
4199.451995,153.219100,-296.082377,9770.718434
4199.452311,612.876398,-74.020594,9992.780217
4199.452626,766.095498,-222.061783,9474.636058
4199.452942,-229.828649,-0.000000,9622.677246
4199.453257,-919.314598,740.205942,10140.821405
4199.453573,76.609550,296.082377,9548.656652
4199.453888,919.314598,518.144159,9178.553681
4199.454204,1532.190996,666.185348,9252.574275
4199.454519,1302.362347,-0.000000,9474.636058
4199.454835,76.609550,592.164754,9548.656652
4199.455150,-459.657299,814.226536,10140.821405
4199.455465,536.266849,592.164754,10436.903782
4199.455781,1149.143247,444.123565,10288.862594
4199.456096,1762.019645,-740.205942,10881.027347
4199.456412,612.876398,-0.000000,10510.924376
4199.456727,0.000000,-74.020594,9918.759623
4199.457043,1149.143247,-0.000000,10436.903782
4199.457358,1762.019645,740.205942,9622.677246
4199.457674,2374.896044,740.205942,8882.471304
4199.457989,2604.724693,370.102971,9400.615463
4199.458305,995.924147,1036.288319,9030.512492
4199.458620,76.609550,518.144159,9326.594869
4199.458936,689.485948,-0.000000,9548.656652
4199.459251,1378.971896,-518.144159,9770.718434
4199.459566,1455.581446,-740.205942,9844.739029
4199.459882,766.095498,-592.164754,9918.759623
4199.460197,-612.876398,-148.041188,9474.636058
4199.460513,-459.657299,-370.102971,9844.739029
4199.460828,766.095498,370.102971,10066.800811
4199.461144,1149.143247,1110.308913,9104.533087
4199.461459,1608.800546,1036.288319,8734.430116
4199.461775,153.219100,740.205942,8956.491898
4199.462090,-919.314598,888.247130,8808.450710
4199.462406,-383.047749,-0.000000,9474.636058
4199.462721,-229.828649,-0.000000,9622.677246
4199.463037,76.609550,-740.205942,10066.800811
4199.463352,-229.828649,-1480.411884,9844.739029
4199.463667,-1608.800546,-592.164754,9696.697840
4199.463983,-2604.724693,-888.247130,10288.862594
4199.464298,-1532.190996,-0.000000,9104.533087
4199.464614,-536.266849,222.061783,8586.388927
4199.464929,536.266849,-0.000000,9104.533087
4199.465245,-766.095498,444.123565,8512.368333
4199.465560,-1532.190996,296.082377,9030.512492
4199.465876,-1608.800546,-296.082377,9696.697840
4199.466191,-995.924147,-148.041188,9992.780217
4199.466507,0.000000,-222.061783,9992.780217
4199.466822,153.219100,-666.185348,10140.821405
4199.467138,-1455.581446,-0.000000,10140.821405
4199.467453,-1532.190996,-74.020594,10510.924376
4199.467769,0.000000,296.082377,10288.862594
4199.468084,0.000000,592.164754,9252.574275
4199.468399,612.876398,444.123565,9844.739029
4199.468715,383.047749,814.226536,9030.512492
4199.469030,-842.705048,814.226536,9030.512492
4199.469346,-766.095498,-0.000000,10066.800811
4199.469661,-229.828649,296.082377,9548.656652
4199.469977,612.876398,-0.000000,9622.677246
4199.470292,1149.143247,-296.082377,9992.780217
4199.470608,76.609550,518.144159,9918.759623
4199.470923,-1149.143247,148.041188,9622.677246
4199.471239,153.219100,-0.000000,9844.739029
4199.471554,766.095498,962.267725,9770.718434
4199.471870,1149.143247,740.205942,9770.718434
4199.472185,1149.143247,1110.308913,9474.636058
4199.472500,153.219100,962.267725,9326.594869
4199.472816,76.609550,740.205942,9474.636058
4199.473131,689.485948,370.102971,9696.697840
4199.473447,1149.143247,370.102971,9918.759623
4199.473762,2298.286494,-148.041188,9770.718434
4199.474078,1225.752797,-0.000000,9622.677246
4199.474393,0.000000,-148.041188,9770.718434
4199.474709,459.657299,-74.020594,10584.944971
4199.475024,995.924147,222.061783,9548.656652
4199.475340,2068.457845,518.144159,8734.430116
4199.475655,2604.724693,-444.123565,9474.636058
4199.475971,1608.800546,444.123565,8882.471304
4199.476286,919.314598,-148.041188,9104.533087
4199.476602,1608.800546,444.123565,8956.491898
4199.476917,1915.238745,740.205942,9104.533087
4199.477232,2451.505594,-0.000000,9326.594869
4199.477548,2068.457845,-740.205942,9622.677246
4199.477863,-612.876398,-370.102971,9622.677246
4199.478179,-766.095498,-740.205942,10140.821405
4199.478494,0.000000,-444.123565,9844.739029
4199.478810,459.657299,-222.061783,9696.697840
4199.479125,229.828649,-888.247130,10066.800811
4199.479441,-612.876398,-444.123565,9918.759623
4199.479756,-1685.410096,1110.308913,9474.636058
4199.480072,-919.314598,296.082377,9844.739029
4199.480387,0.000000,888.247130,9622.677246
4199.480703,536.266849,814.226536,9326.594869
4199.481018,383.047749,444.123565,9030.512492
4199.481333,-1455.581446,518.144159,9474.636058
4199.481649,-1685.410096,-148.041188,9474.636058
4199.481964,-995.924147,-74.020594,9622.677246
4199.482280,-689.485948,518.144159,9474.636058
4199.482595,-842.705048,-518.144159,9474.636058
4199.482911,-1608.800546,-296.082377,9770.718434
4199.483226,-2834.553343,-0.000000,9474.636058
4199.483542,-2528.115143,-962.267725,9918.759623
4199.483857,-1302.362347,-518.144159,10066.800811
4199.484173,0.000000,-592.164754,9474.636058
4199.484488,0.000000,-518.144159,9474.636058
4199.484804,-842.705048,444.123565,9326.594869
4199.485119,-995.924147,518.144159,9252.574275
4199.485434,0.000000,222.061783,9992.780217
4199.485750,995.924147,814.226536,9104.533087
4199.486065,1378.971896,222.061783,8808.450710
4199.486381,689.485948,222.061783,9252.574275
4199.486696,-766.095498,814.226536,9030.512492
4199.487012,-1072.533697,148.041188,9696.697840
4199.487327,-459.657299,-296.082377,9992.780217
4199.487643,0.000000,-296.082377,9622.677246
4199.487958,1072.533697,-888.247130,9918.759623
4199.488274,-306.438199,-518.144159,9918.759623
4199.488589,-1378.971896,-370.102971,10214.842000
4199.488905,76.609550,-222.061783,10362.883188
4199.489220,919.314598,296.082377,9178.553681
4199.489536,1455.581446,296.082377,9178.553681
4199.489851,1532.190996,592.164754,9696.697840
4199.490166,842.705048,1110.308913,9104.533087
4199.490482,0.000000,962.267725,9474.636058
4199.490797,919.314598,592.164754,9548.656652
4199.491113,1608.800546,1036.288319,9252.574275
4199.491428,2451.505594,-0.000000,9770.718434
4199.491744,1149.143247,-74.020594,10066.800811
4199.492059,383.047749,-0.000000,9548.656652
4199.492375,153.219100,-444.123565,9622.677246
4199.492690,1302.362347,-74.020594,9548.656652
4199.493006,2298.286494,-0.000000,9178.553681
4199.493321,1991.848295,-518.144159,9622.677246
4199.493637,919.314598,888.247130,8808.450710
4199.493952,0.000000,518.144159,9326.594869
4199.494267,1072.533697,-0.000000,9252.574275
4199.494583,1915.238745,444.123565,9252.574275
4199.494898,1915.238745,-148.041188,8956.491898
4199.495214,1225.752797,-296.082377,9696.697840
4199.495529,76.609550,444.123565,9104.533087
4199.495845,0.000000,-0.000000,10436.903782
4199.496160,536.266849,222.061783,9770.718434
4199.496476,766.095498,814.226536,9474.636058
4199.496791,1072.533697,148.041188,9622.677246
4199.497107,383.047749,370.102971,9400.615463
4199.497422,-1302.362347,814.226536,9696.697840
4199.497738,-1225.752797,-74.020594,9844.739029
4199.498053,-459.657299,-0.000000,9622.677246
4199.498369,0.000000,-0.000000,9548.656652
4199.498684,0.000000,-740.205942,10066.800811
4199.498999,-1608.800546,-0.000000,9474.636058
4199.499315,-2221.676944,-222.061783,10214.842000
4199.499630,-1608.800546,-296.082377,9844.739029
4199.499946,-995.924147,222.061783,9696.697840
4199.500261,0.000000,-148.041188,9474.636058
4199.500577,-842.705048,-740.205942,10066.800811
4199.500892,-2298.286494,666.185348,9622.677246
4199.501208,-1991.848295,-74.020594,10362.883188
4199.501523,-1225.752797,-0.000000,9918.759623
4199.501839,-459.657299,370.102971,9622.677246
4199.502154,76.609550,-0.000000,10214.842000
4199.502470,-1149.143247,222.061783,9622.677246
4199.502785,-1838.629195,518.144159,9992.780217
4199.503100,-995.924147,-0.000000,9992.780217
4199.503416,76.609550,-0.000000,9844.739029
4199.503731,459.657299,592.164754,9252.574275
4199.504047,0.000000,-74.020594,9622.677246
4199.504362,-842.705048,518.144159,8956.491898
4199.504678,-689.485948,444.123565,9622.677246
4199.504993,76.609550,-0.000000,9104.533087
4199.505309,306.438199,74.020594,9104.533087
4199.505624,842.705048,-0.000000,9548.656652
4199.505940,383.047749,-0.000000,9030.512492
4199.506255,-612.876398,592.164754,9252.574275
4199.506571,0.000000,-0.000000,9548.656652
4199.506886,766.095498,-0.000000,9104.533087
4199.507202,1378.971896,-0.000000,9696.697840
4199.507517,1532.190996,-0.000000,9696.697840
4199.507832,459.657299,814.226536,9548.656652
4199.508148,0.000000,592.164754,9474.636058
4199.508463,919.314598,-0.000000,9326.594869
4199.508779,1685.410096,1110.308913,9474.636058
4199.509094,2145.067394,666.185348,8882.471304
4199.509410,1532.190996,666.185348,9104.533087
4199.509725,612.876398,370.102971,9622.677246
4199.510041,612.876398,-444.123565,10436.903782
4199.510356,1532.190996,-0.000000,9918.759623
4199.510672,2221.676944,148.041188,9326.594869
4199.510987,1991.848295,-444.123565,9548.656652
4199.511303,1149.143247,-0.000000,9474.636058
4199.511618,612.876398,592.164754,9104.533087
4199.511933,766.095498,148.041188,9844.739029
4199.512249,1838.629195,222.061783,9474.636058
4199.512564,2298.286494,222.061783,9326.594869
4199.512880,1685.410096,296.082377,9548.656652
4199.513195,0.000000,444.123565,9622.677246
4199.513511,-383.047749,-370.102971,10881.027347
4199.513826,76.609550,-0.000000,10214.842000
4199.514142,536.266849,-0.000000,10140.821405
4199.514457,842.705048,-296.082377,10214.842000
4199.514773,-383.047749,-370.102971,10066.800811
4199.515088,-1532.190996,-0.000000,9844.739029
4199.515404,-766.095498,-222.061783,10066.800811
4199.515719,-153.219100,370.102971,9474.636058
4199.516034,229.828649,222.061783,8956.491898
4199.516350,76.609550,148.041188,9400.615463
4199.516665,-1149.143247,814.226536,9030.512492
4199.516981,-1685.410096,-0.000000,9622.677246
4199.517296,-1149.143247,-0.000000,9474.636058
4199.517612,-995.924147,-0.000000,9178.553681
4199.517927,-229.828649,-0.000000,9474.636058
4199.518243,-1378.971896,-0.000000,9622.677246
4199.518558,-2451.505594,-0.000000,10066.800811
4199.518874,-1915.238745,-666.185348,10584.944971
4199.519189,-1532.190996,-0.000000,9918.759623
4199.519505,-1072.533697,-222.061783,9844.739029
4199.519820,-612.876398,222.061783,9622.677246
4199.520136,-1072.533697,370.102971,9104.533087
4199.520451,-1455.581446,888.247130,9178.553681
4199.520766,-1149.143247,296.082377,9696.697840
4199.521082,-306.438199,222.061783,9178.553681
4199.521397,995.924147,-148.041188,9548.656652
4199.521713,536.266849,-74.020594,9178.553681
4199.522028,-919.314598,-0.000000,8734.430116
4199.522341,-766.095498,148.041188,9326.594869
4199.522657,-306.438199,-74.020594,9992.780217
4199.522972,229.828649,-0.000000,9326.594869
4199.523288,1302.362347,-518.144159,9326.594869
4199.523603,76.609550,148.041188,9474.636058
4199.523919,-1302.362347,444.123565,9474.636058
4199.524234,-612.876398,370.102971,9696.697840
4199.524550,306.438199,666.185348,9400.615463
4199.524865,995.924147,740.205942,9474.636058
4199.525181,1378.971896,-0.000000,9844.739029
4199.525497,383.047749,666.185348,9844.739029
4199.525812,-229.828649,518.144159,10066.800811
4199.526128,536.266849,814.226536,10066.800811
4199.526443,1455.581446,814.226536,9918.759623
4199.526759,2374.896044,296.082377,9918.759623
4199.527074,2374.896044,148.041188,9474.636058
4199.527390,459.657299,740.205942,9474.636058
4199.527705,995.924147,444.123565,9622.677246
4199.528021,1455.581446,740.205942,9400.615463
4199.528336,1838.629195,1110.308913,9548.656652
4199.528652,2145.067394,222.061783,9696.697840
4199.528968,1225.752797,-0.000000,9474.636058
4199.529283,0.000000,222.061783,9918.759623
4199.529599,612.876398,-370.102971,10658.965565
4199.529914,995.924147,-0.000000,9844.739029
4199.530230,2374.896044,-0.000000,10066.800811
4199.530545,1915.238745,-74.020594,9474.636058
4199.530861,612.876398,370.102971,9326.594869
4199.531176,459.657299,518.144159,10140.821405
4199.531492,766.095498,962.267725,9400.615463
4199.531807,1685.410096,1036.288319,9326.594869
4199.532123,1532.190996,444.123565,9548.656652
4199.532439,0.000000,444.123565,9474.636058
4199.532754,-1378.971896,-0.000000,9400.615463
4199.533070,-1838.629195,-1258.350101,10732.986159
4199.533385,-1302.362347,-888.247130,10955.047942
4199.533701,-842.705048,-888.247130,10510.924376
4199.534016,-306.438199,-888.247130,10214.842000
4199.534332,-1608.800546,-0.000000,9696.697840
4199.534647,-2145.067394,-0.000000,9474.636058
4199.534963,-919.314598,-296.082377,9104.533087
4199.535278,-536.266849,-0.000000,9178.553681
4199.535594,229.828649,-518.144159,9400.615463
4199.535910,-229.828649,-296.082377,8660.409521
4199.536225,-1685.410096,-370.102971,8882.471304
4199.536541,-1915.238745,-370.102971,9474.636058
4199.536856,-1302.362347,-444.123565,9696.697840
4199.537172,-229.828649,-444.123565,9178.553681
4199.537487,0.000000,-1184.329507,9548.656652
4199.537803,-919.314598,-592.164754,9844.739029
4199.538118,-1762.019645,-444.123565,9030.512492
4199.538434,-1072.533697,-666.185348,9178.553681
4199.538749,-612.876398,74.020594,8660.409521
4199.539065,306.438199,-0.000000,9030.512492
4199.539381,383.047749,-0.000000,9178.553681
4199.539696,-919.314598,370.102971,8808.450710
4199.540012,-995.924147,-0.000000,9104.533087
4199.540327,459.657299,-222.061783,9400.615463
4199.540643,536.266849,370.102971,9474.636058
4199.540958,766.095498,-518.144159,10140.821405
4199.541274,153.219100,-74.020594,9474.636058
4199.541589,-536.266849,-0.000000,9326.594869
4199.541905,0.000000,-0.000000,9696.697840
4199.542220,459.657299,444.123565,9474.636058
4199.542536,1378.971896,370.102971,9252.574275
4199.542852,766.095498,518.144159,9104.533087
4199.543167,0.000000,962.267725,9400.615463
4199.543483,-842.705048,296.082377,9622.677246
4199.543798,-306.438199,148.041188,10066.800811
4199.544114,689.485948,296.082377,10140.821405
4199.544429,1685.410096,-222.061783,10140.821405
4199.544745,1149.143247,666.185348,10140.821405
4199.545060,76.609550,666.185348,10436.903782
4199.545376,383.047749,888.247130,10510.924376
4199.545691,1455.581446,1036.288319,10140.821405
4199.546007,2298.286494,1406.391290,9252.574275
4199.546322,2528.115143,962.267725,9474.636058
4199.546638,1608.800546,962.267725,9030.512492
4199.546954,306.438199,814.226536,9474.636058
4199.547269,0.000000,222.061783,10140.821405
4199.547585,842.705048,370.102971,9770.718434
4199.547900,1762.019645,-0.000000,10436.903782
4199.548216,1608.800546,-444.123565,10140.821405
4199.548531,76.609550,-148.041188,10066.800811
4199.548847,0.000000,-0.000000,9844.739029
4199.549162,536.266849,962.267725,9548.656652
4199.549478,1225.752797,1036.288319,9400.615463
4199.549793,1991.848295,592.164754,9548.656652
4199.550109,612.876398,962.267725,9178.553681
4199.550425,-1072.533697,1036.288319,9104.533087
4199.550740,-1072.533697,-0.000000,9622.677246
4199.551056,-612.876398,666.185348,9918.759623
4199.551371,766.095498,666.185348,10584.944971
4199.551687,0.000000,-666.185348,10510.924376
4199.552002,-1225.752797,-0.000000,10066.800811
4199.552318,-1762.019645,-74.020594,10066.800811
4199.552633,-1072.533697,222.061783,9548.656652
4199.552949,-689.485948,740.205942,9030.512492
4199.553264,0.000000,-0.000000,8956.491898
4199.553580,-459.657299,-74.020594,9178.553681
4199.553896,-1838.629195,592.164754,8734.430116
4199.554211,-1685.410096,-148.041188,9696.697840
4199.554527,-1378.971896,-0.000000,9622.677246
4199.554842,-459.657299,222.061783,9474.636058
4199.555158,612.876398,-1110.308913,9696.697840
4199.555473,229.828649,-370.102971,9252.574275
4199.555789,-995.924147,-0.000000,9622.677246
4199.556104,-536.266849,-222.061783,9474.636058
4199.556420,306.438199,444.123565,8808.450710
4199.556735,1072.533697,148.041188,8882.471304
4199.557051,1302.362347,-444.123565,9178.553681
4199.557367,-536.266849,-0.000000,8586.388927
4199.557682,-1378.971896,-370.102971,9326.594869
4199.557998,-766.095498,-370.102971,9326.594869
4199.558313,-459.657299,-0.000000,10066.800811
4199.558629,229.828649,-444.123565,10140.821405
4199.558944,-766.095498,-962.267725,9918.759623
4199.559260,-1455.581446,-518.144159,10288.862594
4199.559575,-919.314598,-1184.329507,10807.006753
4199.559891,383.047749,444.123565,9178.553681
4199.560206,842.705048,740.205942,9696.697840
4199.560522,1072.533697,148.041188,9326.594869
4199.560838,383.047749,444.123565,9178.553681
4199.561153,-153.219100,-0.000000,9030.512492
4199.561469,229.828649,-148.041188,9474.636058
4199.561784,766.095498,148.041188,9696.697840
4199.562100,1378.971896,-0.000000,9622.677246
4199.562415,842.705048,-592.164754,9548.656652
4199.562731,0.000000,-0.000000,9474.636058
4199.563046,459.657299,-962.267725,10510.924376
4199.563362,995.924147,-444.123565,9326.594869
4199.563677,1378.971896,740.205942,9400.615463
4199.563993,2374.896044,296.082377,9474.636058
4199.564309,919.314598,962.267725,8956.491898
4199.564624,229.828649,1184.329507,9178.553681
4199.564940,612.876398,370.102971,10066.800811
4199.565255,1455.581446,-0.000000,9992.780217
4199.565571,1532.190996,444.123565,9770.718434
4199.565886,1455.581446,296.082377,9548.656652
4199.566202,306.438199,814.226536,9474.636058
4199.566517,0.000000,-222.061783,10881.027347
4199.566833,383.047749,-222.061783,10584.944971
4199.567148,842.705048,444.123565,9326.594869
4199.567464,1149.143247,-74.020594,8956.491898
4199.567780,383.047749,518.144159,8956.491898
4199.568095,-1378.971896,888.247130,8512.368333
4199.568411,-1455.581446,-148.041188,9770.718434
4199.568726,-459.657299,-518.144159,9918.759623
4199.569042,-229.828649,-74.020594,9326.594869
4199.569357,0.000000,-740.205942,10140.821405
4199.569673,-995.924147,518.144159,9548.656652
4199.569988,-1532.190996,-0.000000,9844.739029
4199.570304,-842.705048,-0.000000,10362.883188
4199.570619,0.000000,740.205942,9696.697840
4199.570935,229.828649,592.164754,9474.636058
4199.571251,229.828649,370.102971,10066.800811
4199.571566,-919.314598,1554.432478,9400.615463
4199.571882,-995.924147,592.164754,9622.677246
4199.572197,-459.657299,518.144159,9104.533087
4199.572513,0.000000,444.123565,9770.718434
4199.572828,229.828649,-222.061783,9474.636058
4199.573144,-536.266849,-222.061783,9992.780217
4199.573459,-1685.410096,148.041188,10066.800811
4199.573775,-995.924147,-148.041188,9844.739029
4199.574090,229.828649,-74.020594,9178.553681
4199.574406,842.705048,222.061783,9474.636058
4199.574722,536.266849,296.082377,9252.574275
4199.575037,-536.266849,1036.288319,8734.430116
4199.575353,-689.485948,740.205942,9474.636058
4199.575668,459.657299,666.185348,9474.636058
4199.575984,766.095498,888.247130,9400.615463
4199.576299,842.705048,518.144159,9548.656652
4199.576615,0.000000,666.185348,10066.800811
4199.576930,-1225.752797,370.102971,9992.780217
4199.577246,-766.095498,-0.000000,10436.903782
4199.577561,229.828649,-0.000000,10140.821405
4199.577877,459.657299,148.041188,10066.800811
4199.578193,689.485948,-370.102971,9918.759623
4199.578508,0.000000,-222.061783,9252.574275
4199.578824,-919.314598,296.082377,9918.759623
4199.579139,153.219100,-0.000000,10140.821405
4199.579455,842.705048,518.144159,9178.553681
4199.579770,1991.848295,296.082377,8956.491898
4199.580086,1685.410096,-518.144159,9474.636058
4199.580401,383.047749,148.041188,9326.594869
4199.580717,536.266849,-74.020594,10362.883188
4199.581032,1149.143247,-0.000000,9770.718434
4199.581348,1685.410096,-0.000000,10214.842000
4199.581664,2451.505594,-74.020594,9474.636058
4199.581979,1149.143247,-148.041188,9400.615463
4199.582295,-229.828649,-444.123565,9918.759623
4199.582610,306.438199,-148.041188,10288.862594
4199.582926,1149.143247,-0.000000,9400.615463
4199.583241,2068.457845,-0.000000,9992.780217
4199.583557,1762.019645,518.144159,9326.594869
4199.583872,383.047749,-0.000000,9178.553681
4199.584188,0.000000,-222.061783,9474.636058
4199.584503,612.876398,-0.000000,9400.615463
4199.584819,995.924147,-0.000000,9326.594869
4199.585135,1608.800546,-296.082377,9400.615463
4199.585450,459.657299,444.123565,9104.533087
4199.585766,-1225.752797,-0.000000,9030.512492
4199.586081,-1072.533697,-592.164754,9400.615463
4199.586397,-459.657299,-296.082377,9548.656652
4199.586712,-459.657299,-74.020594,9770.718434
4199.587028,-229.828649,-740.205942,9548.656652
4199.587343,-1608.800546,-0.000000,9844.739029
4199.587659,-1915.238745,-0.000000,9918.759623
4199.587974,-1302.362347,-222.061783,9622.677246
4199.588290,-459.657299,-74.020594,9548.656652
4199.588606,0.000000,148.041188,10362.883188
4199.588921,-229.828649,-0.000000,9104.533087
4199.589237,-1532.190996,444.123565,8586.388927
4199.589552,-1455.581446,222.061783,9474.636058
4199.589868,-612.876398,-74.020594,9622.677246
4199.590183,-229.828649,-0.000000,9178.553681
4199.590499,612.876398,-222.061783,8290.306550
4199.590814,-306.438199,-0.000000,8808.450710
4199.591130,-1455.581446,296.082377,8882.471304
4199.591445,-995.924147,-296.082377,9696.697840
4199.591761,-153.219100,-0.000000,9326.594869
4199.592077,536.266849,666.185348,9548.656652
4199.592392,689.485948,592.164754,9326.594869
4199.592708,-689.485948,222.061783,9474.636058
4199.593023,-1302.362347,-296.082377,10362.883188
4199.593339,-1072.533697,-0.000000,9770.718434
4199.593654,0.000000,518.144159,9918.759623
4199.593970,842.705048,740.205942,10362.883188
4199.594285,306.438199,1184.329507,9548.656652
4199.594601,-842.705048,962.267725,9474.636058
4199.594916,-766.095498,-296.082377,10584.944971
4199.595232,536.266849,370.102971,10066.800811
4199.595548,1455.581446,1184.329507,9400.615463
4199.595863,1838.629195,740.205942,9400.615463
4199.596179,766.095498,1258.350101,8660.409521
4199.596494,229.828649,1110.308913,9622.677246
4199.596810,1072.533697,1332.370696,9252.574275
4199.597125,1225.752797,1036.288319,9474.636058
4199.597441,1608.800546,740.205942,9548.656652
4199.597756,1302.362347,-74.020594,9918.759623
4199.598072,-383.047749,814.226536,9474.636058
4199.598387,-383.047749,-222.061783,10881.027347
4199.598703,0.000000,-0.000000,10066.800811
4199.599019,919.314598,-0.000000,10362.883188
4199.599334,1455.581446,222.061783,10362.883188
4199.599650,1455.581446,666.185348,9844.739029
4199.599965,229.828649,1110.308913,9474.636058
4199.600281,766.095498,814.226536,9474.636058
4199.600596,1455.581446,962.267725,9474.636058
4199.600912,2221.676944,444.123565,9844.739029
4199.601227,2145.067394,222.061783,9474.636058
4199.601543,766.095498,592.164754,8808.450710
4199.601858,-229.828649,-0.000000,9474.636058
4199.602174,229.828649,-74.020594,9696.697840
4199.602490,153.219100,296.082377,9918.759623
4199.602805,919.314598,-814.226536,9918.759623
4199.603121,-229.828649,-518.144159,9696.697840
4199.603436,-2068.457845,-148.041188,9474.636058
4199.603752,-2068.457845,-814.226536,9918.759623
4199.604067,-1072.533697,-518.144159,10362.883188
4199.604383,-536.266849,-0.000000,9548.656652
4199.604698,229.828649,-296.082377,9548.656652
4199.605014,-612.876398,-222.061783,9104.533087
4199.605329,-1608.800546,-74.020594,9770.718434
4199.605645,-919.314598,296.082377,9918.759623
4199.605961,-459.657299,592.164754,8734.430116
4199.606276,0.000000,-0.000000,8586.388927
4199.606592,-383.047749,-518.144159,9474.636058
4199.606907,-2145.067394,-518.144159,8956.491898
4199.607223,-1915.238745,-1332.370696,9918.759623
4199.607538,-1302.362347,-1110.308913,10066.800811
4199.607854,-612.876398,-74.020594,9326.594869
4199.608169,153.219100,-888.247130,9474.636058
4199.608485,0.000000,-222.061783,9178.553681
4199.608800,-1455.581446,-0.000000,9030.512492
4199.609116,-689.485948,-814.226536,9474.636058
4199.609432,306.438199,222.061783,8956.491898
4199.609747,919.314598,814.226536,9030.512492
4199.610063,842.705048,-0.000000,9474.636058
4199.610378,0.000000,370.102971,9252.574275
4199.610694,-612.876398,-0.000000,9474.636058
4199.611009,229.828649,-0.000000,9770.718434
4199.611325,153.219100,-0.000000,9770.718434
4199.611640,995.924147,-0.000000,9474.636058
4199.611956,689.485948,296.082377,9104.533087
4199.612271,-383.047749,-0.000000,9252.574275
4199.612587,-383.047749,-370.102971,10066.800811
4199.612903,383.047749,-148.041188,9770.718434
4199.613218,842.705048,666.185348,9770.718434
4199.613534,1225.752797,-0.000000,9844.739029
4199.613849,383.047749,592.164754,9400.615463
4199.614165,0.000000,666.185348,9770.718434
4199.614480,459.657299,-0.000000,10214.842000
4199.614796,1149.143247,962.267725,9696.697840
4199.615111,2068.457845,666.185348,9992.780217
4199.615427,1991.848295,1036.288319,9474.636058
4199.615742,612.876398,1480.411884,9474.636058
4199.616058,383.047749,296.082377,10362.883188
4199.616374,1072.533697,518.144159,9992.780217
4199.616689,1225.752797,740.205942,9548.656652
4199.617005,1378.971896,222.061783,9844.739029
4199.617320,612.876398,296.082377,10140.821405
4199.617636,-612.876398,222.061783,9992.780217
4199.617951,0.000000,222.061783,10732.986159
4199.618267,536.266849,-0.000000,9992.780217
4199.618582,1455.581446,222.061783,10066.800811
4199.618898,1838.629195,-0.000000,9474.636058
4199.619213,612.876398,1332.370696,9474.636058
4199.619529,0.000000,962.267725,9326.594869
4199.619844,153.219100,592.164754,9474.636058
4199.620160,612.876398,888.247130,9252.574275
4199.620476,842.705048,444.123565,9252.574275
4199.620791,0.000000,592.164754,9030.512492
4199.621107,-2145.067394,148.041188,9400.615463
4199.621422,-2068.457845,-222.061783,9918.759623
4199.621738,-1225.752797,-666.185348,9992.780217
4199.622053,-766.095498,-962.267725,9770.718434
4199.622369,-306.438199,-1110.308913,9622.677246
4199.622684,-1532.190996,-0.000000,9178.553681
4199.623000,-1762.019645,-0.000000,9104.533087
4199.623315,-1455.581446,222.061783,9252.574275
4199.623631,-459.657299,518.144159,9030.512492
4199.623946,383.047749,296.082377,9252.574275
4199.624262,229.828649,370.102971,8808.450710
4199.624577,-1072.533697,222.061783,8882.471304
4199.624893,-1225.752797,-370.102971,9548.656652
4199.625208,-842.705048,-148.041188,10140.821405
4199.625524,-306.438199,-148.041188,9474.636058
4199.625839,153.219100,-740.205942,9400.615463
4199.626155,0.000000,-0.000000,9548.656652
4199.626470,-1072.533697,-0.000000,9178.553681
4199.626786,-919.314598,-888.247130,10066.800811
4199.627101,0.000000,518.144159,9252.574275
4199.627417,766.095498,-0.000000,9104.533087
4199.627732,1302.362347,370.102971,9252.574275
4199.628048,383.047749,-0.000000,9030.512492
4199.628363,-383.047749,592.164754,9548.656652
4199.628679,0.000000,-0.000000,10288.862594
4199.628994,229.828649,518.144159,9548.656652
4199.629310,1225.752797,-222.061783,9770.718434
4199.629625,766.095498,-0.000000,9548.656652
4199.629941,-459.657299,592.164754,9474.636058
4199.630256,-229.828649,222.061783,9696.697840
4199.630571,0.000000,-0.000000,9696.697840
4199.630887,766.095498,740.205942,9770.718434
4199.631202,1378.971896,148.041188,9622.677246
4199.631518,229.828649,296.082377,9696.697840
4199.631833,-229.828649,222.061783,9622.677246
4199.632149,459.657299,-296.082377,9992.780217
4199.632464,1532.190996,-0.000000,10066.800811
4199.632780,1991.848295,-0.000000,10140.821405
4199.633095,1838.629195,-148.041188,10140.821405
4199.633411,842.705048,740.205942,9474.636058
4199.633726,612.876398,-296.082377,9474.636058
4199.634042,1378.971896,-0.000000,9770.718434
4199.634357,1915.238745,518.144159,9178.553681
4199.634673,1915.238745,-74.020594,9178.553681
4199.634988,1225.752797,-0.000000,9474.636058
4199.635304,-229.828649,148.041188,9696.697840
4199.635619,76.609550,-740.205942,9918.759623
4199.635935,1302.362347,-74.020594,9918.759623
4199.636250,1455.581446,-222.061783,10510.924376
4199.636566,1991.848295,-296.082377,9474.636058
4199.636881,995.924147,296.082377,9326.594869
4199.637197,76.609550,740.205942,9622.677246
4199.637512,229.828649,222.061783,9474.636058
4199.637828,536.266849,444.123565,9104.533087
4199.638143,1149.143247,-0.000000,9178.553681
4199.638459,153.219100,-0.000000,8882.471304
4199.638774,-1532.190996,-0.000000,9400.615463
4199.639089,-2298.286494,-1036.288319,9918.759623
4199.639405,-1915.238745,-518.144159,10510.924376
4199.639720,-1378.971896,-148.041188,10214.842000
4199.640036,-612.876398,-814.226536,10066.800811
4199.640351,-1608.800546,-74.020594,9844.739029
4199.640667,-2145.067394,1110.308913,9474.636058
4199.640982,-1455.581446,-0.000000,9474.636058
4199.641298,-383.047749,1110.308913,8586.388927
4199.641613,0.000000,1702.473667,8216.285956
4199.641929,0.000000,1036.288319,8512.368333
4199.642244,-1762.019645,814.226536,8956.491898
4199.642560,-2374.896044,-0.000000,9548.656652
4199.642875,-1838.629195,-740.205942,9992.780217
4199.643191,-1455.581446,-518.144159,10362.883188
4199.643506,0.000000,-1184.329507,10510.924376
4199.643822,-383.047749,-1110.308913,10214.842000
4199.644137,-1838.629195,-74.020594,9548.656652
4199.644453,-1532.190996,-0.000000,10214.842000
4199.644768,153.219100,740.205942,8808.450710
4199.645084,1149.143247,1332.370696,8438.347739
4199.645399,1532.190996,592.164754,9030.512492
4199.645715,383.047749,1702.473667,8364.327145
4199.646030,-919.314598,740.205942,9326.594869
4199.646346,-383.047749,-0.000000,10140.821405
4199.646661,76.609550,-0.000000,9770.718434
4199.646977,689.485948,-222.061783,10436.903782
4199.647292,306.438199,-962.267725,11325.150913
4199.647607,-306.438199,-0.000000,10288.862594
4199.647923,0.000000,74.020594,10658.965565
4199.648238,689.485948,370.102971,9474.636058
4199.648554,1685.410096,1036.288319,9474.636058
4199.648869,2298.286494,1406.391290,8734.430116
4199.649185,1608.800546,1184.329507,8290.306550
4199.649500,306.438199,962.267725,9252.574275
4199.649816,766.095498,-148.041188,10362.883188
4199.650131,1149.143247,888.247130,10140.821405
4199.650447,2298.286494,666.185348,9770.718434
4199.650762,1915.238745,-0.000000,10658.965565
4199.651078,689.485948,-0.000000,9844.739029
4199.651393,689.485948,-518.144159,10732.986159
4199.651709,1225.752797,370.102971,10214.842000
4199.652024,1455.581446,296.082377,9622.677246
4199.652340,2604.724693,222.061783,8956.491898
4199.652655,2068.457845,518.144159,8512.368333
4199.652971,689.485948,962.267725,8364.327145
4199.653286,76.609550,740.205942,9622.677246
4199.653602,383.047749,-0.000000,9178.553681
4199.653917,1225.752797,-814.226536,9474.636058
4199.654233,1225.752797,-666.185348,9918.759623
4199.654548,383.047749,-962.267725,9696.697840
4199.654864,-995.924147,-518.144159,9696.697840
4199.655179,-306.438199,-370.102971,10214.842000
4199.655494,536.266849,444.123565,9252.574275
4199.655810,842.705048,592.164754,8882.471304
4199.656125,536.266849,592.164754,9178.553681
4199.656441,-766.095498,592.164754,8734.430116
4199.656756,-1149.143247,740.205942,9030.512492
4199.657072,-995.924147,-74.020594,9622.677246
4199.657387,-612.876398,370.102971,9474.636058
4199.657703,0.000000,-592.164754,9918.759623
4199.658018,-1225.752797,-592.164754,9548.656652
4199.658334,-2145.067394,-740.205942,10362.883188
4199.658649,-1915.238745,-1258.350101,10362.883188
4199.658965,-1225.752797,-740.205942,9326.594869
4199.659280,-919.314598,-370.102971,9844.739029
4199.659596,-153.219100,-74.020594,9326.594869
4199.659911,-1455.581446,740.205942,8142.265362
4199.660227,-2451.505594,370.102971,9178.553681
4199.660542,-1915.238745,-0.000000,9474.636058
4199.660858,-1225.752797,148.041188,9992.780217
4199.661173,229.828649,-148.041188,10140.821405
4199.661489,76.609550,-740.205942,9918.759623
4199.661804,-1225.752797,-0.000000,10288.862594
4199.662120,-995.924147,-296.082377,9844.739029
4199.662435,-153.219100,-296.082377,10436.903782
4199.662751,842.705048,370.102971,10658.965565
4199.663066,1455.581446,370.102971,8882.471304
4199.663382,153.219100,1110.308913,8364.327145
4199.663697,-1149.143247,518.144159,8512.368333
4199.664012,-383.047749,-296.082377,9548.656652
4199.664328,766.095498,888.247130,9548.656652
4199.664643,1378.971896,296.082377,8808.450710
4199.664959,1455.581446,444.123565,9474.636058
4199.665274,153.219100,888.247130,9918.759623
4199.665590,-459.657299,-370.102971,9474.636058
4199.665905,919.314598,518.144159,9770.718434
4199.666221,1378.971896,740.205942,9770.718434
4199.666536,2068.457845,-0.000000,9474.636058
4199.666852,1608.800546,592.164754,9474.636058
4199.667167,0.000000,1184.329507,9326.594869
4199.667483,306.438199,518.144159,9918.759623
4199.667798,995.924147,592.164754,9992.780217
4199.668114,1685.410096,814.226536,9326.594869
4199.668429,1991.848295,444.123565,9918.759623
4199.668745,842.705048,814.226536,9030.512492
4199.669060,536.266849,-518.144159,10066.800811
4199.669376,1072.533697,-962.267725,10140.821405
4199.669691,1685.410096,-74.020594,9918.759623
4199.670007,2681.334243,-222.061783,9622.677246
4199.670322,1302.362347,592.164754,9474.636058
4199.670638,383.047749,888.247130,9030.512492
4199.670953,766.095498,296.082377,9548.656652
4199.671269,1072.533697,666.185348,9030.512492
4199.671584,1915.238745,666.185348,9918.759623
4199.671900,1302.362347,962.267725,9622.677246
4199.672215,153.219100,444.123565,9622.677246
4199.672530,-766.095498,-0.000000,10436.903782
4199.672846,-383.047749,-444.123565,10881.027347
4199.673161,0.000000,-222.061783,10732.986159
4199.673477,536.266849,-296.082377,10362.883188
4199.673792,0.000000,222.061783,10066.800811
4199.674108,-1455.581446,444.123565,9844.739029
4199.674423,-2068.457845,-222.061783,9992.780217
4199.674739,-459.657299,-0.000000,9474.636058
4199.675054,229.828649,518.144159,8808.450710
4199.675370,612.876398,74.020594,8142.265362
4199.675685,-153.219100,-0.000000,8438.347739
4199.676001,-1915.238745,-148.041188,8586.388927
4199.676316,-1685.410096,-888.247130,9548.656652
4199.676632,-612.876398,-888.247130,9474.636058
4199.676947,153.219100,-222.061783,9326.594869
4199.677263,0.000000,-296.082377,9252.574275
4199.677578,-1608.800546,-444.123565,9104.533087
4199.677894,-2911.162892,-740.205942,9770.718434
4199.678209,-2451.505594,-1406.391290,9844.739029
4199.678525,-766.095498,-962.267725,10362.883188
4199.678840,-766.095498,-296.082377,9992.780217
4199.679156,-766.095498,-666.185348,9252.574275
4199.679471,-1455.581446,-74.020594,9622.677246
4199.679787,-919.314598,-0.000000,9992.780217
4199.680102,0.000000,-0.000000,9326.594869
4199.680417,995.924147,370.102971,9030.512492
4199.680733,1378.971896,444.123565,9400.615463
4199.681048,536.266849,370.102971,8512.368333
4199.681364,-766.095498,-370.102971,9400.615463
4199.681679,-689.485948,-518.144159,9252.574275
4199.681995,153.219100,-518.144159,9548.656652
4199.682310,383.047749,-222.061783,9918.759623
4199.682626,153.219100,148.041188,9474.636058
4199.682941,-153.219100,740.205942,8956.491898
4199.683257,-842.705048,296.082377,10214.842000
4199.683572,0.000000,296.082377,10362.883188
4199.683888,766.095498,518.144159,9548.656652
4199.684203,1685.410096,962.267725,9252.574275
4199.684519,1302.362347,1184.329507,9918.759623
4199.684834,76.609550,1110.308913,9696.697840
4199.685150,919.314598,370.102971,10288.862594
4199.685465,995.924147,1036.288319,10140.821405
4199.685781,1838.629195,1110.308913,9400.615463
4199.686096,2298.286494,962.267725,9622.677246
4199.686412,1302.362347,1406.391290,9474.636058
4199.686727,76.609550,518.144159,9696.697840
4199.687043,536.266849,-0.000000,10066.800811
4199.687358,1378.971896,222.061783,9918.759623
4199.687674,2145.067394,-0.000000,9474.636058
4199.687989,1685.410096,296.082377,9252.574275
4199.688305,153.219100,370.102971,9770.718434
4199.688620,229.828649,-148.041188,10658.965565
4199.688935,1302.362347,518.144159,9918.759623
4199.689251,1608.800546,444.123565,9474.636058
4199.689566,2298.286494,148.041188,9696.697840
4199.689882,1072.533697,1110.308913,9030.512492
4199.690197,153.219100,370.102971,9548.656652
4199.690513,459.657299,-0.000000,9844.739029
4199.690828,766.095498,962.267725,9918.759623
4199.691144,1685.410096,666.185348,9770.718434
4199.691459,306.438199,-0.000000,9696.697840
4199.691775,-995.924147,592.164754,9326.594869
4199.692090,-1608.800546,-148.041188,10066.800811
4199.692406,-1225.752797,-814.226536,10288.862594
4199.692721,-612.876398,-222.061783,10140.821405
4199.693037,0.000000,-888.247130,10066.800811
4199.693352,-689.485948,222.061783,9104.533087
4199.693668,-1915.238745,370.102971,9178.553681
4199.693983,-1762.019645,-222.061783,10066.800811
4199.694299,-1455.581446,222.061783,9770.718434
4199.694614,-306.438199,444.123565,9326.594869
4199.694930,0.000000,296.082377,9178.553681
4199.695245,-995.924147,518.144159,9030.512492
4199.695561,-2298.286494,-592.164754,9696.697840
4199.695876,-1225.752797,-592.164754,10140.821405
4199.696192,-1532.190996,-74.020594,9844.739029
4199.696507,-689.485948,-296.082377,9844.739029
4199.696823,-229.828649,-148.041188,9918.759623
4199.697138,-1608.800546,-0.000000,9474.636058
4199.697453,-1302.362347,-888.247130,10066.800811
4199.697769,-689.485948,-296.082377,9696.697840
4199.698084,383.047749,296.082377,8808.450710
4199.698400,766.095498,592.164754,9326.594869
4199.698715,76.609550,1036.288319,8512.368333
4199.699031,-1149.143247,-0.000000,8290.306550
4199.699346,-536.266849,-814.226536,9400.615463
4199.699662,306.438199,-444.123565,9178.553681
4199.699977,612.876398,-666.185348,9030.512492
4199.700293,612.876398,-518.144159,9400.615463
4199.700608,0.000000,-0.000000,9918.759623
4199.700924,-689.485948,-296.082377,9474.636058
4199.701239,0.000000,-814.226536,9844.739029
4199.701555,1072.533697,-0.000000,9696.697840
4199.701870,1685.410096,518.144159,9992.780217
4199.702186,1302.362347,962.267725,8734.430116
4199.702501,459.657299,962.267725,8882.471304
4199.702817,536.266849,222.061783,10214.842000
4199.703132,1455.581446,-148.041188,10362.883188
4199.703448,2374.896044,-0.000000,9474.636058
4199.703763,2451.505594,148.041188,9474.636058
4199.704079,1302.362347,888.247130,9474.636058
4199.704394,842.705048,-444.123565,9474.636058
4199.704710,1149.143247,-0.000000,9696.697840
4199.705025,2451.505594,-296.082377,9252.574275
4199.705340,2221.676944,-222.061783,9622.677246
4199.705656,1532.190996,-0.000000,9918.759623
4199.705971,0.000000,740.205942,8956.491898
4199.706287,0.000000,-222.061783,10436.903782
4199.706602,612.876398,-0.000000,10214.842000
4199.706918,1838.629195,222.061783,9844.739029
4199.707233,1991.848295,740.205942,9918.759623
4199.707549,766.095498,1036.288319,9696.697840
4199.707864,-536.266849,1036.288319,9474.636058
4199.708180,-229.828649,-0.000000,10436.903782
4199.708495,153.219100,666.185348,9400.615463
4199.708811,689.485948,1110.308913,9252.574275
4199.709126,76.609550,592.164754,9474.636058
4199.709442,-1532.190996,444.123565,9474.636058
4199.709757,-1838.629195,-0.000000,10214.842000
4199.710073,-1685.410096,-222.061783,9992.780217
4199.710388,-842.705048,148.041188,10362.883188
4199.710704,306.438199,-592.164754,9696.697840
4199.711019,-842.705048,-0.000000,9178.553681
4199.711335,-2451.505594,592.164754,9400.615463
4199.711650,-1915.238745,-222.061783,9918.759623
4199.711966,-1225.752797,666.185348,9400.615463
4199.712281,0.000000,1332.370696,9178.553681
4199.712597,383.047749,814.226536,9474.636058
4199.712912,-766.095498,740.205942,9178.553681
4199.713228,-2374.896044,370.102971,9548.656652
4199.713543,-1149.143247,-74.020594,9918.759623
4199.713858,0.000000,666.185348,9474.636058
4199.714174,536.266849,222.061783,9326.594869
4199.714489,459.657299,148.041188,9474.636058
4199.714805,-919.314598,888.247130,9474.636058
4199.715120,-1072.533697,-0.000000,9770.718434
4199.715436,-612.876398,-370.102971,10140.821405
4199.715751,76.609550,-0.000000,9474.636058
4199.716067,536.266849,-0.000000,9474.636058
4199.716382,-306.438199,296.082377,8882.471304
4199.716698,-1302.362347,-0.000000,9696.697840
4199.717013,-459.657299,-0.000000,10140.821405
4199.717329,612.876398,518.144159,9770.718434
4199.717644,1302.362347,666.185348,9178.553681
4199.717960,1455.581446,740.205942,9474.636058
4199.718275,383.047749,592.164754,9104.533087
4199.718591,0.000000,-0.000000,9474.636058
4199.718906,229.828649,-74.020594,10288.862594
4199.719222,995.924147,-74.020594,10362.883188
4199.719537,919.314598,444.123565,9770.718434
4199.719853,766.095498,-370.102971,9696.697840
4199.720168,-306.438199,296.082377,9696.697840
4199.720484,-229.828649,-74.020594,10510.924376
4199.720799,995.924147,-0.000000,9622.677246
4199.721115,1762.019645,-74.020594,10140.821405
4199.721430,2145.067394,-370.102971,9844.739029
4199.721746,1608.800546,444.123565,9030.512492
4199.722061,766.095498,-0.000000,9918.759623
4199.722376,1225.752797,-0.000000,9622.677246
4199.722692,2298.286494,-0.000000,9844.739029
4199.723007,2451.505594,296.082377,9400.615463
4199.723323,1685.410096,222.061783,9400.615463
4199.723638,0.000000,518.144159,9104.533087
4199.723954,-536.266849,-444.123565,10288.862594
4199.724269,76.609550,-962.267725,10066.800811
4199.724585,766.095498,-1332.370696,10732.986159
4199.724900,1072.533697,-518.144159,10066.800811
4199.725215,76.609550,-222.061783,9474.636058
4199.725531,0.000000,-370.102971,9696.697840
4199.725846,306.438199,-222.061783,9474.636058
4199.726161,842.705048,518.144159,8956.491898
4199.726477,689.485948,296.082377,8734.430116
4199.726792,612.876398,740.205942,8660.409521
4199.727107,-995.924147,592.164754,8882.471304
4199.727423,-1838.629195,-370.102971,9326.594869
4199.727738,-1608.800546,-1480.411884,10066.800811
4199.728053,-1225.752797,-444.123565,10140.821405
4199.728369,-689.485948,-888.247130,10362.883188
4199.728684,-1072.533697,-592.164754,10362.883188
4199.729000,-2528.115143,-0.000000,9326.594869
4199.729315,-1991.848295,-444.123565,10066.800811
4199.729630,-1149.143247,-0.000000,9178.553681
4199.729946,-153.219100,-74.020594,9252.574275
4199.730261,76.609550,-0.000000,8734.430116
4199.730576,-1532.190996,444.123565,8068.244768
4199.730892,-1991.848295,-0.000000,8882.471304
4199.731207,-1225.752797,-444.123565,9474.636058
4199.731522,-229.828649,-148.041188,9400.615463
4199.731838,612.876398,-0.000000,9326.594869
4199.732153,229.828649,-0.000000,9400.615463
4199.732468,-689.485948,592.164754,8660.409521
4199.732784,-1072.533697,-0.000000,9992.780217
4199.733099,0.000000,666.185348,9548.656652
4199.733414,459.657299,666.185348,8734.430116
4199.733730,1378.971896,888.247130,9474.636058
4199.734045,459.657299,1480.411884,8956.491898
4199.734361,-612.876398,1850.514855,9474.636058
4199.734676,0.000000,962.267725,9770.718434
4199.734991,76.609550,1184.329507,9696.697840
4199.735307,1302.362347,888.247130,10214.842000
4199.735622,1302.362347,740.205942,10066.800811
4199.735937,-306.438199,518.144159,9992.780217
4199.736253,0.000000,148.041188,10584.944971
4199.736568,76.609550,-0.000000,10584.944971
4199.736883,995.924147,1110.308913,10140.821405
4199.737199,1762.019645,1258.350101,10066.800811
4199.737514,995.924147,1406.391290,9474.636058
4199.737829,0.000000,1406.391290,9770.718434
4199.738145,0.000000,148.041188,11103.089130
4199.738460,612.876398,518.144159,10214.842000
4199.738776,1762.019645,666.185348,10584.944971
4199.739091,1608.800546,370.102971,10881.027347
4199.739406,766.095498,296.082377,10436.903782
4199.739722,306.438199,370.102971,10362.883188
4199.740037,1072.533697,-0.000000,10362.883188
4199.740352,1915.238745,-0.000000,9770.718434
4199.740668,2145.067394,814.226536,9548.656652
4199.740983,1915.238745,888.247130,9696.697840
4199.741298,612.876398,888.247130,8734.430116
4199.741614,306.438199,-370.102971,9474.636058
4199.741929,689.485948,-962.267725,9696.697840
4199.742244,842.705048,-1110.308913,9770.718434
4199.742560,919.314598,-592.164754,9696.697840
4199.742875,612.876398,-222.061783,9178.553681
4199.743190,0.000000,444.123565,8586.388927
4199.743506,-306.438199,-962.267725,9474.636058
4199.743821,76.609550,-592.164754,9030.512492
4199.744137,306.438199,-666.185348,8956.491898
4199.744452,383.047749,-0.000000,8586.388927
4199.744767,-1149.143247,296.082377,7920.203579
4199.745083,-2298.286494,-370.102971,9400.615463
4199.745398,-1378.971896,-666.185348,9474.636058
4199.745713,-919.314598,-370.102971,8882.471304
4199.746029,-306.438199,-666.185348,9622.677246
4199.746344,-995.924147,-296.082377,9326.594869
4199.746659,-2451.505594,-518.144159,9844.739029
4199.746975,-2068.457845,-1332.370696,10436.903782
4199.747290,-1302.362347,-1110.308913,9844.739029
4199.747605,-766.095498,-592.164754,8956.491898
4199.747921,0.000000,-666.185348,9252.574275
4199.748236,-1149.143247,888.247130,9030.512492
4199.748552,-2374.896044,370.102971,9030.512492
4199.748867,-1455.581446,-444.123565,9326.594869
4199.749182,-459.657299,-296.082377,9178.553681
4199.749498,76.609550,-666.185348,9622.677246
4199.749813,-229.828649,-1036.288319,10214.842000
4199.750128,-1608.800546,-148.041188,9474.636058
4199.750444,-1455.581446,-1036.288319,10807.006753
4199.750759,0.000000,-592.164754,10732.986159
4199.751074,612.876398,-148.041188,9548.656652
4199.751390,1455.581446,-0.000000,9474.636058
4199.751705,1149.143247,962.267725,9326.594869
4199.752020,-536.266849,962.267725,9030.512492
4199.752336,0.000000,-148.041188,10066.800811
4199.752651,919.314598,296.082377,9696.697840
4199.752966,1455.581446,592.164754,9474.636058
4199.753282,1685.410096,-74.020594,9844.739029
4199.753597,612.876398,-0.000000,9770.718434
4199.753913,0.000000,-74.020594,10066.800811
4199.754228,383.047749,-518.144159,9992.780217
4199.754543,1072.533697,296.082377,9844.739029
4199.754859,1685.410096,666.185348,9400.615463
4199.755174,2145.067394,1258.350101,8956.491898
4199.755489,842.705048,1554.432478,8734.430116
4199.755805,1608.800546,444.123565,9770.718434
4199.756120,1532.190996,1110.308913,9474.636058
4199.756435,2451.505594,1110.308913,8734.430116
4199.756751,3140.991542,740.205942,9696.697840
4199.757066,2068.457845,1332.370696,9992.780217
4199.757381,689.485948,814.226536,10214.842000
4199.757697,689.485948,-148.041188,10436.903782
4199.758012,1302.362347,-444.123565,10288.862594
4199.758327,1838.629195,-296.082377,9770.718434
4199.758643,1378.971896,-296.082377,9992.780217
4199.758958,306.438199,592.164754,9104.533087
4199.759274,76.609550,148.041188,10066.800811
4199.759589,612.876398,296.082377,9474.636058
4199.759904,1378.971896,666.185348,8808.450710
4199.760220,1838.629195,740.205942,9178.553681
4199.760535,1072.533697,814.226536,9178.553681
4199.760850,-229.828649,1406.391290,8586.388927
4199.761166,0.000000,444.123565,9474.636058
4199.761481,0.000000,370.102971,9474.636058
4199.761796,76.609550,-0.000000,9696.697840
4199.762112,-689.485948,592.164754,9622.677246
4199.762427,-2528.115143,1036.288319,9622.677246
4199.762742,-3294.210641,370.102971,10436.903782
4199.763058,-2374.896044,-740.205942,10584.944971
4199.763373,-1762.019645,-444.123565,9622.677246
4199.763689,-1225.752797,-740.205942,10584.944971
4199.764004,-1838.629195,-0.000000,10214.842000
4199.764319,-3064.381992,1184.329507,9770.718434
4199.764635,-2451.505594,-74.020594,10584.944971
4199.764950,-1455.581446,-0.000000,9918.759623
4199.765265,-536.266849,444.123565,9548.656652
4199.765581,229.828649,-222.061783,9030.512492
4199.765896,-383.047749,740.205942,8956.491898
4199.766211,-1378.971896,888.247130,9252.574275
4199.766527,-1455.581446,-148.041188,10066.800811
4199.766842,-689.485948,370.102971,9474.636058
4199.767157,-306.438199,-222.061783,9326.594869
4199.767473,153.219100,-666.185348,9104.533087
4199.767788,-1532.190996,-74.020594,9474.636058
4199.768103,-1915.238745,-740.205942,10140.821405
4199.768419,-1149.143247,-1036.288319,10732.986159
4199.768734,-306.438199,-518.144159,9770.718434
4199.769050,612.876398,-222.061783,9770.718434
4199.769365,536.266849,296.082377,9178.553681
4199.769680,-459.657299,814.226536,9474.636058
4199.769996,306.438199,-0.000000,9474.636058
4199.770311,919.314598,444.123565,8956.491898
4199.770626,1685.410096,1258.350101,8808.450710
4199.770942,2298.286494,444.123565,9400.615463
4199.771257,766.095498,518.144159,9326.594869
4199.771572,76.609550,222.061783,8734.430116
4199.771888,153.219100,-1258.350101,9474.636058
4199.772203,1072.533697,-962.267725,9400.615463
4199.772518,1838.629195,-962.267725,9770.718434
4199.772834,995.924147,-592.164754,9030.512492
4199.773149,76.609550,-444.123565,9770.718434
4199.773464,536.266849,-888.247130,10140.821405
4199.773780,1225.752797,-148.041188,9252.574275
4199.774095,2451.505594,222.061783,9326.594869
4199.774411,2911.162892,-0.000000,9474.636058
4199.774726,2528.115143,1036.288319,8364.327145
4199.775041,1532.190996,888.247130,8734.430116
4199.775357,1762.019645,-0.000000,9326.594869
4199.775672,1915.238745,-148.041188,9474.636058
4199.775987,2145.067394,-148.041188,9548.656652
4199.776303,1685.410096,-0.000000,9918.759623
4199.776618,842.705048,518.144159,9474.636058
4199.776933,76.609550,-592.164754,10140.821405
4199.777249,689.485948,-888.247130,10140.821405
4199.777564,842.705048,-444.123565,9770.718434
4199.777879,1302.362347,-148.041188,9696.697840
4199.778195,153.219100,518.144159,8882.471304
4199.778510,-842.705048,518.144159,9030.512492
4199.778826,-1072.533697,148.041188,9992.780217
4199.779141,0.000000,962.267725,9252.574275
4199.779456,306.438199,518.144159,9178.553681
4199.779772,153.219100,518.144159,9696.697840
4199.780087,-1532.190996,518.144159,9474.636058
4199.780402,-1608.800546,296.082377,10214.842000
4199.780718,-1532.190996,-0.000000,10510.924376
4199.781033,-1608.800546,-0.000000,9770.718434
4199.781348,-995.924147,-74.020594,10214.842000
4199.781664,-1455.581446,-0.000000,9844.739029
4199.781979,-2451.505594,962.267725,9104.533087
4199.782294,-2757.943793,-148.041188,9918.759623
4199.782610,-1762.019645,-0.000000,9548.656652
4199.782925,-919.314598,-148.041188,9770.718434
4199.783240,-306.438199,-0.000000,9548.656652
4199.783556,-1302.362347,1036.288319,8956.491898
4199.783871,-2298.286494,740.205942,9622.677246
4199.784187,-1378.971896,-0.000000,10288.862594
4199.784502,-995.924147,-0.000000,10288.862594
4199.784817,76.609550,-0.000000,9992.780217
4199.785133,383.047749,740.205942,9696.697840
4199.785448,-459.657299,1332.370696,8956.491898
4199.785763,-1072.533697,1258.350101,9474.636058
4199.786079,-383.047749,-0.000000,9770.718434
4199.786394,229.828649,444.123565,9400.615463
4199.786709,1302.362347,-0.000000,9400.615463
4199.787025,459.657299,518.144159,9252.574275
4199.787340,-612.876398,888.247130,9474.636058
4199.787655,-306.438199,-74.020594,10288.862594
4199.787971,536.266849,518.144159,9696.697840
4199.788286,1225.752797,-148.041188,9696.697840
4199.788602,1532.190996,-0.000000,9696.697840
4199.788917,766.095498,888.247130,9696.697840
4199.789232,-459.657299,666.185348,9252.574275
4199.789548,459.657299,444.123565,10214.842000
4199.789863,1532.190996,888.247130,9400.615463
4199.790178,2451.505594,370.102971,9548.656652
4199.790494,2757.943793,1110.308913,8660.409521
4199.790809,459.657299,666.185348,9400.615463
4199.791124,229.828649,740.205942,10362.883188
4199.791440,459.657299,-0.000000,10140.821405
4199.791755,1608.800546,-518.144159,9474.636058
4199.792070,2221.676944,-962.267725,10362.883188
4199.792386,1762.019645,-370.102971,9104.533087
4199.792701,459.657299,-74.020594,9326.594869
4199.793016,306.438199,-0.000000,9548.656652
4199.793332,1608.800546,-0.000000,8808.450710
4199.793647,2298.286494,296.082377,8956.491898
4199.793963,2221.676944,74.020594,9400.615463
4199.794278,919.314598,370.102971,8956.491898
4199.794593,0.000000,-74.020594,9548.656652
4199.794909,306.438199,-74.020594,10436.903782
4199.795224,1302.362347,-296.082377,9992.780217
4199.795539,2528.115143,-740.205942,10288.862594
4199.795855,2374.896044,-518.144159,9696.697840
4199.796170,1149.143247,-370.102971,9548.656652
4199.796485,459.657299,-592.164754,9918.759623
4199.796801,1685.410096,-370.102971,9474.636058
4199.797116,1608.800546,-296.082377,9400.615463
4199.797431,1762.019645,-444.123565,8586.388927
4199.797747,842.705048,-296.082377,8882.471304
4199.798062,-842.705048,-666.185348,8956.491898
4199.798377,-919.314598,-2368.659014,10436.903782
4199.798693,-612.876398,-1554.432478,10214.842000
4199.799008,536.266849,-2368.659014,10140.821405
4199.799324,766.095498,-1924.535449,10658.965565
4199.799639,-766.095498,-1036.288319,10584.944971
4199.799954,-1072.533697,-1776.494261,10658.965565
4199.800270,-612.876398,-1184.329507,10436.903782
4199.800585,536.266849,-888.247130,9548.656652
4199.800900,1838.629195,-740.205942,9622.677246
4199.801216,1532.190996,-666.185348,9548.656652
4199.801531,459.657299,-814.226536,9696.697840
4199.801846,0.000000,-1110.308913,10658.965565
4199.802162,689.485948,-1702.473667,9918.759623
4199.802477,1302.362347,-2516.700203,9696.697840
4199.802792,3064.381992,-2294.638420,10140.821405
4199.803108,2911.162892,-2516.700203,9252.574275
4199.803423,1838.629195,-2072.576638,8882.471304
4199.803739,1225.752797,-2294.638420,10288.862594
4199.804054,1532.190996,-2072.576638,8512.368333
4199.804369,2528.115143,-1998.556043,8142.265362
4199.804685,3907.087040,-1628.453072,8216.285956
4199.805000,2987.772442,-1702.473667,8364.327145
4199.805315,1915.238745,-1554.432478,9030.512492
4199.805631,1072.533697,-1998.556043,9992.780217
4199.805946,1149.143247,-2220.617826,9252.574275
4199.806261,2681.334243,-2590.720797,9474.636058
4199.806577,3830.477490,-2220.617826,9104.533087
4199.806892,3600.648841,-2072.576638,9030.512492
4199.807207,2911.162892,-1850.514855,9178.553681
4199.807523,1302.362347,-2220.617826,9622.677246
4199.807838,1072.533697,-1406.391290,10066.800811
4199.808153,1838.629195,-1628.453072,9622.677246
4199.808469,3370.820191,-1258.350101,8586.388927
4199.808784,3447.429741,-1998.556043,9030.512492
4199.809100,2987.772442,-3182.885551,10214.842000
4199.809415,1991.848295,-2368.659014,10510.924376
4199.809730,1455.581446,-2368.659014,10510.924376
4199.810046,2374.896044,-2368.659014,10214.842000
4199.810361,3294.210641,-1776.494261,9400.615463
4199.810676,4366.744339,-2072.576638,9474.636058
4199.810992,4060.306139,-2072.576638,8882.471304
4199.811307,3217.601092,-2146.597232,9474.636058
4199.811622,2451.505594,-1480.411884,9770.718434
4199.811938,1991.848295,-1110.308913,9992.780217
4199.812253,2451.505594,-1628.453072,9696.697840
4199.812568,2681.334243,-1554.432478,9548.656652
4199.812884,2911.162892,-2294.638420,8808.450710
4199.813199,2528.115143,-2664.741391,8882.471304
4199.813514,1685.410096,-2442.679609,9844.739029
4199.813830,1838.629195,-2368.659014,10140.821405
4199.814145,1762.019645,-1850.514855,10288.862594
4199.814461,2145.067394,-1406.391290,9918.759623
4199.814776,2221.676944,-1850.514855,9178.553681
4199.815091,2221.676944,-2220.617826,9178.553681
4199.815407,2298.286494,-2664.741391,9400.615463
4199.815722,1762.019645,-2294.638420,9992.780217
4199.816037,919.314598,-666.185348,8882.471304
4199.816353,1608.800546,-1332.370696,9326.594869
4199.816668,2145.067394,-888.247130,9770.718434
4199.816983,1915.238745,-1924.535449,9548.656652
4199.817299,1302.362347,-2886.803174,10214.842000
4199.817614,1685.410096,-3256.906145,10362.883188
4199.817929,1685.410096,-2738.761985,9844.739029
4199.818245,1685.410096,-2368.659014,9252.574275
4199.818560,1532.190996,-1554.432478,9104.533087
4199.818876,1532.190996,-1406.391290,9548.656652
4199.819191,1378.971896,-1480.411884,9474.636058
4199.819506,1302.362347,-2072.576638,10066.800811
4199.819822,766.095498,-2294.638420,9992.780217
4199.820137,1149.143247,-2072.576638,9992.780217
4199.820452,1455.581446,-2294.638420,9622.677246
4199.820768,2451.505594,-2146.597232,9178.553681
4199.821083,2374.896044,-1554.432478,9178.553681
4199.821398,2145.067394,-1776.494261,9474.636058
4199.821714,1532.190996,-888.247130,9326.594869
4199.822029,1532.190996,-1184.329507,9474.636058
4199.822344,1149.143247,-1406.391290,9696.697840
4199.822660,1302.362347,-1924.535449,10214.842000
4199.822975,612.876398,-3182.885551,10362.883188
4199.823290,1378.971896,-3701.029710,10732.986159
4199.823606,1838.629195,-3256.906145,9992.780217
4199.823921,2911.162892,-2516.700203,9474.636058
4199.824237,3600.648841,-962.267725,8586.388927
4199.824552,3294.210641,-148.041188,8512.368333
4199.824867,2834.553343,296.082377,8438.347739
4199.825183,2834.553343,-518.144159,8512.368333
4199.825498,2681.334243,-1480.411884,9474.636058
4199.825813,2528.115143,-2886.803174,9770.718434
4199.826129,2068.457845,-3849.070898,10807.006753
4199.826444,2221.676944,-4071.132681,10807.006753
4199.826759,2374.896044,-3997.112087,10807.006753
4199.827075,2987.772442,-2294.638420,9548.656652
4199.827390,3064.381992,-1258.350101,8364.327145
4199.827705,3140.991542,-222.061783,8290.306550
4199.828021,2757.943793,444.123565,7476.080014
4199.828336,2298.286494,-148.041188,7550.100608
4199.828651,1838.629195,-1258.350101,9400.615463
4199.828967,1532.190996,-2812.782580,10288.862594
4199.829282,1455.581446,-3997.112087,11325.150913
4199.829597,1532.190996,-3997.112087,12065.356855
4199.829913,2451.505594,-4367.215058,12361.439231
4199.830228,3447.429741,-2886.803174,11695.253884
4199.830543,4290.134789,-1628.453072,9844.739029
4199.830859,4443.353888,-0.000000,8142.265362
4199.831174,4366.744339,1258.350101,7698.141797
4199.831489,4519.963438,1184.329507,5995.668130
4199.831805,3447.429741,444.123565,5921.647536
4199.832120,2298.286494,-296.082377,7031.956449
4199.832435,919.314598,-2072.576638,9400.615463
4199.832751,-612.876398,-3627.009116,11029.068536
4199.833066,-919.314598,-5107.421000,13027.624579
4199.833381,0.000000,-5403.503377,13545.768739
4199.833697,536.266849,-5625.565159,14359.995275
4199.834012,1762.019645,-4663.297435,13175.665768
4199.834327,3217.601092,-3108.864956,10881.027347
4199.834643,4903.011187,-666.185348,8586.388927
4199.834958,5669.106685,1480.411884,6365.771101
4199.835273,5056.230287,2442.679609,5181.441594
4199.835589,4213.525239,1998.556043,5033.400406
4199.835904,2987.772442,1036.288319,5551.544565
4199.836219,1302.362347,-666.185348,7254.018232
4199.836535,-995.924147,-2368.659014,9548.656652
4199.836850,-2374.896044,-5181.441594,11991.336260
4199.837165,-2911.162892,-6957.935855,13841.851115
4199.837481,-2451.505594,-7031.956449,13915.871710
4199.837796,-2145.067394,-6291.750507,13767.830521
4199.838111,153.219100,-4367.215058,12657.521608
4199.838427,1685.410096,-2368.659014,10658.965565
4199.838742,2987.772442,666.185348,8216.285956
4199.839057,4136.915689,1924.535449,6661.853478
4199.839373,5439.278036,2738.761985,5995.668130
4199.839688,5439.278036,2294.638420,6587.832884
4199.840003,4903.011187,814.226536,6291.750507
4199.840319,3983.696590,-888.247130,7994.224174
4199.840634,2681.334243,-2590.720797,10066.800811
4199.840949,2221.676944,-4737.318029,11177.109724
4199.841265,1225.752797,-5181.441594,11399.171507
4199.841580,1072.533697,-5403.503377,11547.212695
4199.841895,536.266849,-4737.318029,11103.089130
4199.842210,536.266849,-3552.988522,9992.780217
4199.842526,1072.533697,-1998.556043,8216.285956
4199.842841,1149.143247,-592.164754,7846.182985
4199.843156,1915.238745,222.061783,7846.182985
4199.843472,2298.286494,592.164754,7772.162391
4199.843787,2451.505594,444.123565,8660.409521
4199.844102,2451.505594,-0.000000,9696.697840
4199.844418,2834.553343,-518.144159,10510.924376
4199.844733,3064.381992,-1258.350101,11621.233289
4199.845048,3294.210641,-1850.514855,11695.253884
4199.845364,3294.210641,-1480.411884,11251.130318
4199.845679,3447.429741,-1702.473667,10436.903782
4199.845994,2681.334243,-1406.391290,8956.491898
4199.846310,1838.629195,-1406.391290,8512.368333
4199.846625,1455.581446,-1406.391290,7698.141797
4199.846940,766.095498,-1850.514855,7994.224174
4199.847256,383.047749,-2220.617826,8438.347739
4199.847571,153.219100,-2368.659014,9400.615463
4199.847886,383.047749,-2664.741391,10066.800811
4199.848202,842.705048,-3404.947333,11177.109724
4199.848517,2145.067394,-3478.967927,11547.212695
4199.848832,2681.334243,-2368.659014,11621.233289
4199.849148,3447.429741,-1332.370696,11177.109724
4199.849463,4290.134789,-0.000000,10214.842000
4199.849778,4596.572988,888.247130,9178.553681
4199.850094,4519.963438,888.247130,8512.368333
4199.850409,3830.477490,962.267725,7920.203579
4199.850724,2681.334243,370.102971,8068.244768
4199.851040,2068.457845,-888.247130,8142.265362
4199.851355,1225.752797,-2220.617826,9474.636058
4199.851670,612.876398,-3256.906145,10436.903782
4199.851986,-306.438199,-4663.297435,10658.965565
4199.852301,-612.876398,-4367.215058,10881.027347
4199.852616,0.000000,-4515.256246,11177.109724
4199.852932,612.876398,-3108.864956,10510.924376
4199.853247,842.705048,-1776.494261,8882.471304
4199.853562,1072.533697,-814.226536,8438.347739
4199.853878,1302.362347,-0.000000,8364.327145
4199.854193,1302.362347,444.123565,8068.244768
4199.854508,1685.410096,370.102971,8734.430116
4199.854824,1762.019645,-0.000000,9474.636058
4199.855139,76.609550,296.082377,9400.615463
4199.855454,459.657299,-962.267725,10658.965565
4199.855770,842.705048,-1554.432478,11103.089130
4199.856085,689.485948,-2368.659014,11843.295072
4199.856400,1455.581446,-3108.864956,11473.192101
4199.856716,1685.410096,-2960.823768,10955.047942
4199.857031,1915.238745,-2368.659014,9844.739029
4199.857346,2145.067394,-2072.576638,9178.553681
4199.857662,2451.505594,-1554.432478,8068.244768
4199.857977,2834.553343,-1110.308913,7698.141797
4199.858292,3447.429741,-1110.308913,7920.203579
4199.858608,3677.258390,-1406.391290,8068.244768
4199.858923,3600.648841,-1554.432478,8364.327145
4199.859238,3677.258390,-2220.617826,9474.636058
4199.859554,3294.210641,-2664.741391,10066.800811
4199.859869,3600.648841,-3108.864956,11029.068536
4199.860184,3753.867940,-2886.803174,10955.047942
4199.860500,3753.867940,-2590.720797,10955.047942
4199.860815,3753.867940,-2368.659014,10510.924376
4199.861130,3907.087040,-1776.494261,9844.739029
4199.861446,4213.525239,-1332.370696,9696.697840
4199.861761,4136.915689,-1702.473667,9252.574275
4199.862076,4136.915689,-2072.576638,8808.450710
4199.862392,4366.744339,-2738.761985,9326.594869
4199.862707,3907.087040,-2664.741391,9622.677246
4199.863022,3830.477490,-3330.926739,10362.883188
4199.863338,3447.429741,-3478.967927,10436.903782
4199.863653,3294.210641,-3404.947333,10214.842000
4199.863968,2911.162892,-3256.906145,9696.697840
4199.864284,3140.991542,-3034.844362,9548.656652
4199.864599,2834.553343,-2516.700203,9622.677246
4199.864914,2298.286494,-2072.576638,9548.656652
4199.865230,2145.067394,-1776.494261,9178.553681
4199.865545,1608.800546,-1998.556043,9178.553681
4199.865860,1838.629195,-2072.576638,9400.615463
4199.866176,1838.629195,-2146.597232,9770.718434
4199.866491,1378.971896,-2664.741391,10066.800811
4199.866806,1378.971896,-2960.823768,10066.800811
4199.867122,995.924147,-3108.864956,10436.903782
4199.867437,1532.190996,-3256.906145,10732.986159
4199.867752,1532.190996,-3034.844362,10288.862594
4199.868068,1532.190996,-3404.947333,9844.739029
4199.868383,1838.629195,-2960.823768,9622.677246
4199.868698,2298.286494,-2738.761985,8512.368333
4199.869014,2374.896044,-2664.741391,7772.162391
4199.869329,2451.505594,-2368.659014,7698.141797
4199.869644,2068.457845,-2146.597232,7105.977043
4199.869960,1302.362347,-2220.617826,7476.080014
4199.870275,995.924147,-2294.638420,7698.141797
4199.870590,383.047749,-2516.700203,8290.306550
4199.870906,-153.219100,-2886.803174,9178.553681
4199.871221,-1302.362347,-2886.803174,9326.594869
4199.871536,-995.924147,-2590.720797,9548.656652
4199.871852,-689.485948,-2220.617826,9992.780217
4199.872167,-536.266849,-1924.535449,10584.944971
4199.872482,-842.705048,-1628.453072,10584.944971
4199.872798,76.609550,-1332.370696,10955.047942
4199.873113,1378.971896,-1258.350101,10807.006753
4199.873428,2221.676944,-1258.350101,10288.862594
4199.873744,3140.991542,-518.144159,10288.862594
4199.874059,4136.915689,-148.041188,10066.800811
4199.874374,4366.744339,-370.102971,9252.574275
4199.874690,4596.572988,-148.041188,8438.347739
4199.875005,4136.915689,-296.082377,8290.306550
4199.875320,3447.429741,-222.061783,8216.285956
4199.875636,2681.334243,-962.267725,8512.368333
4199.875951,1762.019645,-1406.391290,8734.430116
4199.876266,766.095498,-1924.535449,9252.574275
4199.876582,76.609550,-2516.700203,10362.883188
4199.876897,0.000000,-2812.782580,11621.233289
4199.877212,612.876398,-2738.761985,12509.480420
4199.877528,1762.019645,-1998.556043,12731.542202
4199.877843,3677.258390,-1628.453072,12731.542202
4199.878158,4443.353888,-666.185348,11769.274478
4199.878474,6052.154434,592.164754,10288.862594
4199.878789,6435.202183,1850.514855,8956.491898
4199.879104,6205.373534,2812.782580,7179.997637
4199.879420,5669.106685,2886.803174,6365.771101
4199.879735,4749.792088,2146.597232,6365.771101
4199.880050,2757.943793,444.123565,7328.038826
4199.880366,1072.533697,-1924.535449,8808.450710
4199.880681,0.000000,-3701.029710,11473.192101
4199.880996,-919.314598,-5847.626942,13397.727550
4199.881312,-995.924147,-7105.977043,14730.098246
4199.881627,0.000000,-6957.935855,14359.995275
4199.881942,2451.505594,-5699.585753,12805.562797
4199.882258,4903.011187,-2960.823768,10510.924376
4199.882573,5592.497135,888.247130,6513.812290
4199.882888,6511.811733,2516.700203,4811.338623
4199.883204,6588.421283,3701.029710,3775.050304
4199.883519,5209.449386,3330.926739,3552.988522
4199.883834,3524.039291,2294.638420,5551.544565
4199.884150,1455.581446,-740.205942,8882.471304
4199.884465,229.828649,-4367.215058,11695.253884
4199.884780,-919.314598,-7698.141797,14211.954086
4199.885096,-1302.362347,-8586.388927,14656.077652
4199.885411,-1378.971896,-8364.327145,15174.221811
4199.885726,-306.438199,-6365.771101,13323.706956
4199.886042,1455.581446,-4663.297435,10955.047942
4199.886357,3370.820191,-592.164754,7846.182985
4199.886672,4136.915689,1628.453072,5551.544565
4199.886988,3830.477490,2442.679609,4737.318029
4199.887303,3294.210641,1924.535449,5477.523971
4199.887618,2911.162892,-0.000000,6439.791695
4199.887934,2987.772442,-2146.597232,8290.306550
4199.888249,2298.286494,-3330.926739,10214.842000
4199.888564,919.314598,-4811.338623,11177.109724
4199.888880,536.266849,-6143.709319,12287.418637
4199.889195,842.705048,-5403.503377,12361.439231
4199.889510,306.438199,-4959.379811,11991.336260
4199.889826,-306.438199,-3849.070898,10807.006753
4199.890141,-306.438199,-2368.659014,9400.615463
4199.890456,306.438199,-2220.617826,7920.203579
4199.890772,766.095498,-1628.453072,6883.915261
4199.891087,612.876398,-1258.350101,7031.956449
4199.891402,-76.609550,-1184.329507,7105.977043
4199.891718,1072.533697,-888.247130,8808.450710
4199.892033,1762.019645,-1702.473667,10362.883188
4199.892348,1455.581446,-2590.720797,11843.295072
4199.892664,1838.629195,-3256.906145,12361.439231
4199.892979,2374.896044,-3997.112087,12361.439231
4199.893294,2911.162892,-4071.132681,11621.233289
4199.893610,3370.820191,-4145.153275,9622.677246
4199.893925,3370.820191,-1924.535449,7920.203579
4199.894240,3140.991542,-0.000000,7031.956449
4199.894556,2221.676944,148.041188,6809.894666
4199.894871,1762.019645,222.061783,7179.997637
4199.895186,1762.019645,-592.164754,7624.121203
4199.895502,1072.533697,-1776.494261,8808.450710
4199.895817,1072.533697,-3256.906145,10214.842000
4199.896132,1838.629195,-3923.091493,11843.295072
4199.896448,2374.896044,-4219.173869,12657.521608
4199.896763,2451.505594,-3701.029710,12583.501014
4199.897078,3140.991542,-1406.391290,12065.356855
4199.897394,4290.134789,814.226536,10066.800811
4199.897709,5056.230287,1850.514855,8660.409521
4199.898024,5822.325785,2146.597232,7328.038826
4199.898340,5286.058936,1998.556043,7105.977043
4199.898655,3830.477490,888.247130,7846.182985
4199.898970,2451.505594,-592.164754,8290.306550
4199.899286,1915.238745,-1258.350101,9622.677246
4199.899601,1532.190996,-2442.679609,10288.862594
4199.899916,1685.410096,-3849.070898,11325.150913
4199.900232,1608.800546,-4811.338623,12583.501014
4199.900547,1532.190996,-4441.235652,12657.521608
4199.900862,1072.533697,-3182.885551,12065.356855
4199.901178,1072.533697,-1628.453072,10658.965565
4199.901493,2374.896044,592.164754,8882.471304
4199.901808,3830.477490,1110.308913,7179.997637
4199.902124,4826.401637,1554.432478,6365.771101
4199.902439,3753.867940,1998.556043,6217.729913
4199.902754,2068.457845,1258.350101,7402.059420
4199.903070,229.828649,370.102971,9178.553681
4199.903385,-306.438199,-148.041188,10066.800811
4199.903700,-306.438199,-2294.638420,10955.047942
4199.904016,153.219100,-3923.091493,12139.377449
4199.904331,-306.438199,-4515.256246,11917.315666
4199.904646,-1302.362347,-3923.091493,12287.418637
4199.904962,-1838.629195,-2886.803174,11621.233289
4199.905277,-1378.971896,-888.247130,9844.739029
4199.905592,229.828649,1110.308913,7920.203579
4199.905908,2681.334243,1184.329507,7031.956449
4199.906223,3600.648841,1776.494261,5551.544565
4199.906538,1762.019645,962.267725,6513.812290
4199.906854,612.876398,-0.000000,7550.100608
4199.907169,0.000000,-0.000000,8882.471304
4199.907484,306.438199,-666.185348,9474.636058
4199.907800,1532.190996,-2368.659014,10881.027347
4199.908115,919.314598,-2590.720797,10955.047942
4199.908430,-1149.143247,-2442.679609,11695.253884
4199.908746,-2451.505594,-2516.700203,11547.212695
4199.909061,-2834.553343,-148.041188,10436.903782
4199.909376,-1302.362347,370.102971,9474.636058
4199.909692,842.705048,1110.308913,8068.244768
4199.910007,842.705048,1998.556043,7105.977043
4199.910322,0.000000,888.247130,8364.327145
4199.910637,-766.095498,-0.000000,9474.636058
4199.910953,-1072.533697,296.082377,10140.821405
4199.911268,229.828649,-296.082377,11029.068536
4199.911583,1915.238745,-0.000000,11251.130318
4199.911899,1455.581446,-222.061783,11103.089130
4199.912214,383.047749,-1036.288319,11029.068536
4199.912529,-536.266849,-1332.370696,11399.171507
4199.912845,-383.047749,-962.267725,10436.903782
4199.913160,1608.800546,-0.000000,9030.512492
4199.913475,2451.505594,1332.370696,7772.162391
4199.913791,1762.019645,1184.329507,7105.977043
4199.914106,842.705048,814.226536,8068.244768
4199.914421,0.000000,-148.041188,9252.574275
4199.914737,459.657299,-592.164754,9992.780217
4199.915052,1915.238745,-518.144159,11029.068536
4199.915367,1991.848295,-592.164754,10510.924376
4199.915683,919.314598,-518.144159,10881.027347
4199.915998,229.828649,-814.226536,11029.068536
4199.916313,536.266849,-814.226536,10584.944971
4199.916629,1685.410096,-0.000000,9992.780217
4199.916944,2757.943793,1924.535449,8586.388927
4199.917259,1608.800546,2516.700203,7624.121203
4199.917575,1072.533697,1480.411884,7402.059420
4199.917890,306.438199,888.247130,8660.409521
4199.918205,0.000000,-0.000000,8882.471304
4199.918521,153.219100,-814.226536,9992.780217
4199.918836,153.219100,-814.226536,10658.965565
4199.919151,-1149.143247,-814.226536,10807.006753
4199.919467,-1838.629195,-814.226536,10807.006753
4199.919782,-1991.848295,-666.185348,10955.047942
4199.920097,-1072.533697,-888.247130,11103.089130
4199.920413,689.485948,148.041188,9696.697840
4199.920728,536.266849,1924.535449,8586.388927
4199.921043,0.000000,2960.823768,8512.368333
4199.921359,-919.314598,3182.885551,8068.244768
4199.921674,-536.266849,2516.700203,8438.347739
4199.921989,-383.047749,1184.329507,9178.553681
4199.922305,0.000000,592.164754,9474.636058
4199.922620,-995.924147,-0.000000,9696.697840
4199.922936,-2374.896044,-518.144159,10288.862594
4199.923251,-2911.162892,-1184.329507,11177.109724
4199.923566,-2834.553343,-1776.494261,11547.212695
4199.923882,-612.876398,-1702.473667,10955.047942
4199.924197,76.609550,-74.020594,9474.636058
4199.924513,0.000000,444.123565,9400.615463
4199.924828,-536.266849,1998.556043,8142.265362
4199.925144,-612.876398,2368.659014,8364.327145
4199.925459,689.485948,1332.370696,8512.368333
4199.925775,1608.800546,1850.514855,8512.368333
4199.926090,229.828649,1406.391290,8808.450710
4199.926405,-2374.896044,592.164754,8882.471304
4199.926721,-612.876398,-2368.659014,12435.459826
4199.927036,-1072.533697,-222.061783,10584.944971
4199.927352,-842.705048,-2146.597232,11103.089130
4199.927667,612.876398,-1554.432478,10807.006753
4199.927983,-153.219100,222.061783,10214.842000
4199.928298,0.000000,1480.411884,9400.615463
4199.928614,76.609550,1480.411884,8364.327145
4199.928929,1532.190996,962.267725,8142.265362
4199.929244,2451.505594,1258.350101,8364.327145
4199.929560,1608.800546,1702.473667,8438.347739
4199.929875,229.828649,814.226536,9104.533087
4199.930191,-459.657299,888.247130,10140.821405
4199.930506,0.000000,-0.000000,11103.089130
4199.930822,689.485948,-518.144159,11251.130318
4199.931137,1532.190996,-0.000000,11251.130318
4199.931453,842.705048,666.185348,10955.047942
4199.931768,153.219100,-0.000000,10362.883188
4199.932083,-229.828649,1110.308913,9770.718434
4199.932399,766.095498,592.164754,9178.553681
4199.932714,2374.896044,1036.288319,8734.430116
4199.933030,2451.505594,1480.411884,8216.285956
4199.933345,1302.362347,888.247130,8660.409521
4199.933661,0.000000,370.102971,9030.512492
4199.933976,-459.657299,-0.000000,9622.677246
4199.934292,842.705048,-1036.288319,9918.759623
4199.934607,1915.238745,-1480.411884,10436.903782
4199.934922,1225.752797,-1110.308913,9844.739029
4199.935238,153.219100,-1628.453072,10214.842000
4199.935553,0.000000,-1110.308913,9696.697840
4199.935869,0.000000,-592.164754,9474.636058
4199.936184,1302.362347,-0.000000,8882.471304
4199.936500,1072.533697,1184.329507,7846.182985
4199.936815,76.609550,888.247130,7402.059420
4199.937131,-1608.800546,-74.020594,8586.388927
4199.937446,-1532.190996,-962.267725,9474.636058
4199.937761,-1455.581446,-1332.370696,9622.677246
4199.938077,-612.876398,-1702.473667,9918.759623
4199.938392,-459.657299,-740.205942,10066.800811
4199.938708,-1532.190996,-814.226536,11103.089130
4199.939023,-2068.457845,-740.205942,10436.903782
4199.939339,-1532.190996,-518.144159,9844.739029
4199.939654,306.438199,-518.144159,9770.718434
4199.939970,1302.362347,518.144159,8734.430116
4199.940285,0.000000,1258.350101,8512.368333
4199.940600,-1149.143247,1036.288319,8142.265362
4199.940916,-1455.581446,592.164754,8660.409521
4199.941231,-536.266849,-296.082377,9104.533087
4199.941547,306.438199,-962.267725,9548.656652
4199.941862,0.000000,-518.144159,9844.739029
4199.942178,-1072.533697,-666.185348,10881.027347
4199.942493,-1608.800546,-518.144159,10807.006753
4199.942809,-1455.581446,-0.000000,10362.883188
4199.943124,0.000000,-296.082377,10584.944971
4199.943439,1072.533697,370.102971,9326.594869
4199.943755,919.314598,740.205942,9326.594869
4199.944070,689.485948,1406.391290,9474.636058
4199.944386,76.609550,2146.597232,8586.388927
4199.944701,459.657299,1332.370696,8586.388927
4199.945017,1532.190996,740.205942,9622.677246
4199.945332,1302.362347,740.205942,9992.780217
4199.945648,229.828649,-74.020594,9770.718434
4199.945963,-306.438199,-740.205942,10658.965565
4199.946278,-1455.581446,-962.267725,11103.089130
