#time,accel_x,accel_y,accel_z
4187.981195,0.000000,-0.000000,9696.697840
4187.981510,306.438199,-0.000000,9400.615463
4187.981825,229.828649,-0.000000,9474.636058
4187.982140,383.047749,148.041188,9548.656652
4187.982455,76.609550,-0.000000,9622.677246
4187.982770,153.219100,-148.041188,9474.636058
4187.983086,229.828649,148.041188,9770.718434
4187.983401,536.266849,296.082377,9474.636058
4187.983716,306.438199,-0.000000,9474.636058
4187.984031,306.438199,296.082377,9474.636058
4187.984346,76.609550,222.061783,9844.739029
4187.984662,76.609550,370.102971,9622.677246
4187.984977,76.609550,-0.000000,9622.677246
4187.985292,-153.219100,222.061783,9696.697840
4187.985607,76.609550,-0.000000,9992.780217
4187.985922,0.000000,-0.000000,9770.718434
4187.986238,459.657299,222.061783,10066.800811
4187.986553,153.219100,-0.000000,9622.677246
4187.986868,153.219100,444.123565,9622.677246
4187.987183,0.000000,222.061783,9696.697840
4187.987498,0.000000,222.061783,9548.656652
4187.987814,-76.609550,148.041188,9474.636058
4187.988129,0.000000,-0.000000,9178.553681
4187.988444,229.828649,222.061783,9548.656652
4187.988759,76.609550,296.082377,9918.759623
4187.989074,-306.438199,148.041188,9326.594869
4187.989390,0.000000,296.082377,9474.636058
4187.989705,306.438199,-0.000000,9474.636058
4187.990020,0.000000,-0.000000,9252.574275
4187.990335,0.000000,-0.000000,9474.636058
4187.990650,0.000000,222.061783,9474.636058
4187.990966,0.000000,-0.000000,9696.697840
4187.991281,76.609550,222.061783,9326.594869
4187.991596,153.219100,-0.000000,9474.636058
4187.991911,306.438199,148.041188,9992.780217
4187.992226,0.000000,-0.000000,9622.677246
4187.992542,383.047749,370.102971,9696.697840
4187.992857,306.438199,296.082377,9548.656652
4187.993172,153.219100,-0.000000,9992.780217
4187.993487,153.219100,444.123565,9474.636058
4187.993802,76.609550,-0.000000,9474.636058
4187.994118,459.657299,222.061783,10066.800811
4187.994433,229.828649,148.041188,9548.656652
4187.994748,153.219100,370.102971,9770.718434
4187.995063,0.000000,148.041188,9622.677246
4187.995378,153.219100,-0.000000,9696.697840
4187.995694,306.438199,444.123565,9622.677246
4187.996009,0.000000,74.020594,9770.718434
4187.996324,153.219100,444.123565,9918.759623
4187.996639,0.000000,296.082377,9770.718434
4187.996954,76.609550,296.082377,9548.656652
4187.997270,153.219100,-0.000000,9548.656652
4187.997585,383.047749,444.123565,9622.677246
4187.997900,153.219100,-0.000000,9622.677246
4187.998215,0.000000,-0.000000,9400.615463
4187.998530,0.000000,-0.000000,9696.697840
4187.998846,0.000000,296.082377,9548.656652
4187.999161,0.000000,-0.000000,9400.615463
4187.999476,0.000000,-0.000000,9918.759623
4187.999791,0.000000,-0.000000,9474.636058
4188.000106,689.485948,-0.000000,9400.615463
4188.000422,229.828649,-0.000000,9474.636058
4188.000737,0.000000,148.041188,9474.636058
4188.001052,153.219100,296.082377,9696.697840
4188.001367,153.219100,222.061783,9400.615463
4188.001682,229.828649,-74.020594,9622.677246
4188.001997,459.657299,-0.000000,9474.636058
4188.002313,153.219100,-74.020594,9252.574275
4188.002628,153.219100,-0.000000,9770.718434
4188.002943,76.609550,-0.000000,9400.615463
4188.003258,0.000000,296.082377,9770.718434
4188.003573,76.609550,222.061783,9622.677246
4188.003889,0.000000,-0.000000,9844.739029
4188.004204,306.438199,222.061783,9548.656652
4188.004519,76.609550,222.061783,9474.636058
4188.004834,536.266849,-0.000000,9622.677246
4188.005149,0.000000,222.061783,9992.780217
4188.005465,0.000000,296.082377,9770.718434
4188.005780,153.219100,518.144159,9770.718434
4188.006095,0.000000,-0.000000,9548.656652
4188.006410,153.219100,296.082377,9696.697840
4188.006725,229.828649,222.061783,9770.718434
4188.007041,76.609550,148.041188,9918.759623
4188.007356,0.000000,222.061783,9622.677246
4188.007671,76.609550,222.061783,9548.656652
4188.007986,229.828649,-148.041188,9918.759623
4188.008301,0.000000,-0.000000,10066.800811
4188.008617,0.000000,-74.020594,9548.656652
4188.008932,0.000000,222.061783,9474.636058
4188.009247,0.000000,222.061783,9474.636058
4188.009562,0.000000,-0.000000,9474.636058
4188.009877,-306.438199,222.061783,9178.553681
4188.010193,0.000000,-0.000000,9696.697840
4188.010508,-76.609550,444.123565,9622.677246
4188.010823,-306.438199,740.205942,9400.615463
4188.011138,-612.876398,370.102971,9548.656652
4188.011453,-995.924147,222.061783,9548.656652
4188.011769,-306.438199,592.164754,9474.636058
4188.012084,-229.828649,518.144159,9474.636058
4188.012399,-536.266849,-0.000000,9770.718434
4188.012714,76.609550,296.082377,9770.718434
4188.013029,-536.266849,592.164754,9104.533087
4188.013345,-612.876398,814.226536,9326.594869
4188.013660,-612.876398,1036.288319,9104.533087
4188.013975,0.000000,1110.308913,9252.574275
4188.014290,-383.047749,1406.391290,9178.553681
4188.014605,-1302.362347,1184.329507,9030.512492
4188.014921,-1532.190996,1332.370696,8956.491898
4188.015236,-1991.848295,1036.288319,8882.471304
4188.015551,-2451.505594,1110.308913,9474.636058
4188.015866,-2528.115143,1036.288319,9622.677246
4188.016181,-2681.334243,1184.329507,9918.759623
4188.016497,-3140.991542,1332.370696,9992.780217
4188.016812,-3064.381992,1332.370696,9918.759623
4188.017127,-2681.334243,1628.453072,9844.739029
4188.017442,-2911.162892,2368.659014,10140.821405
4188.017757,-2528.115143,2442.679609,9622.677246
4188.018073,-2528.115143,2886.803174,9474.636058
4188.018388,-2451.505594,2368.659014,9104.533087
4188.018703,-2145.067394,2960.823768,8956.491898
4188.019018,-2298.286494,3108.864956,9548.656652
4188.019333,-2451.505594,2738.761985,9696.697840
4188.019649,-2374.896044,2590.720797,9844.739029
4188.019964,-2374.896044,2442.679609,10214.842000
4188.020279,-2451.505594,2146.597232,10214.842000
4188.020594,-1991.848295,2516.700203,10362.883188
4188.020909,-1838.629195,2294.638420,10140.821405
4188.021224,-1532.190996,2516.700203,9770.718434
4188.021540,-919.314598,3182.885551,9400.615463
4188.021855,-1225.752797,3627.009116,8586.388927
4188.022170,-766.095498,3923.091493,8290.306550
4188.022485,-919.314598,4219.173869,8660.409521
4188.022800,-1378.971896,3849.070898,8660.409521
4188.023116,-1915.238745,2886.803174,9548.656652
4188.023431,-2681.334243,2960.823768,9696.697840
4188.023746,-2834.553343,2738.761985,10362.883188
4188.024061,-2604.724693,2812.782580,10881.027347
4188.024376,-2911.162892,2738.761985,11177.109724
4188.024692,-2528.115143,3256.906145,10881.027347
4188.025007,-2221.676944,3701.029710,10584.944971
4188.025322,-1915.238745,4293.194464,9844.739029
4188.025637,-1532.190996,4885.359217,9400.615463
4188.025952,-1608.800546,5033.400406,8956.491898
4188.026268,-1762.019645,4589.276840,8734.430116
4188.026583,-1762.019645,4219.173869,8882.471304
4188.026898,-2145.067394,3404.947333,9622.677246
4188.027213,-2604.724693,2738.761985,10362.883188
4188.027528,-2451.505594,2294.638420,11103.089130
4188.027844,-2604.724693,1776.494261,11769.274478
4188.028159,-2298.286494,1702.473667,11177.109724
4188.028474,-1762.019645,1702.473667,11103.089130
4188.028789,-919.314598,2294.638420,11029.068536
4188.029104,0.000000,2812.782580,9474.636058
4188.029420,536.266849,3108.864956,8586.388927
4188.029735,919.314598,3404.947333,7994.224174
4188.030050,383.047749,3701.029710,7846.182985
4188.030365,-459.657299,3478.967927,7698.141797
4188.030680,-1455.581446,2960.823768,7846.182985
4188.030996,-1608.800546,2146.597232,8512.368333
4188.031311,-2681.334243,1776.494261,9326.594869
4188.031626,-3677.258390,962.267725,9992.780217
4188.031941,-4213.525239,-0.000000,11621.233289
4188.032256,-4519.963438,-0.000000,11325.150913
4188.032572,-4136.915689,-0.000000,10732.986159
4188.032887,-3447.429741,296.082377,11103.089130
4188.033202,-3140.991542,222.061783,11251.130318
4188.033517,-2298.286494,1480.411884,10288.862594
4188.033832,-612.876398,1850.514855,9474.636058
4188.034148,229.828649,3108.864956,8956.491898
4188.034463,459.657299,3552.988522,8290.306550
4188.034778,689.485948,3256.906145,7920.203579
4188.035093,0.000000,2738.761985,7624.121203
4188.035408,-1072.533697,2220.617826,7846.182985
4188.035724,-1455.581446,1702.473667,7772.162391
4188.036039,-2987.772442,592.164754,8364.327145
4188.036354,-4136.915689,-518.144159,8808.450710
4188.036669,-4903.011187,-888.247130,9474.636058
4188.036984,-5439.278036,-1480.411884,10881.027347
4188.037300,-5286.058936,-1110.308913,10510.924376
4188.037615,-4673.182538,-814.226536,11843.295072
4188.037930,-3294.210641,-666.185348,11547.212695
4188.038245,-2145.067394,-222.061783,11473.192101
4188.038560,76.609550,1406.391290,10288.862594
4188.038876,1455.581446,2960.823768,9400.615463
4188.039191,1838.629195,4737.318029,7031.956449
4188.039506,2221.676944,6217.729913,6439.791695
4188.039821,1991.848295,6735.874072,5477.523971
4188.040136,612.876398,5403.503377,5107.421000
4188.040451,-1225.752797,4589.276840,6439.791695
4188.040767,-4213.525239,1702.473667,8808.450710
4188.041082,-5515.887586,-1924.535449,12435.459826
4188.041397,-7048.078582,-3478.967927,12509.480420
4188.041712,-8120.612279,-4219.173869,13915.871710
4188.042027,-6894.859482,-4071.132681,15618.345376
4188.042343,-5132.839837,-2812.782580,13619.789333
4188.042658,-2451.505594,518.144159,10881.027347
4188.042973,306.438199,4293.194464,8364.327145
4188.043288,1838.629195,7402.059420,5403.503377
4188.043603,2757.943793,9622.677246,4959.379811
4188.043919,2681.334243,10436.903782,4367.215058
4188.044234,1915.238745,8364.327145,5699.585753
4188.044549,0.000000,6143.709319,7994.224174
4188.044864,-1762.019645,2516.700203,11547.212695
4188.045179,-3447.429741,-1628.453072,13841.851115
4188.045495,-4903.011187,-2812.782580,15914.427753
4188.045810,-4903.011187,-2886.803174,15618.345376
4188.046125,-4673.182538,-2368.659014,13323.706956
4188.046440,-3524.039291,-0.000000,10807.006753
4188.046755,-2221.676944,2664.741391,10288.862594
4188.047071,-689.485948,5181.441594,6513.812290
4188.047386,383.047749,6957.935855,4737.318029
4188.047701,1455.581446,7920.203579,4737.318029
4188.048016,76.609550,7105.977043,6069.688724
4188.048331,-612.876398,4959.379811,8364.327145
4188.048647,-1532.190996,2886.803174,9548.656652
4188.048962,-1225.752797,1628.453072,10881.027347
4188.049277,-1455.581446,518.144159,12361.439231
4188.049592,-2298.286494,592.164754,12805.562797
4188.049907,-3217.601092,1110.308913,12583.501014
4188.050223,-2987.772442,1850.514855,11843.295072
4188.050538,-3370.820191,3182.885551,11029.068536
4188.050853,-3217.601092,3627.009116,8660.409521
4188.051168,-2987.772442,3849.070898,7920.203579
4188.051483,-2374.896044,3108.864956,7846.182985
4188.051799,-1838.629195,3330.926739,7328.038826
4188.052114,-2298.286494,3330.926739,8068.244768
4188.052429,-2145.067394,3552.988522,9104.533087
4188.052744,-2451.505594,2738.761985,10510.924376
4188.053059,-2451.505594,1850.514855,11695.253884
4188.053375,-1991.848295,740.205942,10955.047942
4188.053690,-1838.629195,296.082377,11177.109724
4188.054005,-1302.362347,740.205942,10214.842000
4188.054321,-1532.190996,1998.556043,9178.553681
4188.054636,-1838.629195,3182.885551,7920.203579
4188.054952,-1072.533697,4219.173869,7179.997637
4188.055267,-1915.238745,5033.400406,7179.997637
4188.055582,-2987.772442,5033.400406,7624.121203
4188.055898,-3370.820191,2442.679609,8808.450710
4188.056213,-3140.991542,1110.308913,10214.842000
4188.056528,-3447.429741,-592.164754,11547.212695
4188.056844,-3600.648841,-1406.391290,12583.501014
4188.057159,-3064.381992,-1036.288319,13101.645173
4188.057475,-1762.019645,296.082377,12509.480420
4188.057790,-1149.143247,1998.556043,10584.944971
4188.058105,919.314598,3330.926739,8882.471304
4188.058421,1838.629195,4219.173869,6809.894666
4188.058736,1915.238745,5181.441594,6069.688724
4188.059052,1149.143247,4663.297435,6143.709319
4188.059367,-306.438199,3849.070898,6957.935855
4188.059682,-2757.943793,2812.782580,8068.244768
4188.059998,-2987.772442,518.144159,9918.759623
4188.060313,-3217.601092,-1480.411884,11399.171507
4188.060629,-3140.991542,-2664.741391,12657.521608
4188.060944,-2757.943793,-2368.659014,13545.768739
4188.061259,-3217.601092,-2146.597232,14137.933492
4188.061575,-3064.381992,-148.041188,12879.583391
4188.061890,-1455.581446,2220.617826,11029.068536
4188.062206,459.657299,3404.947333,8586.388927
4188.062521,2145.067394,4071.132681,6883.915261
4188.062836,2987.772442,4441.235652,6439.791695
4188.063152,2528.115143,3552.988522,6661.853478
4188.063467,1072.533697,3923.091493,7105.977043
4188.063783,-689.485948,3034.844362,8068.244768
4188.064098,-1072.533697,814.226536,10066.800811
4188.064413,-1149.143247,-1480.411884,11621.233289
4188.064729,-1608.800546,-3108.864956,12435.459826
4188.065044,-1991.848295,-4367.215058,13175.665768
4188.065359,-2757.943793,-3256.906145,12953.603985
4188.065675,-2681.334243,-740.205942,11473.192101
4188.065990,-1455.581446,518.144159,9474.636058
4188.066306,689.485948,2220.617826,7698.141797
4188.066621,1685.410096,2442.679609,7402.059420
4188.066936,2604.724693,2664.741391,6809.894666
4188.067252,1608.800546,3627.009116,6439.791695
4188.067567,-153.219100,3478.967927,7624.121203
4188.067883,-306.438199,1554.432478,9252.574275
4188.068198,383.047749,-74.020594,9918.759623
4188.068513,766.095498,-2072.576638,11769.274478
4188.068829,76.609550,-3552.988522,12953.603985
4188.069144,-1455.581446,-2442.679609,12731.542202
4188.069460,-2221.676944,-888.247130,10955.047942
4188.069775,-1838.629195,296.082377,9548.656652
4188.070090,-536.266849,2146.597232,7624.121203
4188.070406,612.876398,1924.535449,7179.997637
4188.070721,1378.971896,1702.473667,6587.832884
4188.071037,0.000000,1480.411884,7031.956449
4188.071352,-1915.238745,1776.494261,7994.224174
4188.071667,-2068.457845,444.123565,9252.574275
4188.071983,-1302.362347,148.041188,10288.862594
4188.072298,-766.095498,-1480.411884,11547.212695
4188.072614,-306.438199,-2516.700203,12361.439231
4188.072929,-1532.190996,-2368.659014,12139.377449
4188.073244,-2451.505594,-444.123565,11177.109724
4188.073560,-1302.362347,222.061783,9992.780217
4188.073875,153.219100,2664.741391,7772.162391
4188.074190,689.485948,3034.844362,6809.894666
4188.074506,995.924147,1776.494261,7031.956449
4188.074821,-766.095498,1628.453072,7179.997637
4188.075137,-2145.067394,518.144159,8068.244768
4188.075452,-1991.848295,-148.041188,9696.697840
4188.075767,-919.314598,-740.205942,11029.068536
4188.076083,0.000000,-2146.597232,11695.253884
4188.076398,0.000000,-2368.659014,12139.377449
4188.076714,-689.485948,-1702.473667,11991.336260
4188.077029,0.000000,-814.226536,11177.109724
4188.077344,995.924147,1480.411884,9178.553681
4188.077660,2145.067394,2590.720797,7994.224174
4188.077975,2987.772442,2886.803174,6587.832884
4188.078291,2451.505594,3034.844362,6735.874072
4188.078606,1072.533697,3182.885551,6513.812290
4188.078921,-153.219100,518.144159,8068.244768
4188.079237,-229.828649,-0.000000,9696.697840
4188.079552,76.609550,-1184.329507,11325.150913
4188.079868,-306.438199,-2368.659014,11843.295072
4188.080183,-1072.533697,-2590.720797,12805.562797
4188.080498,-1149.143247,-2590.720797,12657.521608
4188.080814,-306.438199,-1406.391290,11029.068536
4188.081129,1685.410096,1110.308913,9400.615463
4188.081444,2451.505594,2516.700203,7846.182985
4188.081760,2987.772442,3404.947333,7105.977043
4188.082075,2528.115143,3404.947333,7179.997637
4188.082391,995.924147,3627.009116,7105.977043
4188.082706,842.705048,1554.432478,8438.347739
4188.083021,919.314598,-0.000000,9474.636058
4188.083337,919.314598,-1554.432478,11029.068536
4188.083652,153.219100,-3256.906145,12361.439231
4188.083968,-1378.971896,-2442.679609,12583.501014
4188.084283,-1455.581446,-2442.679609,12139.377449
4188.084598,-383.047749,-2072.576638,11103.089130
4188.084914,995.924147,-370.102971,9696.697840
4188.085229,1838.629195,296.082377,8956.491898
4188.085545,2374.896044,1480.411884,7698.141797
4188.085860,995.924147,2368.659014,6809.894666
4188.086175,383.047749,2072.576638,7179.997637
4188.086491,1378.971896,1480.411884,8216.285956
4188.086806,2374.896044,888.247130,8808.450710
4188.087122,1915.238745,-1332.370696,10066.800811
4188.087437,536.266849,-1850.514855,11177.109724
4188.087752,-1685.410096,-1850.514855,11325.150913
4188.088068,-1532.190996,-2886.803174,12509.480420
4188.088383,-1149.143247,-2146.597232,10584.944971
4188.088699,-306.438199,-740.205942,9696.697840
4188.089014,76.609550,-74.020594,8512.368333
4188.089329,-306.438199,592.164754,8438.347739
4188.089645,-1378.971896,1702.473667,7920.203579
4188.089960,-1532.190996,1258.350101,8142.265362
4188.090275,-1149.143247,1332.370696,8364.327145
4188.090591,-229.828649,592.164754,8660.409521
4188.090906,0.000000,-370.102971,10288.862594
4188.091222,-1302.362347,-888.247130,10807.006753
4188.091537,-2374.896044,-1184.329507,11991.336260
4188.091852,-1838.629195,-1258.350101,10881.027347
4188.092168,-383.047749,-1036.288319,10436.903782
4188.092483,306.438199,222.061783,9474.636058
4188.092799,536.266849,296.082377,8882.471304
4188.093114,-306.438199,1998.556043,8142.265362
4188.093429,-1378.971896,1628.453072,7994.224174
4188.093745,-459.657299,1554.432478,7624.121203
4188.094060,0.000000,1554.432478,8216.285956
4188.094376,766.095498,-148.041188,8512.368333
4188.094691,536.266849,-1628.453072,10066.800811
4188.095006,-1378.971896,-1184.329507,10436.903782
4188.095322,-1378.971896,-1998.556043,11473.192101
4188.095637,0.000000,-962.267725,11399.171507
4188.095953,536.266849,444.123565,10510.924376
4188.096268,1915.238745,740.205942,9918.759623
4188.096583,1838.629195,1258.350101,8882.471304
4188.096899,383.047749,2368.659014,8512.368333
4188.097214,-536.266849,2072.576638,8290.306550
4188.097530,995.924147,1924.535449,8216.285956
4188.097845,1991.848295,1998.556043,8512.368333
4188.098160,2451.505594,518.144159,8956.491898
4188.098476,1378.971896,-0.000000,10362.883188
4188.098791,-919.314598,-0.000000,11103.089130
4188.099106,-1072.533697,-1480.411884,11399.171507
4188.099422,0.000000,-296.082377,11473.192101
4188.099737,995.924147,-148.041188,10584.944971
4188.100053,1991.848295,-0.000000,9326.594869
4188.100368,1149.143247,444.123565,9992.780217
4188.100683,306.438199,2072.576638,8734.430116
4188.100999,612.876398,1332.370696,8734.430116
4188.101314,1685.410096,2294.638420,8216.285956
4188.101630,2298.286494,2294.638420,8660.409521
4188.101945,2911.162892,888.247130,9178.553681
4188.102260,1302.362347,740.205942,9696.697840
4188.102576,-459.657299,-0.000000,11029.068536
4188.102891,-459.657299,-888.247130,11103.089130
4188.103207,0.000000,-444.123565,10584.944971
4188.103522,689.485948,-370.102971,10436.903782
4188.103837,842.705048,-518.144159,10288.862594
4188.104153,-153.219100,518.144159,9844.739029
4188.104468,-919.314598,1110.308913,9178.553681
4188.104784,0.000000,888.247130,8586.388927
4188.105099,689.485948,1406.391290,8216.285956
4188.105414,842.705048,814.226536,8734.430116
4188.105730,536.266849,370.102971,8882.471304
4188.106045,-612.876398,296.082377,9252.574275
4188.106360,-1838.629195,-518.144159,9844.739029
4188.106676,-1608.800546,-962.267725,10436.903782
4188.106991,-919.314598,-0.000000,10214.842000
4188.107307,-536.266849,-518.144159,10066.800811
4188.107622,-612.876398,-1036.288319,9918.759623
4188.107937,-2451.505594,-0.000000,10066.800811
4188.108253,-2451.505594,-0.000000,9696.697840
4188.108568,-1149.143247,296.082377,9030.512492
4188.108884,-459.657299,666.185348,8364.327145
4188.109199,306.438199,-0.000000,8586.388927
4188.109514,-612.876398,-296.082377,8512.368333
4188.109830,-1915.238745,518.144159,8882.471304
4188.110145,-2068.457845,-296.082377,10066.800811
4188.110461,-1149.143247,-444.123565,9622.677246
4188.110776,-536.266849,-592.164754,9992.780217
4188.111091,229.828649,-1406.391290,9992.780217
4188.111407,-612.876398,-1258.350101,10066.800811
4188.111722,-1608.800546,-74.020594,9696.697840
4188.112038,-995.924147,-0.000000,9474.636058
4188.112353,306.438199,296.082377,8586.388927
4188.112668,2374.896044,-0.000000,9770.718434
4188.112984,1915.238745,1702.473667,7994.224174
4188.113299,842.705048,222.061783,8512.368333
4188.113615,229.828649,296.082377,9400.615463
4188.113930,76.609550,518.144159,9548.656652
4188.114245,1225.752797,-518.144159,10066.800811
4188.114561,1685.410096,-740.205942,10214.842000
4188.114876,1225.752797,-592.164754,10658.965565
4188.115191,-153.219100,-370.102971,10362.883188
4188.115507,0.000000,-592.164754,10288.862594
4188.115822,919.314598,-0.000000,9992.780217
4188.116138,1762.019645,666.185348,8956.491898
4188.116453,2528.115143,666.185348,8734.430116
4188.116768,2298.286494,444.123565,8734.430116
4188.117084,689.485948,592.164754,9030.512492
4188.117399,306.438199,814.226536,9474.636058
4188.117715,612.876398,444.123565,9622.677246
4188.118030,1302.362347,370.102971,9770.718434
4188.118345,1532.190996,-666.185348,10288.862594
4188.118661,1149.143247,-1110.308913,10362.883188
4188.118976,-995.924147,-370.102971,10732.986159
4188.119292,-536.266849,-370.102971,10732.986159
4188.119607,229.828649,-0.000000,10066.800811
4188.119922,1991.848295,-0.000000,9696.697840
4188.120238,2145.067394,-0.000000,8808.450710
4188.120553,1302.362347,888.247130,8586.388927
4188.120869,0.000000,1406.391290,8882.471304
4188.121184,-153.219100,1184.329507,9400.615463
4188.121499,842.705048,962.267725,9252.574275
4188.121815,1532.190996,370.102971,9696.697840
4188.122130,1302.362347,-666.185348,10288.862594
4188.122446,76.609550,-740.205942,10436.903782
4188.122761,-1225.752797,-518.144159,10807.006753
4188.123076,-842.705048,-148.041188,11029.068536
4188.123392,0.000000,740.205942,9992.780217
4188.123707,1532.190996,1036.288319,9252.574275
4188.124022,1455.581446,1110.308913,8808.450710
4188.124338,0.000000,1406.391290,8734.430116
4188.124653,-1762.019645,888.247130,9548.656652
4188.124969,-1378.971896,1036.288319,9104.533087
4188.125284,-766.095498,592.164754,9400.615463
4188.125599,-689.485948,518.144159,9474.636058
4188.125915,-842.705048,-444.123565,10140.821405
4188.126230,-2298.286494,-592.164754,10510.924376
4188.126546,-3217.601092,-518.144159,10881.027347
4188.126861,-2374.896044,-222.061783,10436.903782
4188.127176,-1149.143247,296.082377,9400.615463
4188.127492,0.000000,444.123565,9548.656652
4188.127807,-229.828649,-0.000000,9326.594869
4188.128123,-1608.800546,1036.288319,9474.636058
4188.128438,-2145.067394,888.247130,9252.574275
4188.128753,-1532.190996,1036.288319,8808.450710
4188.129069,-306.438199,1480.411884,8808.450710
4188.129384,459.657299,-0.000000,8512.368333
4188.129700,-536.266849,-814.226536,9622.677246
4188.130015,-1838.629195,-444.123565,10066.800811
4188.130330,-1991.848295,-1332.370696,10732.986159
4188.130646,-689.485948,-888.247130,10510.924376
4188.130961,0.000000,-370.102971,9918.759623
4188.131276,1302.362347,-592.164754,9326.594869
4188.131592,1302.362347,592.164754,8956.491898
4188.131907,0.000000,962.267725,8142.265362
4188.132223,536.266849,444.123565,9104.533087
4188.132538,1302.362347,1776.494261,8660.409521
4188.132853,1915.238745,1406.391290,8290.306550
4188.133169,2145.067394,666.185348,9326.594869
4188.133484,1072.533697,-0.000000,9252.574275
4188.133800,-383.047749,-962.267725,9844.739029
4188.134115,0.000000,-1332.370696,11177.109724
4188.134430,689.485948,-0.000000,10658.965565
4188.134746,1762.019645,-0.000000,10584.944971
4188.135061,2298.286494,-0.000000,9696.697840
4188.135377,1991.848295,1110.308913,9326.594869
4188.135692,919.314598,592.164754,9104.533087
4188.136007,1225.752797,592.164754,9400.615463
4188.136323,1838.629195,1332.370696,8438.347739
4188.136638,2068.457845,888.247130,8290.306550
4188.136954,1455.581446,296.082377,9252.574275
4188.137269,-536.266849,296.082377,9844.739029
4188.137584,-1149.143247,-888.247130,10658.965565
4188.137900,-612.876398,-1184.329507,10881.027347
4188.138215,-306.438199,-666.185348,10658.965565
4188.138531,1225.752797,-888.247130,10658.965565
4188.138846,383.047749,-444.123565,10732.986159
4188.139161,-383.047749,222.061783,9844.739029
4188.139477,0.000000,296.082377,9770.718434
4188.139792,842.705048,814.226536,8956.491898
4188.140107,1838.629195,1554.432478,7920.203579
4188.140423,2221.676944,1184.329507,8142.265362
4188.140738,1762.019645,962.267725,8660.409521
4188.141054,-536.266849,370.102971,9474.636058
4188.141369,-1072.533697,-592.164754,9770.718434
4188.141684,-612.876398,-1110.308913,10436.903782
4188.142000,459.657299,-1406.391290,10807.006753
4188.142315,383.047749,-1998.556043,10807.006753
4188.142631,-612.876398,-740.205942,9992.780217
4188.142946,-1532.190996,-0.000000,10140.821405
4188.143261,-1225.752797,222.061783,9474.636058
4188.143577,0.000000,740.205942,9030.512492
4188.143892,383.047749,1184.329507,8808.450710
4188.144208,995.924147,740.205942,8956.491898
4188.144523,-1072.533697,1036.288319,9030.512492
4188.144838,-2221.676944,444.123565,9474.636058
4188.145154,-1915.238745,148.041188,10288.862594
4188.145469,-1302.362347,-148.041188,10732.986159
4188.145785,-536.266849,-222.061783,10510.924376
4188.146100,-612.876398,-1184.329507,10510.924376
4188.146415,-1838.629195,-518.144159,10510.924376
4188.146731,-2604.724693,-148.041188,10288.862594
4188.147046,-1915.238745,518.144159,9548.656652
4188.147362,-766.095498,1110.308913,8290.306550
4188.147677,612.876398,1036.288319,8512.368333
4188.147992,919.314598,-74.020594,9326.594869
4188.148308,-995.924147,296.082377,9030.512492
4188.148623,-1762.019645,-148.041188,9696.697840
4188.148938,-612.876398,-0.000000,9844.739029
4188.149254,459.657299,-0.000000,9844.739029
4188.149569,1608.800546,-222.061783,10066.800811
4188.149885,1378.971896,-592.164754,9844.739029
4188.150200,-229.828649,-370.102971,9770.718434
4188.150515,0.000000,-74.020594,10066.800811
4188.150831,919.314598,888.247130,8734.430116
4188.151146,2068.457845,1258.350101,8290.306550
4188.151462,2451.505594,1258.350101,8364.327145
4188.151777,1915.238745,814.226536,8660.409521
4188.152092,0.000000,1480.411884,8734.430116
4188.152408,0.000000,-0.000000,9548.656652
4188.152723,842.705048,-0.000000,9770.718434
4188.153039,1225.752797,-296.082377,9770.718434
4188.153354,2145.067394,-1332.370696,10140.821405
4188.153669,919.314598,-740.205942,10584.944971
4188.153985,-229.828649,-0.000000,10214.842000
4188.154300,306.438199,222.061783,9844.739029
4188.154616,1455.581446,1702.473667,8956.491898
4188.154931,2451.505594,1184.329507,8956.491898
4188.155247,2757.943793,1332.370696,8142.265362
4188.155562,1072.533697,1776.494261,8364.327145
4188.155877,-383.047749,888.247130,9104.533087
4188.156193,76.609550,296.082377,10214.842000
4188.156508,0.000000,740.205942,10436.903782
4188.156824,612.876398,-666.185348,10658.965565
4188.157139,536.266849,-1184.329507,11177.109724
4188.157455,-459.657299,-222.061783,11473.192101
4188.157770,-1072.533697,-444.123565,11473.192101
4188.158086,0.000000,296.082377,11251.130318
4188.158401,1149.143247,1258.350101,9104.533087
4188.158717,2068.457845,740.205942,9252.574275
4188.159032,1302.362347,1258.350101,9104.533087
4188.159348,383.047749,814.226536,8586.388927
4188.159663,-842.705048,-0.000000,9326.594869
4188.159979,-153.219100,-74.020594,9474.636058
4188.160294,229.828649,-0.000000,9548.656652
4188.160609,612.876398,-1406.391290,9696.697840
4188.160925,-229.828649,-1480.411884,10362.883188
4188.161240,-1455.581446,-518.144159,10807.006753
4188.161556,-1532.190996,-888.247130,10214.842000
4188.161871,-459.657299,-148.041188,9696.697840
4188.162187,459.657299,296.082377,9178.553681
4188.162502,1072.533697,-148.041188,8660.409521
4188.162818,536.266849,814.226536,8290.306550
4188.163133,-1532.190996,1554.432478,8438.347739
4188.163449,-1838.629195,222.061783,9474.636058
4188.163764,-995.924147,518.144159,9178.553681
4188.164080,-153.219100,-148.041188,9326.594869
4188.164395,-383.047749,-814.226536,9992.780217
4188.164711,-1378.971896,-1184.329507,10214.842000
4188.165026,-2145.067394,-1184.329507,10436.903782
4188.165341,-1685.410096,-1110.308913,10362.883188
4188.165657,-536.266849,-148.041188,9030.512492
4188.165972,536.266849,370.102971,7994.224174
4188.166288,1072.533697,-0.000000,8216.285956
4188.166603,-383.047749,518.144159,8216.285956
4188.166919,-1608.800546,-0.000000,8956.491898
4188.167234,-689.485948,-296.082377,9030.512492
4188.167550,-229.828649,666.185348,9030.512492
4188.167865,612.876398,-370.102971,9252.574275
4188.168181,766.095498,-1258.350101,9770.718434
4188.168496,-612.876398,-0.000000,9992.780217
4188.168812,-995.924147,-74.020594,10732.986159
4188.169127,153.219100,-592.164754,9844.739029
4188.169442,1532.190996,370.102971,9548.656652
4188.169758,1838.629195,740.205942,9178.553681
4188.170073,1378.971896,962.267725,9030.512492
4188.170389,459.657299,2072.576638,8808.450710
4188.170704,0.000000,1110.308913,8586.388927
4188.171020,995.924147,-0.000000,9326.594869
4188.171335,1378.971896,518.144159,8660.409521
4188.171651,1302.362347,-592.164754,9400.615463
4188.171966,689.485948,-740.205942,9918.759623
4188.172282,-1072.533697,444.123565,10362.883188
4188.172597,-383.047749,-0.000000,10658.965565
4188.172913,153.219100,222.061783,10436.903782
4188.173228,1455.581446,962.267725,9474.636058
4188.173544,2374.896044,222.061783,10214.842000
4188.173859,1378.971896,1184.329507,9474.636058
4188.174174,0.000000,1776.494261,10066.800811
4188.174490,0.000000,1332.370696,9992.780217
4188.174805,766.095498,1258.350101,9844.739029
4188.175121,1225.752797,1258.350101,9844.739029
4188.175436,1532.190996,-0.000000,10362.883188
4188.175752,689.485948,-74.020594,10362.883188
4188.176067,-383.047749,-444.123565,10955.047942
4188.176383,0.000000,-74.020594,10140.821405
4188.176698,536.266849,592.164754,9474.636058
4188.177014,2145.067394,-0.000000,9326.594869
4188.177329,2374.896044,-148.041188,9474.636058
4188.177645,842.705048,740.205942,9548.656652
4188.177960,0.000000,888.247130,8956.491898
4188.178276,306.438199,1184.329507,9326.594869
4188.178591,689.485948,740.205942,9178.553681
4188.178906,1225.752797,-296.082377,8956.491898
4188.179222,919.314598,-666.185348,9918.759623
4188.179537,-995.924147,-444.123565,10288.862594
4188.179853,-1532.190996,-740.205942,10362.883188
4188.180168,-1225.752797,-222.061783,10362.883188
4188.180484,-306.438199,518.144159,9992.780217
4188.180799,306.438199,-296.082377,9770.718434
4188.181115,383.047749,-444.123565,9474.636058
4188.181430,-1378.971896,296.082377,9252.574275
4188.181746,-1608.800546,-0.000000,9474.636058
4188.182061,-536.266849,518.144159,9326.594869
4188.182377,0.000000,740.205942,7920.203579
4188.182692,229.828649,-814.226536,8808.450710
4188.183008,-306.438199,-962.267725,8808.450710
4188.183323,-1991.848295,-444.123565,9104.533087
4188.183638,-2068.457845,-1184.329507,9770.718434
4188.183954,-1302.362347,-0.000000,9622.677246
4188.184269,-689.485948,370.102971,9474.636058
4188.184585,153.219100,-1036.288319,9178.553681
4188.184900,-689.485948,-444.123565,9400.615463
4188.185216,-1991.848295,-296.082377,9474.636058
4188.185531,-1532.190996,-0.000000,9474.636058
4188.185847,-612.876398,666.185348,9178.553681
4188.186162,995.924147,1036.288319,8956.491898
4188.186478,919.314598,-0.000000,9400.615463
4188.186793,0.000000,222.061783,9622.677246
4188.187109,-766.095498,222.061783,9622.677246
4188.187424,-459.657299,148.041188,9622.677246
4188.187740,0.000000,666.185348,9696.697840
4188.188055,1225.752797,-0.000000,9696.697840
4188.188370,1149.143247,-518.144159,10140.821405
4188.188686,-153.219100,-74.020594,9622.677246
4188.189001,-919.314598,-296.082377,10288.862594
4188.189317,0.000000,148.041188,9474.636058
4188.189632,612.876398,592.164754,9326.594869
4188.189948,1991.848295,666.185348,9104.533087
4188.190263,1225.752797,444.123565,9400.615463
4188.190579,-229.828649,444.123565,9696.697840
4188.190894,-306.438199,296.082377,10066.800811
4188.191210,76.609550,592.164754,9844.739029
4188.191525,766.095498,962.267725,9992.780217
4188.191841,1455.581446,296.082377,10288.862594
4188.192156,919.314598,296.082377,10807.006753
4188.192471,-536.266849,-0.000000,10362.883188
4188.192787,-612.876398,-74.020594,10436.903782
4188.193102,76.609550,814.226536,10362.883188
4188.193418,1225.752797,1036.288319,9474.636058
4188.193733,2221.676944,666.185348,8956.491898
4188.194049,919.314598,296.082377,9326.594869
4188.194364,0.000000,296.082377,9622.677246
4188.194680,0.000000,370.102971,9548.656652
4188.194995,766.095498,740.205942,9252.574275
4188.195311,1302.362347,888.247130,9326.594869
4188.195626,1991.848295,-444.123565,9696.697840
4188.195942,689.485948,-222.061783,9548.656652
4188.196257,-995.924147,-296.082377,10066.800811
4188.196573,-689.485948,-148.041188,10288.862594
4188.196888,306.438199,370.102971,9770.718434
4188.197203,1455.581446,740.205942,9252.574275
4188.197519,1915.238745,148.041188,9178.553681
4188.197834,459.657299,370.102971,9030.512492
4188.198150,-612.876398,518.144159,9326.594869
4188.198465,153.219100,444.123565,9178.553681
4188.198781,766.095498,1110.308913,8734.430116
4188.199096,919.314598,814.226536,9326.594869
4188.199412,612.876398,-222.061783,9696.697840
4188.199727,-1455.581446,-74.020594,9844.739029
4188.200043,-1455.581446,-1332.370696,10066.800811
4188.200358,-1225.752797,-1110.308913,10214.842000
4188.200674,-842.705048,-0.000000,9844.739029
4188.200989,0.000000,-370.102971,9326.594869
4188.201305,0.000000,-444.123565,9474.636058
4188.201620,-1532.190996,-0.000000,9622.677246
4188.201935,-1762.019645,-296.082377,9474.636058
4188.202251,-995.924147,-0.000000,9548.656652
4188.202566,-229.828649,814.226536,8808.450710
4188.202882,536.266849,-296.082377,9400.615463
4188.203197,306.438199,-296.082377,9178.553681
4188.203513,-1762.019645,-148.041188,9474.636058
4188.203828,-1455.581446,-666.185348,10362.883188
4188.204144,-612.876398,-0.000000,10066.800811
4188.204459,0.000000,444.123565,9622.677246
4188.204775,1225.752797,-740.205942,9326.594869
4188.205090,383.047749,-0.000000,9548.656652
4188.205406,-612.876398,148.041188,9770.718434
4188.205721,-459.657299,370.102971,9696.697840
4188.206037,842.705048,592.164754,9252.574275
4188.206352,1378.971896,1110.308913,8956.491898
4188.206667,1532.190996,-0.000000,9030.512492
4188.206983,76.609550,-222.061783,9622.677246
4188.207298,-689.485948,-444.123565,9844.739029
4188.207614,-536.266849,-666.185348,10066.800811
4188.207929,229.828649,296.082377,9548.656652
4188.208245,995.924147,296.082377,9844.739029
4188.208560,1378.971896,296.082377,9696.697840
4188.208876,383.047749,592.164754,9474.636058
4188.209191,-383.047749,370.102971,9548.656652
4188.209507,153.219100,444.123565,9844.739029
4188.209822,842.705048,1850.514855,9030.512492
4188.210138,1302.362347,1036.288319,8808.450710
4188.210453,995.924147,-0.000000,9622.677246
4188.210768,-306.438199,592.164754,10362.883188
4188.211084,-995.924147,-0.000000,10658.965565
4188.211399,-383.047749,-0.000000,10658.965565
4188.211715,0.000000,-0.000000,10288.862594
4188.212030,1302.362347,-148.041188,9696.697840
4188.212346,995.924147,-296.082377,10066.800811
4188.212661,-153.219100,444.123565,9548.656652
4188.212977,-306.438199,222.061783,9696.697840
4188.213292,1072.533697,1258.350101,8956.491898
4188.213608,1455.581446,1702.473667,8586.388927
4188.213923,1915.238745,814.226536,8438.347739
4188.214239,1685.410096,296.082377,9178.553681
4188.214554,-536.266849,666.185348,9474.636058
4188.214870,-459.657299,-444.123565,9844.739029
4188.215185,306.438199,296.082377,9844.739029
4188.215500,612.876398,-0.000000,9844.739029
4188.215816,1225.752797,-444.123565,10288.862594
4188.216131,76.609550,-0.000000,10066.800811
4188.216447,-919.314598,592.164754,10288.862594
4188.216762,-153.219100,222.061783,9770.718434
4188.217078,76.609550,1406.391290,8882.471304
4188.217393,612.876398,1258.350101,8734.430116
4188.217709,766.095498,666.185348,8808.450710
4188.218024,-766.095498,740.205942,9474.636058
4188.218340,-1915.238745,-0.000000,9474.636058
4188.218655,-1149.143247,-666.185348,9770.718434
4188.218971,229.828649,-74.020594,9622.677246
4188.219286,842.705048,-222.061783,9622.677246
4188.219602,153.219100,-444.123565,9548.656652
4188.219917,-1149.143247,-370.102971,10436.903782
4188.220232,-1838.629195,-444.123565,10362.883188
4188.220548,-766.095498,148.041188,9548.656652
4188.220863,-383.047749,1184.329507,8956.491898
4188.221179,689.485948,592.164754,8660.409521
4188.221494,76.609550,-222.061783,9622.677246
4188.221810,-1608.800546,370.102971,9622.677246
4188.222125,-2221.676944,-518.144159,10510.924376
4188.222441,-1225.752797,-74.020594,10732.986159
4188.222756,0.000000,-0.000000,10066.800811
4188.223072,842.705048,-592.164754,10362.883188
4188.223387,689.485948,-740.205942,10140.821405
4188.223703,-766.095498,-0.000000,10362.883188
4188.224018,-995.924147,-0.000000,9548.656652
4188.224334,689.485948,444.123565,8956.491898
4188.224649,1608.800546,1406.391290,8142.265362
4188.224964,1991.848295,296.082377,8142.265362
4188.225280,689.485948,-296.082377,8586.388927
4188.225595,-1302.362347,-444.123565,9326.594869
4188.225911,-1455.581446,-740.205942,10140.821405
4188.226226,76.609550,-814.226536,9844.739029
4188.226542,612.876398,-814.226536,9918.759623
4188.226857,1149.143247,-1110.308913,10362.883188
4188.227173,229.828649,-74.020594,10140.821405
4188.227488,-689.485948,-0.000000,9992.780217
4188.227804,153.219100,666.185348,9622.677246
4188.228119,1225.752797,1480.411884,8882.471304
4188.228435,2221.676944,1258.350101,7994.224174
4188.228750,2145.067394,740.205942,8734.430116
4188.229066,766.095498,666.185348,8956.491898
4188.229381,-689.485948,-0.000000,9474.636058
4188.229696,-306.438199,-148.041188,9844.739029
4188.230012,76.609550,148.041188,9992.780217
4188.230327,1225.752797,-888.247130,9844.739029
4188.230643,1072.533697,-1702.473667,9992.780217
4188.230958,0.000000,-888.247130,10362.883188
4188.231274,-383.047749,-444.123565,10436.903782
4188.231589,383.047749,370.102971,9696.697840
4188.231905,1991.848295,1332.370696,8660.409521
4188.232220,2757.943793,1110.308913,8660.409521
4188.232536,2604.724693,962.267725,7846.182985
4188.232851,459.657299,740.205942,9178.553681
4188.233167,0.000000,1036.288319,9622.677246
4188.233482,383.047749,592.164754,9992.780217
4188.233797,536.266849,666.185348,9252.574275
4188.234113,766.095498,-814.226536,11029.068536
4188.234428,229.828649,-962.267725,10881.027347
4188.234744,-1608.800546,-518.144159,10732.986159
4188.235059,-1608.800546,-814.226536,10214.842000
4188.235375,-766.095498,-0.000000,10140.821405
4188.235690,229.828649,1110.308913,9178.553681
4188.236006,1072.533697,814.226536,9104.533087
4188.236321,-306.438199,1554.432478,8734.430116
4188.236637,-1685.410096,962.267725,9400.615463
4188.236952,-1302.362347,888.247130,9400.615463
4188.237268,-842.705048,444.123565,9474.636058
4188.237583,-229.828649,-74.020594,9770.718434
4188.237899,153.219100,-814.226536,10510.924376
4188.238214,-1762.019645,-148.041188,10436.903782
4188.238529,-2145.067394,-444.123565,11399.171507
4188.238845,-1532.190996,-370.102971,10584.944971
4188.239160,-995.924147,-0.000000,9474.636058
4188.239476,0.000000,370.102971,8882.471304
4188.239791,229.828649,148.041188,8956.491898
4188.240107,-766.095498,888.247130,8364.327145
4188.240422,-1149.143247,666.185348,9030.512492
4188.240738,-842.705048,518.144159,9104.533087
4188.241053,0.000000,370.102971,9548.656652
4188.241369,1072.533697,-518.144159,9622.677246
4188.241684,766.095498,-592.164754,9696.697840
4188.242000,-536.266849,222.061783,10362.883188
4188.242315,-842.705048,-0.000000,10510.924376
4188.242631,229.828649,444.123565,9918.759623
4188.242946,919.314598,1036.288319,9178.553681
4188.243261,1991.848295,740.205942,8734.430116
4188.243577,1072.533697,962.267725,8512.368333
4188.243892,0.000000,1184.329507,8956.491898
4188.244208,-612.876398,740.205942,9400.615463
4188.244523,612.876398,370.102971,8956.491898
4188.244839,766.095498,222.061783,9400.615463
4188.245154,1225.752797,-814.226536,9992.780217
4188.245470,383.047749,-740.205942,10732.986159
4188.245785,-612.876398,-222.061783,10214.842000
4188.246101,-536.266849,-518.144159,10584.944971
4188.246416,612.876398,444.123565,9696.697840
4188.246732,1608.800546,666.185348,8956.491898
4188.247047,2451.505594,370.102971,9326.594869
4188.247363,1149.143247,518.144159,8660.409521
4188.247678,-229.828649,1406.391290,9178.553681
4188.247993,689.485948,740.205942,9474.636058
4188.248309,995.924147,814.226536,9548.656652
4188.248624,1685.410096,296.082377,9992.780217
4188.248940,1991.848295,-888.247130,10066.800811
4188.249255,612.876398,-444.123565,10436.903782
4188.249571,-612.876398,-814.226536,11103.089130
4188.249886,153.219100,-962.267725,10807.006753
4188.250202,1225.752797,-0.000000,9400.615463
4188.250517,1685.410096,-296.082377,9474.636058
4188.250833,1838.629195,-592.164754,9400.615463
4188.251148,536.266849,296.082377,9178.553681
4188.251464,-306.438199,444.123565,8956.491898
4188.251779,459.657299,-0.000000,9474.636058
4188.252095,766.095498,962.267725,9104.533087
4188.252410,1532.190996,-296.082377,9104.533087
4188.252725,842.705048,-740.205942,10140.821405
4188.253041,-1225.752797,-740.205942,10658.965565
4188.253356,-1532.190996,-1332.370696,10955.047942
4188.253672,-689.485948,-222.061783,10584.944971
4188.253987,0.000000,-74.020594,9474.636058
4188.254303,919.314598,-0.000000,9326.594869
4188.254618,0.000000,296.082377,9178.553681
4188.254934,-1762.019645,1036.288319,9030.512492
4188.255249,-2068.457845,592.164754,9326.594869
4188.255565,-1302.362347,296.082377,8808.450710
4188.255880,-612.876398,-0.000000,8882.471304
4188.256196,-153.219100,-370.102971,9474.636058
4188.256511,-1302.362347,-666.185348,9622.677246
4188.256826,-2451.505594,-814.226536,9844.739029
4188.257142,-2068.457845,-1850.514855,10362.883188
4188.257457,-919.314598,-1184.329507,9992.780217
4188.257773,-536.266849,-222.061783,9696.697840
4188.258088,229.828649,-666.185348,9474.636058
4188.258404,-383.047749,222.061783,9104.533087
4188.258719,-1378.971896,666.185348,8660.409521
4188.259034,-919.314598,518.144159,9252.574275
4188.259350,76.609550,740.205942,8956.491898
4188.259665,1608.800546,-0.000000,8660.409521
4188.259980,1915.238745,-222.061783,9104.533087
4188.260296,612.876398,222.061783,9474.636058
4188.260611,-306.438199,-0.000000,9844.739029
4188.260926,153.219100,-444.123565,9918.759623
4188.261241,306.438199,888.247130,9178.553681
4188.261557,1685.410096,-0.000000,9104.533087
4188.261872,1225.752797,74.020594,9400.615463
4188.262187,-229.828649,-0.000000,9548.656652
4188.262503,-689.485948,-296.082377,9622.677246
4188.262818,-612.876398,296.082377,9992.780217
4188.263133,0.000000,888.247130,9474.636058
4188.263448,995.924147,814.226536,9622.677246
4188.263764,842.705048,518.144159,9918.759623
4188.264079,-689.485948,814.226536,10362.883188
4188.264394,-766.095498,666.185348,10732.986159
4188.264710,536.266849,1480.411884,10066.800811
4188.265025,1608.800546,1924.535449,9326.594869
4188.265340,1991.848295,1480.411884,9992.780217
4188.265656,1225.752797,1480.411884,9770.718434
4188.265971,0.000000,1332.370696,10066.800811
4188.266286,0.000000,518.144159,10066.800811
4188.266601,689.485948,1184.329507,9622.677246
4188.266917,1225.752797,1184.329507,9326.594869
4188.267232,1455.581446,740.205942,9844.739029
4188.267547,76.609550,592.164754,9548.656652
4188.267863,-842.705048,518.144159,10140.821405
4188.268178,-306.438199,-0.000000,10436.903782
4188.268493,536.266849,814.226536,9992.780217
4188.268808,1378.971896,-0.000000,10214.842000
4188.269124,1608.800546,-0.000000,10584.944971
4188.269439,459.657299,666.185348,9696.697840
4188.269754,-536.266849,888.247130,9622.677246
4188.270070,612.876398,740.205942,9992.780217
4188.270385,1302.362347,1406.391290,9474.636058
4188.270700,1762.019645,1258.350101,8956.491898
4188.271015,1302.362347,-296.082377,9326.594869
4188.271331,-459.657299,370.102971,9992.780217
4188.271646,-1838.629195,-444.123565,9844.739029
4188.271961,-919.314598,-1036.288319,10362.883188
4188.272277,-306.438199,222.061783,9918.759623
4188.272592,153.219100,-666.185348,9622.677246
4188.272907,-459.657299,-592.164754,9622.677246
4188.273223,-1685.410096,518.144159,9474.636058
4188.273538,-1838.629195,-74.020594,9474.636058
4188.273853,-766.095498,-0.000000,9474.636058
4188.274168,229.828649,370.102971,8660.409521
4188.274484,306.438199,-0.000000,9474.636058
4188.274799,76.609550,-0.000000,9400.615463
4188.275114,-1302.362347,-0.000000,8956.491898
4188.275430,-1532.190996,-74.020594,9474.636058
4188.275745,-383.047749,-0.000000,9474.636058
4188.276060,-306.438199,370.102971,8734.430116
4188.276375,536.266849,-592.164754,9474.636058
4188.276691,-612.876398,-444.123565,9400.615463
4188.277006,-1915.238745,-0.000000,9104.533087
4188.277321,-1685.410096,-1184.329507,9548.656652
4188.277637,-612.876398,-888.247130,9622.677246
4188.277952,76.609550,-814.226536,9400.615463
4188.278267,995.924147,-666.185348,8808.450710
4188.278583,76.609550,-592.164754,9104.533087
4188.278898,-689.485948,444.123565,8956.491898
4188.279213,-612.876398,444.123565,9400.615463
4188.279528,842.705048,1036.288319,8734.430116
4188.279844,1378.971896,888.247130,9178.553681
4188.280159,1532.190996,-0.000000,9252.574275
4188.280474,229.828649,-444.123565,9918.759623
4188.280790,-766.095498,-0.000000,9992.780217
4188.281105,-153.219100,-0.000000,10288.862594
4188.281420,612.876398,370.102971,9474.636058
4188.281735,1532.190996,-222.061783,9474.636058
4188.282051,1225.752797,-370.102971,9622.677246
4188.282366,0.000000,296.082377,10066.800811
4188.282681,-1685.410096,296.082377,10214.842000
4188.282997,0.000000,74.020594,10140.821405
4188.283312,1302.362347,1036.288319,9474.636058
4188.283627,1532.190996,-0.000000,9696.697840
4188.283942,1225.752797,-444.123565,10584.944971
4188.284258,0.000000,-0.000000,10732.986159
4188.284573,-306.438199,222.061783,10658.965565
4188.284888,612.876398,444.123565,10584.944971
4188.285204,1378.971896,1184.329507,9844.739029
4188.285519,2374.896044,-74.020594,9178.553681
4188.285834,2298.286494,-296.082377,9474.636058
4188.286150,153.219100,444.123565,9918.759623
4188.286465,-383.047749,-222.061783,9844.739029
4188.286780,459.657299,222.061783,9548.656652
4188.287095,1225.752797,888.247130,9474.636058
4188.287411,1838.629195,-0.000000,9474.636058
4188.287726,1072.533697,-518.144159,9844.739029
4188.288041,-306.438199,-74.020594,10288.862594
4188.288357,-536.266849,-592.164754,10140.821405
4188.288672,612.876398,-0.000000,8808.450710
4188.288987,1532.190996,1110.308913,9178.553681
4188.289302,1838.629195,592.164754,8364.327145
4188.289618,842.705048,444.123565,8660.409521
4188.289933,-612.876398,518.144159,9400.615463
4188.290248,-689.485948,148.041188,9474.636058
4188.290564,76.609550,1184.329507,9104.533087
4188.290879,76.609550,740.205942,9030.512492
4188.291194,0.000000,-0.000000,9474.636058
4188.291509,-1455.581446,-0.000000,9696.697840
4188.291825,-2221.676944,-592.164754,10436.903782
4188.292140,-1915.238745,-370.102971,10140.821405
4188.292455,-995.924147,296.082377,9104.533087
4188.292771,0.000000,-222.061783,9104.533087
4188.293086,0.000000,-444.123565,9622.677246
4188.293401,-995.924147,370.102971,9474.636058
4188.293717,-1762.019645,444.123565,9326.594869
4188.294032,-995.924147,666.185348,8882.471304
4188.294347,383.047749,1480.411884,9030.512492
4188.294662,766.095498,888.247130,8882.471304
4188.294978,153.219100,-0.000000,9474.636058
4188.295293,-1302.362347,444.123565,9770.718434
4188.295608,-1762.019645,-0.000000,10510.924376
4188.295924,-689.485948,222.061783,10140.821405
4188.296239,76.609550,444.123565,9696.697840
4188.296554,383.047749,-222.061783,9770.718434
4188.296869,306.438199,-74.020594,9918.759623
4188.297185,-766.095498,370.102971,10510.924376
4188.297500,-766.095498,962.267725,9696.697840
4188.297815,76.609550,1184.329507,9030.512492
4188.298131,1149.143247,1628.453072,8734.430116
4188.298446,1302.362347,444.123565,9326.594869
4188.298761,689.485948,-0.000000,9770.718434
4188.299076,-919.314598,-222.061783,9992.780217
4188.299392,-1149.143247,-222.061783,10584.944971
4188.299707,-229.828649,666.185348,9622.677246
4188.300022,1072.533697,-74.020594,9992.780217
4188.300338,1685.410096,-0.000000,9918.759623
4188.300653,76.609550,-0.000000,9844.739029
4188.300968,-459.657299,-0.000000,10288.862594
4188.301284,612.876398,222.061783,9992.780217
4188.301599,919.314598,1480.411884,8808.450710
4188.301914,1991.848295,740.205942,8808.450710
4188.302229,1608.800546,370.102971,9326.594869
4188.302545,612.876398,-0.000000,9918.759623
4188.302860,-536.266849,-518.144159,10658.965565
4188.303175,76.609550,-148.041188,10140.821405
4188.303491,842.705048,-148.041188,9474.636058
4188.303806,1915.238745,-740.205942,9622.677246
4188.304121,1608.800546,-666.185348,9474.636058
4188.304436,0.000000,-74.020594,9548.656652
4188.304752,0.000000,-962.267725,9622.677246
4188.305067,1149.143247,-148.041188,9326.594869
4188.305382,2068.457845,888.247130,8882.471304
4188.305698,2451.505594,740.205942,8142.265362
4188.306013,1455.581446,-0.000000,8956.491898
4188.306328,153.219100,148.041188,8956.491898
4188.306643,-306.438199,-444.123565,9770.718434
4188.306959,383.047749,-0.000000,9844.739029
4188.307274,766.095498,-0.000000,9770.718434
4188.307589,995.924147,-814.226536,9548.656652
4188.307905,383.047749,-740.205942,10140.821405
4188.308220,-1149.143247,-518.144159,9918.759623
4188.308535,-1532.190996,-666.185348,9844.739029
4188.308851,-153.219100,518.144159,9178.553681
4188.309166,612.876398,444.123565,7994.224174
4188.309481,383.047749,-0.000000,9030.512492
4188.309796,-612.876398,370.102971,8808.450710
4188.310112,-2298.286494,296.082377,9030.512492
4188.310427,-2451.505594,-444.123565,9474.636058
4188.310742,-995.924147,-592.164754,9844.739029
4188.311058,0.000000,-518.144159,9548.656652
4188.311373,-383.047749,-1110.308913,9844.739029
4188.311688,-1685.410096,-222.061783,9918.759623
4188.312003,-2451.505594,-74.020594,10510.924376
4188.312319,-1915.238745,518.144159,9770.718434
4188.312634,-383.047749,1036.288319,8956.491898
4188.312949,76.609550,814.226536,8660.409521
4188.313265,306.438199,-0.000000,9474.636058
4188.313580,-1072.533697,444.123565,9178.553681
4188.313895,-1915.238745,148.041188,9844.739029
4188.314210,-1302.362347,370.102971,10584.944971
4188.314526,-459.657299,222.061783,10066.800811
4188.314841,1072.533697,-148.041188,9844.739029
4188.315156,1072.533697,-148.041188,10066.800811
4188.315472,0.000000,370.102971,9474.636058
4188.315787,-612.876398,-0.000000,9918.759623
4188.316102,536.266849,1184.329507,9622.677246
4188.316418,1149.143247,1628.453072,8882.471304
4188.316733,1838.629195,1110.308913,8512.368333
4188.317048,1072.533697,592.164754,9474.636058
4188.317363,-536.266849,740.205942,9770.718434
4188.317679,-306.438199,370.102971,10510.924376
4188.317994,536.266849,740.205942,10288.862594
4188.318309,919.314598,740.205942,10362.883188
4188.318625,1762.019645,-0.000000,10288.862594
4188.318940,995.924147,-0.000000,10140.821405
4188.319255,-842.705048,444.123565,10436.903782
4188.319570,-383.047749,888.247130,10584.944971
4188.319886,766.095498,1406.391290,8956.491898
4188.320201,1762.019645,1184.329507,8808.450710
4188.320516,2145.067394,518.144159,9030.512492
4188.320832,1302.362347,370.102971,9030.512492
4188.321147,-383.047749,-0.000000,9696.697840
4188.321462,-459.657299,-222.061783,9992.780217
4188.321777,612.876398,518.144159,10214.842000
4188.322093,1149.143247,-0.000000,9178.553681
4188.322408,1225.752797,-1184.329507,9844.739029
4188.322723,766.095498,-592.164754,10066.800811
4188.323039,0.000000,-666.185348,9844.739029
4188.323354,689.485948,-74.020594,9178.553681
4188.323669,1378.971896,592.164754,9178.553681
4188.323985,1991.848295,962.267725,8068.244768
4188.324300,2068.457845,-0.000000,8512.368333
4188.324615,612.876398,-0.000000,8438.347739
4188.324930,-995.924147,-370.102971,9030.512492
4188.325246,-306.438199,-592.164754,9474.636058
4188.325561,229.828649,-0.000000,9400.615463
4188.325876,842.705048,-592.164754,9844.739029
4188.326192,842.705048,-814.226536,9770.718434
4188.326507,-995.924147,-148.041188,10140.821405
4188.326822,-1532.190996,-962.267725,10436.903782
4188.327137,-766.095498,-74.020594,9918.759623
4188.327453,459.657299,1036.288319,8808.450710
4188.327768,1225.752797,888.247130,8438.347739
4188.328083,229.828649,888.247130,8882.471304
4188.328399,-1378.971896,1036.288319,9622.677246
4188.328714,-2068.457845,-0.000000,9844.739029
4188.329029,-1225.752797,-0.000000,9992.780217
4188.329344,-536.266849,-222.061783,9918.759623
4188.329660,-842.705048,-1702.473667,10436.903782
4188.329975,-1225.752797,-1184.329507,10584.944971
4188.330290,-2528.115143,-666.185348,10732.986159
4188.330606,-1991.848295,-370.102971,10436.903782
4188.330921,-766.095498,370.102971,9474.636058
4188.331236,0.000000,296.082377,9030.512492
4188.331552,689.485948,-148.041188,9474.636058
4188.331867,-459.657299,370.102971,9252.574275
4188.332182,-1378.971896,666.185348,9030.512492
4188.332497,-995.924147,-0.000000,9548.656652
4188.332813,-306.438199,370.102971,9622.677246
4188.333128,842.705048,-666.185348,9252.574275
4188.333443,1072.533697,-1258.350101,9992.780217
4188.333759,-383.047749,-518.144159,10066.800811
4188.334074,-919.314598,-1184.329507,10288.862594
4188.334389,0.000000,-148.041188,9992.780217
4188.334704,842.705048,518.144159,9252.574275
4188.335020,1455.581446,296.082377,8882.471304
4188.335335,2145.067394,222.061783,9030.512492
4188.335650,383.047749,-0.000000,9030.512492
4188.335966,153.219100,-148.041188,9400.615463
4188.336281,919.314598,-0.000000,9400.615463
4188.336596,995.924147,888.247130,8586.388927
4188.336912,1915.238745,-0.000000,9252.574275
4188.337227,1455.581446,-74.020594,9844.739029
4188.337542,0.000000,-0.000000,10362.883188
4188.337857,-383.047749,-666.185348,9992.780217
4188.338173,383.047749,444.123565,9696.697840
4188.338488,1685.410096,1184.329507,9030.512492
4188.338803,2068.457845,740.205942,9178.553681
4188.339119,1072.533697,592.164754,9104.533087
4188.339434,-689.485948,1184.329507,9696.697840
4188.339749,-459.657299,444.123565,10066.800811
4188.340064,306.438199,518.144159,9548.656652
4188.340380,689.485948,1110.308913,9844.739029
4188.340695,1838.629195,-444.123565,10362.883188
4188.341010,536.266849,-0.000000,10288.862594
4188.341326,-459.657299,-74.020594,10436.903782
4188.341641,383.047749,-296.082377,10214.842000
4188.341956,1608.800546,444.123565,9622.677246
4188.342271,2374.896044,1184.329507,8512.368333
4188.342587,2451.505594,1110.308913,8882.471304
4188.342902,1378.971896,1184.329507,8364.327145
4188.343217,0.000000,444.123565,9252.574275
4188.343533,612.876398,370.102971,9178.553681
4188.343848,612.876398,296.082377,9030.512492
4188.344163,612.876398,-148.041188,9548.656652
4188.344479,383.047749,-1110.308913,10362.883188
4188.344794,-995.924147,-518.144159,10436.903782
4188.345109,-1991.848295,-1036.288319,10436.903782
4188.345424,-1225.752797,-518.144159,10881.027347
4188.345740,-612.876398,296.082377,10066.800811
4188.346055,842.705048,666.185348,9474.636058
4188.346370,383.047749,518.144159,9474.636058
4188.346686,-1378.971896,1036.288319,9252.574275
4188.347001,-1838.629195,592.164754,9400.615463
4188.347316,-1225.752797,962.267725,9844.739029
4188.347631,-842.705048,592.164754,9622.677246
4188.347947,76.609550,-0.000000,9474.636058
4188.348262,-612.876398,-518.144159,9844.739029
4188.348577,-2374.896044,-296.082377,10066.800811
4188.348893,-2757.943793,-888.247130,10584.944971
4188.349208,-1455.581446,-222.061783,10214.842000
4188.349523,-612.876398,370.102971,9252.574275
4188.349838,0.000000,222.061783,9400.615463
4188.350154,-229.828649,370.102971,9474.636058
4188.350469,-1762.019645,296.082377,9252.574275
4188.350784,-1225.752797,222.061783,9622.677246
4188.351100,0.000000,888.247130,9474.636058
4188.351415,459.657299,888.247130,9178.553681
4188.351730,1149.143247,-148.041188,9548.656652
4188.352046,383.047749,-0.000000,9918.759623
4188.352361,-1149.143247,222.061783,10362.883188
4188.352676,-612.876398,-444.123565,9992.780217
4188.352991,229.828649,296.082377,9474.636058
4188.353307,1072.533697,592.164754,9030.512492
4188.353622,1455.581446,-370.102971,9030.512492
4188.353937,76.609550,-0.000000,8734.430116
4188.354253,-919.314598,-0.000000,8956.491898
4188.354568,0.000000,-370.102971,9252.574275
4188.354883,842.705048,666.185348,8586.388927
4188.355198,1608.800546,-0.000000,8734.430116
4188.355514,2068.457845,-740.205942,8882.471304
4188.355829,0.000000,-74.020594,9622.677246
4188.356144,-536.266849,-518.144159,10288.862594
4188.356460,229.828649,-0.000000,10436.903782
4188.356775,1072.533697,444.123565,9622.677246
4188.357090,2374.896044,222.061783,9474.636058
4188.357405,1685.410096,148.041188,9622.677246
4188.357721,536.266849,1036.288319,9844.739029
4188.358036,-383.047749,444.123565,9548.656652
4188.358351,689.485948,444.123565,9474.636058
4188.358667,1455.581446,370.102971,8956.491898
4188.358982,2145.067394,-0.000000,9548.656652
4188.359297,1378.971896,-74.020594,9474.636058
4188.359612,-229.828649,-296.082377,9992.780217
4188.359928,-229.828649,-518.144159,10732.986159
4188.360243,842.705048,-0.000000,9992.780217
4188.360558,1685.410096,296.082377,9696.697840
4188.360874,2451.505594,-370.102971,9992.780217
4188.361189,1532.190996,518.144159,9474.636058
4188.361504,0.000000,1036.288319,9474.636058
4188.361819,-153.219100,592.164754,9696.697840
4188.362135,536.266849,1110.308913,10140.821405
4188.362450,1302.362347,814.226536,8956.491898
4188.362765,1608.800546,-0.000000,9326.594869
4188.363081,229.828649,-74.020594,10214.842000
4188.363396,-1532.190996,222.061783,10510.924376
4188.363711,-1072.533697,-148.041188,10584.944971
4188.364027,-995.924147,962.267725,9696.697840
4188.364342,0.000000,148.041188,9992.780217
4188.364657,536.266849,-0.000000,9696.697840
4188.364972,-1149.143247,444.123565,9030.512492
4188.365288,-2298.286494,148.041188,9844.739029
4188.365603,-2068.457845,-0.000000,9474.636058
4188.365918,-1072.533697,740.205942,9474.636058
4188.366234,-459.657299,222.061783,8882.471304
4188.366549,-919.314598,-592.164754,9252.574275
4188.366864,-1991.848295,-370.102971,9252.574275
4188.367179,-2528.115143,-370.102971,10510.924376
4188.367495,-1608.800546,-0.000000,9844.739029
4188.367810,-995.924147,296.082377,9474.636058
4188.368125,0.000000,222.061783,9326.594869
4188.368441,-153.219100,-74.020594,9696.697840
4188.368756,-1608.800546,666.185348,9474.636058
4188.369071,-1455.581446,-148.041188,9696.697840
4188.369386,-383.047749,370.102971,9474.636058
4188.369702,536.266849,1258.350101,8882.471304
4188.370017,1302.362347,-148.041188,9400.615463
4188.370332,459.657299,-0.000000,8956.491898
4188.370648,-842.705048,148.041188,9400.615463
4188.370963,-536.266849,74.020594,9622.677246
4188.371278,229.828649,-0.000000,9770.718434
4188.371593,919.314598,814.226536,8956.491898
4188.371909,1455.581446,-444.123565,9622.677246
4188.372224,459.657299,444.123565,9918.759623
4188.372539,-612.876398,518.144159,9474.636058
4188.372855,-229.828649,370.102971,9696.697840
4188.373170,766.095498,1036.288319,9548.656652
4188.373485,1532.190996,888.247130,8660.409521
4188.373800,1915.238745,148.041188,9400.615463
4188.374116,612.876398,592.164754,9474.636058
4188.374431,76.609550,814.226536,9992.780217
4188.374746,-153.219100,-0.000000,10066.800811
4188.375062,536.266849,666.185348,9696.697840
4188.375377,1685.410096,666.185348,9622.677246
4188.375692,1762.019645,-296.082377,9696.697840
4188.376007,153.219100,148.041188,10214.842000
4188.376323,-153.219100,148.041188,10066.800811
4188.376638,229.828649,518.144159,10288.862594
4188.376953,1608.800546,1184.329507,8956.491898
4188.377269,1838.629195,-0.000000,9178.553681
4188.377584,1455.581446,-148.041188,9400.615463
4188.377899,459.657299,-74.020594,9696.697840
4188.378214,0.000000,-518.144159,9474.636058
4188.378530,612.876398,-0.000000,9548.656652
4188.378845,1225.752797,444.123565,9178.553681
4188.379160,1915.238745,-0.000000,9030.512492
4188.379476,1378.971896,-370.102971,9696.697840
4188.379791,0.000000,518.144159,9844.739029
4188.380106,-306.438199,-74.020594,9918.759623
4188.380422,306.438199,592.164754,10362.883188
4188.380737,1225.752797,518.144159,10140.821405
4188.381052,1532.190996,-148.041188,10362.883188
4188.381367,383.047749,-148.041188,9992.780217
4188.381683,-1072.533697,-148.041188,10140.821405
4188.381998,-1302.362347,-0.000000,10436.903782
4188.382313,-612.876398,296.082377,10362.883188
4188.382629,0.000000,222.061783,9474.636058
4188.382944,0.000000,-444.123565,9474.636058
4188.383259,-766.095498,-518.144159,9252.574275
4188.383574,-2298.286494,-222.061783,9622.677246
4188.383890,-2221.676944,-740.205942,9918.759623
4188.384205,-842.705048,-148.041188,9400.615463
4188.384520,76.609550,-148.041188,9474.636058
4188.384836,536.266849,-592.164754,9326.594869
4188.385151,-766.095498,-0.000000,9326.594869
4188.385466,-1838.629195,-74.020594,9104.533087
4188.385781,-1455.581446,-0.000000,9474.636058
4188.386097,-536.266849,740.205942,8660.409521
4188.386412,153.219100,-0.000000,8882.471304
4188.386727,0.000000,-370.102971,9844.739029
4188.387043,-1455.581446,-296.082377,9622.677246
4188.387358,-2451.505594,-1110.308913,9918.759623
4188.387673,-1302.362347,-666.185348,9844.739029
4188.387988,0.000000,-296.082377,9030.512492
4188.388304,1072.533697,-740.205942,9474.636058
4188.388619,995.924147,-518.144159,8734.430116
4188.388934,-612.876398,296.082377,8660.409521
4188.389250,-689.485948,296.082377,8660.409521
4188.389565,459.657299,666.185348,8734.430116
4188.389880,1302.362347,1110.308913,8068.244768
4188.390195,1762.019645,-0.000000,8364.327145
4188.390511,919.314598,-222.061783,8660.409521
4188.390826,-536.266849,148.041188,9770.718434
4188.391141,-1225.752797,-0.000000,10732.986159
4188.391457,-229.828649,592.164754,9844.739029
4188.391772,919.314598,592.164754,10140.821405
4188.392087,1762.019645,222.061783,9770.718434
4188.392402,995.924147,666.185348,9474.636058
4188.392718,-229.828649,592.164754,10288.862594
4188.393033,0.000000,1110.308913,9992.780217
4188.393348,459.657299,1924.535449,9400.615463
4188.393664,1608.800546,1628.453072,9030.512492
4188.393979,2221.676944,740.205942,9548.656652
4188.394294,919.314598,814.226536,10362.883188
4188.394609,-536.266849,222.061783,10881.027347
4188.394925,-689.485948,222.061783,10362.883188
4188.395240,0.000000,1036.288319,10436.903782
4188.395555,995.924147,370.102971,10214.842000
4188.395871,1532.190996,-222.061783,10658.965565
4188.396186,612.876398,-0.000000,10214.842000
4188.396501,-153.219100,370.102971,10066.800811
4188.396816,536.266849,666.185348,10066.800811
4188.397132,1072.533697,1406.391290,9474.636058
4188.397447,1608.800546,1184.329507,9030.512492
4188.397762,1685.410096,444.123565,9252.574275
4188.398078,229.828649,888.247130,9770.718434
4188.398393,-459.657299,-0.000000,10214.842000
4188.398708,0.000000,-370.102971,9992.780217
4188.399024,919.314598,444.123565,9844.739029
4188.399339,1302.362347,-370.102971,10140.821405
4188.399654,612.876398,-962.267725,9918.759623
4188.399969,0.000000,-0.000000,9696.697840
4188.400285,-919.314598,-444.123565,9918.759623
4188.400600,0.000000,-0.000000,9178.553681
4188.400915,383.047749,1480.411884,7920.203579
4188.401231,612.876398,444.123565,8290.306550
4188.401546,0.000000,-74.020594,8808.450710
4188.401861,-1685.410096,-222.061783,9474.636058
4188.402176,-1991.848295,-444.123565,9474.636058
4188.402492,-1608.800546,-740.205942,10214.842000
4188.402807,-229.828649,-74.020594,9770.718434
4188.403122,0.000000,-740.205942,9696.697840
4188.403438,-766.095498,-592.164754,9548.656652
4188.403753,-1455.581446,-0.000000,9844.739029
4188.404068,-1302.362347,-74.020594,9696.697840
4188.404383,0.000000,518.144159,8586.388927
4188.404699,459.657299,814.226536,7846.182985
4188.405014,459.657299,222.061783,8438.347739
4188.405329,-995.924147,370.102971,8956.491898
4188.405645,-2451.505594,-370.102971,10066.800811
4188.405960,-1532.190996,-1332.370696,10362.883188
4188.406275,-383.047749,-518.144159,9770.718434
4188.406590,383.047749,-888.247130,9918.759623
4188.406906,383.047749,-814.226536,10214.842000
4188.407221,-536.266849,-0.000000,9622.677246
4188.407536,-689.485948,-148.041188,9622.677246
4188.407852,383.047749,148.041188,9178.553681
4188.408167,1072.533697,518.144159,9030.512492
4188.408482,1685.410096,1184.329507,8586.388927
4188.408797,1455.581446,814.226536,8734.430116
4188.409113,0.000000,1332.370696,8956.491898
4188.409428,-1149.143247,-0.000000,9770.718434
4188.409743,0.000000,-518.144159,9992.780217
4188.410059,229.828649,-814.226536,10732.986159
4188.410374,995.924147,-1110.308913,10066.800811
4188.410689,536.266849,-1110.308913,10288.862594
4188.411004,-995.924147,-370.102971,10288.862594
4188.411320,-689.485948,-370.102971,10510.924376
4188.411635,995.924147,962.267725,9474.636058
4188.411950,1608.800546,1258.350101,8438.347739
4188.412266,2221.676944,1036.288319,8512.368333
4188.412581,1608.800546,1036.288319,9104.533087
4188.412896,76.609550,962.267725,9622.677246
4188.413211,0.000000,444.123565,10362.883188
4188.413527,612.876398,1110.308913,9474.636058
4188.413842,1685.410096,444.123565,9844.739029
4188.414157,1915.238745,-592.164754,10807.006753
4188.414473,383.047749,-592.164754,10955.047942
4188.414788,-306.438199,-296.082377,10732.986159
4188.415103,0.000000,-0.000000,10214.842000
4188.415419,995.924147,1036.288319,9252.574275
4188.415734,1608.800546,1036.288319,8586.388927
4188.416049,2068.457845,-0.000000,8956.491898
4188.416364,612.876398,962.267725,9178.553681
4188.416680,-306.438199,148.041188,9548.656652
4188.416995,0.000000,222.061783,9992.780217
4188.417310,459.657299,740.205942,8660.409521
4188.417626,1685.410096,-0.000000,9474.636058
4188.417941,1149.143247,-444.123565,10510.924376
4188.418256,-459.657299,296.082377,9622.677246
4188.418571,-1225.752797,-740.205942,10140.821405
4188.418887,-306.438199,370.102971,9622.677246
4188.419202,-229.828649,1258.350101,9326.594869
4188.419517,536.266849,1110.308913,8660.409521
4188.419833,306.438199,888.247130,8660.409521
4188.420148,-1302.362347,1110.308913,8216.285956
4188.420463,-2068.457845,-222.061783,10066.800811
4188.420778,-1608.800546,-0.000000,9030.512492
4188.421094,-1072.533697,444.123565,9548.656652
4188.421409,0.000000,-370.102971,10066.800811
4188.421724,-995.924147,-296.082377,9770.718434
4188.422040,-1685.410096,-0.000000,9844.739029
4188.422355,-1225.752797,-666.185348,10436.903782
4188.422670,-459.657299,814.226536,9326.594869
4188.422985,383.047749,740.205942,8734.430116
4188.423301,766.095498,518.144159,8512.368333
4188.423616,0.000000,814.226536,9030.512492
4188.423931,-1838.629195,370.102971,9104.533087
4188.424247,-1838.629195,-148.041188,9844.739029
4188.424562,-1072.533697,148.041188,9918.759623
4188.424877,306.438199,222.061783,9770.718434
4188.425192,612.876398,-592.164754,10214.842000
4188.425508,306.438199,-148.041188,10066.800811
4188.425823,-459.657299,-370.102971,10658.965565
4188.426138,459.657299,-148.041188,10658.965565
4188.426454,1225.752797,1332.370696,9474.636058
4188.426769,2604.724693,1702.473667,8586.388927
4188.427084,2528.115143,1332.370696,8586.388927
4188.427399,1225.752797,1554.432478,8808.450710
4188.427715,-459.657299,370.102971,9696.697840
4188.428030,-153.219100,-296.082377,9992.780217
4188.428345,306.438199,-222.061783,10066.800811
4188.428661,306.438199,-888.247130,10288.862594
4188.428976,383.047749,-1332.370696,10955.047942
4188.429291,-612.876398,-888.247130,11177.109724
4188.429606,-1378.971896,-888.247130,11251.130318
4188.429922,229.828649,-0.000000,10955.047942
4188.430237,1302.362347,1332.370696,9178.553681
4188.430552,2374.896044,1184.329507,8660.409521
4188.430868,1762.019645,814.226536,8438.347739
4188.431183,459.657299,1776.494261,8438.347739
4188.431498,0.000000,592.164754,9252.574275
4188.431813,689.485948,296.082377,9400.615463
4188.432129,1455.581446,-0.000000,9918.759623
4188.432444,1378.971896,-962.267725,9770.718434
4188.432759,0.000000,-1110.308913,9844.739029
4188.433075,-1225.752797,-1480.411884,10584.944971
4188.433390,-842.705048,-1998.556043,10732.986159
4188.433705,383.047749,-1036.288319,9918.759623
4188.434021,1072.533697,296.082377,8882.471304
4188.434336,1685.410096,-370.102971,9178.553681
4188.434651,1225.752797,666.185348,8364.327145
4188.434966,-306.438199,740.205942,8512.368333
4188.435282,-229.828649,518.144159,8586.388927
4188.435597,842.705048,592.164754,8956.491898
4188.435912,1302.362347,592.164754,8956.491898
4188.436228,1072.533697,-592.164754,9622.677246
4188.436543,-842.705048,-592.164754,9992.780217
4188.436858,-1608.800546,-1258.350101,10955.047942
4188.437173,-1225.752797,-1036.288319,10807.006753
4188.437489,-383.047749,-518.144159,9770.718434
4188.437804,0.000000,-0.000000,9178.553681
4188.438119,-459.657299,222.061783,9548.656652
4188.438435,-1378.971896,-0.000000,9400.615463
4188.438750,-2221.676944,-370.102971,9696.697840
4188.439065,-1532.190996,-222.061783,9844.739029
4188.439380,-612.876398,-0.000000,8882.471304
4188.439696,0.000000,-148.041188,9326.594869
4188.440011,0.000000,-148.041188,9770.718434
4188.440326,-1685.410096,296.082377,9918.759623
4188.440642,-1608.800546,-222.061783,10510.924376
4188.440957,-995.924147,222.061783,10214.842000
4188.441272,306.438199,1110.308913,9474.636058
4188.441587,612.876398,-0.000000,9400.615463
4188.441903,0.000000,-222.061783,9696.697840
4188.442218,-1378.971896,888.247130,9474.636058
4188.442533,-1991.848295,592.164754,10214.842000
4188.442849,-612.876398,148.041188,9844.739029
4188.443164,383.047749,1258.350101,9030.512492
4188.443479,995.924147,148.041188,9178.553681
4188.443794,306.438199,444.123565,9474.636058
4188.444110,-766.095498,518.144159,10140.821405
4188.444425,-612.876398,74.020594,10066.800811
4188.444740,995.924147,888.247130,9474.636058
4188.445056,1685.410096,1628.453072,9104.533087
4188.445371,1991.848295,814.226536,9178.553681
4188.445686,1302.362347,1406.391290,8808.450710
4188.446001,76.609550,1184.329507,9104.533087
4188.446317,459.657299,962.267725,9400.615463
4188.446632,919.314598,1480.411884,9104.533087
4188.446947,1072.533697,1036.288319,9622.677246
4188.447263,1302.362347,222.061783,9770.718434
4188.447578,153.219100,-0.000000,10436.903782
4188.447893,-1378.971896,-0.000000,10732.986159
4188.448208,-766.095498,-0.000000,10807.006753
4188.448524,612.876398,1036.288319,10066.800811
4188.448839,1378.971896,962.267725,9696.697840
4188.449154,2068.457845,666.185348,9474.636058
4188.449470,0.000000,740.205942,9770.718434
4188.449785,-383.047749,296.082377,9844.739029
4188.450100,76.609550,666.185348,9770.718434
4188.450415,995.924147,1480.411884,9030.512492
4188.450731,1608.800546,370.102971,8660.409521
4188.451046,1149.143247,-74.020594,9844.739029
4188.451361,0.000000,-666.185348,9770.718434
4188.451677,-1225.752797,-1184.329507,10584.944971
4188.451992,-229.828649,-0.000000,10658.965565
4188.452307,536.266849,148.041188,9696.697840
4188.452623,1378.971896,-518.144159,9696.697840
4188.452938,612.876398,-0.000000,9918.759623
4188.453253,-229.828649,-0.000000,9474.636058
4188.453568,-229.828649,-666.185348,9844.739029
4188.453884,612.876398,222.061783,9326.594869
4188.454199,1608.800546,888.247130,9400.615463
4188.454514,1608.800546,370.102971,8586.388927
4188.454830,536.266849,-148.041188,9326.594869
4188.455145,-766.095498,-222.061783,9918.759623
4188.455460,-995.924147,-814.226536,9844.739029
4188.455775,0.000000,-296.082377,9178.553681
4188.456091,153.219100,-518.144159,8956.491898
4188.456406,0.000000,-888.247130,9474.636058
4188.456721,-1225.752797,-592.164754,9030.512492
4188.457037,-2911.162892,-740.205942,9474.636058
4188.457352,-1608.800546,-1258.350101,9992.780217
4188.457667,-612.876398,-222.061783,9696.697840
4188.457982,229.828649,-0.000000,8882.471304
4188.458298,76.609550,-740.205942,9548.656652
4188.458613,-919.314598,-148.041188,9400.615463
4188.458928,-1532.190996,-0.000000,9252.574275
4188.459244,-995.924147,-74.020594,9696.697840
4188.459559,306.438199,444.123565,9548.656652
4188.459874,459.657299,-0.000000,8956.491898
4188.460189,459.657299,-592.164754,9622.677246
4188.460494,-1225.752797,-74.020594,9400.615463
4188.460809,-1991.848295,-592.164754,9474.636058
4188.461124,-612.876398,-1110.308913,10066.800811
4188.461440,459.657299,-518.144159,8734.430116
4188.461755,995.924147,-740.205942,9326.594869
4188.462070,612.876398,-296.082377,9104.533087
4188.462386,-306.438199,-222.061783,8956.491898
4188.462701,-459.657299,-0.000000,9400.615463
4188.463016,383.047749,666.185348,9474.636058
4188.463332,1762.019645,962.267725,8882.471304
4188.463647,2221.676944,444.123565,9104.533087
4188.463962,1685.410096,222.061783,9474.636058
4188.464278,-306.438199,814.226536,9918.759623
4188.464593,-383.047749,-74.020594,10584.944971
4188.464908,383.047749,296.082377,10510.924376
4188.465223,1455.581446,592.164754,10140.821405
4188.465539,1532.190996,296.082377,10140.821405
4188.465854,842.705048,1480.411884,9770.718434
4188.466169,-153.219100,1554.432478,9918.759623
4188.466485,306.438199,1036.288319,10288.862594
4188.466800,766.095498,1628.453072,9770.718434
4188.467115,1378.971896,1480.411884,9400.615463
4188.467431,1762.019645,666.185348,9474.636058
4188.467746,919.314598,666.185348,9326.594869
4188.468061,-383.047749,-0.000000,10362.883188
4188.468377,-306.438199,-0.000000,10288.862594
4188.468692,689.485948,814.226536,9770.718434
4188.469007,1302.362347,814.226536,9178.553681
4188.469323,1225.752797,-0.000000,9696.697840
4188.469638,0.000000,518.144159,9770.718434
4188.469953,-536.266849,592.164754,10140.821405
4188.470269,-612.876398,592.164754,9992.780217
4188.470584,153.219100,962.267725,9696.697840
4188.470899,1302.362347,888.247130,9844.739029
4188.471214,1149.143247,962.267725,10066.800811
4188.471530,-536.266849,888.247130,10362.883188
4188.471845,-995.924147,-0.000000,10658.965565
4188.472160,0.000000,518.144159,9548.656652
4188.472476,766.095498,444.123565,9474.636058
4188.472791,842.705048,-74.020594,9474.636058
4188.473106,76.609550,-148.041188,9622.677246
4188.473422,-1302.362347,-0.000000,9252.574275
4188.473737,-1762.019645,-592.164754,9400.615463
4188.474052,-995.924147,-296.082377,9252.574275
4188.474368,-306.438199,222.061783,8808.450710
4188.474683,153.219100,-296.082377,8882.471304
4188.474998,-306.438199,-148.041188,9696.697840
4188.475314,-2451.505594,-370.102971,9474.636058
4188.475629,-1838.629195,-1036.288319,10288.862594
4188.475944,-995.924147,-74.020594,10140.821405
4188.476260,-306.438199,444.123565,9474.636058
4188.476575,153.219100,222.061783,8882.471304
4188.476890,-229.828649,-0.000000,8956.491898
4188.477205,-1149.143247,-0.000000,9696.697840
4188.477521,-1455.581446,-222.061783,9770.718434
4188.477836,-689.485948,518.144159,8882.471304
4188.478151,0.000000,370.102971,8586.388927
4188.478467,0.000000,-296.082377,9252.574275
4188.478782,-766.095498,-888.247130,9918.759623
4188.479097,-1838.629195,-1110.308913,9326.594869
4188.479413,-1302.362347,-1554.432478,10436.903782
4188.479728,-306.438199,-444.123565,8956.491898
4188.480043,1149.143247,-518.144159,9178.553681
4188.480359,1378.971896,-444.123565,9252.574275
4188.480674,229.828649,-0.000000,9622.677246
4188.480989,-459.657299,-74.020594,9622.677246
4188.481305,689.485948,-0.000000,9400.615463
4188.481620,1991.848295,962.267725,9252.574275
4188.481935,2374.896044,1184.329507,8364.327145
4188.482251,1915.238745,-0.000000,9326.594869
4188.482566,919.314598,-74.020594,9992.780217
4188.482881,-229.828649,-740.205942,10881.027347
4188.483197,229.828649,-444.123565,10140.821405
4188.483512,689.485948,296.082377,10214.842000
4188.483827,1532.190996,-592.164754,10066.800811
4188.484142,1149.143247,-222.061783,10362.883188
4188.484458,-383.047749,444.123565,9918.759623
4188.484773,0.000000,-222.061783,10066.800811
4188.485088,995.924147,666.185348,9474.636058
4188.485404,1532.190996,1184.329507,9030.512492
4188.485719,1991.848295,-0.000000,9252.574275
4188.486034,1455.581446,518.144159,9400.615463
4188.486350,-153.219100,296.082377,9992.780217
4188.486665,-306.438199,-148.041188,10288.862594
4188.486980,612.876398,444.123565,10436.903782
4188.487296,919.314598,814.226536,10362.883188
4188.487611,1762.019645,-296.082377,10584.944971
4188.487926,842.705048,222.061783,9918.759623
4188.488242,-459.657299,-370.102971,10584.944971
4188.488557,-306.438199,-0.000000,9844.739029
4188.488872,689.485948,1184.329507,8734.430116
4188.489188,1532.190996,1332.370696,8734.430116
4188.489503,1915.238745,518.144159,8882.471304
4188.489818,0.000000,592.164754,9400.615463
4188.490133,-995.924147,-296.082377,9622.677246
4188.490449,-766.095498,-444.123565,9696.697840
4188.490764,153.219100,-0.000000,9622.677246
4188.491079,612.876398,-222.061783,9622.677246
4188.491395,459.657299,-222.061783,10288.862594
4188.491710,-766.095498,222.061783,9548.656652
4188.492025,-1915.238745,-222.061783,9326.594869
4188.492341,-919.314598,-0.000000,9474.636058
4188.492656,-459.657299,1184.329507,8512.368333
4188.492971,-229.828649,666.185348,8882.471304
4188.493287,-306.438199,370.102971,9030.512492
4188.493602,-1685.410096,370.102971,9622.677246
4188.493917,-2298.286494,-666.185348,9400.615463
4188.494233,-1685.410096,-0.000000,9918.759623
4188.494548,-995.924147,592.164754,10066.800811
4188.494863,0.000000,-444.123565,9696.697840
4188.495179,-766.095498,222.061783,10066.800811
4188.495494,-1532.190996,-0.000000,9622.677246
4188.495809,-1838.629195,-74.020594,9696.697840
4188.496124,-1072.533697,814.226536,9474.636058
4188.496440,0.000000,962.267725,8586.388927
4188.496755,383.047749,-0.000000,9030.512492
4188.497070,-76.609550,1036.288319,8586.388927
4188.497386,-1608.800546,296.082377,9474.636058
4188.497701,-1685.410096,-0.000000,10658.965565
4188.498016,-766.095498,370.102971,10584.944971
4188.498332,536.266849,-0.000000,10436.903782
4188.498647,1225.752797,-148.041188,10510.924376
4188.498962,842.705048,518.144159,10436.903782
4188.499278,0.000000,-0.000000,10066.800811
4188.499593,459.657299,444.123565,9770.718434
4188.499908,1455.581446,1702.473667,9474.636058
4188.500224,2451.505594,1554.432478,8512.368333
4188.500539,2451.505594,962.267725,8882.471304
4188.500854,1455.581446,1480.411884,8586.388927
4188.501170,0.000000,-0.000000,9548.656652
4188.501485,76.609550,-74.020594,10214.842000
4188.501800,1455.581446,-0.000000,10066.800811
4188.502116,1762.019645,-592.164754,9844.739029
4188.502431,1838.629195,-148.041188,10881.027347
4188.502746,612.876398,370.102971,10066.800811
4188.503061,76.609550,222.061783,9622.677246
4188.503377,689.485948,740.205942,9400.615463
4188.503692,1685.410096,1184.329507,8734.430116
4188.504007,2604.724693,1258.350101,8734.430116
4188.504323,1685.410096,888.247130,8882.471304
4188.504638,459.657299,222.061783,9326.594869
4188.504953,-306.438199,-444.123565,9918.759623
4188.505269,76.609550,-592.164754,10140.821405
4188.505584,995.924147,-222.061783,10214.842000
4188.505899,1455.581446,-1480.411884,10658.965565
4188.506215,612.876398,-962.267725,10436.903782
4188.506530,-306.438199,-518.144159,9030.512492
4188.506845,-229.828649,-1110.308913,10066.800811
4188.507161,459.657299,-74.020594,9326.594869
4188.507476,1225.752797,-74.020594,8290.306550
4188.507791,1991.848295,-222.061783,8364.327145
4188.508107,766.095498,148.041188,8290.306550
4188.508422,-842.705048,-222.061783,9400.615463
4188.508737,-459.657299,-962.267725,10288.862594
4188.509052,229.828649,370.102971,9474.636058
4188.509368,1532.190996,296.082377,9030.512492
4188.509683,1225.752797,-666.185348,10066.800811
4188.509998,-306.438199,-370.102971,9992.780217
4188.510314,-1762.019645,-740.205942,10066.800811
4188.510629,-1378.971896,-1406.391290,9696.697840
4188.510944,-459.657299,-74.020594,9326.594869
4188.511260,153.219100,370.102971,8734.430116
4188.511575,-459.657299,-148.041188,9178.553681
4188.511890,-1072.533697,296.082377,9326.594869
4188.512206,-2911.162892,-1110.308913,9992.780217
4188.512521,-2528.115143,-148.041188,9992.780217
4188.512836,-1302.362347,-0.000000,9770.718434
4188.513152,-459.657299,-0.000000,9030.512492
4188.513467,383.047749,-444.123565,9992.780217
4188.513782,-1302.362347,296.082377,9696.697840
4188.514098,-2068.457845,-296.082377,9918.759623
4188.514413,-1378.971896,-0.000000,9844.739029
4188.514728,-612.876398,814.226536,8808.450710
4188.515043,76.609550,1036.288319,8586.388927
4188.515359,76.609550,370.102971,8512.368333
4188.515674,-1838.629195,666.185348,9696.697840
4188.515989,-2681.334243,-592.164754,9770.718434
4188.516305,-1685.410096,-888.247130,9918.759623
4188.516620,-536.266849,-296.082377,10732.986159
4188.516935,766.095498,-444.123565,9400.615463
4188.517251,153.219100,-666.185348,9918.759623
4188.517566,-459.657299,-0.000000,10658.965565
4188.517881,0.000000,-370.102971,9918.759623
4188.518197,1225.752797,1110.308913,9992.780217
4188.518512,2451.505594,2294.638420,8808.450710
4188.518827,3217.601092,2294.638420,7994.224174
4188.519143,2068.457845,1924.535449,8956.491898
4188.519458,766.095498,1332.370696,8438.347739
4188.519773,536.266849,666.185348,9992.780217
4188.520089,995.924147,1110.308913,9844.739029
4188.520404,1685.410096,592.164754,9474.636058
4188.520719,1838.629195,-74.020594,11325.150913
4188.521035,383.047749,-0.000000,11547.212695
4188.521350,-536.266849,-592.164754,10584.944971
4188.521665,153.219100,-0.000000,10807.006753
4188.521980,1532.190996,1406.391290,9992.780217
4188.522296,2757.943793,1776.494261,9252.574275
4188.522611,2451.505594,2220.617826,9030.512492
4188.522926,1378.971896,2072.576638,8586.388927
4188.523242,383.047749,1406.391290,9326.594869
4188.523557,919.314598,888.247130,9474.636058
4188.523872,1455.581446,1036.288319,9548.656652
4188.524188,2145.067394,370.102971,9770.718434
4188.524503,1072.533697,-1036.288319,9918.759623
4188.524818,-306.438199,-666.185348,10584.944971
4188.525134,-1072.533697,-1110.308913,10807.006753
4188.525449,-459.657299,-740.205942,10362.883188
4188.525764,612.876398,148.041188,9252.574275
4188.526080,1532.190996,-0.000000,8882.471304
4188.526395,766.095498,592.164754,8956.491898
4188.526710,-612.876398,-148.041188,8808.450710
4188.527026,-306.438199,-518.144159,9326.594869
4188.527341,306.438199,-0.000000,9400.615463
4188.527656,1302.362347,888.247130,9104.533087
4188.527971,1378.971896,-74.020594,9474.636058
4188.528287,229.828649,-444.123565,10362.883188
4188.528602,-1378.971896,-370.102971,10140.821405
4188.528917,-1915.238745,-888.247130,9770.718434
4188.529233,-995.924147,-518.144159,9696.697840
4188.529548,-229.828649,-0.000000,9400.615463
4188.529863,-459.657299,-592.164754,9474.636058
4188.530179,-1455.581446,-518.144159,8808.450710
4188.530494,-2834.553343,-444.123565,9548.656652
4188.530809,-2451.505594,-1036.288319,9918.759623
4188.531125,-1455.581446,-370.102971,9474.636058
4188.531440,-229.828649,444.123565,9104.533087
4188.531755,-919.314598,-296.082377,9622.677246
4188.532071,-1225.752797,-296.082377,9622.677246
4188.532386,-1838.629195,-888.247130,10362.883188
4188.532701,-1455.581446,-444.123565,10288.862594
4188.533017,-383.047749,-222.061783,9770.718434
4188.533332,459.657299,592.164754,8956.491898
4188.533647,229.828649,-0.000000,9030.512492
4188.533962,-1149.143247,222.061783,9178.553681
4188.534278,-1225.752797,-444.123565,9918.759623
4188.534593,-842.705048,-740.205942,9548.656652
4188.534908,-536.266849,-0.000000,9474.636058
4188.535224,306.438199,-148.041188,9548.656652
4188.535539,383.047749,-592.164754,9474.636058
4188.535854,-689.485948,-740.205942,9918.759623
4188.536170,-766.095498,-1480.411884,10510.924376
4188.536485,306.438199,-666.185348,10510.924376
4188.536800,1608.800546,1110.308913,8660.409521
4188.537116,2298.286494,740.205942,8512.368333
4188.537431,2298.286494,740.205942,8660.409521
4188.537746,612.876398,888.247130,8364.327145
4188.538062,536.266849,518.144159,8512.368333
4188.538377,1225.752797,444.123565,8734.430116
4188.538692,1762.019645,370.102971,8956.491898
4188.539008,1762.019645,-148.041188,9252.574275
4188.539323,689.485948,-74.020594,9622.677246
4188.539638,-459.657299,-814.226536,10140.821405
4188.539954,0.000000,-592.164754,10584.944971
4188.540269,995.924147,-296.082377,9992.780217
4188.540584,1915.238745,592.164754,9474.636058
4188.540899,2068.457845,666.185348,9474.636058
4188.541215,1149.143247,1036.288319,9104.533087
4188.541530,459.657299,1036.288319,9252.574275
4188.541845,1225.752797,1036.288319,9622.677246
4188.542161,2068.457845,1924.535449,9252.574275
4188.542476,2145.067394,962.267725,9104.533087
4188.542791,2145.067394,740.205942,9622.677246
4188.543107,383.047749,1184.329507,10510.924376
4188.543422,0.000000,444.123565,10807.006753
4188.543737,-306.438199,-148.041188,10955.047942
4188.544053,229.828649,222.061783,10140.821405
4188.544368,1149.143247,222.061783,9918.759623
4188.544683,612.876398,444.123565,9844.739029
4188.544999,0.000000,1036.288319,9992.780217
4188.545314,-1302.362347,1184.329507,10214.842000
4188.545629,0.000000,1258.350101,9548.656652
4188.545945,766.095498,1332.370696,9474.636058
4188.546260,1532.190996,592.164754,9252.574275
4188.546575,919.314598,148.041188,9548.656652
4188.546890,-1072.533697,296.082377,9548.656652
4188.547206,-1685.410096,-518.144159,10436.903782
4188.547521,-689.485948,222.061783,9918.759623
4188.547836,0.000000,370.102971,9326.594869
4188.548152,76.609550,-148.041188,9474.636058
4188.548467,-1072.533697,-222.061783,9474.636058
4188.548782,-2681.334243,-518.144159,9474.636058
4188.549098,-2681.334243,-666.185348,9770.718434
4188.549413,-1915.238745,-296.082377,9400.615463
4188.549728,-612.876398,-222.061783,9400.615463
4188.550044,-306.438199,-296.082377,9178.553681
4188.550359,-1072.533697,222.061783,9474.636058
4188.550674,-1991.848295,-0.000000,9622.677246
4188.550990,-1072.533697,-592.164754,10140.821405
4188.551305,0.000000,444.123565,9326.594869
4188.551620,612.876398,666.185348,9326.594869
4188.551936,612.876398,-444.123565,9326.594869
4188.552251,-612.876398,-370.102971,9548.656652
4188.552566,-1378.971896,-1110.308913,10140.821405
4188.552882,-1302.362347,-1406.391290,10362.883188
4188.553197,0.000000,-1184.329507,10214.842000
4188.553512,306.438199,518.144159,9030.512492
4188.553827,689.485948,-222.061783,9252.574275
4188.554143,459.657299,-0.000000,8882.471304
4188.554458,-383.047749,-518.144159,9474.636058
4188.554773,306.438199,-518.144159,9844.739029
4188.555089,1378.971896,444.123565,8586.388927
4188.555404,1455.581446,888.247130,9252.574275
4188.555719,1991.848295,666.185348,9252.574275
4188.556035,383.047749,962.267725,9178.553681
4188.556350,-229.828649,222.061783,10066.800811
4188.556665,536.266849,-0.000000,9918.759623
4188.556981,1685.410096,962.267725,9622.677246
4188.557296,1302.362347,444.123565,9770.718434
4188.557611,842.705048,74.020594,10584.944971
4188.557927,-536.266849,222.061783,10807.006753
4188.558242,-689.485948,-666.185348,10066.800811
4188.558557,1072.533697,-74.020594,9770.718434
4188.558872,995.924147,296.082377,8956.491898
4188.559188,1685.410096,-0.000000,9770.718434
4188.559503,1149.143247,444.123565,9474.636058
4188.559818,0.000000,-0.000000,9252.574275
4188.560133,76.609550,-666.185348,9548.656652
4188.560449,1302.362347,-0.000000,9030.512492
4188.560764,1991.848295,-0.000000,8956.491898
4188.561079,2145.067394,-0.000000,9326.594869
4188.561395,995.924147,370.102971,9622.677246
4188.561710,-153.219100,-148.041188,9400.615463
4188.562025,-153.219100,-222.061783,10362.883188
4188.562340,306.438199,148.041188,10140.821405
4188.562656,766.095498,222.061783,9770.718434
4188.562971,229.828649,-0.000000,10214.842000
4188.563286,-459.657299,-0.000000,10584.944971
4188.563602,-1532.190996,-222.061783,11177.109724
4188.563917,-842.705048,-74.020594,10140.821405
4188.564232,612.876398,518.144159,9548.656652
4188.564547,1532.190996,518.144159,9474.636058
4188.564863,1149.143247,888.247130,8882.471304
4188.565178,-612.876398,1110.308913,8216.285956
4188.565493,-1838.629195,444.123565,9548.656652
4188.565808,-1072.533697,-0.000000,9252.574275
4188.566124,-229.828649,814.226536,8808.450710
4188.566439,-306.438199,-0.000000,8956.491898
4188.566754,-1685.410096,-370.102971,9474.636058
4188.567070,-3064.381992,-148.041188,10658.965565
4188.567385,-3370.820191,-740.205942,10732.986159
4188.567700,-2221.676944,-296.082377,10584.944971
4188.568015,-1225.752797,814.226536,10362.883188
4188.568331,-383.047749,222.061783,9992.780217
4188.568646,-689.485948,962.267725,9326.594869
4188.568961,-1225.752797,1110.308913,9252.574275
4188.569276,-1532.190996,296.082377,9474.636058
4188.569592,-536.266849,1258.350101,9104.533087
4188.569907,766.095498,1406.391290,8512.368333
4188.570222,1455.581446,592.164754,9104.533087
4188.570538,0.000000,222.061783,9030.512492
4188.570853,-1149.143247,-814.226536,9474.636058
4188.571168,-1378.971896,-1184.329507,9992.780217
4188.571483,-229.828649,-666.185348,10066.800811
4188.571799,919.314598,-74.020594,9326.594869
4188.572114,1378.971896,-666.185348,9104.533087
4188.572429,459.657299,370.102971,9030.512492
4188.572744,-76.609550,-0.000000,9178.553681
4188.573060,0.000000,-0.000000,9474.636058
4188.573375,1455.581446,814.226536,9400.615463
4188.573690,2145.067394,1406.391290,8956.491898
4188.574006,2528.115143,1258.350101,8956.491898
4188.574321,1072.533697,1554.432478,9770.718434
4188.574636,0.000000,148.041188,10658.965565
4188.574951,612.876398,148.041188,10732.986159
4188.575267,1302.362347,518.144159,10066.800811
4188.575582,1532.190996,370.102971,10214.842000
4188.575897,1302.362347,-0.000000,10510.924376
4188.576212,153.219100,296.082377,10436.903782
4188.576528,-459.657299,-148.041188,10140.821405
4188.576843,459.657299,-370.102971,9992.780217
4188.577158,1072.533697,518.144159,9548.656652
4188.577474,1762.019645,740.205942,8734.430116
4188.577789,1302.362347,518.144159,9326.594869
4188.578104,0.000000,518.144159,9992.780217
4188.578419,-1072.533697,-444.123565,10362.883188
4188.578735,306.438199,-0.000000,10288.862594
4188.579050,1225.752797,-0.000000,10288.862594
4188.579365,2145.067394,-0.000000,9918.759623
4188.579681,383.047749,444.123565,9696.697840
4188.579996,0.000000,444.123565,9696.697840
4188.580311,153.219100,-222.061783,10214.842000
4188.580626,689.485948,-74.020594,9104.533087
4188.580942,995.924147,-148.041188,8956.491898
4188.581257,536.266849,-296.082377,9252.574275
4188.581572,-229.828649,-0.000000,8882.471304
4188.581887,-1455.581446,-888.247130,9548.656652
4188.582203,-1378.971896,-1628.453072,10066.800811
4188.582518,-153.219100,-666.185348,9770.718434
4188.582833,919.314598,-1036.288319,9252.574275
4188.583149,995.924147,-814.226536,9104.533087
4188.583464,0.000000,-222.061783,9474.636058
4188.583779,-1072.533697,-222.061783,9400.615463
4188.584094,-766.095498,-222.061783,9030.512492
4188.584410,76.609550,592.164754,8290.306550
4188.584725,766.095498,592.164754,7772.162391
4188.585040,153.219100,370.102971,8364.327145
4188.585355,-1455.581446,-0.000000,9326.594869
4188.585671,-2987.772442,-814.226536,9844.739029
4188.585986,-2451.505594,-888.247130,10510.924376
4188.586301,-1455.581446,-814.226536,10214.842000
4188.586617,-766.095498,-1332.370696,10362.883188
4188.586932,-842.705048,-666.185348,10288.862594
4188.587247,-1608.800546,-444.123565,9548.656652
4188.587562,-2068.457845,-518.144159,10510.924376
4188.587878,-536.266849,592.164754,9474.636058
4188.588193,919.314598,1554.432478,8364.327145
4188.588508,1838.629195,1924.535449,7994.224174
4188.588823,995.924147,2442.679609,8364.327145
4188.589139,-229.828649,1702.473667,8142.265362
4188.589454,-383.047749,-74.020594,9622.677246
4188.589769,0.000000,-0.000000,9918.759623
4188.590085,0.000000,-296.082377,9992.780217
4188.590400,995.924147,-666.185348,10214.842000
4188.590715,459.657299,-0.000000,10436.903782
4188.591030,-459.657299,-148.041188,10214.842000
4188.591346,-153.219100,-148.041188,10510.924376
4188.591661,383.047749,1924.535449,9252.574275
4188.591976,2145.067394,2368.659014,8438.347739
4188.592292,2757.943793,2146.597232,8512.368333
4188.592607,2068.457845,1998.556043,8364.327145
4188.592922,383.047749,962.267725,9326.594869
4188.593237,306.438199,-0.000000,10658.965565
4188.593553,689.485948,592.164754,10658.965565
4188.593868,1149.143247,148.041188,10807.006753
4188.594183,919.314598,-518.144159,10807.006753
4188.594498,0.000000,-666.185348,10658.965565
4188.594814,-1302.362347,-740.205942,10881.027347
4188.595129,-766.095498,-888.247130,10066.800811
4188.595444,459.657299,296.082377,9326.594869
4188.595760,1838.629195,592.164754,9178.553681
4188.596075,1608.800546,1480.411884,8586.388927
4188.596390,995.924147,1406.391290,8660.409521
4188.596705,383.047749,1184.329507,9252.574275
4188.597021,842.705048,148.041188,10066.800811
4188.597336,1762.019645,1110.308913,10140.821405
4188.597651,1915.238745,518.144159,10288.862594
4188.597966,1378.971896,370.102971,10955.047942
4188.598282,383.047749,-0.000000,10881.027347
4188.598597,-306.438199,-518.144159,10214.842000
4188.598912,153.219100,-0.000000,9992.780217
4188.599228,689.485948,740.205942,9326.594869
4188.599543,919.314598,222.061783,9104.533087
4188.599858,689.485948,592.164754,8808.450710
4188.600173,-536.266849,518.144159,8586.388927
4188.600489,-842.705048,-370.102971,9252.574275
4188.600804,-229.828649,-370.102971,9178.553681
4188.601119,459.657299,-222.061783,9474.636058
4188.601434,766.095498,-592.164754,9622.677246
4188.601750,-76.609550,-592.164754,9474.636058
4188.602065,-1072.533697,-1036.288319,9770.718434
4188.602380,-1378.971896,-1332.370696,10362.883188
4188.602696,-612.876398,-0.000000,9474.636058
4188.603011,0.000000,740.205942,8734.430116
4188.603326,0.000000,222.061783,8660.409521
4188.603641,-1455.581446,370.102971,9104.533087
4188.603957,-3064.381992,-148.041188,9178.553681
4188.604272,-2451.505594,-814.226536,9548.656652
4188.604587,-1532.190996,-962.267725,9696.697840
4188.604902,-536.266849,-1184.329507,9992.780217
4188.605218,-612.876398,-1406.391290,10288.862594
4188.605533,-1915.238745,-888.247130,10066.800811
4188.605848,-1915.238745,-1184.329507,10288.862594
4188.606164,-919.314598,-962.267725,10066.800811
4188.606479,612.876398,222.061783,8882.471304
4188.606794,1072.533697,222.061783,8808.450710
4188.607109,766.095498,-0.000000,8512.368333
4188.607425,-383.047749,814.226536,8290.306550
4188.607740,-1225.752797,-0.000000,9178.553681
4188.608055,-153.219100,222.061783,9474.636058
4188.608371,612.876398,296.082377,9548.656652
4188.608686,1225.752797,-740.205942,10436.903782
4188.609001,766.095498,-592.164754,11029.068536
4188.609316,-306.438199,-74.020594,10214.842000
4188.609632,-536.266849,-444.123565,10955.047942
4188.609947,1149.143247,592.164754,10658.965565
4188.610262,2145.067394,1406.391290,9178.553681
4188.610577,2757.943793,1332.370696,8808.450710
4188.610893,2298.286494,1776.494261,8586.388927
4188.611208,76.609550,1406.391290,8882.471304
4188.611523,76.609550,444.123565,9474.636058
4188.611839,689.485948,740.205942,9474.636058
4188.612154,1838.629195,222.061783,9770.718434
4188.612469,1838.629195,-814.226536,10066.800811
4188.612784,153.219100,-222.061783,10362.883188
4188.613100,-766.095498,-1036.288319,11547.212695
4188.613415,-459.657299,-666.185348,10732.986159
4188.613730,766.095498,814.226536,9622.677246
4188.614045,2145.067394,296.082377,8956.491898
4188.614361,2451.505594,814.226536,9030.512492
4188.614676,1149.143247,1554.432478,8660.409521
4188.614991,0.000000,1110.308913,8882.471304
4188.615307,0.000000,592.164754,9252.574275
4188.615622,1302.362347,740.205942,9474.636058
4188.615937,2068.457845,-74.020594,9326.594869
4188.616252,1455.581446,-592.164754,10214.842000
4188.616568,-229.828649,-592.164754,10807.006753
4188.616883,-842.705048,-1406.391290,10584.944971
4188.617198,0.000000,-888.247130,10214.842000
4188.617513,1072.533697,-0.000000,9252.574275
4188.617829,1685.410096,370.102971,8586.388927
4188.618144,1302.362347,1110.308913,8734.430116
4188.618459,153.219100,1036.288319,8290.306550
4188.618775,-766.095498,-0.000000,9252.574275
4188.619090,0.000000,666.185348,9474.636058
4188.619405,383.047749,962.267725,9178.553681
4188.619720,766.095498,-74.020594,9104.533087
4188.620036,-306.438199,-74.020594,10066.800811
4188.620351,-1762.019645,-296.082377,10732.986159
4188.620666,-2068.457845,-666.185348,10955.047942
4188.620981,-1455.581446,-0.000000,10732.986159
4188.621297,-766.095498,814.226536,9326.594869
4188.621612,-459.657299,148.041188,9178.553681
4188.621927,-1225.752797,962.267725,9178.553681
4188.622243,-2604.724693,592.164754,9474.636058
4188.622558,-2451.505594,-0.000000,9696.697840
4188.622873,-1072.533697,-0.000000,9474.636058
4188.623188,-689.485948,444.123565,9400.615463
4188.623504,-536.266849,-0.000000,9474.636058
4188.623819,-1685.410096,-296.082377,9548.656652
4188.624134,-2068.457845,-888.247130,10584.944971
4188.624450,-1685.410096,-666.185348,10214.842000
4188.624765,-536.266849,-0.000000,9474.636058
4188.625080,229.828649,444.123565,9104.533087
4188.625395,383.047749,222.061783,9252.574275
4188.625711,-612.876398,888.247130,8734.430116
4188.626026,-1149.143247,-296.082377,9548.656652
4188.626341,-383.047749,222.061783,8734.430116
4188.626656,536.266849,370.102971,9326.594869
4188.626972,1149.143247,-0.000000,9474.636058
4188.627287,1608.800546,-0.000000,9844.739029
4188.627602,229.828649,222.061783,9992.780217
4188.627918,0.000000,-666.185348,10807.006753
4188.628233,919.314598,-370.102971,11029.068536
4188.628548,1915.238745,962.267725,9252.574275
4188.628863,2528.115143,740.205942,8660.409521
4188.629179,2451.505594,814.226536,8956.491898
4188.629494,1302.362347,1110.308913,9104.533087
4188.629809,383.047749,444.123565,9030.512492
4188.630124,1072.533697,296.082377,9326.594869
4188.630440,1685.410096,592.164754,9696.697840
4188.630755,2068.457845,-0.000000,9474.636058
4188.631070,1149.143247,-0.000000,10066.800811
4188.631386,-229.828649,-222.061783,10288.862594
4188.631701,-383.047749,-740.205942,11177.109724
4188.632016,612.876398,296.082377,10362.883188
4188.632331,1378.971896,666.185348,9326.594869
4188.632647,1532.190996,296.082377,9844.739029
4188.632962,842.705048,962.267725,9474.636058
4188.633277,-229.828649,518.144159,9474.636058
4188.633592,0.000000,444.123565,9622.677246
4188.633908,1072.533697,888.247130,8882.471304
4188.634223,1838.629195,740.205942,8660.409521
4188.634538,1838.629195,-0.000000,9400.615463
4188.634854,306.438199,-0.000000,9548.656652
4188.635169,-689.485948,-666.185348,10362.883188
4188.635484,-919.314598,-370.102971,9844.739029
4188.635799,0.000000,-74.020594,9474.636058
4188.636115,536.266849,-296.082377,9252.574275
4188.636430,1149.143247,-666.185348,9844.739029
4188.636745,-459.657299,-0.000000,9918.759623
4188.637060,-919.314598,-148.041188,9770.718434
4188.637376,-689.485948,-0.000000,9622.677246
4188.637691,536.266849,296.082377,9030.512492
4188.638006,1149.143247,296.082377,8882.471304
4188.638322,229.828649,-0.000000,8808.450710
4188.638637,-1149.143247,-0.000000,9400.615463
4188.638952,-1685.410096,-592.164754,9622.677246
4188.639267,-1225.752797,-444.123565,9548.656652
4188.639583,-306.438199,-0.000000,9844.739029
4188.639898,0.000000,-518.144159,9474.636058
4188.640213,-536.266849,-518.144159,9548.656652
4188.640529,-2145.067394,-592.164754,10214.842000
4188.640844,-2834.553343,-666.185348,10510.924376
4188.641159,-1915.238745,-370.102971,10510.924376
4188.641474,-459.657299,148.041188,9992.780217
4188.641790,0.000000,370.102971,9178.553681
4188.642105,-842.705048,666.185348,8956.491898
4188.642420,-1915.238745,1110.308913,9400.615463
4188.642735,-1915.238745,444.123565,10214.842000
4188.643051,-919.314598,-148.041188,9844.739029
4188.643366,229.828649,148.041188,9474.636058
4188.643681,1072.533697,-0.000000,9474.636058
4188.643997,-153.219100,74.020594,9770.718434
4188.644312,-1762.019645,-0.000000,9918.759623
4188.644627,-995.924147,-592.164754,10436.903782
4188.644942,76.609550,296.082377,9844.739029
4188.645258,1685.410096,592.164754,8808.450710
4188.645573,1838.629195,-148.041188,8956.491898
4188.645888,612.876398,814.226536,9326.594869
4188.646203,-153.219100,-74.020594,9400.615463
4188.646519,306.438199,222.061783,9474.636058
4188.646834,1762.019645,370.102971,9474.636058
4188.647149,2374.896044,888.247130,9252.574275
4188.647465,2221.676944,888.247130,9918.759623
4188.647780,1225.752797,962.267725,9548.656652
4188.648095,306.438199,370.102971,10066.800811
4188.648410,1225.752797,-0.000000,9770.718434
4188.648726,1378.971896,740.205942,9770.718434
4188.649041,2834.553343,-0.000000,10288.862594
4188.649356,1302.362347,2220.617826,8438.347739
4188.649671,0.000000,-0.000000,9030.512492
4188.649987,459.657299,-0.000000,10510.924376
4188.650302,383.047749,592.164754,9696.697840
4188.650617,919.314598,148.041188,9400.615463
4188.650933,1685.410096,-0.000000,9178.553681
4188.651248,612.876398,296.082377,9918.759623
4188.651563,0.000000,222.061783,9918.759623
4188.651878,-995.924147,-148.041188,10288.862594
4188.652194,0.000000,370.102971,10140.821405
4188.652509,1072.533697,296.082377,9474.636058
4188.652824,1762.019645,444.123565,9548.656652
4188.653140,0.000000,962.267725,9326.594869
4188.653455,-995.924147,740.205942,10362.883188
4188.653770,-1072.533697,-0.000000,9918.759623
4188.654085,0.000000,148.041188,9622.677246
4188.654401,766.095498,370.102971,9252.574275
4188.654716,842.705048,-592.164754,9474.636058
4188.655031,-306.438199,-74.020594,9696.697840
4188.655346,-1608.800546,-370.102971,10066.800811
4188.655662,-1225.752797,-1036.288319,10066.800811
4188.655977,0.000000,222.061783,9696.697840
4188.656292,919.314598,74.020594,9770.718434
4188.656608,689.485948,-296.082377,8882.471304
4188.656923,-383.047749,-0.000000,9400.615463
4188.657238,-1302.362347,-148.041188,9548.656652
4188.657553,-995.924147,-0.000000,9326.594869
4188.657869,153.219100,222.061783,9326.594869
4188.658184,383.047749,-0.000000,9030.512492
4188.658499,1149.143247,-148.041188,9474.636058
4188.658814,-383.047749,-296.082377,10066.800811
4188.659130,-1378.971896,-1406.391290,10288.862594
4188.659445,-459.657299,-1258.350101,10807.006753
4188.659760,536.266849,-814.226536,9696.697840
4188.660076,1608.800546,-518.144159,9326.594869
4188.660391,1685.410096,-370.102971,9474.636058
4188.660706,689.485948,-74.020594,9030.512492
4188.661022,-459.657299,-1110.308913,9548.656652
4188.661337,229.828649,-1110.308913,8882.471304
4188.661652,1455.581446,-0.000000,8882.471304
4188.661968,1762.019645,-888.247130,8956.491898
4188.662283,1149.143247,-1628.453072,10140.821405
4188.662598,-76.609550,-1776.494261,11103.089130
4188.662914,-383.047749,-1998.556043,10807.006753
4188.663229,689.485948,-2072.576638,11029.068536
4188.663544,2757.943793,-1258.350101,10140.821405
4188.663859,3907.087040,-888.247130,9992.780217
4188.664175,3217.601092,-1110.308913,8956.491898
4188.664490,2604.724693,-296.082377,9178.553681
4188.664805,2374.896044,-74.020594,9474.636058
4188.665121,3064.381992,-740.205942,9030.512492
4188.665436,3600.648841,-1036.288319,8882.471304
4188.665751,4749.792088,-1036.288319,8956.491898
4188.666067,3983.696590,-2220.617826,8882.471304
4188.666382,2911.162892,-2738.761985,9548.656652
4188.666697,1455.581446,-2220.617826,10732.986159
4188.667013,995.924147,-1702.473667,9844.739029
4188.667328,2451.505594,-2960.823768,9770.718434
4188.667643,3064.381992,-2220.617826,9400.615463
4188.667959,3294.210641,-2516.700203,9104.533087
4188.668274,2681.334243,-2072.576638,9104.533087
4188.668589,1532.190996,-1184.329507,8956.491898
4188.668904,995.924147,-1702.473667,9326.594869
4188.669220,2145.067394,-1554.432478,9178.553681
4188.669535,3064.381992,-1480.411884,8290.306550
4188.669850,3294.210641,-2294.638420,8956.491898
4188.670166,2145.067394,-2442.679609,9696.697840
4188.670481,919.314598,-2590.720797,10362.883188
4188.670796,766.095498,-2072.576638,10881.027347
4188.671112,995.924147,-2664.741391,11029.068536
4188.671427,2145.067394,-2516.700203,10066.800811
4188.671742,2911.162892,-2886.803174,9252.574275
4188.672058,2911.162892,-2960.823768,8660.409521
4188.672373,2374.896044,-2294.638420,9326.594869
4188.672688,1608.800546,-1850.514855,9474.636058
4188.673004,1455.581446,-814.226536,8956.491898
4188.673319,1685.410096,-1628.453072,8882.471304
4188.673634,2451.505594,-2220.617826,8364.327145
4188.673949,2451.505594,-3478.967927,8586.388927
4188.674265,1991.848295,-3775.050304,9326.594869
4188.674580,1072.533697,-3034.844362,9992.780217
4188.674895,689.485948,-2738.761985,10288.862594
4188.675211,689.485948,-2146.597232,10362.883188
4188.675526,1225.752797,-1776.494261,10214.842000
4188.675841,1685.410096,-1850.514855,9696.697840
4188.676157,1762.019645,-2220.617826,9548.656652
4188.676472,2068.457845,-2072.576638,9178.553681
4188.676787,1838.629195,-1554.432478,9252.574275
4188.677103,1762.019645,-1406.391290,8882.471304
4188.677418,1991.848295,-1554.432478,9474.636058
4188.677733,2298.286494,-1480.411884,9696.697840
4188.678049,3064.381992,-2442.679609,9918.759623
4188.678364,1991.848295,-2738.761985,9918.759623
4188.678679,1838.629195,-3182.885551,10214.842000
4188.678994,2374.896044,-2886.803174,9474.636058
4188.679310,2528.115143,-2368.659014,9030.512492
4188.679625,2451.505594,-1628.453072,8734.430116
4188.679940,2604.724693,-1776.494261,9178.553681
4188.680256,2528.115143,-1332.370696,9030.512492
4188.680571,1991.848295,-1480.411884,9326.594869
4188.680886,1838.629195,-1850.514855,10436.903782
4188.681202,2451.505594,-2368.659014,10288.862594
4188.681517,2528.115143,-2516.700203,10066.800811
4188.681832,2834.553343,-2442.679609,9844.739029
4188.682148,3064.381992,-1998.556043,9770.718434
4188.682463,2604.724693,-1258.350101,9474.636058
4188.682778,2757.943793,-296.082377,8882.471304
4188.683094,2681.334243,-962.267725,9548.656652
4188.683409,2528.115143,-592.164754,9696.697840
4188.683724,2145.067394,-1036.288319,9622.677246
4188.684039,1838.629195,-2072.576638,9770.718434
4188.684355,2298.286494,-2812.782580,10140.821405
4188.684670,2374.896044,-2886.803174,10214.842000
4188.684985,2681.334243,-2442.679609,9918.759623
4188.685301,2604.724693,-1702.473667,9474.636058
4188.685616,2528.115143,-888.247130,9178.553681
4188.685931,2451.505594,-444.123565,9178.553681
4188.686247,1991.848295,-222.061783,9326.594869
4188.686562,1915.238745,-888.247130,9992.780217
4188.686877,1608.800546,-1332.370696,10510.924376
4188.687193,1685.410096,-2738.761985,10658.965565
4188.687508,2068.457845,-3034.844362,10732.986159
4188.687823,2528.115143,-3034.844362,10066.800811
4188.688139,2757.943793,-2072.576638,9918.759623
4188.688454,2757.943793,-1110.308913,8882.471304
4188.688769,2221.676944,-148.041188,8956.491898
4188.689085,2374.896044,-0.000000,8290.306550
4188.689400,1455.581446,-0.000000,7920.203579
4188.689715,612.876398,-1258.350101,8808.450710
4188.690030,383.047749,-2590.720797,10066.800811
4188.690346,153.219100,-4441.235652,11399.171507
4188.690661,383.047749,-4663.297435,12065.356855
4188.690976,1685.410096,-4219.173869,12213.398043
4188.691292,2681.334243,-3182.885551,11621.233289
4188.691607,3830.477490,-1998.556043,10362.883188
4188.691922,3907.087040,-0.000000,8068.244768
4188.692238,4213.525239,518.144159,7698.141797
4188.692553,4596.572988,1702.473667,6661.853478
4188.692868,3677.258390,814.226536,5921.647536
4188.693184,2221.676944,-0.000000,6661.853478
4188.693499,612.876398,-1924.535449,8364.327145
4188.693814,-689.485948,-3775.050304,9992.780217
4188.694130,-995.924147,-5033.400406,12213.398043
4188.694445,-766.095498,-5477.523971,13323.706956
4188.694760,0.000000,-5625.565159,14063.912898
4188.695075,1532.190996,-5181.441594,13249.686362
4188.695391,3600.648841,-3849.070898,11103.089130
4188.695706,4903.011187,-1776.494261,8956.491898
4188.696021,5515.887586,814.226536,6883.915261
4188.696337,5439.278036,1850.514855,5921.647536
4188.696652,4519.963438,2220.617826,5181.441594
4188.696967,3753.867940,1258.350101,5329.482782
4188.697283,2068.457845,-370.102971,7031.956449
4188.697598,0.000000,-2294.638420,9400.615463
4188.697913,-1378.971896,-4071.132681,11029.068536
4188.698229,-2298.286494,-6735.874072,13323.706956
4188.698544,-1838.629195,-7105.977043,13323.706956
4188.698859,-842.705048,-6587.832884,13767.830521
4188.699175,76.609550,-4737.318029,12435.459826
4188.699490,1838.629195,-3256.906145,10807.006753
4188.699805,3140.991542,-444.123565,9104.533087
4188.700120,4290.134789,1332.370696,7179.997637
4188.700436,4749.792088,2368.659014,6291.750507
4188.700751,5439.278036,1924.535449,6439.791695
4188.701066,5362.668486,1332.370696,6957.935855
4188.701382,4903.011187,-740.205942,7994.224174
4188.701697,3524.039291,-2368.659014,9474.636058
4188.702012,2681.334243,-3923.091493,10955.047942
4188.702328,1915.238745,-4737.318029,11251.130318
4188.702643,1532.190996,-5181.441594,11325.150913
4188.702958,1072.533697,-5181.441594,10881.027347
4188.703274,1072.533697,-3923.091493,10066.800811
4188.703589,1149.143247,-2146.597232,9326.594869
4188.703904,919.314598,-1258.350101,8438.347739
4188.704220,1455.581446,-74.020594,8290.306550
4188.704535,1915.238745,222.061783,7994.224174
4188.704850,2221.676944,296.082377,8142.265362
4188.705165,2221.676944,-0.000000,9548.656652
4188.705481,2834.553343,-370.102971,10584.944971
4188.705796,2834.553343,-1036.288319,10881.027347
4188.706111,3294.210641,-1924.535449,11029.068536
4188.706427,3370.820191,-1776.494261,10881.027347
4188.706742,2911.162892,-1776.494261,10214.842000
4188.707057,2221.676944,-1110.308913,9326.594869
4188.707373,1532.190996,-1036.288319,8734.430116
4188.707688,1072.533697,-1628.453072,8068.244768
4188.708003,459.657299,-1628.453072,8142.265362
4188.708319,-306.438199,-2146.597232,8364.327145
4188.708634,-612.876398,-2516.700203,9178.553681
4188.708949,-153.219100,-2294.638420,10214.842000
4188.709265,229.828649,-2886.803174,10807.006753
4188.709580,1149.143247,-2960.823768,11547.212695
4188.709895,2221.676944,-2368.659014,11547.212695
4188.710210,2757.943793,-1258.350101,10881.027347
4188.710526,3907.087040,-370.102971,9844.739029
4188.710841,3677.258390,592.164754,8956.491898
4188.711156,4060.306139,1110.308913,8586.388927
4188.711472,3524.039291,888.247130,8142.265362
4188.711787,3370.820191,370.102971,7920.203579
4188.712102,1991.848295,-666.185348,7920.203579
4188.712418,1455.581446,-1628.453072,8586.388927
4188.712733,766.095498,-2960.823768,10214.842000
4188.713048,0.000000,-3997.112087,10658.965565
4188.713364,0.000000,-4219.173869,11547.212695
4188.713679,0.000000,-3849.070898,10732.986159
4188.713994,306.438199,-3775.050304,10288.862594
4188.714310,1302.362347,-1850.514855,9696.697840
4188.714625,1225.752797,-666.185348,8956.491898
4188.714940,1915.238745,370.102971,8068.244768
4188.715255,2145.067394,518.144159,7624.121203
4188.715571,2221.676944,888.247130,7772.162391
4188.715886,1915.238745,370.102971,8882.471304
4188.716201,1378.971896,370.102971,9474.636058
4188.716517,766.095498,-444.123565,10288.862594
4188.716832,612.876398,-1628.453072,10955.047942
4188.717147,1072.533697,-2664.741391,11621.233289
4188.717463,1378.971896,-3034.844362,11547.212695
4188.717778,1608.800546,-3256.906145,11251.130318
4188.718093,2374.896044,-2368.659014,10510.924376
4188.718409,2451.505594,-1998.556043,9770.718434
4188.718724,2528.115143,-1258.350101,8734.430116
4188.719039,2911.162892,-740.205942,7920.203579
4188.719355,3447.429741,-962.267725,7920.203579
4188.719670,3830.477490,-962.267725,7772.162391
4188.719985,3753.867940,-1258.350101,8068.244768
4188.720301,3677.258390,-2072.576638,9104.533087
4188.720616,3907.087040,-2664.741391,9696.697840
4188.720931,2987.772442,-2886.803174,10807.006753
4188.721246,3370.820191,-3478.967927,10732.986159
4188.721562,2911.162892,-2960.823768,10807.006753
4188.721877,2834.553343,-2812.782580,10732.986159
4188.722192,3217.601092,-2072.576638,10288.862594
4188.722508,3140.991542,-1924.535449,9622.677246
4188.722823,3677.258390,-1776.494261,9400.615463
4188.723138,3600.648841,-1554.432478,8808.450710
4188.723454,3753.867940,-2516.700203,9104.533087
4188.723769,3907.087040,-2886.803174,9548.656652
4188.724084,4136.915689,-3256.906145,9622.677246
4188.724400,3600.648841,-3256.906145,9770.718434
4188.724715,3370.820191,-3627.009116,9696.697840
4188.725030,2987.772442,-3182.885551,9844.739029
4188.725346,3217.601092,-3404.947333,9770.718434
4188.725661,2604.724693,-2812.782580,9548.656652
4188.725976,1838.629195,-2738.761985,9178.553681
4188.726291,1455.581446,-2294.638420,9178.553681
4188.726607,1149.143247,-2220.617826,9104.533087
4188.726922,1608.800546,-2368.659014,9622.677246
4188.727237,1532.190996,-2516.700203,9696.697840
4188.727553,1378.971896,-2664.741391,9696.697840
4188.727868,1608.800546,-2516.700203,10066.800811
4188.728183,1838.629195,-2664.741391,10362.883188
4188.728499,1685.410096,-2738.761985,10584.944971
4188.728814,2068.457845,-2442.679609,10140.821405
4188.729129,2145.067394,-2960.823768,9696.697840
4188.729445,2221.676944,-2738.761985,9696.697840
4188.729760,2451.505594,-2590.720797,8660.409521
4188.730075,2604.724693,-2368.659014,8290.306550
4188.730391,2528.115143,-2146.597232,8142.265362
4188.730706,2221.676944,-2294.638420,7846.182985
4188.731021,1991.848295,-2368.659014,7254.018232
4188.731336,1532.190996,-2664.741391,7698.141797
4188.731652,1072.533697,-2368.659014,8290.306550
4188.731967,153.219100,-2590.720797,8882.471304
4188.732282,-383.047749,-2590.720797,9400.615463
4188.732598,-766.095498,-2516.700203,9992.780217
4188.732913,-612.876398,-2146.597232,10288.862594
4188.733228,0.000000,-1924.535449,10807.006753
4188.733544,-229.828649,-1110.308913,11103.089130
4188.733859,383.047749,-1036.288319,11103.089130
4188.734174,1532.190996,-888.247130,10584.944971
4188.734490,2145.067394,-740.205942,10732.986159
4188.734805,2987.772442,-296.082377,10436.903782
4188.735120,4060.306139,-370.102971,9918.759623
4188.735436,4519.963438,-370.102971,9400.615463
4188.735751,4596.572988,-592.164754,8956.491898
4188.736066,4213.525239,-370.102971,8882.471304
4188.736381,3217.601092,-74.020594,8586.388927
4188.736697,2528.115143,-814.226536,8586.388927
4188.737012,1685.410096,-1110.308913,8586.388927
4188.737327,1072.533697,-1850.514855,9104.533087
4188.737643,306.438199,-2220.617826,10140.821405
4188.737958,0.000000,-2516.700203,11251.130318
4188.738273,612.876398,-2590.720797,11917.315666
4188.738589,1532.190996,-1998.556043,11917.315666
4188.738904,2834.553343,-1110.308913,12287.418637
4188.739219,4290.134789,-888.247130,12435.459826
4188.739535,5132.839837,592.164754,10584.944971
4188.739850,6435.202183,1702.473667,8956.491898
4188.740165,6052.154434,2886.803174,7476.080014
4188.740481,5362.668486,2812.782580,6513.812290
4188.740796,4060.306139,2146.597232,6513.812290
4188.741111,2374.896044,592.164754,7254.018232
4188.741426,842.705048,-1480.411884,8882.471304
4188.741742,-459.657299,-3923.091493,10881.027347
4188.742057,-919.314598,-5477.523971,12953.603985
4188.742372,-1149.143247,-6661.853478,14656.077652
4188.742688,-153.219100,-7105.977043,15026.180623
4188.743003,1915.238745,-6291.750507,13249.686362
4188.743318,3907.087040,-4071.132681,11029.068536
4188.743634,5592.497135,-148.041188,7179.997637
4188.743949,6741.640382,2294.638420,5033.400406
4188.744264,6741.640382,4071.132681,3478.967927
4188.744580,5975.544884,3701.029710,3108.864956
4188.744895,4213.525239,2368.659014,4737.318029
4188.745210,2145.067394,-0.000000,7328.038826
4188.745526,-153.219100,-3627.009116,10955.047942
4188.745841,-1225.752797,-7402.059420,13619.789333
4188.746156,-1532.190996,-9104.533087,14359.995275
4188.746471,-1225.752797,-9474.636058,15100.201217
4188.746787,-536.266849,-7698.141797,14211.954086
4188.747102,612.876398,-5033.400406,11695.253884
4188.747417,3217.601092,-1332.370696,8586.388927
4188.747733,4443.353888,1776.494261,5995.668130
4188.748048,4443.353888,3256.906145,4515.256246
4188.748363,4213.525239,2442.679609,4811.338623
4188.748679,3600.648841,666.185348,6217.729913
4188.748994,3524.039291,-1480.411884,7846.182985
4188.749309,2757.943793,-3034.844362,9622.677246
4188.749625,1072.533697,-4589.276840,11103.089130
4188.749940,306.438199,-6513.812290,12509.480420
4188.750255,383.047749,-6587.832884,13027.624579
4188.750571,306.438199,-5255.462188,12435.459826
4188.750886,-306.438199,-4441.235652,11325.150913
4188.751201,-919.314598,-2590.720797,10066.800811
4188.751516,0.000000,-1998.556043,8586.388927
4188.751832,766.095498,-2072.576638,6957.935855
4188.752147,1608.800546,-1554.432478,6735.874072
4188.752462,1302.362347,-814.226536,6809.894666
4188.752778,1838.629195,-666.185348,8142.265362
4188.753093,2221.676944,-1332.370696,9622.677246
4188.753408,2298.286494,-1554.432478,11399.171507
4188.753724,2145.067394,-2960.823768,12657.521608
4188.754039,2911.162892,-4293.194464,12287.418637
4188.754354,3600.648841,-4441.235652,11695.253884
4188.754670,3830.477490,-4515.256246,10214.842000
4188.754985,3677.258390,-2812.782580,8808.450710
4188.755300,3600.648841,-1184.329507,6809.894666
4188.755616,2834.553343,666.185348,5847.626942
4188.755931,1532.190996,518.144159,6661.853478
4188.756246,1378.971896,-148.041188,7105.977043
4188.756562,842.705048,-1258.350101,8216.285956
4188.756877,459.657299,-2738.761985,9474.636058
4188.757192,842.705048,-4737.318029,11843.295072
4188.757507,1762.019645,-4441.235652,12953.603985
4188.757823,2068.457845,-3849.070898,13323.706956
4188.758138,2451.505594,-2294.638420,12805.562797
4188.758453,3983.696590,-0.000000,10955.047942
4188.758769,4979.620737,2072.576638,9030.512492
4188.759084,6128.763984,2516.700203,7624.121203
4188.759399,6358.592633,2516.700203,6587.832884
4188.759715,4060.306139,2072.576638,7031.956449
4188.760030,2987.772442,444.123565,7328.038826
4188.760345,1991.848295,-888.247130,8660.409521
4188.760661,1302.362347,-2368.659014,9178.553681
4188.760976,612.876398,-3997.112087,10658.965565
4188.761291,612.876398,-4737.318029,12139.377449
4188.761607,0.000000,-4737.318029,12361.439231
4188.761922,-306.438199,-3034.844362,12213.398043
4188.762237,-842.705048,-2368.659014,12065.356855
4188.762553,0.000000,-74.020594,10214.842000
4188.762868,1762.019645,1332.370696,8512.368333
4188.763184,3447.429741,1702.473667,7105.977043
4188.763499,3907.087040,2590.720797,6735.874072
4188.763814,2451.505594,2664.741391,7031.956449
4188.764130,919.314598,1702.473667,8216.285956
4188.764445,-153.219100,1406.391290,9326.594869
4188.764760,-536.266849,-370.102971,10362.883188
4188.765076,-229.828649,-2368.659014,10807.006753
4188.765391,-612.876398,-4145.153275,11547.212695
4188.765706,-2145.067394,-4145.153275,12139.377449
4188.766022,-2681.334243,-3849.070898,11917.315666
4188.766337,-2681.334243,-2368.659014,11251.130318
4188.766652,-1378.971896,-148.041188,9030.512492
4188.766968,919.314598,444.123565,7698.141797
4188.767283,2681.334243,1850.514855,6513.812290
4188.767598,2528.115143,2220.617826,6365.771101
4188.767914,1149.143247,1850.514855,7624.121203
4188.768229,229.828649,666.185348,8882.471304
4188.768544,536.266849,888.247130,9104.533087
4188.768860,1302.362347,-592.164754,10510.924376
4188.769175,1302.362347,-1184.329507,10807.006753
4188.769491,229.828649,-1554.432478,11695.253884
4188.769806,-1915.238745,-1924.535449,12287.418637
4188.770121,-2834.553343,-1110.308913,11769.274478
4188.770437,-2528.115143,222.061783,10584.944971
4188.770752,-689.485948,444.123565,9400.615463
4188.771067,1378.971896,1184.329507,8216.285956
4188.771383,1072.533697,1258.350101,7698.141797
4188.771698,689.485948,888.247130,8438.347739
4188.772013,459.657299,518.144159,9844.739029
4188.772329,766.095498,888.247130,9844.739029
4188.772644,2221.676944,666.185348,10510.924376
4188.772959,3140.991542,518.144159,9844.739029
4188.773275,2298.286494,-0.000000,10807.006753
4188.773590,536.266849,-888.247130,11325.150913
4188.773905,-689.485948,-962.267725,11177.109724
4188.774221,306.438199,222.061783,9918.759623
4188.774536,2068.457845,-0.000000,9030.512492
4188.774852,2911.162892,740.205942,8216.285956
4188.775167,1838.629195,962.267725,8290.306550
4188.775482,459.657299,296.082377,9104.533087
4188.775798,-612.876398,-370.102971,9992.780217
4188.776113,459.657299,-666.185348,9474.636058
4188.776428,1608.800546,-666.185348,10362.883188
4188.776744,1991.848295,-666.185348,9770.718434
4188.777059,1225.752797,-888.247130,10584.944971
