#time,accel_x,accel_y,accel_z
4103.713684,-2145.067394,296.082377,9992.780217
4103.714000,-1915.238745,222.061783,9474.636058
4103.714315,-1532.190996,518.144159,8956.491898
4103.714630,-1149.143247,518.144159,8808.450710
4103.714945,-612.876398,666.185348,8808.450710
4103.715260,-459.657299,814.226536,8882.471304
4103.715575,-229.828649,370.102971,9030.512492
4103.715890,-306.438199,814.226536,8808.450710
4103.716205,-612.876398,666.185348,8882.471304
4103.716520,-536.266849,296.082377,8882.471304
4103.716835,-919.314598,148.041188,8956.491898
4103.717151,-1149.143247,-74.020594,8956.491898
4103.717466,-1149.143247,-148.041188,9030.512492
4103.717781,-1378.971896,-222.061783,9178.553681
4103.718096,-1149.143247,-296.082377,9326.594869
4103.718411,-842.705048,-592.164754,9474.636058
4103.718726,-1149.143247,-592.164754,8882.471304
4103.719041,-536.266849,-370.102971,9178.553681
4103.719356,0.000000,-148.041188,9474.636058
4103.719671,0.000000,-296.082377,9548.656652
4103.719986,153.219100,-0.000000,9252.574275
4103.720301,383.047749,-74.020594,9474.636058
4103.720617,842.705048,-0.000000,9252.574275
4103.720932,1225.752797,222.061783,8956.491898
4103.721247,1378.971896,-0.000000,8586.388927
4103.721562,919.314598,-0.000000,8660.409521
4103.721877,1072.533697,-0.000000,9104.533087
4103.722192,612.876398,-370.102971,9548.656652
4103.722507,919.314598,-296.082377,9548.656652
4103.722822,842.705048,-444.123565,9918.759623
4103.723137,689.485948,-518.144159,9918.759623
4103.723452,459.657299,-370.102971,9992.780217
4103.723768,76.609550,-370.102971,9770.718434
4103.724083,459.657299,-296.082377,9992.780217
4103.724398,689.485948,222.061783,9918.759623
4103.724713,306.438199,444.123565,9770.718434
4103.725028,76.609550,518.144159,10140.821405
4103.725343,229.828649,888.247130,9770.718434
4103.725658,-229.828649,592.164754,10066.800811
4103.725973,-536.266849,444.123565,10288.862594
4103.726288,-459.657299,296.082377,10140.821405
4103.726603,-229.828649,444.123565,10288.862594
4103.726919,-153.219100,370.102971,10140.821405
4103.727234,-229.828649,518.144159,10214.842000
4103.727549,-383.047749,592.164754,9770.718434
4103.727864,-536.266849,1036.288319,9696.697840
4103.728179,-306.438199,1332.370696,9252.574275
4103.728494,-459.657299,740.205942,8956.491898
4103.728809,229.828649,962.267725,9178.553681
4103.729124,0.000000,370.102971,9474.636058
4103.729439,-459.657299,370.102971,9696.697840
4103.729754,-383.047749,740.205942,9548.656652
4103.730070,-229.828649,296.082377,9474.636058
4103.730385,306.438199,740.205942,9696.697840
4103.730700,76.609550,888.247130,9474.636058
4103.731015,459.657299,666.185348,9252.574275
4103.731330,536.266849,740.205942,9474.636058
4103.731645,459.657299,1184.329507,9400.615463
4103.731960,229.828649,888.247130,9030.512492
4103.732275,306.438199,888.247130,9400.615463
4103.732590,459.657299,962.267725,9622.677246
4103.732905,536.266849,148.041188,9622.677246
4103.733221,306.438199,296.082377,9622.677246
4103.733536,459.657299,-0.000000,9844.739029
4103.733851,459.657299,-0.000000,9770.718434
4103.734166,153.219100,-0.000000,9622.677246
4103.734481,612.876398,-0.000000,9696.697840
4103.734796,459.657299,-74.020594,9918.759623
4103.735111,536.266849,-0.000000,9918.759623
4103.735426,306.438199,-0.000000,9696.697840
4103.735741,229.828649,-0.000000,10214.842000
4103.736056,689.485948,-148.041188,9844.739029
4103.736371,842.705048,-222.061783,9918.759623
4103.736687,459.657299,-148.041188,9844.739029
4103.737002,536.266849,-296.082377,9770.718434
4103.737317,1225.752797,-222.061783,9918.759623
4103.737632,536.266849,-148.041188,10066.800811
4103.737947,689.485948,-222.061783,9770.718434
4103.738262,0.000000,-444.123565,9770.718434
4103.738577,0.000000,-518.144159,9474.636058
4103.738892,76.609550,-444.123565,9770.718434
4103.739207,0.000000,-666.185348,9400.615463
4103.739522,0.000000,-666.185348,9252.574275
4103.739838,-153.219100,-666.185348,9844.739029
4103.740153,-153.219100,-518.144159,9770.718434
4103.740468,-383.047749,-518.144159,9252.574275
4103.740783,0.000000,-370.102971,9400.615463
4103.741098,0.000000,-518.144159,9252.574275
4103.741413,0.000000,-0.000000,9326.594869
4103.741728,459.657299,-0.000000,9326.594869
4103.742043,153.219100,-148.041188,9696.697840
4103.742358,0.000000,-222.061783,9030.512492
4103.742673,0.000000,-74.020594,8882.471304
4103.742989,-459.657299,-148.041188,9326.594869
4103.743304,76.609550,-148.041188,9400.615463
4103.743619,76.609550,-74.020594,9178.553681
4103.743934,-229.828649,-148.041188,9400.615463
4103.744249,0.000000,-0.000000,9622.677246
4103.744564,153.219100,148.041188,9474.636058
4103.744879,229.828649,-148.041188,9622.677246
4103.745194,76.609550,-0.000000,9474.636058
4103.745509,459.657299,-0.000000,9696.697840
4103.745824,0.000000,-0.000000,9548.656652
4103.746140,306.438199,-0.000000,9696.697840
4103.746455,153.219100,-0.000000,9696.697840
4103.746770,229.828649,74.020594,9844.739029
4103.747085,0.000000,-0.000000,9992.780217
4103.747400,0.000000,-0.000000,9696.697840
4103.747715,76.609550,444.123565,9696.697840
4103.748030,229.828649,592.164754,9770.718434
4103.748345,306.438199,296.082377,9992.780217
4103.748660,229.828649,296.082377,9770.718434
4103.748975,76.609550,444.123565,9844.739029
4103.749291,-306.438199,-0.000000,9918.759623
4103.749606,0.000000,148.041188,10214.842000
4103.749921,306.438199,222.061783,9770.718434
4103.750236,229.828649,296.082377,9770.718434
4103.750551,0.000000,296.082377,10362.883188
4103.750866,76.609550,296.082377,9918.759623
4103.751181,0.000000,666.185348,9622.677246
4103.751496,383.047749,370.102971,9474.636058
4103.751811,0.000000,592.164754,9770.718434
4103.752126,76.609550,666.185348,9770.718434
4103.752441,229.828649,666.185348,9622.677246
4103.752757,766.095498,296.082377,10288.862594
4103.753072,612.876398,-0.000000,9474.636058
4103.753387,229.828649,444.123565,9326.594869
4103.753702,0.000000,518.144159,9844.739029
4103.754017,0.000000,370.102971,9770.718434
4103.754332,0.000000,518.144159,9400.615463
4103.754647,0.000000,296.082377,9474.636058
4103.754962,-229.828649,296.082377,9474.636058
4103.755277,0.000000,518.144159,9400.615463
4103.755592,-306.438199,592.164754,9400.615463
4103.755908,0.000000,296.082377,9622.677246
4103.756223,153.219100,592.164754,9326.594869
4103.756538,153.219100,666.185348,9252.574275
4103.756853,0.000000,666.185348,9474.636058
4103.757168,0.000000,296.082377,9474.636058
4103.757483,459.657299,518.144159,9104.533087
4103.757798,76.609550,444.123565,9326.594869
4103.758113,0.000000,-0.000000,9474.636058
4103.758428,0.000000,296.082377,9474.636058
4103.758743,76.609550,-0.000000,9178.553681
4103.759059,383.047749,-0.000000,9474.636058
4103.759374,459.657299,74.020594,9548.656652
4103.759689,153.219100,-74.020594,9326.594869
4103.760004,0.000000,-74.020594,9326.594869
4103.760319,383.047749,-74.020594,9622.677246
4103.760634,459.657299,-222.061783,8734.430116
4103.760949,229.828649,-148.041188,9326.594869
4103.761265,76.609550,-148.041188,9696.697840
4103.761580,383.047749,-148.041188,9474.636058
4103.761896,919.314598,-148.041188,9474.636058
4103.762211,459.657299,-296.082377,9474.636058
4103.762526,229.828649,-0.000000,9622.677246
4103.762842,306.438199,-148.041188,9474.636058
4103.763157,153.219100,-222.061783,9474.636058
4103.763473,153.219100,-222.061783,9770.718434
4103.763788,76.609550,-370.102971,9474.636058
4103.764103,0.000000,-370.102971,9326.594869
4103.764419,0.000000,-296.082377,9474.636058
4103.764734,76.609550,-296.082377,9548.656652
4103.765050,-459.657299,-222.061783,9770.718434
4103.765365,229.828649,-148.041188,9474.636058
4103.765680,0.000000,-0.000000,9548.656652
4103.765996,76.609550,-0.000000,9474.636058
4103.766311,76.609550,-0.000000,9104.533087
4103.766627,306.438199,74.020594,9474.636058
4103.766942,153.219100,222.061783,9474.636058
4103.767257,76.609550,296.082377,9474.636058
4103.767573,0.000000,296.082377,9548.656652
4103.767888,383.047749,296.082377,9474.636058
4103.768204,0.000000,222.061783,9474.636058
4103.768519,0.000000,592.164754,9622.677246
4103.768834,383.047749,592.164754,9770.718434
4103.769150,229.828649,592.164754,9400.615463
4103.769465,76.609550,444.123565,9474.636058
4103.769781,0.000000,370.102971,9918.759623
4103.770096,153.219100,518.144159,9770.718434
4103.770411,0.000000,296.082377,9548.656652
4103.770727,0.000000,222.061783,9770.718434
4103.771042,0.000000,296.082377,9696.697840
4103.771358,459.657299,296.082377,9548.656652
4103.771673,306.438199,666.185348,9548.656652
4103.771988,0.000000,370.102971,9918.759623
4103.772304,76.609550,444.123565,9622.677246
4103.772619,153.219100,592.164754,9844.739029
4103.772935,383.047749,-0.000000,9918.759623
4103.773250,383.047749,148.041188,9918.759623
4103.773565,229.828649,444.123565,9844.739029
4103.773881,229.828649,370.102971,9992.780217
4103.774196,459.657299,-0.000000,9548.656652
4103.774512,0.000000,-0.000000,9770.718434
4103.774827,383.047749,222.061783,9770.718434
4103.775142,383.047749,444.123565,10214.842000
4103.775458,153.219100,370.102971,9992.780217
4103.775773,612.876398,-0.000000,10066.800811
4103.776089,229.828649,296.082377,9992.780217
4103.776404,306.438199,148.041188,9918.759623
4103.776719,383.047749,222.061783,9548.656652
4103.777035,229.828649,222.061783,9622.677246
4103.777350,306.438199,148.041188,9770.718434
4103.777666,229.828649,518.144159,9474.636058
4103.777981,383.047749,518.144159,9474.636058
4103.778296,0.000000,370.102971,9696.697840
4103.778612,153.219100,74.020594,9844.739029
4103.778927,0.000000,370.102971,9696.697840
4103.779243,0.000000,370.102971,9474.636058
4103.779558,0.000000,222.061783,9696.697840
4103.779873,0.000000,444.123565,9548.656652
4103.780189,-306.438199,-0.000000,9474.636058
4103.780504,76.609550,222.061783,9548.656652
4103.780820,0.000000,370.102971,9474.636058
4103.781135,0.000000,148.041188,9474.636058
4103.781450,-153.219100,-0.000000,9400.615463
4103.781766,0.000000,-0.000000,9548.656652
4103.782081,76.609550,-74.020594,8956.491898
4103.782397,0.000000,-0.000000,9326.594869
4103.782712,0.000000,148.041188,9548.656652
4103.783027,0.000000,-0.000000,9400.615463
4103.783343,229.828649,-0.000000,9030.512492
4103.783658,229.828649,-0.000000,9326.594869
4103.783974,76.609550,-444.123565,9400.615463
4103.784289,0.000000,-0.000000,9474.636058
4103.784604,306.438199,-296.082377,9400.615463
4103.784920,76.609550,-74.020594,9474.636058
4103.785235,383.047749,-370.102971,9400.615463
4103.785551,76.609550,-814.226536,9548.656652
4103.785866,0.000000,-222.061783,9770.718434
4103.786181,306.438199,-296.082377,9474.636058
4103.786497,229.828649,-74.020594,9844.739029
4103.786812,306.438199,-148.041188,9696.697840
4103.787128,306.438199,-74.020594,9770.718434
4103.787443,76.609550,-148.041188,9548.656652
4103.787758,229.828649,-74.020594,9474.636058
4103.788074,383.047749,-296.082377,9696.697840
4103.788389,306.438199,-74.020594,9474.636058
4103.788705,229.828649,-222.061783,9992.780217
4103.789020,0.000000,-0.000000,9474.636058
4103.789335,0.000000,-0.000000,9770.718434
4103.789651,0.000000,-74.020594,9918.759623
4103.789966,153.219100,-0.000000,9326.594869
4103.790282,0.000000,-0.000000,9770.718434
4103.790597,-306.438199,296.082377,9474.636058
4103.790912,0.000000,-0.000000,9474.636058
4103.791228,306.438199,296.082377,9326.594869
4103.791543,0.000000,-74.020594,9326.594869
4103.791859,-383.047749,444.123565,9696.697840
4103.792174,-153.219100,370.102971,9400.615463
4103.792489,0.000000,222.061783,9474.636058
4103.792805,76.609550,-0.000000,9474.636058
4103.793120,153.219100,370.102971,9474.636058
4103.793436,0.000000,-0.000000,9696.697840
4103.793751,0.000000,518.144159,9326.594869
4103.794066,153.219100,444.123565,9548.656652
4103.794382,76.609550,-0.000000,9104.533087
4103.794697,153.219100,222.061783,9548.656652
4103.795013,0.000000,370.102971,9548.656652
4103.795328,76.609550,296.082377,9474.636058
4103.795643,536.266849,518.144159,9622.677246
4103.795959,0.000000,296.082377,9696.697840
4103.796274,0.000000,296.082377,9548.656652
4103.796589,0.000000,296.082377,9622.677246
4103.796905,76.609550,222.061783,9548.656652
4103.797220,383.047749,-0.000000,9992.780217
4103.797536,229.828649,-0.000000,9474.636058
4103.797851,306.438199,370.102971,9696.697840
4103.798166,229.828649,-0.000000,9696.697840
4103.798482,383.047749,444.123565,9622.677246
4103.798797,383.047749,-0.000000,9548.656652
4103.799113,536.266849,-148.041188,9844.739029
4103.799428,383.047749,444.123565,10140.821405
4103.799743,76.609550,370.102971,9844.739029
4103.800059,153.219100,148.041188,9548.656652
4103.800374,0.000000,-0.000000,9770.718434
4103.800690,306.438199,-148.041188,9622.677246
4103.801005,0.000000,592.164754,10214.842000
4103.801320,76.609550,-0.000000,9696.697840
4103.801636,0.000000,222.061783,9770.718434
4103.801951,229.828649,-0.000000,9844.739029
4103.802267,0.000000,-0.000000,9548.656652
4103.802582,-153.219100,222.061783,9918.759623
4103.802897,0.000000,-0.000000,9622.677246
4103.803213,153.219100,-0.000000,9474.636058
4103.803528,229.828649,-370.102971,9400.615463
4103.803844,229.828649,-0.000000,9770.718434
4103.804159,-76.609550,518.144159,9252.574275
4103.804474,0.000000,-0.000000,9104.533087
4103.804790,76.609550,-0.000000,9326.594869
4103.805105,229.828649,-0.000000,9252.574275
4103.805421,0.000000,-148.041188,9474.636058
4103.805736,229.828649,296.082377,9474.636058
4103.806051,76.609550,222.061783,9400.615463
4103.806367,76.609550,296.082377,9252.574275
4103.806682,76.609550,-74.020594,9474.636058
4103.806998,383.047749,-148.041188,9326.594869
4103.807313,0.000000,-74.020594,9548.656652
4103.807628,0.000000,-0.000000,9474.636058
4103.807944,0.000000,-74.020594,9474.636058
4103.808259,76.609550,-0.000000,9474.636058
4103.808575,383.047749,-0.000000,9548.656652
4103.808890,0.000000,-148.041188,9770.718434
4103.809205,153.219100,-0.000000,9252.574275
4103.809521,383.047749,-0.000000,9622.677246
4103.809836,229.828649,-0.000000,9548.656652
4103.810152,0.000000,-0.000000,9622.677246
4103.810467,76.609550,-148.041188,9696.697840
4103.810782,0.000000,-0.000000,9844.739029
4103.811098,153.219100,-148.041188,9548.656652
4103.811413,0.000000,-0.000000,9844.739029
4103.811729,229.828649,-0.000000,9918.759623
4103.812044,0.000000,148.041188,9770.718434
4103.812359,76.609550,148.041188,9844.739029
4103.812675,153.219100,222.061783,9770.718434
4103.812990,76.609550,222.061783,9622.677246
4103.813306,0.000000,-0.000000,9696.697840
4103.813621,-229.828649,518.144159,9918.759623
4103.813936,0.000000,296.082377,9474.636058
4103.814252,0.000000,148.041188,9474.636058
4103.814567,0.000000,222.061783,9474.636058
4103.814883,229.828649,-0.000000,9400.615463
4103.815198,153.219100,370.102971,9548.656652
4103.815513,0.000000,74.020594,9696.697840
4103.815829,0.000000,296.082377,9548.656652
4103.816144,0.000000,444.123565,9326.594869
4103.816460,0.000000,444.123565,9474.636058
4103.816775,0.000000,444.123565,9400.615463
4103.817090,306.438199,444.123565,9474.636058
4103.817406,229.828649,370.102971,9474.636058
4103.817721,306.438199,296.082377,9252.574275
4103.818037,153.219100,370.102971,9622.677246
4103.818352,0.000000,592.164754,9548.656652
4103.818667,76.609550,444.123565,9474.636058
4103.818983,0.000000,518.144159,9622.677246
4103.819298,0.000000,-0.000000,9548.656652
4103.819614,459.657299,222.061783,10066.800811
4103.819929,153.219100,370.102971,9622.677246
4103.820244,229.828649,296.082377,9474.636058
4103.820560,229.828649,296.082377,9548.656652
4103.820875,383.047749,370.102971,9918.759623
4103.821191,229.828649,222.061783,10066.800811
4103.821506,76.609550,518.144159,9696.697840
4103.821821,76.609550,-0.000000,9696.697840
4103.822137,76.609550,-0.000000,9622.677246
4103.822452,229.828649,740.205942,9992.780217
4103.822768,306.438199,444.123565,10510.924376
4103.823083,536.266849,-0.000000,9844.739029
4103.823398,0.000000,222.061783,9770.718434
4103.823714,0.000000,148.041188,9696.697840
4103.824029,-995.924147,-0.000000,9622.677246
4103.824345,0.000000,-0.000000,9770.718434
4103.824660,0.000000,-0.000000,9474.636058
4103.824975,0.000000,-0.000000,9696.697840
4103.825291,0.000000,222.061783,9474.636058
4103.825606,76.609550,-0.000000,9474.636058
4103.825922,0.000000,222.061783,9622.677246
4103.826237,76.609550,222.061783,9474.636058
4103.826552,229.828649,-0.000000,9474.636058
4103.826868,0.000000,-148.041188,9326.594869
4103.827183,766.095498,-0.000000,9696.697840
4103.827499,0.000000,-0.000000,9474.636058
4103.827814,153.219100,-0.000000,9474.636058
4103.828129,229.828649,-74.020594,9622.677246
4103.828445,0.000000,-0.000000,9326.594869
4103.828760,153.219100,-148.041188,9474.636058
4103.829076,229.828649,-0.000000,9104.533087
4103.829391,153.219100,-0.000000,9548.656652
4103.829706,229.828649,222.061783,9548.656652
4103.830022,0.000000,148.041188,9178.553681
4103.830337,0.000000,-592.164754,10066.800811
4103.830653,0.000000,-0.000000,9548.656652
4103.830968,229.828649,-0.000000,9178.553681
4103.831283,229.828649,-0.000000,9622.677246
4103.831599,76.609550,-0.000000,9696.697840
4103.831914,306.438199,-148.041188,9622.677246
4103.832230,0.000000,-0.000000,9474.636058
4103.832545,76.609550,-0.000000,9770.718434
4103.832860,229.828649,-0.000000,9622.677246
4103.833176,229.828649,592.164754,9696.697840
4103.833491,-76.609550,-0.000000,9696.697840
4103.833807,-306.438199,-0.000000,9622.677246
4103.834122,0.000000,-0.000000,9548.656652
4103.834437,0.000000,-0.000000,9548.656652
4103.834753,-229.828649,222.061783,9770.718434
4103.835068,-229.828649,-0.000000,9696.697840
4103.835384,229.828649,-0.000000,9474.636058
4103.835699,229.828649,-0.000000,9696.697840
4103.836014,0.000000,-0.000000,9474.636058
4103.836330,0.000000,-0.000000,9252.574275
4103.836645,229.828649,296.082377,9696.697840
4103.836961,383.047749,296.082377,9474.636058
4103.837276,229.828649,-0.000000,9548.656652
4103.837591,229.828649,-0.000000,9548.656652
4103.837907,229.828649,-0.000000,9474.636058
4103.838222,-153.219100,222.061783,9474.636058
4103.838538,153.219100,-0.000000,9622.677246
4103.838853,229.828649,-0.000000,9474.636058
4103.839168,383.047749,-0.000000,9474.636058
4103.839484,76.609550,444.123565,9474.636058
4103.839799,76.609550,296.082377,9474.636058
4103.840115,153.219100,-0.000000,9548.656652
4103.840430,536.266849,296.082377,9844.739029
4103.840745,229.828649,222.061783,9622.677246
4103.841061,229.828649,-0.000000,9622.677246
4103.841376,153.219100,296.082377,9770.718434
4103.841692,229.828649,296.082377,9474.636058
4103.842007,229.828649,148.041188,9844.739029
4103.842322,0.000000,296.082377,9548.656652
4103.842638,306.438199,222.061783,9992.780217
4103.842953,-229.828649,222.061783,9918.759623
4103.843269,0.000000,296.082377,9622.677246
4103.843584,0.000000,-0.000000,9548.656652
4103.843899,0.000000,518.144159,9548.656652
4103.844215,0.000000,370.102971,9992.780217
4103.844530,0.000000,-74.020594,9696.697840
4103.844845,-76.609550,-0.000000,9548.656652
4103.845161,0.000000,296.082377,9622.677246
4103.845476,0.000000,148.041188,9474.636058
4103.845792,229.828649,222.061783,9696.697840
4103.846107,76.609550,-0.000000,9474.636058
4103.846422,153.219100,296.082377,9474.636058
4103.846738,0.000000,-0.000000,9474.636058
4103.847053,-229.828649,-0.000000,9474.636058
4103.847369,0.000000,370.102971,9770.718434
4103.847684,153.219100,296.082377,9474.636058
4103.847999,229.828649,-0.000000,9474.636058
4103.848315,306.438199,-0.000000,9400.615463
4103.848630,153.219100,-0.000000,9252.574275
4103.848946,76.609550,-0.000000,9474.636058
4103.849261,0.000000,-0.000000,9474.636058
4103.849576,229.828649,-0.000000,9548.656652
4103.849892,153.219100,-0.000000,9400.615463
4103.850207,76.609550,-0.000000,9326.594869
4103.850523,0.000000,-0.000000,9474.636058
4103.850838,153.219100,-0.000000,9400.615463
4103.851153,0.000000,-74.020594,9548.656652
4103.851469,153.219100,-0.000000,9622.677246
4103.851784,383.047749,-0.000000,9770.718434
4103.852100,383.047749,-222.061783,9474.636058
4103.852415,306.438199,-0.000000,9474.636058
4103.852730,153.219100,-0.000000,9696.697840
4103.853046,0.000000,296.082377,9770.718434
4103.853361,229.828649,148.041188,9770.718434
4103.853677,76.609550,-296.082377,9770.718434
4103.853992,0.000000,-148.041188,9918.759623
4103.854307,0.000000,-0.000000,9844.739029
4103.854623,-306.438199,222.061783,9548.656652
4103.854938,76.609550,222.061783,9696.697840
4103.855254,0.000000,-0.000000,9696.697840
4103.855569,-229.828649,-0.000000,9548.656652
4103.855884,0.000000,-0.000000,9548.656652
4103.856200,0.000000,370.102971,9696.697840
4103.856515,459.657299,-74.020594,9770.718434
4103.856831,536.266849,-0.000000,9696.697840
4103.857146,0.000000,-74.020594,9400.615463
4103.857461,-229.828649,74.020594,9474.636058
4103.857777,-153.219100,148.041188,9622.677246
4103.858092,0.000000,-0.000000,9474.636058
4103.858408,0.000000,370.102971,9548.656652
4103.858723,153.219100,-0.000000,9326.594869
4103.859038,229.828649,370.102971,9326.594869
4103.859354,0.000000,296.082377,9474.636058
4103.859669,0.000000,148.041188,9474.636058
4103.859985,459.657299,518.144159,9474.636058
4103.860300,153.219100,74.020594,9474.636058
4103.860615,0.000000,222.061783,9400.615463
4103.860931,0.000000,296.082377,9474.636058
4103.861246,76.609550,-222.061783,9622.677246
4103.861562,0.000000,148.041188,9474.636058
4103.861877,229.828649,222.061783,9696.697840
4103.862192,229.828649,370.102971,9622.677246
4103.862507,76.609550,444.123565,10066.800811
4103.862823,0.000000,370.102971,9326.594869
4103.863138,153.219100,-0.000000,9252.574275
4103.863453,383.047749,666.185348,10066.800811
4103.863768,76.609550,518.144159,9696.697840
4103.864084,-306.438199,370.102971,10066.800811
4103.864399,-306.438199,-0.000000,10140.821405
4103.864714,0.000000,-0.000000,10140.821405
4103.865029,0.000000,148.041188,10066.800811
4103.865345,-459.657299,592.164754,9770.718434
4103.865660,-153.219100,296.082377,9844.739029
4103.865975,0.000000,592.164754,9474.636058
4103.866290,-76.609550,962.267725,9178.553681
4103.866606,-766.095498,1110.308913,9178.553681
4103.866921,-766.095498,814.226536,9474.636058
4103.867236,-1302.362347,740.205942,9252.574275
4103.867551,-1685.410096,962.267725,9548.656652
4103.867867,-1608.800546,666.185348,9548.656652
4103.868182,-2145.067394,370.102971,9622.677246
4103.868497,-1762.019645,518.144159,10510.924376
4103.868812,-1915.238745,592.164754,9770.718434
4103.869128,-1991.848295,962.267725,9474.636058
4103.869443,-1915.238745,1480.411884,9474.636058
4103.869758,-1915.238745,1998.556043,8956.491898
4103.870073,-2298.286494,2368.659014,8586.388927
4103.870389,-2298.286494,1924.535449,8808.450710
4103.870704,-2451.505594,2220.617826,8660.409521
4103.871019,-2451.505594,2146.597232,8586.388927
4103.871334,-2681.334243,2072.576638,8586.388927
4103.871650,-2681.334243,1850.514855,8808.450710
4103.871965,-3140.991542,1924.535449,9326.594869
4103.872280,-3217.601092,1480.411884,9400.615463
4103.872595,-3217.601092,1924.535449,9696.697840
4103.872911,-2987.772442,2294.638420,9918.759623
4103.873226,-2834.553343,2738.761985,9992.780217
4103.873541,-2834.553343,3404.947333,9326.594869
4103.873857,-2451.505594,3478.967927,9178.553681
4103.874172,-2221.676944,4219.173869,9770.718434
4103.874487,-2451.505594,4367.215058,9474.636058
4103.874802,-2451.505594,4737.318029,9548.656652
4103.875118,-2298.286494,4885.359217,9474.636058
4103.875433,-2604.724693,4737.318029,9548.656652
4103.875748,-2681.334243,4441.235652,9770.718434
4103.876063,-3217.601092,4071.132681,10288.862594
4103.876379,-3370.820191,3849.070898,10510.924376
4103.876694,-2987.772442,3627.009116,10510.924376
4103.877009,-2834.553343,3627.009116,10436.903782
4103.877324,-2451.505594,3478.967927,10584.944971
4103.877640,-2221.676944,3849.070898,10510.924376
4103.877955,-1608.800546,4219.173869,10510.924376
4103.878270,-842.705048,4589.276840,9622.677246
4103.878585,306.438199,4663.297435,9326.594869
4103.878901,459.657299,4811.338623,9400.615463
4103.879216,383.047749,4589.276840,9548.656652
4103.879531,-306.438199,4663.297435,9548.656652
4103.879846,0.000000,4367.215058,9622.677246
4103.880162,-383.047749,3552.988522,10214.842000
4103.880477,-766.095498,3256.906145,10732.986159
4103.880792,-1532.190996,2516.700203,11177.109724
4103.881107,-1991.848295,2590.720797,10807.006753
4103.881423,-2145.067394,2738.761985,10658.965565
4103.881738,-2604.724693,2664.741391,10066.800811
4103.882053,-2298.286494,2590.720797,9474.636058
4103.882368,-2298.286494,2442.679609,9844.739029
4103.882684,-1991.848295,2442.679609,9474.636058
4103.882999,-1991.848295,2442.679609,9474.636058
4103.883314,-1608.800546,2294.638420,9992.780217
4103.883629,-1455.581446,2072.576638,10436.903782
4103.883945,-1149.143247,1110.308913,10732.986159
4103.884260,-1072.533697,1258.350101,10288.862594
4103.884575,-536.266849,592.164754,10288.862594
4103.884890,0.000000,1110.308913,10214.842000
4103.885206,-536.266849,1036.288319,9326.594869
4103.885521,306.438199,1184.329507,8586.388927
4103.885836,0.000000,1480.411884,7698.141797
4103.886151,-919.314598,1406.391290,7328.038826
4103.886467,-1532.190996,1110.308913,7105.977043
4103.886782,-2987.772442,1110.308913,7254.018232
4103.887097,-3524.039291,666.185348,7994.224174
4103.887412,-3294.210641,-592.164754,9844.739029
4103.887728,-4060.306139,-0.000000,9030.512492
4103.888043,-4826.401637,-962.267725,9622.677246
4103.888358,-4673.182538,-814.226536,10658.965565
4103.888673,-3524.039291,-1554.432478,11325.150913
4103.888989,-2681.334243,-592.164754,11103.089130
4103.889304,-1455.581446,-74.020594,10288.862594
4103.889619,-536.266849,1258.350101,9992.780217
4103.889934,153.219100,2294.638420,9548.656652
4103.890250,689.485948,3849.070898,8068.244768
4103.890565,153.219100,4145.153275,6957.935855
4103.890880,-536.266849,4663.297435,6291.750507
4103.891195,-1302.362347,3775.050304,7254.018232
4103.891511,-3140.991542,2072.576638,7328.038826
4103.891826,-4060.306139,-444.123565,9992.780217
4103.892141,-5362.668486,-1850.514855,10436.903782
4103.892456,-6588.421283,-3552.988522,11251.130318
4103.892772,-6665.030833,-3923.091493,12805.562797
4103.893087,-5439.278036,-3404.947333,13249.686362
4103.893402,-3217.601092,-2220.617826,11843.295072
4103.893717,-995.924147,-0.000000,9844.739029
4103.894033,842.705048,3478.967927,8364.327145
4103.894348,2068.457845,6143.709319,6809.894666
4103.894663,2757.943793,7698.141797,4959.379811
4103.894979,2681.334243,7846.182985,4293.194464
4103.895294,1455.581446,7476.080014,4737.318029
4103.895609,-766.095498,5255.462188,8142.265362
4103.895924,-2528.115143,1480.411884,11177.109724
4103.896240,-4290.134789,-1924.535449,14211.954086
4103.896555,-4979.620737,-4071.132681,15470.304188
4103.896870,-5056.230287,-5033.400406,16876.695478
4103.897185,-3907.087040,-4071.132681,14656.077652
4103.897501,-2604.724693,-1628.453072,12361.439231
4103.897816,-766.095498,2220.617826,10436.903782
4103.898131,1225.752797,4663.297435,7105.977043
4103.898446,3217.601092,8216.285956,4589.276840
4103.898762,3677.258390,10140.821405,3552.988522
4103.899077,2068.457845,9326.594869,3701.029710
4103.899392,995.924147,5477.523971,7105.977043
4103.899707,153.219100,2146.597232,9770.718434
4103.900023,-1072.533697,-2220.617826,12509.480420
4103.900338,-2298.286494,-3552.988522,15100.201217
4103.900653,-2528.115143,-4441.235652,15248.242405
4103.900968,-1915.238745,-3701.029710,13989.892304
4103.901284,-766.095498,-1036.288319,11769.274478
4103.901599,459.657299,2294.638420,10510.924376
4103.901914,1455.581446,4293.194464,7328.038826
4103.902229,2221.676944,6661.853478,5625.565159
4103.902545,2374.896044,6587.832884,4885.359217
4103.902860,1532.190996,4737.318029,6513.812290
4103.903175,383.047749,1924.535449,8216.285956
4103.903490,153.219100,-1258.350101,11029.068536
4103.903806,-306.438199,-2294.638420,12509.480420
4103.904121,689.485948,-1998.556043,13175.665768
4103.904436,536.266849,-2072.576638,11695.253884
4103.904751,612.876398,-1998.556043,12287.418637
4103.905067,1455.581446,74.020594,11695.253884
4103.905382,1072.533697,1258.350101,8512.368333
4103.905697,1532.190996,2146.597232,7179.997637
4103.906012,1608.800546,2812.782580,6513.812290
4103.906328,612.876398,1998.556043,6735.874072
4103.906643,-612.876398,814.226536,6883.915261
4103.906958,-1149.143247,-666.185348,7994.224174
4103.907273,-1225.752797,-1480.411884,9474.636058
4103.907589,-842.705048,-2220.617826,10214.842000
4103.907904,-536.266849,-2738.761985,11325.150913
4103.908219,-995.924147,-2368.659014,11843.295072
4103.908534,-459.657299,-1924.535449,12213.398043
4103.908850,-153.219100,-1628.453072,12287.418637
4103.909165,153.219100,-740.205942,10955.047942
4103.909480,383.047749,444.123565,9474.636058
4103.909795,689.485948,1406.391290,7105.977043
4103.910111,536.266849,1332.370696,5921.647536
4103.910426,612.876398,1332.370696,6069.688724
4103.910741,76.609550,1480.411884,6513.812290
4103.911056,-689.485948,-296.082377,8142.265362
4103.911372,-1225.752797,-1776.494261,10510.924376
4103.911687,-1378.971896,-2442.679609,11917.315666
4103.912002,-2145.067394,-4663.297435,13175.665768
4103.912317,-1455.581446,-5773.606348,14063.912898
4103.912633,-1149.143247,-4663.297435,13027.624579
4103.912948,0.000000,-2664.741391,10584.944971
4103.913263,1149.143247,-74.020594,8512.368333
4103.913578,1991.848295,2368.659014,6217.729913
4103.913894,2068.457845,3849.070898,5033.400406
4103.914209,1915.238745,3923.091493,4441.235652
4103.914524,919.314598,2220.617826,6291.750507
4103.914839,0.000000,518.144159,8438.347739
4103.915155,-1225.752797,-2072.576638,10732.986159
4103.915470,-1608.800546,-4737.318029,12509.480420
4103.915785,-1608.800546,-5551.544565,14211.954086
4103.916100,-1685.410096,-5107.421000,13693.809927
4103.916416,0.000000,-2664.741391,11991.336260
4103.916731,689.485948,-444.123565,9992.780217
4103.917046,995.924147,2072.576638,7846.182985
4103.917362,1378.971896,3478.967927,6439.791695
4103.917677,1915.238745,3108.864956,5403.503377
4103.917992,1532.190996,1998.556043,6957.935855
4103.918307,536.266849,592.164754,7920.203579
4103.918623,0.000000,-1184.329507,9474.636058
4103.918938,-306.438199,-2146.597232,10955.047942
4103.919253,383.047749,-2294.638420,11547.212695
4103.919568,153.219100,-2146.597232,11843.295072
4103.919884,842.705048,-814.226536,11695.253884
4103.920199,612.876398,-0.000000,10881.027347
4103.920514,459.657299,888.247130,9622.677246
4103.920829,612.876398,1850.514855,8586.388927
4103.921145,842.705048,2442.679609,7846.182985
4103.921460,459.657299,1776.494261,7846.182985
4103.921775,229.828649,1332.370696,7846.182985
4103.922090,459.657299,666.185348,8290.306550
4103.922406,612.876398,1258.350101,8734.430116
4103.922721,383.047749,1480.411884,9622.677246
4103.923036,76.609550,1406.391290,10510.924376
4103.923351,-612.876398,888.247130,11621.233289
4103.923667,-689.485948,-222.061783,12213.398043
4103.923982,-383.047749,-592.164754,12139.377449
4103.924297,-459.657299,-74.020594,11473.192101
4103.924612,-153.219100,888.247130,9992.780217
4103.924928,153.219100,2220.617826,8438.347739
4103.925243,1149.143247,3182.885551,7328.038826
4103.925558,1302.362347,4219.173869,6513.812290
4103.925873,1302.362347,3923.091493,7328.038826
4103.926189,459.657299,3330.926739,8290.306550
4103.926504,-766.095498,1998.556043,10066.800811
4103.926819,-1072.533697,666.185348,11769.274478
4103.927134,-1915.238745,-1258.350101,12879.583391
4103.927450,-1915.238745,-2368.659014,13693.809927
4103.927765,-1685.410096,-2220.617826,13027.624579
4103.928080,-1225.752797,-666.185348,11399.171507
4103.928395,612.876398,1628.453072,9400.615463
4103.928711,995.924147,3997.112087,7476.080014
4103.929026,1455.581446,5477.523971,6291.750507
4103.929341,1302.362347,4959.379811,6957.935855
4103.929656,919.314598,3256.906145,7846.182985
4103.929972,459.657299,1480.411884,8808.450710
4103.930287,-612.876398,-814.226536,10732.986159
4103.930602,-1608.800546,-2590.720797,12509.480420
4103.930917,-2068.457845,-2516.700203,12953.603985
4103.931233,-1149.143247,-2516.700203,12953.603985
4103.931548,-536.266849,-1036.288319,11177.109724
4103.931863,306.438199,-0.000000,9548.656652
4103.932178,919.314598,1850.514855,7994.224174
4103.932494,842.705048,2442.679609,7550.100608
4103.932809,1225.752797,2368.659014,7624.121203
4103.933124,919.314598,1554.432478,7624.121203
4103.933439,459.657299,-148.041188,8734.430116
4103.933755,229.828649,-1258.350101,9548.656652
4103.934070,459.657299,-1480.411884,10658.965565
4103.934385,612.876398,-1406.391290,10066.800811
4103.934700,612.876398,-1184.329507,10510.924376
4103.935016,229.828649,-444.123565,10362.883188
4103.935331,0.000000,-592.164754,9770.718434
4103.935646,0.000000,-814.226536,9548.656652
4103.935961,153.219100,-1110.308913,9400.615463
4103.936277,0.000000,-1184.329507,9104.533087
4103.936592,0.000000,-1036.288319,9104.533087
4103.936907,153.219100,-814.226536,8364.327145
4103.937222,842.705048,-592.164754,8364.327145
4103.937538,1302.362347,-74.020594,7846.182985
4103.937853,1378.971896,222.061783,8734.430116
4103.938168,1072.533697,-0.000000,9104.533087
4103.938483,536.266849,-444.123565,9474.636058
4103.938799,0.000000,-1036.288319,10362.883188
4103.939114,-459.657299,-2220.617826,10732.986159
4103.939429,-306.438199,-2664.741391,10881.027347
4103.939745,-919.314598,-2590.720797,10288.862594
4103.940060,-153.219100,-2368.659014,9696.697840
4103.940375,689.485948,-1332.370696,8882.471304
4103.940690,536.266849,518.144159,7550.100608
4103.941006,383.047749,1258.350101,7105.977043
4103.941321,-306.438199,1332.370696,7624.121203
4103.941636,-383.047749,-0.000000,8660.409521
4103.941951,-1149.143247,-666.185348,9696.697840
4103.942267,-1455.581446,-2146.597232,10807.006753
4103.942582,-1455.581446,-3182.885551,11695.253884
4103.942897,-1302.362347,-2886.803174,11325.150913
4103.943212,-612.876398,-2294.638420,11177.109724
4103.943528,383.047749,-888.247130,9696.697840
4103.943843,689.485948,1332.370696,8142.265362
4103.944158,383.047749,3182.885551,7105.977043
4103.944473,76.609550,2812.782580,7105.977043
4103.944789,229.828649,1850.514855,7402.059420
4103.945104,-995.924147,962.267725,8956.491898
4103.945419,-1532.190996,-888.247130,10362.883188
4103.945734,-1608.800546,-2072.576638,11029.068536
4103.946050,-1762.019645,-2294.638420,11843.295072
4103.946365,-995.924147,-1258.350101,11251.130318
4103.946680,-229.828649,-148.041188,10881.027347
4103.946995,383.047749,1628.453072,9548.656652
4103.947311,766.095498,2664.741391,9030.512492
4103.947626,1149.143247,3478.967927,8216.285956
4103.947941,1072.533697,3108.864956,8142.265362
4103.948256,1149.143247,2664.741391,8660.409521
4103.948572,229.828649,888.247130,9474.636058
4103.948887,229.828649,-0.000000,10436.903782
4103.949202,306.438199,222.061783,11103.089130
4103.949517,766.095498,592.164754,10584.944971
4103.949833,995.924147,1332.370696,10436.903782
4103.950148,689.485948,1702.473667,10140.821405
4103.950463,842.705048,1924.535449,10214.842000
4103.950778,1072.533697,1702.473667,10510.924376
4103.951094,536.266849,1258.350101,10362.883188
4103.951409,842.705048,888.247130,10362.883188
4103.951724,1072.533697,666.185348,10362.883188
4103.952039,995.924147,518.144159,9770.718434
4103.952355,1608.800546,740.205942,9696.697840
4103.952670,1838.629195,1776.494261,9104.533087
4103.952985,1762.019645,2590.720797,9104.533087
4103.953300,1072.533697,2442.679609,9104.533087
4103.953616,919.314598,1702.473667,9548.656652
4103.953931,306.438199,370.102971,10807.006753
4103.954246,-383.047749,-888.247130,11621.233289
4103.954561,-766.095498,-1480.411884,11843.295072
4103.954877,-459.657299,-1554.432478,11473.192101
4103.955192,76.609550,-888.247130,10288.862594
4103.955507,995.924147,-0.000000,9104.533087
4103.955822,1532.190996,1628.453072,8364.327145
4103.956138,1378.971896,2664.741391,7772.162391
4103.956453,689.485948,2590.720797,7698.141797
4103.956768,612.876398,1406.391290,8216.285956
4103.957083,-459.657299,370.102971,9474.636058
4103.957399,-995.924147,-1036.288319,10362.883188
4103.957714,-1532.190996,-2368.659014,11473.192101
4103.958029,-1455.581446,-3034.844362,11325.150913
4103.958344,-766.095498,-2294.638420,10955.047942
4103.958660,76.609550,-814.226536,9622.677246
4103.958975,306.438199,1184.329507,8734.430116
4103.959290,-76.609550,2442.679609,7698.141797
4103.959605,76.609550,2220.617826,7254.018232
4103.959921,229.828649,1850.514855,7772.162391
4103.960236,-766.095498,444.123565,8512.368333
4103.960551,-1455.581446,-962.267725,9770.718434
4103.960867,-1685.410096,-2368.659014,10214.842000
4103.961182,-1608.800546,-2368.659014,10732.986159
4103.961497,-766.095498,-2072.576638,10881.027347
4103.961812,0.000000,-444.123565,10140.821405
4103.962128,0.000000,666.185348,9030.512492
4103.962443,-153.219100,1184.329507,9030.512492
4103.962758,76.609550,814.226536,8512.368333
4103.963073,0.000000,296.082377,8586.388927
4103.963389,-153.219100,-296.082377,9030.512492
4103.963704,-383.047749,-1628.453072,9326.594869
4103.964019,-229.828649,-1776.494261,9474.636058
4103.964334,0.000000,-1554.432478,9474.636058
4103.964650,76.609550,-888.247130,9548.656652
4103.964965,76.609550,-444.123565,9400.615463
4103.965280,0.000000,444.123565,9474.636058
4103.965595,229.828649,222.061783,9696.697840
4103.965911,0.000000,-666.185348,9992.780217
4103.966226,-536.266849,-1480.411884,10807.006753
4103.966541,-919.314598,-1998.556043,11103.089130
4103.966856,-306.438199,-1850.514855,10584.944971
4103.967172,76.609550,-1406.391290,9844.739029
4103.967487,1072.533697,-592.164754,9030.512492
4103.967802,1455.581446,444.123565,9178.553681
4103.968117,1378.971896,1998.556043,8660.409521
4103.968433,1149.143247,1628.453072,9030.512492
4103.968748,995.924147,740.205942,9400.615463
4103.969063,536.266849,-444.123565,9992.780217
4103.969378,153.219100,-1184.329507,11029.068536
4103.969694,-229.828649,-2072.576638,11251.130318
4103.970009,-383.047749,-1776.494261,11103.089130
4103.970324,689.485948,-1184.329507,10140.821405
4103.970639,1532.190996,296.082377,9326.594869
4103.970955,1149.143247,1924.535449,8438.347739
4103.971270,1149.143247,2738.761985,7624.121203
4103.971585,536.266849,2886.803174,7846.182985
4103.971900,383.047749,2516.700203,8734.430116
4103.972216,229.828649,666.185348,9696.697840
4103.972531,-689.485948,-518.144159,10658.965565
4103.972846,-1072.533697,-1406.391290,10807.006753
4103.973161,-612.876398,-1184.329507,11029.068536
4103.973477,0.000000,-0.000000,10214.842000
4103.973792,536.266849,962.267725,9622.677246
4103.974107,383.047749,2812.782580,8734.430116
4103.974423,0.000000,3330.926739,7994.224174
4103.974738,306.438199,2664.741391,7920.203579
4103.975053,383.047749,1850.514855,8734.430116
4103.975368,-459.657299,888.247130,9400.615463
4103.975684,-1072.533697,-518.144159,10214.842000
4103.975999,-1225.752797,-1110.308913,10658.965565
4103.976314,-612.876398,-814.226536,10436.903782
4103.976629,306.438199,-0.000000,9992.780217
4103.976945,536.266849,740.205942,9474.636058
4103.977260,0.000000,2072.576638,8956.491898
4103.977575,153.219100,2368.659014,9030.512492
4103.977890,306.438199,2072.576638,8956.491898
4103.978206,-229.828649,888.247130,9400.615463
4103.978521,-536.266849,-74.020594,10881.027347
4103.978836,-689.485948,-740.205942,10807.006753
4103.979151,-459.657299,-592.164754,10807.006753
4103.979467,459.657299,-222.061783,10066.800811
4103.979782,842.705048,296.082377,9622.677246
4103.980097,153.219100,1998.556043,9844.739029
4103.980412,536.266849,2146.597232,9474.636058
4103.980728,229.828649,1628.453072,9696.697840
4103.981043,229.828649,444.123565,9548.656652
4103.981358,153.219100,-370.102971,10510.924376
4103.981673,-536.266849,-1258.350101,10955.047942
4103.981989,-383.047749,-1184.329507,10584.944971
4103.982304,0.000000,-518.144159,10362.883188
4103.982619,766.095498,370.102971,9622.677246
4103.982934,995.924147,1110.308913,9326.594869
4103.983250,1072.533697,2146.597232,8512.368333
4103.983565,612.876398,1776.494261,8660.409521
4103.983880,383.047749,962.267725,9474.636058
4103.984195,-383.047749,-0.000000,9474.636058
4103.984511,-919.314598,-1628.453072,10658.965565
4103.984826,-995.924147,-2294.638420,10881.027347
4103.985141,-766.095498,-2072.576638,10214.842000
4103.985456,153.219100,-1554.432478,9622.677246
4103.985772,842.705048,222.061783,9030.512492
4103.986087,842.705048,1332.370696,8660.409521
4103.986402,383.047749,1850.514855,7550.100608
4103.986718,306.438199,1554.432478,8364.327145
4103.987033,459.657299,592.164754,8216.285956
4103.987348,0.000000,-666.185348,9400.615463
4103.987663,-689.485948,-1850.514855,10362.883188
4103.987979,-612.876398,-2294.638420,10436.903782
4103.988294,-229.828649,-1702.473667,10214.842000
4103.988609,689.485948,-1258.350101,9548.656652
4103.988924,766.095498,-148.041188,9622.677246
4103.989240,766.095498,1332.370696,8808.450710
4103.989555,306.438199,1702.473667,7698.141797
4103.989870,459.657299,592.164754,8660.409521
4103.990185,153.219100,148.041188,8956.491898
4103.990501,-153.219100,-1332.370696,9770.718434
4103.990816,-766.095498,-2220.617826,10288.862594
4103.991131,-766.095498,-2146.597232,10066.800811
4103.991446,76.609550,-1924.535449,10436.903782
4103.991762,536.266849,-1036.288319,9622.677246
4103.992077,459.657299,296.082377,9400.615463
4103.992392,229.828649,1406.391290,8882.471304
4103.992707,153.219100,962.267725,8808.450710
4103.993023,766.095498,666.185348,9178.553681
4103.993338,153.219100,-148.041188,9622.677246
4103.993653,0.000000,-1184.329507,10658.965565
4103.993968,-536.266849,-1702.473667,10214.842000
4103.994284,0.000000,-1110.308913,9844.739029
4103.994599,766.095498,-370.102971,9770.718434
4103.994914,689.485948,296.082377,9400.615463
4103.995229,766.095498,1554.432478,9252.574275
4103.995545,153.219100,1554.432478,9326.594869
4103.995860,76.609550,592.164754,9474.636058
4103.996175,0.000000,-74.020594,9770.718434
4103.996490,-612.876398,-1184.329507,10288.862594
4103.996806,-766.095498,-1554.432478,10584.944971
4103.997121,-689.485948,-1554.432478,10510.924376
4103.997436,306.438199,-592.164754,10066.800811
4103.997751,766.095498,740.205942,8882.471304
4103.998067,1225.752797,1702.473667,8734.430116
4103.998382,766.095498,2960.823768,8586.388927
4103.998697,536.266849,2442.679609,8882.471304
4103.999013,536.266849,1702.473667,9474.636058
4103.999328,0.000000,814.226536,10288.862594
4103.999643,-536.266849,-888.247130,10807.006753
4103.999958,-995.924147,-1406.391290,11251.130318
4104.000274,-766.095498,-1036.288319,11103.089130
4104.000589,0.000000,-370.102971,10140.821405
4104.000904,842.705048,666.185348,9474.636058
4104.001219,383.047749,2368.659014,8808.450710
4104.001535,0.000000,2590.720797,8216.285956
4104.001850,76.609550,2294.638420,8438.347739
4104.002165,0.000000,1628.453072,9548.656652
4104.002480,-459.657299,222.061783,9918.759623
4104.002796,-1149.143247,-888.247130,10658.965565
4104.003111,-995.924147,-1406.391290,10881.027347
4104.003426,-689.485948,-962.267725,10362.883188
4104.003741,0.000000,-0.000000,9992.780217
4104.004057,306.438199,1480.411884,9622.677246
4104.004372,0.000000,2516.700203,8882.471304
4104.004687,0.000000,2590.720797,8364.327145
4104.005002,153.219100,1998.556043,8660.409521
4104.005318,0.000000,962.267725,9992.780217
4104.005633,0.000000,-592.164754,10584.944971
4104.005948,-689.485948,-1406.391290,10658.965565
4104.006263,-459.657299,-1184.329507,10584.944971
4104.006579,612.876398,-518.144159,9844.739029
4104.006894,1072.533697,518.144159,9104.533087
4104.007209,1302.362347,1776.494261,8808.450710
4104.007524,842.705048,2220.617826,8438.347739
4104.007840,306.438199,1406.391290,8660.409521
4104.008155,306.438199,962.267725,8808.450710
4104.008470,76.609550,296.082377,9992.780217
4104.008785,0.000000,-1776.494261,10584.944971
4104.009101,0.000000,-1702.473667,10140.821405
4104.009416,459.657299,-1036.288319,10732.986159
4104.009731,1225.752797,-0.000000,9844.739029
4104.010046,1762.019645,1110.308913,8882.471304
4104.010362,1072.533697,1924.535449,8734.430116
4104.010677,842.705048,1702.473667,8808.450710
4104.010992,766.095498,1110.308913,8734.430116
4104.011308,612.876398,-222.061783,9474.636058
4104.011623,229.828649,-1332.370696,10362.883188
4104.011938,-306.438199,-2146.597232,10732.986159
4104.012253,-153.219100,-1776.494261,10362.883188
4104.012569,383.047749,-740.205942,9474.636058
4104.012884,1072.533697,-74.020594,9474.636058
4104.013199,1608.800546,1184.329507,8882.471304
4104.013514,842.705048,1480.411884,8512.368333
4104.013830,0.000000,1184.329507,8882.471304
4104.014145,-229.828649,296.082377,9252.574275
4104.014460,-842.705048,-592.164754,10214.842000
4104.014775,-383.047749,-2072.576638,10807.006753
4104.015091,-1302.362347,-2442.679609,11177.109724
4104.015406,-842.705048,-1924.535449,10436.903782
4104.015721,153.219100,-1036.288319,9474.636058
4104.016036,612.876398,296.082377,9548.656652
4104.016352,76.609550,1998.556043,8882.471304
4104.016667,0.000000,1702.473667,8660.409521
4104.016982,0.000000,814.226536,8660.409521
4104.017297,-459.657299,-370.102971,9178.553681
4104.017613,-459.657299,-1628.453072,9548.656652
4104.017928,-1072.533697,-2294.638420,10288.862594
4104.018243,-1149.143247,-1628.453072,10288.862594
4104.018558,-766.095498,-1036.288319,9844.739029
4104.018874,229.828649,-74.020594,9178.553681
4104.019189,76.609550,962.267725,8956.491898
4104.019504,0.000000,1110.308913,8586.388927
4104.019819,-306.438199,1332.370696,8586.388927
4104.020135,-536.266849,740.205942,8956.491898
4104.020450,-689.485948,-0.000000,9992.780217
4104.020765,-536.266849,-962.267725,10066.800811
4104.021080,-1302.362347,-2220.617826,9992.780217
4104.021396,-153.219100,-962.267725,10510.924376
4104.021711,612.876398,-296.082377,9548.656652
4104.022026,919.314598,1036.288319,9104.533087
4104.022341,766.095498,2368.659014,8586.388927
4104.022657,766.095498,2072.576638,8216.285956
4104.022972,612.876398,1406.391290,8512.368333
4104.023287,306.438199,1184.329507,8808.450710
4104.023602,-229.828649,-148.041188,10362.883188
4104.023918,-306.438199,-1332.370696,10436.903782
4104.024233,-306.438199,-1702.473667,10955.047942
4104.024548,0.000000,-962.267725,10807.006753
4104.024864,536.266849,444.123565,9622.677246
4104.025179,1072.533697,1480.411884,9326.594869
4104.025494,459.657299,2220.617826,8882.471304
4104.025809,536.266849,2146.597232,9030.512492
4104.026125,612.876398,1776.494261,9252.574275
4104.026440,76.609550,740.205942,9770.718434
4104.026755,153.219100,-296.082377,10732.986159
4104.027070,0.000000,-888.247130,10955.047942
4104.027386,0.000000,-1332.370696,10807.006753
4104.027701,306.438199,-370.102971,10288.862594
4104.028016,842.705048,740.205942,9548.656652
4104.028331,842.705048,1924.535449,8808.450710
4104.028647,842.705048,2368.659014,8956.491898
4104.028962,459.657299,1924.535449,9252.574275
4104.029277,153.219100,814.226536,8956.491898
4104.029592,-229.828649,-222.061783,9770.718434
4104.029908,-766.095498,-1258.350101,10955.047942
4104.030223,-995.924147,-1702.473667,10881.027347
4104.030538,76.609550,-666.185348,10510.924376
4104.030853,766.095498,444.123565,9548.656652
4104.031169,689.485948,1406.391290,9474.636058
4104.031484,612.876398,2368.659014,8512.368333
4104.031799,0.000000,2220.617826,8660.409521
4104.032114,306.438199,1480.411884,9030.512492
4104.032430,-459.657299,1258.350101,9474.636058
4104.032745,-612.876398,-592.164754,10214.842000
4104.033060,-689.485948,-1332.370696,10881.027347
4104.033375,-689.485948,-1406.391290,10214.842000
4104.033691,-459.657299,-592.164754,10140.821405
4104.034006,153.219100,518.144159,9326.594869
4104.034321,306.438199,1924.535449,9252.574275
4104.034636,153.219100,1998.556043,9030.512492
4104.034952,0.000000,1628.453072,8882.471304
4104.035267,0.000000,518.144159,9252.574275
4104.035582,-766.095498,-518.144159,10066.800811
4104.035897,-919.314598,-1406.391290,10510.924376
4104.036213,-919.314598,-1702.473667,10362.883188
4104.036528,0.000000,-1258.350101,10510.924376
4104.036843,995.924147,-592.164754,9474.636058
4104.037159,766.095498,1184.329507,8586.388927
4104.037474,995.924147,1332.370696,8216.285956
4104.037789,1149.143247,1628.453072,8216.285956
4104.038104,766.095498,1110.308913,8512.368333
4104.038420,306.438199,370.102971,8956.491898
4104.038735,-459.657299,-888.247130,9918.759623
4104.039050,-383.047749,-1998.556043,9918.759623
4104.039365,-229.828649,-1850.514855,10510.924376
4104.039681,229.828649,-1258.350101,10955.047942
4104.039996,919.314598,-148.041188,9474.636058
4104.040311,1149.143247,1332.370696,9030.512492
4104.040626,536.266849,1850.514855,8438.347739
4104.040942,612.876398,888.247130,8734.430116
4104.041257,612.876398,518.144159,9548.656652
4104.041572,306.438199,-444.123565,9474.636058
4104.041887,76.609550,-1628.453072,10658.965565
4104.042203,383.047749,-1998.556043,10288.862594
4104.042518,459.657299,-1998.556043,9918.759623
4104.042833,1302.362347,-740.205942,9696.697840
4104.043148,1072.533697,370.102971,9104.533087
4104.043464,995.924147,1406.391290,9030.512492
4104.043779,919.314598,1332.370696,8882.471304
4104.044094,842.705048,740.205942,8956.491898
4104.044409,383.047749,-222.061783,9400.615463
4104.044725,-229.828649,-1036.288319,10362.883188
4104.045040,-1149.143247,-1776.494261,10807.006753
4104.045355,-842.705048,-2072.576638,10362.883188
4104.045670,459.657299,-1036.288319,10288.862594
4104.045986,689.485948,-0.000000,9474.636058
4104.046301,536.266849,1554.432478,9104.533087
4104.046616,536.266849,2516.700203,8734.430116
4104.046931,383.047749,1702.473667,9178.553681
4104.047247,76.609550,1036.288319,9474.636058
4104.047562,-689.485948,296.082377,9770.718434
4104.047877,-842.705048,-1332.370696,10584.944971
4104.048192,-1225.752797,-2220.617826,10881.027347
4104.048508,-766.095498,-2072.576638,10584.944971
4104.048823,0.000000,-592.164754,10066.800811
4104.049138,76.609550,740.205942,8956.491898
4104.049454,536.266849,2368.659014,8660.409521
4104.049769,306.438199,2220.617826,7624.121203
4104.050084,229.828649,1406.391290,7698.141797
4104.050399,0.000000,740.205942,9252.574275
4104.050715,-383.047749,-296.082377,9844.739029
4104.051030,-919.314598,-1406.391290,9992.780217
4104.051345,-842.705048,-1776.494261,10214.842000
4104.051660,0.000000,-962.267725,10140.821405
4104.051976,459.657299,-0.000000,9400.615463
4104.052291,229.828649,1776.494261,9104.533087
4104.052606,306.438199,2368.659014,8882.471304
4104.052921,306.438199,1924.535449,8734.430116
4104.053237,0.000000,1110.308913,8734.430116
4104.053552,-459.657299,148.041188,10066.800811
4104.053867,-842.705048,-1036.288319,10732.986159
4104.054182,-306.438199,-1480.411884,10881.027347
4104.054498,153.219100,-1332.370696,10807.006753
4104.054813,1072.533697,-0.000000,9992.780217
4104.055128,1225.752797,1480.411884,9104.533087
4104.055443,1149.143247,2590.720797,8438.347739
4104.055759,842.705048,2368.659014,8660.409521
4104.056074,1225.752797,1850.514855,8734.430116
4104.056389,459.657299,888.247130,8956.491898
4104.056704,0.000000,-518.144159,10288.862594
4104.057020,-689.485948,-1850.514855,10807.006753
4104.057335,-689.485948,-1702.473667,11177.109724
4104.057650,0.000000,-1184.329507,10436.903782
4104.057965,306.438199,-222.061783,10066.800811
4104.058281,536.266849,1258.350101,9474.636058
4104.058596,612.876398,2220.617826,9030.512492
4104.058911,766.095498,1628.453072,9474.636058
4104.059226,612.876398,1258.350101,9548.656652
4104.059542,153.219100,222.061783,9696.697840
4104.059857,-229.828649,-814.226536,10362.883188
4104.060172,-612.876398,-1332.370696,10362.883188
4104.060488,-229.828649,-1036.288319,10288.862594
4104.060803,536.266849,-370.102971,9474.636058
4104.061118,842.705048,444.123565,9548.656652
4104.061434,0.000000,1332.370696,8882.471304
4104.061749,0.000000,1554.432478,8364.327145
4104.062065,-919.314598,1110.308913,9104.533087
4104.062380,-995.924147,-0.000000,9252.574275
4104.062695,-1532.190996,-1036.288319,9992.780217
4104.063011,-1378.971896,-2146.597232,10288.862594
4104.063326,-1225.752797,-1998.556043,11029.068536
4104.063641,-153.219100,-1184.329507,9696.697840
4104.063957,383.047749,-0.000000,9252.574275
4104.064272,842.705048,1924.535449,9178.553681
4104.064588,459.657299,2812.782580,8512.368333
4104.064903,612.876398,2738.761985,8882.471304
4104.065218,689.485948,1036.288319,8660.409521
4104.065534,229.828649,-0.000000,9548.656652
4104.065849,0.000000,-1036.288319,10066.800811
4104.066165,-689.485948,-1850.514855,10066.800811
4104.066480,-383.047749,-1776.494261,10436.903782
4104.066795,153.219100,-1110.308913,9696.697840
4104.067111,689.485948,-148.041188,9474.636058
4104.067426,536.266849,1110.308913,8882.471304
4104.067741,76.609550,1554.432478,8586.388927
4104.068057,459.657299,1702.473667,8808.450710
4104.068372,536.266849,1184.329507,9030.512492
4104.068688,-306.438199,-444.123565,9992.780217
4104.069003,-459.657299,-1184.329507,10214.842000
4104.069318,-459.657299,-1554.432478,10436.903782
4104.069634,229.828649,-1554.432478,10807.006753
4104.069949,766.095498,-148.041188,9770.718434
4104.070265,689.485948,1258.350101,9548.656652
4104.070580,459.657299,1850.514855,9030.512492
4104.070895,229.828649,1628.453072,9400.615463
4104.071211,306.438199,444.123565,9326.594869
4104.071526,0.000000,-74.020594,9474.636058
4104.071841,-306.438199,-1258.350101,10955.047942
4104.072157,-995.924147,-1554.432478,10658.965565
4104.072472,-459.657299,-1776.494261,10362.883188
4104.072788,383.047749,-1036.288319,9622.677246
4104.073103,842.705048,-0.000000,9548.656652
4104.073418,919.314598,1702.473667,8808.450710
4104.073734,766.095498,2368.659014,8586.388927
4104.074049,995.924147,1924.535449,9030.512492
4104.074365,229.828649,1110.308913,8882.471304
4104.074680,-612.876398,-148.041188,9844.739029
4104.074995,-459.657299,-1184.329507,10807.006753
4104.075311,-689.485948,-1480.411884,10658.965565
4104.075626,-153.219100,-1406.391290,10658.965565
4104.075941,612.876398,-296.082377,9844.739029
4104.076257,842.705048,1110.308913,9326.594869
4104.076572,306.438199,2442.679609,8734.430116
4104.076888,76.609550,2146.597232,8882.471304
4104.077203,459.657299,1406.391290,9252.574275
4104.077518,76.609550,592.164754,9326.594869
4104.077834,153.219100,-814.226536,9992.780217
4104.078149,-689.485948,-1554.432478,10362.883188
4104.078465,-459.657299,-1332.370696,10288.862594
4104.078780,383.047749,-740.205942,9770.718434
4104.079095,842.705048,370.102971,9030.512492
4104.079411,842.705048,1776.494261,9178.553681
4104.079726,306.438199,2368.659014,8586.388927
4104.080041,306.438199,1184.329507,8068.244768
4104.080357,-306.438199,888.247130,9474.636058
4104.080672,-459.657299,-222.061783,9918.759623
4104.080988,-1072.533697,-1850.514855,10881.027347
4104.081303,-1149.143247,-1998.556043,10658.965565
4104.081618,-306.438199,-1554.432478,10732.986159
4104.081934,536.266849,-444.123565,9622.677246
4104.082249,842.705048,814.226536,8956.491898
4104.082565,919.314598,1998.556043,8808.450710
4104.082880,689.485948,1998.556043,8586.388927
4104.083195,766.095498,1998.556043,8808.450710
4104.083511,459.657299,888.247130,9178.553681
4104.083826,0.000000,-518.144159,9622.677246
4104.084141,-76.609550,-1406.391290,10510.924376
4104.084457,0.000000,-1850.514855,10510.924376
4104.084772,612.876398,-1110.308913,9992.780217
4104.085088,1149.143247,-222.061783,9474.636058
4104.085403,995.924147,1036.288319,8882.471304
4104.085718,766.095498,1554.432478,8956.491898
4104.086034,0.000000,1332.370696,8956.491898
4104.086349,383.047749,666.185348,9178.553681
4104.086665,76.609550,-370.102971,9918.759623
4104.086980,-306.438199,-1036.288319,10510.924376
4104.087295,0.000000,-1480.411884,10362.883188
4104.087611,0.000000,-1406.391290,10066.800811
4104.087926,842.705048,-0.000000,9622.677246
4104.088241,919.314598,814.226536,9474.636058
4104.088557,689.485948,1998.556043,9030.512492
4104.088872,306.438199,1776.494261,8882.471304
4104.089188,383.047749,1110.308913,9474.636058
4104.089503,-229.828649,592.164754,9622.677246
4104.089818,-612.876398,-814.226536,10288.862594
4104.090134,-1302.362347,-1998.556043,11029.068536
4104.090449,-842.705048,-2072.576638,10955.047942
4104.090765,-612.876398,-1776.494261,9844.739029
4104.091080,153.219100,-370.102971,8956.491898
4104.091395,153.219100,1258.350101,9104.533087
4104.091711,0.000000,2072.576638,8660.409521
4104.092026,-229.828649,1554.432478,8882.471304
4104.092341,0.000000,888.247130,8882.471304
4104.092657,-383.047749,-518.144159,9844.739029
4104.092972,-1072.533697,-1184.329507,10288.862594
4104.093288,-1225.752797,-1702.473667,11029.068536
4104.093603,-536.266849,-1554.432478,10807.006753
4104.093918,0.000000,-370.102971,9696.697840
4104.094234,1072.533697,740.205942,9474.636058
4104.094549,689.485948,2220.617826,8660.409521
4104.094865,459.657299,2442.679609,8068.244768
4104.095180,229.828649,1998.556043,8586.388927
4104.095495,0.000000,962.267725,9030.512492
4104.095811,-459.657299,-148.041188,9918.759623
4104.096126,-766.095498,-1554.432478,10584.944971
4104.096441,-919.314598,-1998.556043,10807.006753
4104.096757,0.000000,-1110.308913,10288.862594
4104.097072,306.438199,-74.020594,9770.718434
4104.097388,1225.752797,1184.329507,8882.471304
4104.097703,1072.533697,2368.659014,8438.347739
4104.098018,689.485948,2368.659014,8364.327145
4104.098334,766.095498,2146.597232,8438.347739
4104.098649,306.438199,1184.329507,9400.615463
4104.098965,0.000000,-444.123565,10288.862594
4104.099280,0.000000,-1406.391290,10658.965565
4104.099595,0.000000,-1554.432478,10658.965565
4104.099911,612.876398,-666.185348,11029.068536
4104.100226,689.485948,666.185348,9992.780217
4104.100541,1302.362347,1628.453072,9104.533087
4104.100857,689.485948,2072.576638,9474.636058
4104.101172,689.485948,1850.514855,9252.574275
4104.101488,459.657299,1110.308913,9030.512492
4104.101803,459.657299,-296.082377,9918.759623
4104.102118,0.000000,-1332.370696,10362.883188
4104.102434,0.000000,-1850.514855,10288.862594
4104.102749,76.609550,-1110.308913,10362.883188
4104.103065,536.266849,-148.041188,9918.759623
4104.103380,766.095498,1036.288319,8956.491898
4104.103695,766.095498,1850.514855,8882.471304
4104.104011,383.047749,1850.514855,8956.491898
4104.104326,229.828649,888.247130,9474.636058
4104.104642,-229.828649,370.102971,9770.718434
4104.104957,-1225.752797,-1110.308913,10732.986159
4104.105272,-1149.143247,-1776.494261,10955.047942
4104.105588,-689.485948,-1702.473667,10807.006753
4104.105903,0.000000,-740.205942,9770.718434
4104.106218,766.095498,296.082377,9252.574275
4104.106534,995.924147,1924.535449,8956.491898
4104.106849,229.828649,2516.700203,8290.306550
4104.107165,76.609550,1406.391290,8586.388927
4104.107480,-383.047749,1184.329507,8512.368333
4104.107795,-919.314598,-444.123565,9548.656652
4104.108111,-689.485948,-1776.494261,10288.862594
4104.108426,-766.095498,-1924.535449,10362.883188
4104.108742,-766.095498,-1480.411884,10066.800811
4104.109057,153.219100,-518.144159,9548.656652
4104.109372,689.485948,1110.308913,9326.594869
4104.109688,612.876398,2294.638420,8512.368333
4104.110003,612.876398,2368.659014,8364.327145
4104.110318,153.219100,1924.535449,8660.409521
4104.110634,-229.828649,666.185348,9326.594869
4104.110949,-766.095498,-740.205942,10732.986159
4104.111265,-1072.533697,-1332.370696,10807.006753
4104.111580,-689.485948,-1924.535449,11029.068536
4104.111895,0.000000,-1184.329507,10584.944971
4104.112211,766.095498,296.082377,9400.615463
4104.112526,842.705048,1628.453072,8734.430116
4104.112842,1149.143247,1924.535449,8512.368333
4104.113157,1072.533697,1628.453072,8956.491898
4104.113472,536.266849,592.164754,8882.471304
4104.113788,383.047749,-148.041188,9400.615463
4104.114103,153.219100,-1184.329507,10066.800811
4104.114418,0.000000,-1628.453072,9992.780217
4104.114734,459.657299,-1628.453072,10436.903782
4104.115049,842.705048,-518.144159,9844.739029
4104.115365,536.266849,740.205942,9178.553681
4104.115680,1532.190996,1628.453072,8882.471304
4104.115995,842.705048,1850.514855,9030.512492
4104.116311,1072.533697,1036.288319,9326.594869
4104.116626,383.047749,296.082377,9992.780217
4104.116942,0.000000,-740.205942,10584.944971
4104.117257,0.000000,-1554.432478,10807.006753
4104.117572,-306.438199,-1702.473667,10732.986159
4104.117888,459.657299,-962.267725,9770.718434
4104.118203,1149.143247,-0.000000,9400.615463
4104.118518,1455.581446,1850.514855,8808.450710
4104.118834,1225.752797,2220.617826,8438.347739
4104.119149,689.485948,1628.453072,8512.368333
4104.119465,459.657299,1258.350101,9104.533087
4104.119780,0.000000,-0.000000,9474.636058
4104.120095,0.000000,-1924.535449,10066.800811
4104.120411,-919.314598,-2072.576638,10807.006753
4104.120726,-689.485948,-1702.473667,10658.965565
4104.121042,0.000000,-814.226536,9770.718434
4104.121357,76.609550,740.205942,9326.594869
4104.121672,0.000000,1702.473667,9030.512492
4104.121988,-229.828649,2146.597232,8438.347739
4104.122303,-306.438199,1554.432478,9178.553681
4104.122618,-612.876398,1036.288319,9918.759623
4104.122934,-1149.143247,296.082377,10436.903782
4104.123249,-995.924147,-1110.308913,11177.109724
4104.123565,-919.314598,-1480.411884,10807.006753
4104.123880,0.000000,-666.185348,10288.862594
4104.124195,306.438199,444.123565,9474.636058
4104.124511,383.047749,1628.453072,8956.491898
4104.124826,153.219100,1998.556043,8586.388927
4104.125142,-306.438199,1850.514855,8364.327145
4104.125457,-229.828649,666.185348,8882.471304
4104.125772,-995.924147,-370.102971,9548.656652
4104.126088,-1149.143247,-1184.329507,10436.903782
4104.126403,-1532.190996,-1924.535449,10510.924376
4104.126718,-919.314598,-1998.556043,10584.944971
4104.127034,76.609550,-814.226536,10140.821405
4104.127349,306.438199,444.123565,9622.677246
4104.127665,919.314598,1702.473667,9030.512492
4104.127980,612.876398,2072.576638,9104.533087
4104.128295,536.266849,2072.576638,8586.388927
4104.128611,536.266849,1406.391290,9474.636058
4104.128926,306.438199,740.205942,10214.842000
4104.129242,-306.438199,-1554.432478,10807.006753
4104.129557,0.000000,-1258.350101,10362.883188
4104.129872,689.485948,-1332.370696,10510.924376
4104.130188,1149.143247,-74.020594,9770.718434
4104.130503,1149.143247,962.267725,9178.553681
4104.130818,689.485948,1924.535449,9178.553681
4104.131134,689.485948,1332.370696,8660.409521
4104.131449,1072.533697,740.205942,8956.491898
4104.131765,229.828649,-0.000000,9252.574275
4104.132080,0.000000,-1258.350101,9992.780217
4104.132395,0.000000,-1850.514855,10658.965565
4104.132711,76.609550,-1702.473667,10510.924376
4104.133026,1149.143247,-740.205942,9770.718434
4104.133342,1455.581446,518.144159,9474.636058
4104.133657,842.705048,1776.494261,9104.533087
4104.133972,919.314598,2294.638420,8512.368333
4104.134288,766.095498,2146.597232,8882.471304
4104.134603,306.438199,518.144159,9400.615463
4104.134918,-689.485948,-740.205942,10140.821405
4104.135234,-995.924147,-1924.535449,10510.924376
4104.135549,-612.876398,-1850.514855,10584.944971
4104.135865,0.000000,-1406.391290,10140.821405
4104.136180,383.047749,-296.082377,9622.677246
4104.136495,612.876398,1110.308913,8882.471304
4104.136811,229.828649,1998.556043,8290.306550
4104.137126,0.000000,1628.453072,8438.347739
4104.137442,229.828649,740.205942,8956.491898
4104.137757,-306.438199,-74.020594,9474.636058
4104.138072,-842.705048,-1258.350101,10510.924376
4104.138388,-995.924147,-1850.514855,10658.965565
4104.138703,-689.485948,-1406.391290,10214.842000
4104.139018,229.828649,-444.123565,9918.759623
4104.139334,612.876398,518.144159,9474.636058
4104.139649,536.266849,1998.556043,8882.471304
4104.139965,0.000000,2072.576638,8586.388927
4104.140280,0.000000,1480.411884,8956.491898
4104.140595,-306.438199,592.164754,9474.636058
4104.140911,-766.095498,-222.061783,10288.862594
4104.141226,-995.924147,-1184.329507,10584.944971
4104.141542,-1149.143247,-1628.453072,10510.924376
4104.141857,-306.438199,-1036.288319,10288.862594
4104.142172,536.266849,-296.082377,9992.780217
4104.142488,612.876398,1184.329507,9252.574275
4104.142803,612.876398,2072.576638,8512.368333
4104.143118,153.219100,2368.659014,8068.244768
4104.143434,612.876398,1406.391290,8882.471304
4104.143749,0.000000,444.123565,9474.636058
4104.144065,-383.047749,-814.226536,10510.924376
4104.144380,-1149.143247,-1480.411884,10732.986159
4104.144695,-612.876398,-1554.432478,10732.986159
4104.145011,536.266849,-962.267725,9918.759623
4104.145326,689.485948,296.082377,9622.677246
4104.145642,536.266849,1554.432478,9474.636058
4104.145957,153.219100,2220.617826,8882.471304
4104.146272,459.657299,1554.432478,8512.368333
4104.146588,612.876398,740.205942,9104.533087
4104.146903,689.485948,222.061783,9844.739029
4104.147218,536.266849,-1554.432478,10362.883188
4104.147534,-76.609550,-1628.453072,10288.862594
4104.147849,383.047749,-1554.432478,9770.718434
4104.148165,689.485948,-518.144159,9474.636058
4104.148480,995.924147,888.247130,9178.553681
4104.148795,383.047749,1998.556043,8586.388927
4104.149111,306.438199,1628.453072,8364.327145
4104.149426,459.657299,962.267725,8882.471304
4104.149742,0.000000,-0.000000,9030.512492
4104.150057,-383.047749,-740.205942,10288.862594
4104.150372,-1149.143247,-1776.494261,11029.068536
4104.150688,-842.705048,-1258.350101,10658.965565
4104.151003,229.828649,-592.164754,9992.780217
4104.151318,766.095498,296.082377,9326.594869
4104.151634,612.876398,1924.535449,8956.491898
4104.151949,383.047749,2590.720797,8660.409521
4104.152265,306.438199,1998.556043,8660.409521
4104.152580,229.828649,962.267725,9104.533087
4104.152895,-306.438199,370.102971,9918.759623
4104.153211,-459.657299,-962.267725,10362.883188
4104.153526,-842.705048,-1406.391290,10807.006753
4104.153842,-612.876398,-1110.308913,10510.924376
4104.154157,153.219100,-296.082377,9918.759623
4104.154472,306.438199,888.247130,9252.574275
4104.154788,612.876398,2220.617826,9252.574275
4104.155103,0.000000,2294.638420,8660.409521
4104.155418,0.000000,1480.411884,9030.512492
4104.155734,-459.657299,888.247130,9622.677246
4104.156049,-842.705048,-370.102971,10584.944971
4104.156365,-1532.190996,-1702.473667,11103.089130
4104.156680,-1149.143247,-1480.411884,10807.006753
4104.156995,0.000000,-740.205942,10584.944971
4104.157311,766.095498,-0.000000,9918.759623
4104.157626,919.314598,1702.473667,9104.533087
4104.157942,612.876398,2072.576638,8364.327145
4104.158257,229.828649,1998.556043,8882.471304
4104.158572,306.438199,1406.391290,8660.409521
4104.158888,-229.828649,-0.000000,9622.677246
4104.159203,0.000000,-1332.370696,10362.883188
4104.159518,-689.485948,-1702.473667,10732.986159
4104.159834,-612.876398,-1850.514855,10807.006753
4104.160149,459.657299,-1184.329507,10362.883188
4104.160465,612.876398,-0.000000,9474.636058
4104.160780,536.266849,1332.370696,9030.512492
4104.161095,612.876398,1776.494261,8586.388927
4104.161411,995.924147,1110.308913,8808.450710
4104.161726,766.095498,814.226536,9252.574275
4104.162041,689.485948,-222.061783,9844.739029
4104.162357,459.657299,-962.267725,10288.862594
4104.162672,383.047749,-1110.308913,10066.800811
4104.162987,919.314598,-666.185348,9474.636058
4104.163303,1378.971896,-222.061783,9326.594869
4104.163618,1149.143247,1036.288319,9252.574275
4104.163934,383.047749,1332.370696,8734.430116
4104.164249,153.219100,1258.350101,8882.471304
4104.164564,0.000000,518.144159,9474.636058
4104.164880,-536.266849,-518.144159,9622.677246
4104.165195,-842.705048,-1628.453072,10436.903782
4104.165510,-1302.362347,-1628.453072,10436.903782
4104.165826,-689.485948,-1332.370696,10510.924376
4104.166141,459.657299,-740.205942,9622.677246
4104.166456,995.924147,888.247130,8882.471304
4104.166772,612.876398,1998.556043,8438.347739
4104.167087,689.485948,2516.700203,8364.327145
4104.167402,612.876398,1776.494261,8512.368333
4104.167718,306.438199,888.247130,9104.533087
4104.168033,-306.438199,-370.102971,9918.759623
4104.168348,-919.314598,-1702.473667,10658.965565
4104.168664,-1072.533697,-1702.473667,10362.883188
4104.168979,-306.438199,-1332.370696,10362.883188
4104.169294,536.266849,-518.144159,9918.759623
4104.169610,383.047749,888.247130,8734.430116
4104.169925,383.047749,1924.535449,8512.368333
4104.170240,153.219100,1924.535449,8512.368333
4104.170556,306.438199,1258.350101,8956.491898
4104.170871,0.000000,1110.308913,9474.636058
4104.171186,-229.828649,-518.144159,10436.903782
4104.171502,-612.876398,-1332.370696,10732.986159
4104.171817,76.609550,-1406.391290,10807.006753
4104.172132,536.266849,-814.226536,10214.842000
4104.172448,766.095498,148.041188,9696.697840
4104.172763,1072.533697,1702.473667,9252.574275
4104.173078,536.266849,2294.638420,9030.512492
4104.173394,229.828649,1776.494261,9030.512492
4104.173709,229.828649,740.205942,9326.594869
4104.174025,-612.876398,-444.123565,9992.780217
4104.174340,-766.095498,-1850.514855,11029.068536
4104.174655,-995.924147,-1702.473667,10881.027347
4104.174971,0.000000,-1332.370696,10955.047942
4104.175286,689.485948,-444.123565,10066.800811
4104.175601,1302.362347,740.205942,9252.574275
4104.175917,1149.143247,1702.473667,8660.409521
4104.176232,766.095498,1776.494261,8882.471304
4104.176547,842.705048,1406.391290,8512.368333
4104.176863,459.657299,518.144159,8808.450710
4104.177178,76.609550,-740.205942,9770.718434
4104.177493,-383.047749,-1850.514855,10436.903782
4104.177809,-383.047749,-1702.473667,10214.842000
4104.178124,306.438199,-1332.370696,9622.677246
4104.178439,689.485948,-0.000000,9474.636058
4104.178755,842.705048,1110.308913,8660.409521
4104.179070,306.438199,1702.473667,8364.327145
4104.179385,76.609550,1480.411884,8734.430116
4104.179701,0.000000,370.102971,9474.636058
4104.180016,-459.657299,-0.000000,9770.718434
4104.180331,-842.705048,-1554.432478,10510.924376
4104.180647,-995.924147,-1258.350101,10214.842000
4104.180962,76.609550,-1110.308913,10288.862594
4104.181277,919.314598,-296.082377,9548.656652
4104.181593,995.924147,888.247130,8956.491898
4104.181908,612.876398,2220.617826,8882.471304
4104.182223,383.047749,2516.700203,8438.347739
4104.182539,153.219100,1850.514855,8882.471304
4104.182854,0.000000,814.226536,9474.636058
4104.183170,-766.095498,-444.123565,9918.759623
4104.183485,-766.095498,-1628.453072,10510.924376
4104.183800,-995.924147,-1406.391290,10881.027347
4104.184116,-229.828649,-1184.329507,10732.986159
4104.184431,153.219100,-0.000000,9770.718434
4104.184746,306.438199,1480.411884,9326.594869
4104.185062,0.000000,2738.761985,9030.512492
4104.185377,0.000000,2368.659014,8660.409521
4104.185692,689.485948,1850.514855,8956.491898
4104.186008,0.000000,740.205942,9548.656652
4104.186323,-229.828649,-518.144159,10510.924376
4104.186638,-536.266849,-1258.350101,10807.006753
4104.186954,0.000000,-1036.288319,10584.944971
4104.187269,842.705048,-148.041188,10066.800811
4104.187584,1378.971896,740.205942,9252.574275
4104.187900,919.314598,1554.432478,9104.533087
4104.188215,612.876398,1924.535449,8364.327145
4104.188530,0.000000,1110.308913,8882.471304
4104.188846,-383.047749,370.102971,9326.594869
4104.189161,-612.876398,-888.247130,10288.862594
4104.189476,-766.095498,-1628.453072,11029.068536
4104.189792,-1149.143247,-1628.453072,10732.986159
4104.190107,0.000000,-1628.453072,10807.006753
4104.190422,919.314598,-74.020594,9696.697840
4104.190738,1072.533697,1184.329507,8808.450710
4104.191053,919.314598,2146.597232,8586.388927
4104.191368,536.266849,2220.617826,8734.430116
4104.191684,1378.971896,1332.370696,8808.450710
4104.191999,306.438199,-0.000000,9400.615463
4104.192315,0.000000,-888.247130,10140.821405
4104.192630,-383.047749,-1554.432478,10584.944971
4104.192945,0.000000,-1776.494261,10362.883188
4104.193261,919.314598,-888.247130,9696.697840
4104.193576,612.876398,-0.000000,9178.553681
4104.193891,766.095498,1110.308913,8660.409521
4104.194207,153.219100,1480.411884,8660.409521
4104.194522,76.609550,962.267725,9104.533087
4104.194837,0.000000,444.123565,9104.533087
4104.195153,-459.657299,-814.226536,9696.697840
4104.195468,-919.314598,-1628.453072,10214.842000
4104.195783,-229.828649,-1554.432478,10140.821405
4104.196099,766.095498,-666.185348,10288.862594
4104.196414,612.876398,-0.000000,9326.594869
4104.196729,689.485948,1184.329507,9326.594869
4104.197045,306.438199,2146.597232,8438.347739
4104.197360,-383.047749,1924.535449,8586.388927
4104.197675,-153.219100,1258.350101,9400.615463
4104.197991,-995.924147,222.061783,9770.718434
4104.198306,-1225.752797,-1258.350101,10066.800811
4104.198621,-1455.581446,-2368.659014,10658.965565
4104.198937,-766.095498,-2146.597232,10955.047942
4104.199252,-383.047749,-1184.329507,10288.862594
4104.199567,153.219100,370.102971,9178.553681
4104.199883,383.047749,1776.494261,8512.368333
4104.200198,306.438199,2294.638420,8512.368333
4104.200513,612.876398,1332.370696,8290.306550
4104.200829,76.609550,592.164754,8734.430116
4104.201144,-459.657299,-0.000000,9992.780217
4104.201459,-919.314598,-962.267725,10362.883188
4104.201775,-842.705048,-1332.370696,10584.944971
4104.202090,383.047749,-1110.308913,10214.842000
4104.202406,612.876398,-666.185348,9844.739029
4104.202721,612.876398,370.102971,9252.574275
4104.203036,383.047749,1702.473667,9178.553681
4104.203352,306.438199,1776.494261,9252.574275
4104.203667,766.095498,1258.350101,8956.491898
4104.203982,76.609550,1406.391290,9548.656652
4104.204298,153.219100,-296.082377,10214.842000
4104.204613,0.000000,-1628.453072,10658.965565
4104.204928,229.828649,-1628.453072,10066.800811
4104.205244,1225.752797,-814.226536,10362.883188
4104.205559,1532.190996,666.185348,9474.636058
4104.205874,1225.752797,1702.473667,8808.450710
4104.206190,995.924147,2146.597232,8734.430116
4104.206505,689.485948,1332.370696,9178.553681
4104.206820,1149.143247,1036.288319,9844.739029
4104.207136,0.000000,-0.000000,10214.842000
4104.207451,-689.485948,-1406.391290,10436.903782
4104.207766,-766.095498,-1924.535449,10732.986159
4104.208082,0.000000,-1480.411884,10362.883188
4104.208397,612.876398,-666.185348,9844.739029
4104.208712,612.876398,888.247130,9400.615463
4104.209028,536.266849,2220.617826,8808.450710
4104.209343,306.438199,1924.535449,8660.409521
4104.209658,229.828649,1480.411884,8882.471304
4104.209974,0.000000,592.164754,9548.656652
4104.210289,-229.828649,-814.226536,9992.780217
4104.210604,-1072.533697,-1480.411884,10436.903782
4104.210920,-536.266849,-1924.535449,10658.965565
4104.211235,153.219100,-1184.329507,10288.862594
4104.211551,0.000000,-0.000000,8956.491898
4104.211866,76.609550,1554.432478,8882.471304
4104.212181,-306.438199,2220.617826,7994.224174
4104.212497,0.000000,1554.432478,8660.409521
4104.212812,0.000000,740.205942,9104.533087
4104.213127,-536.266849,-74.020594,9696.697840
4104.213443,-1072.533697,-1258.350101,10362.883188
4104.213758,-995.924147,-1480.411884,10584.944971
4104.214073,0.000000,-1332.370696,10658.965565
4104.214389,689.485948,-370.102971,9474.636058
4104.214704,842.705048,962.267725,8808.450710
4104.215019,842.705048,2220.617826,8438.347739
4104.215335,612.876398,2664.741391,8216.285956
4104.215650,383.047749,2220.617826,9178.553681
4104.215965,0.000000,740.205942,9696.697840
4104.216281,-383.047749,-444.123565,10510.924376
4104.216596,-536.266849,-1776.494261,10510.924376
4104.216911,-536.266849,-1480.411884,10436.903782
4104.217227,306.438199,-962.267725,10807.006753
4104.217542,459.657299,370.102971,9992.780217
4104.217857,459.657299,1850.514855,9548.656652
4104.218173,229.828649,2664.741391,8808.450710
4104.218488,689.485948,1406.391290,9178.553681
4104.218803,459.657299,1332.370696,9104.533087
4104.219119,-153.219100,592.164754,10066.800811
4104.219434,-689.485948,-814.226536,10658.965565
4104.219749,-612.876398,-1258.350101,10288.862594
4104.220065,0.000000,-1628.453072,10436.903782
4104.220380,842.705048,-740.205942,10066.800811
4104.220696,919.314598,444.123565,9696.697840
4104.221011,459.657299,1480.411884,9178.553681
4104.221326,1225.752797,1776.494261,8882.471304
4104.221642,459.657299,1036.288319,9178.553681
4104.221957,-153.219100,370.102971,9326.594869
4104.222272,-536.266849,-592.164754,9770.718434
4104.222588,-383.047749,-1998.556043,10732.986159
4104.222903,-229.828649,-1850.514855,10140.821405
4104.223218,536.266849,-1406.391290,9918.759623
4104.223534,842.705048,-222.061783,9178.553681
4104.223849,612.876398,1110.308913,9252.574275
4104.224164,306.438199,1850.514855,8734.430116
4104.224480,306.438199,1036.288319,8438.347739
4104.224795,76.609550,296.082377,9400.615463
4104.225110,0.000000,-370.102971,9844.739029
4104.225426,-919.314598,-1406.391290,9918.759623
4104.225741,-766.095498,-2072.576638,10140.821405
4104.226056,76.609550,-2146.597232,9770.718434
4104.226372,536.266849,-814.226536,9622.677246
4104.226687,1072.533697,518.144159,9030.512492
4104.227002,383.047749,1850.514855,8660.409521
4104.227318,306.438199,2368.659014,8290.306550
4104.227633,766.095498,1406.391290,8290.306550
4104.227948,76.609550,814.226536,8956.491898
4104.228264,-689.485948,-370.102971,9696.697840
4104.228579,-766.095498,-1628.453072,10584.944971
4104.228894,-766.095498,-2072.576638,10436.903782
4104.229210,-306.438199,-1184.329507,10214.842000
4104.229525,229.828649,-0.000000,9474.636058
4104.229840,153.219100,1406.391290,9104.533087
4104.230156,0.000000,2368.659014,8438.347739
4104.230471,306.438199,1998.556043,8956.491898
4104.230787,689.485948,1702.473667,8660.409521
4104.231102,-153.219100,518.144159,9326.594869
4104.231417,-689.485948,-444.123565,10362.883188
4104.231733,-1072.533697,-1184.329507,10584.944971
4104.232048,-153.219100,-1406.391290,10658.965565
4104.232363,766.095498,-814.226536,9992.780217
4104.232679,995.924147,444.123565,9548.656652
4104.232994,995.924147,1924.535449,8660.409521
4104.233309,459.657299,2294.638420,8660.409521
4104.233625,689.485948,1628.453072,8734.430116
4104.233940,383.047749,814.226536,9252.574275
4104.234255,0.000000,-148.041188,10140.821405
4104.234571,-383.047749,-1702.473667,10955.047942
4104.234886,0.000000,-1924.535449,10881.027347
4104.235201,612.876398,-1332.370696,10658.965565
4104.235517,1072.533697,-222.061783,10140.821405
4104.235832,1532.190996,1184.329507,9548.656652
4104.236147,842.705048,2294.638420,9030.512492
4104.236463,766.095498,2072.576638,8512.368333
4104.236778,1072.533697,1110.308913,8956.491898
4104.237093,612.876398,444.123565,9770.718434
4104.237409,0.000000,-518.144159,10214.842000
4104.237724,-536.266849,-1554.432478,10658.965565
4104.238039,-459.657299,-1554.432478,10362.883188
4104.238355,459.657299,-444.123565,10214.842000
4104.238670,383.047749,-0.000000,9918.759623
4104.238985,76.609550,1332.370696,9474.636058
4104.239301,-306.438199,1850.514855,8956.491898
4104.239616,-229.828649,1258.350101,8660.409521
4104.239932,-306.438199,740.205942,9474.636058
4104.240247,-919.314598,-222.061783,9918.759623
4104.240562,-919.314598,-1110.308913,10436.903782
4104.240878,-1072.533697,-1406.391290,10658.965565
4104.241193,0.000000,-1332.370696,10214.842000
4104.241508,459.657299,-74.020594,9548.656652
4104.241824,536.266849,1406.391290,8660.409521
4104.242139,76.609550,2146.597232,8216.285956
4104.242454,0.000000,2072.576638,8068.244768
4104.242770,-76.609550,888.247130,8512.368333
4104.243085,-459.657299,-0.000000,9400.615463
4104.243400,-1072.533697,-888.247130,9992.780217
4104.243716,-1762.019645,-1998.556043,10288.862594
4104.244031,-1302.362347,-2368.659014,10214.842000
4104.244346,-306.438199,-1480.411884,9622.677246
4104.244662,0.000000,-0.000000,9252.574275
4104.244977,0.000000,1850.514855,8216.285956
4104.245292,0.000000,2294.638420,8512.368333
4104.245608,383.047749,1924.535449,8586.388927
4104.245923,0.000000,1184.329507,8882.471304
4104.246238,-383.047749,222.061783,9474.636058
4104.246554,-919.314598,-1184.329507,10510.924376
4104.246869,-919.314598,-1554.432478,10362.883188
4104.247184,-229.828649,-1628.453072,10584.944971
4104.247500,689.485948,-518.144159,9548.656652
4104.247815,1378.971896,592.164754,9252.574275
4104.248130,842.705048,2146.597232,8882.471304
4104.248446,536.266849,2368.659014,8734.430116
4104.248761,1225.752797,1702.473667,8956.491898
4104.249076,689.485948,888.247130,8956.491898
4104.249392,459.657299,-444.123565,10140.821405
4104.249707,-229.828649,-1480.411884,11029.068536
4104.250023,-459.657299,-1184.329507,11029.068536
4104.250338,306.438199,-814.226536,10955.047942
4104.250653,995.924147,-0.000000,10362.883188
4104.250969,1378.971896,1554.432478,9918.759623
4104.251284,995.924147,2220.617826,9474.636058
4104.251599,1149.143247,1628.453072,9474.636058
4104.251915,1378.971896,1184.329507,9918.759623
4104.252230,766.095498,518.144159,10140.821405
4104.252545,689.485948,-814.226536,10658.965565
4104.252861,383.047749,-1184.329507,10658.965565
4104.253176,1072.533697,-1184.329507,10214.842000
4104.253491,1302.362347,-592.164754,9696.697840
4104.253807,1532.190996,296.082377,9400.615463
4104.254122,995.924147,1480.411884,9030.512492
4104.254437,459.657299,1924.535449,8438.347739
4104.254753,383.047749,1258.350101,8956.491898
4104.255068,0.000000,-0.000000,8956.491898
4104.255383,-536.266849,-1258.350101,10140.821405
4104.255699,-1072.533697,-2072.576638,10658.965565
4104.256014,-612.876398,-2146.597232,10140.821405
4104.256329,153.219100,-1184.329507,10066.800811
4104.256645,459.657299,-0.000000,9400.615463
4104.256960,689.485948,1406.391290,8808.450710
4104.257275,0.000000,2146.597232,8364.327145
4104.257591,-229.828649,1702.473667,8364.327145
4104.257906,0.000000,518.144159,8734.430116
4104.258221,-612.876398,-74.020594,9474.636058
4104.258537,-1149.143247,-1628.453072,10436.903782
4104.258852,-1608.800546,-2442.679609,10510.924376
4104.259168,-1149.143247,-1998.556043,10584.944971
4104.259483,-153.219100,-1184.329507,9992.780217
4104.259798,0.000000,740.205942,9030.512492
4104.260114,0.000000,1332.370696,8216.285956
4104.260429,76.609550,2294.638420,8586.388927
4104.260744,0.000000,1702.473667,8438.347739
4104.261060,76.609550,888.247130,8660.409521
4104.261375,-612.876398,-74.020594,9474.636058
4104.261690,-1072.533697,-1036.288319,10362.883188
4104.262006,-842.705048,-1406.391290,10658.965565
4104.262321,0.000000,-962.267725,10214.842000
4104.262636,612.876398,-0.000000,9918.759623
4104.262952,612.876398,1036.288319,9178.553681
4104.263267,0.000000,1850.514855,8956.491898
4104.263583,0.000000,2146.597232,8660.409521
4104.263898,383.047749,888.247130,9178.553681
4104.264213,0.000000,666.185348,9622.677246
4104.264529,-383.047749,-1036.288319,10066.800811
4104.264844,-766.095498,-1628.453072,10214.842000
4104.265159,-306.438199,-1406.391290,10584.944971
4104.265475,-383.047749,-814.226536,9844.739029
4104.265790,995.924147,222.061783,9400.615463
4104.266106,995.924147,1628.453072,9252.574275
4104.266421,612.876398,2368.659014,8956.491898
4104.266736,842.705048,1480.411884,8956.491898
4104.267052,229.828649,1258.350101,9400.615463
4104.267367,-153.219100,-296.082377,10955.047942
4104.267682,-306.438199,-1776.494261,10436.903782
4104.267998,0.000000,-1776.494261,10732.986159
4104.268313,306.438199,-1184.329507,10510.924376
4104.268629,766.095498,-518.144159,9992.780217
4104.268944,1149.143247,888.247130,9178.553681
4104.269259,842.705048,1924.535449,9178.553681
4104.269575,766.095498,1776.494261,8586.388927
4104.269890,766.095498,1036.288319,8956.491898
4104.270206,229.828649,592.164754,9326.594869
4104.270521,306.438199,-740.205942,10362.883188
4104.270836,-306.438199,-1628.453072,10510.924376
4104.271152,153.219100,-1110.308913,10288.862594
4104.271467,842.705048,-444.123565,10066.800811
4104.271782,689.485948,148.041188,9104.533087
4104.272098,1072.533697,1850.514855,8660.409521
4104.272413,153.219100,2368.659014,8512.368333
4104.272729,0.000000,1924.535449,9104.533087
4104.273044,-229.828649,962.267725,9178.553681
4104.273359,-689.485948,-74.020594,10140.821405
4104.273675,-1378.971896,-1184.329507,10881.027347
4104.273990,-1532.190996,-1924.535449,10584.944971
4104.274305,-306.438199,-1258.350101,10288.862594
4104.274621,76.609550,-370.102971,9992.780217
4104.274936,153.219100,962.267725,9474.636058
4104.275252,229.828649,2072.576638,8512.368333
4104.275567,76.609550,2516.700203,8438.347739
4104.275882,229.828649,1850.514855,8364.327145
4104.276198,-306.438199,1036.288319,9104.533087
4104.276513,-995.924147,-814.226536,9622.677246
4104.276828,-995.924147,-1554.432478,10140.821405
4104.277144,-536.266849,-1702.473667,10288.862594
4104.277459,0.000000,-1258.350101,10066.800811
4104.277775,306.438199,-0.000000,9474.636058
4104.278090,383.047749,814.226536,9252.574275
4104.278405,0.000000,1924.535449,8586.388927
4104.278721,0.000000,1628.453072,8808.450710
4104.279036,383.047749,1184.329507,9326.594869
4104.279352,153.219100,-0.000000,9770.718434
4104.279667,-383.047749,-1184.329507,10362.883188
4104.279982,-306.438199,-1850.514855,10881.027347
4104.280298,153.219100,-1258.350101,10584.944971
4104.280613,919.314598,-444.123565,9918.759623
4104.280928,995.924147,740.205942,9474.636058
4104.281244,1302.362347,1776.494261,9548.656652
4104.281559,766.095498,2072.576638,8586.388927
4104.281875,689.485948,1332.370696,9104.533087
4104.282190,229.828649,370.102971,9696.697840
4104.282505,0.000000,-1258.350101,10584.944971
4104.282821,-459.657299,-2220.617826,11029.068536
4104.283136,-306.438199,-2294.638420,10584.944971
4104.283451,612.876398,-1036.288319,10807.006753
4104.283767,842.705048,-0.000000,9918.759623
4104.284082,1072.533697,962.267725,9104.533087
4104.284398,995.924147,2220.617826,9326.594869
4104.284713,689.485948,1480.411884,8808.450710
4104.285028,459.657299,740.205942,9474.636058
4104.285344,0.000000,-222.061783,9770.718434
4104.285659,-459.657299,-1628.453072,10436.903782
4104.285975,-919.314598,-2368.659014,10436.903782
4104.286290,-229.828649,-1554.432478,10066.800811
4104.286605,612.876398,-888.247130,9696.697840
4104.286921,383.047749,296.082377,9474.636058
4104.287236,306.438199,1332.370696,8586.388927
4104.287551,-153.219100,1480.411884,8216.285956
4104.287867,153.219100,740.205942,8660.409521
4104.288182,-153.219100,370.102971,9400.615463
4104.288498,-612.876398,-814.226536,9400.615463
4104.288813,-383.047749,-1776.494261,9770.718434
4104.289128,153.219100,-1628.453072,9918.759623
4104.289444,842.705048,-1184.329507,9474.636058
4104.289759,1302.362347,-74.020594,9252.574275
4104.290074,1072.533697,1628.453072,8364.327145
4104.290390,766.095498,2146.597232,7772.162391
4104.290705,689.485948,1776.494261,8290.306550
4104.291021,0.000000,592.164754,8882.471304
4104.291336,-536.266849,-148.041188,9474.636058
4104.291651,-689.485948,-1110.308913,9770.718434
4104.291967,-919.314598,-1998.556043,10362.883188
4104.292282,-612.876398,-1406.391290,10288.862594
4104.292597,0.000000,-444.123565,9844.739029
4104.292913,153.219100,814.226536,9622.677246
4104.293228,0.000000,1702.473667,9252.574275
4104.293544,0.000000,2368.659014,8808.450710
4104.293859,153.219100,1776.494261,8808.450710
4104.294174,306.438199,1110.308913,9548.656652
4104.294490,-306.438199,-0.000000,9992.780217
4104.294805,-459.657299,-1184.329507,10362.883188
4104.295121,0.000000,-1184.329507,10362.883188
4104.295436,0.000000,-518.144159,10214.842000
4104.295751,536.266849,-0.000000,9844.739029
4104.296067,612.876398,1110.308913,9622.677246
4104.296382,153.219100,1998.556043,9104.533087
4104.296697,-153.219100,1776.494261,9030.512492
4104.297013,0.000000,962.267725,9326.594869
4104.297328,-612.876398,518.144159,10288.862594
4104.297644,-842.705048,-740.205942,10584.944971
4104.297959,-1072.533697,-1110.308913,10807.006753
4104.298274,0.000000,-962.267725,10658.965565
4104.298590,995.924147,-222.061783,9918.759623
4104.298905,1072.533697,1036.288319,9474.636058
4104.299220,919.314598,2146.597232,9178.553681
4104.299536,842.705048,2664.741391,9326.594869
4104.299851,459.657299,2294.638420,8808.450710
4104.300167,383.047749,888.247130,9178.553681
4104.300482,0.000000,-222.061783,10510.924376
4104.300797,-766.095498,-1406.391290,10436.903782
4104.301113,-612.876398,-1554.432478,10510.924376
4104.301428,306.438199,-1628.453072,10510.924376
4104.301744,689.485948,-74.020594,9918.759623
4104.302059,459.657299,888.247130,9030.512492
4104.302374,383.047749,2368.659014,8364.327145
4104.302690,229.828649,2220.617826,8956.491898
4104.303005,306.438199,962.267725,8956.491898
4104.303320,-306.438199,666.185348,9474.636058
4104.303636,-689.485948,-666.185348,10288.862594
4104.303951,-842.705048,-1924.535449,10510.924376
4104.304267,-536.266849,-1480.411884,10584.944971
4104.304582,459.657299,-666.185348,10066.800811
4104.304897,689.485948,-222.061783,9622.677246
4104.305213,383.047749,1702.473667,8882.471304
4104.305528,229.828649,2146.597232,8438.347739
4104.305843,153.219100,1258.350101,8586.388927
4104.306159,0.000000,666.185348,8956.491898
4104.306474,-536.266849,-444.123565,9474.636058
4104.306790,-612.876398,-1998.556043,10140.821405
4104.307105,-766.095498,-2146.597232,10510.924376
4104.307420,0.000000,-1924.535449,9918.759623
4104.307736,995.924147,-1110.308913,9696.697840
4104.308051,689.485948,518.144159,9326.594869
4104.308367,536.266849,1776.494261,8660.409521
4104.308682,689.485948,1924.535449,8216.285956
4104.308997,842.705048,1258.350101,8734.430116
4104.309313,0.000000,222.061783,9474.636058
4104.309628,-306.438199,-666.185348,9326.594869
4104.309943,-536.266849,-1998.556043,9992.780217
4104.310259,0.000000,-2072.576638,10658.965565
4104.310574,689.485948,-1258.350101,9696.697840
4104.310890,536.266849,-74.020594,9474.636058
4104.311205,766.095498,1110.308913,9548.656652
4104.311520,383.047749,1998.556043,8734.430116
4104.311836,229.828649,1332.370696,8734.430116
4104.312151,383.047749,740.205942,9252.574275
4104.312466,0.000000,-296.082377,10066.800811
4104.312782,0.000000,-1480.411884,10436.903782
4104.313097,-612.876398,-1628.453072,9992.780217
4104.313413,229.828649,-962.267725,10510.924376
4104.313728,919.314598,-444.123565,10066.800811
4104.314043,995.924147,666.185348,9474.636058
4104.314359,689.485948,1480.411884,9252.574275
4104.314674,383.047749,1406.391290,8660.409521
4104.314989,842.705048,888.247130,8734.430116
4104.315305,-229.828649,444.123565,9622.677246
4104.315620,-536.266849,-740.205942,10658.965565
4104.315936,-1149.143247,-2072.576638,10510.924376
4104.316251,-536.266849,-1628.453072,10140.821405
4104.316566,612.876398,-1110.308913,9918.759623
4104.316882,842.705048,296.082377,9548.656652
4104.317197,689.485948,1998.556043,9178.553681
4104.317513,153.219100,2812.782580,8956.491898
4104.317828,306.438199,2146.597232,8956.491898
4104.318143,459.657299,1332.370696,9252.574275
4104.318459,0.000000,-0.000000,10066.800811
4104.318774,-306.438199,-962.267725,10807.006753
4104.319089,-459.657299,-1554.432478,10584.944971
4104.319405,-536.266849,-814.226536,9918.759623
4104.319720,229.828649,-0.000000,9770.718434
4104.320036,383.047749,1110.308913,9474.636058
4104.320351,153.219100,1776.494261,8956.491898
4104.320666,-383.047749,1924.535449,8882.471304
4104.320982,229.828649,1628.453072,9252.574275
4104.321297,0.000000,962.267725,9178.553681
4104.321612,-229.828649,-0.000000,9474.636058
4104.321928,-459.657299,-814.226536,10288.862594
4104.322243,-689.485948,-888.247130,10362.883188
4104.322559,612.876398,-222.061783,9770.718434
4104.322874,1302.362347,666.185348,9400.615463
4104.323189,1225.752797,1924.535449,8956.491898
4104.323505,459.657299,2368.659014,8586.388927
4104.323820,153.219100,2072.576638,8808.450710
4104.324136,0.000000,1110.308913,9030.512492
4104.324451,0.000000,592.164754,9918.759623
4104.324766,-536.266849,-592.164754,10658.965565
4104.325082,-919.314598,-1628.453072,10955.047942
4104.325397,-306.438199,-1480.411884,10658.965565
4104.325712,229.828649,-592.164754,10584.944971
4104.326028,919.314598,666.185348,9474.636058
4104.326343,766.095498,1628.453072,9400.615463
4104.326659,612.876398,2072.576638,8512.368333
4104.326974,612.876398,1702.473667,9030.512492
4104.327289,229.828649,814.226536,9770.718434
4104.327605,153.219100,-222.061783,9992.780217
4104.327920,-536.266849,-1332.370696,10584.944971
4104.328235,-1302.362347,-1776.494261,10510.924376
4104.328551,-229.828649,-1702.473667,10510.924376
4104.328866,536.266849,-666.185348,9770.718434
4104.329182,536.266849,444.123565,9474.636058
4104.329497,0.000000,1628.453072,9474.636058
4104.329812,-229.828649,962.267725,9252.574275
4104.330128,0.000000,888.247130,9474.636058
4104.330443,-383.047749,-444.123565,9844.739029
4104.330759,0.000000,-1258.350101,10288.862594
4104.331074,-766.095498,-1480.411884,10658.965565
4104.331389,-229.828649,-1332.370696,9918.759623
4104.331705,536.266849,-962.267725,9992.780217
4104.332020,612.876398,518.144159,9178.553681
4104.332335,536.266849,1184.329507,8660.409521
4104.332651,153.219100,1924.535449,8734.430116
4104.332966,0.000000,814.226536,9030.512492
4104.333282,0.000000,222.061783,8956.491898
4104.333597,-612.876398,-814.226536,9696.697840
4104.333912,-1302.362347,-1776.494261,10436.903782
4104.334228,-766.095498,-2294.638420,10732.986159
4104.334543,-612.876398,-1776.494261,10140.821405
4104.334858,229.828649,-518.144159,9474.636058
4104.335174,689.485948,814.226536,9030.512492
4104.335489,689.485948,1776.494261,8364.327145
4104.335805,229.828649,1850.514855,8660.409521
4104.336120,536.266849,1332.370696,8882.471304
4104.336435,0.000000,296.082377,9400.615463
4104.336751,-306.438199,-592.164754,9992.780217
4104.337066,-459.657299,-1776.494261,10214.842000
4104.337381,-383.047749,-2146.597232,10510.924376
4104.337697,689.485948,-1110.308913,9918.759623
4104.338012,1072.533697,-222.061783,9400.615463
4104.338328,919.314598,1184.329507,8882.471304
4104.338643,383.047749,2072.576638,8808.450710
4104.338958,229.828649,1776.494261,9104.533087
4104.339274,383.047749,740.205942,9178.553681
4104.339589,76.609550,-74.020594,9400.615463
4104.339905,0.000000,-1036.288319,9844.739029
4104.340220,0.000000,-1998.556043,10288.862594
4104.340535,383.047749,-1480.411884,10732.986159
4104.340851,919.314598,-148.041188,9844.739029
4104.341166,995.924147,1110.308913,9326.594869
4104.341481,689.485948,2368.659014,9104.533087
4104.341797,459.657299,2368.659014,9178.553681
4104.342112,229.828649,1628.453072,9474.636058
4104.342428,0.000000,592.164754,10066.800811
4104.342743,0.000000,-592.164754,10362.883188
4104.343058,-306.438199,-1480.411884,10362.883188
4104.343374,76.609550,-1184.329507,10362.883188
4104.343689,153.219100,-666.185348,9992.780217
4104.344004,842.705048,370.102971,9326.594869
4104.344320,766.095498,1776.494261,8882.471304
4104.344635,612.876398,2294.638420,8808.450710
4104.344951,306.438199,1554.432478,9252.574275
4104.345266,0.000000,888.247130,9622.677246
4104.345581,-536.266849,-74.020594,10214.842000
4104.345897,-459.657299,-740.205942,10658.965565
4104.346212,-1302.362347,-592.164754,10732.986159
4104.346528,0.000000,-518.144159,10584.944971
4104.346843,459.657299,-74.020594,10066.800811
4104.347158,766.095498,1036.288319,9400.615463
4104.347474,536.266849,2294.638420,8882.471304
4104.347789,153.219100,2294.638420,8882.471304
4104.348104,0.000000,1924.535449,9178.553681
4104.348420,-306.438199,962.267725,9474.636058
4104.348735,-612.876398,-592.164754,9844.739029
4104.349051,-306.438199,-1480.411884,10732.986159
4104.349366,-612.876398,-1702.473667,10510.924376
4104.349681,-383.047749,-1184.329507,9992.780217
4104.349997,153.219100,222.061783,9474.636058
4104.350312,153.219100,1406.391290,9104.533087
4104.350627,-306.438199,1776.494261,8586.388927
4104.350943,0.000000,1110.308913,8660.409521
4104.351258,-306.438199,592.164754,9326.594869
4104.351574,-306.438199,444.123565,9548.656652
4104.351889,-612.876398,-1184.329507,10288.862594
4104.352204,-459.657299,-1554.432478,9992.780217
4104.352520,612.876398,-1406.391290,11103.089130
4104.352835,1072.533697,-518.144159,9696.697840
4104.353151,1455.581446,518.144159,9030.512492
4104.353466,1072.533697,1850.514855,8660.409521
4104.353781,536.266849,2220.617826,8512.368333
4104.354097,459.657299,1184.329507,8734.430116
4104.354412,229.828649,370.102971,9326.594869
4104.354727,0.000000,-962.267725,9918.759623
4104.355043,-229.828649,-1998.556043,9992.780217
4104.355358,-229.828649,-2072.576638,10510.924376
4104.355674,766.095498,-1332.370696,9992.780217
4104.355989,1455.581446,-296.082377,9696.697840
4104.356304,1378.971896,814.226536,8882.471304
4104.356620,919.314598,1702.473667,8882.471304
4104.356935,919.314598,1480.411884,8734.430116
4104.357250,612.876398,962.267725,8808.450710
4104.357566,383.047749,-0.000000,9622.677246
4104.357881,0.000000,-1258.350101,10362.883188
4104.358197,-536.266849,-1998.556043,10436.903782
4104.358512,-229.828649,-1628.453072,10658.965565
4104.358827,383.047749,-814.226536,10140.821405
4104.359143,306.438199,296.082377,9400.615463
4104.359458,229.828649,1110.308913,9030.512492
4104.359773,0.000000,1036.288319,9252.574275
4104.360089,0.000000,666.185348,9474.636058
4104.360404,-306.438199,-0.000000,9622.677246
4104.360720,-689.485948,-370.102971,10066.800811
4104.361035,-919.314598,-1628.453072,10288.862594
4104.361350,-612.876398,-1776.494261,10436.903782
4104.361666,0.000000,-1480.411884,9622.677246
4104.361981,536.266849,-444.123565,9104.533087
4104.362297,536.266849,814.226536,9104.533087
4104.362612,0.000000,2220.617826,8808.450710
4104.362927,0.000000,1998.556043,8660.409521
4104.363243,-383.047749,1036.288319,9030.512492
4104.363559,-995.924147,-0.000000,9992.780217
4104.363874,-1225.752797,-1554.432478,10436.903782
4104.364189,-1225.752797,-1998.556043,10658.965565
4104.364504,-766.095498,-1554.432478,10658.965565
4104.364819,-306.438199,-370.102971,9770.718434
4104.365135,383.047749,740.205942,9178.553681
4104.365450,383.047749,2146.597232,8216.285956
4104.365765,383.047749,2368.659014,8142.265362
4104.366080,383.047749,2072.576638,8438.347739
4104.366396,0.000000,1406.391290,8808.450710
4104.366711,-229.828649,222.061783,9696.697840
4104.367026,-766.095498,-740.205942,10066.800811
4104.367341,-842.705048,-1406.391290,10140.821405
4104.367656,0.000000,-1036.288319,10807.006753
4104.367972,383.047749,-0.000000,10362.883188
4104.368287,766.095498,1332.370696,9474.636058
4104.368602,0.000000,2072.576638,9104.533087
4104.368917,76.609550,2294.638420,8512.368333
4104.369233,76.609550,1406.391290,8882.471304
4104.369548,-229.828649,814.226536,9474.636058
4104.369863,-229.828649,-222.061783,10214.842000
4104.370178,0.000000,-814.226536,9992.780217
4104.370494,306.438199,-962.267725,10214.842000
4104.370809,536.266849,-74.020594,9918.759623
4104.371124,1378.971896,666.185348,9474.636058
4104.371439,1532.190996,1998.556043,9548.656652
4104.371754,995.924147,2442.679609,8586.388927
4104.372070,612.876398,1258.350101,9178.553681
4104.372385,459.657299,740.205942,9326.594869
4104.372700,-229.828649,-0.000000,9992.780217
4104.373015,-459.657299,-962.267725,11029.068536
4104.373331,-536.266849,-1480.411884,10732.986159
4104.373646,229.828649,-962.267725,10510.924376
4104.373961,1149.143247,-74.020594,9992.780217
4104.374276,919.314598,962.267725,9474.636058
4104.374591,842.705048,2220.617826,8882.471304
4104.374907,612.876398,1998.556043,8364.327145
4104.375222,459.657299,1406.391290,9474.636058
4104.375537,0.000000,296.082377,9548.656652
4104.375852,-536.266849,-962.267725,10510.924376
4104.376168,-536.266849,-1406.391290,10807.006753
4104.376483,-229.828649,-1554.432478,10658.965565
4104.376798,383.047749,-666.185348,10066.800811
4104.377113,612.876398,296.082377,9770.718434
4104.377428,766.095498,1628.453072,9030.512492
4104.377744,76.609550,1776.494261,8734.430116
4104.378059,612.876398,1554.432478,8142.265362
4104.378374,0.000000,740.205942,9252.574275
4104.378689,-306.438199,-0.000000,9770.718434
4104.379005,-306.438199,-1628.453072,10510.924376
4104.379320,-842.705048,-2220.617826,10732.986159
4104.379635,0.000000,-1554.432478,10066.800811
4104.379950,383.047749,-666.185348,9400.615463
4104.380265,842.705048,592.164754,9030.512492
4104.380581,995.924147,1332.370696,8586.388927
4104.380896,459.657299,1480.411884,8438.347739
4104.381211,459.657299,1036.288319,8364.327145
4104.381526,0.000000,148.041188,9178.553681
4104.381842,-536.266849,-814.226536,9622.677246
4104.382157,-612.876398,-2220.617826,10140.821405
4104.382472,-689.485948,-2368.659014,10214.842000
4104.382787,153.219100,-1776.494261,10288.862594
4104.383103,536.266849,-444.123565,9622.677246
4104.383418,842.705048,666.185348,8290.306550
4104.383733,383.047749,1332.370696,8734.430116
4104.384048,153.219100,1258.350101,8364.327145
4104.384363,306.438199,592.164754,8808.450710
4104.384679,76.609550,-148.041188,9326.594869
4104.384994,-306.438199,-1628.453072,9844.739029
4104.385309,-689.485948,-1628.453072,10436.903782
4104.385624,76.609550,-1850.514855,10288.862594
4104.385940,766.095498,-1258.350101,9844.739029
4104.386255,766.095498,-0.000000,9474.636058
4104.386570,995.924147,1406.391290,8882.471304
4104.386885,229.828649,1406.391290,8956.491898
4104.387200,1072.533697,740.205942,9178.553681
4104.387516,919.314598,148.041188,9474.636058
4104.387831,0.000000,-666.185348,10066.800811
4104.388146,0.000000,-1480.411884,10807.006753
4104.388461,0.000000,-1628.453072,9992.780217
4104.388777,306.438199,-1036.288319,9770.718434
4104.389092,995.924147,-0.000000,9696.697840
4104.389407,919.314598,962.267725,9178.553681
4104.389722,229.828649,1702.473667,9178.553681
4104.390037,306.438199,1850.514855,8956.491898
4104.390353,76.609550,666.185348,9178.553681
4104.390668,-689.485948,592.164754,9548.656652
4104.390983,-689.485948,-740.205942,10436.903782
4104.391298,-689.485948,-1258.350101,10955.047942
4104.391614,-383.047749,-1332.370696,10658.965565
4104.391929,612.876398,-518.144159,9770.718434
4104.392244,306.438199,1332.370696,9400.615463
4104.392559,0.000000,2220.617826,9030.512492
4104.392874,-383.047749,2664.741391,8956.491898
4104.393190,0.000000,2294.638420,8660.409521
4104.393505,-612.876398,962.267725,9474.636058
4104.393820,-995.924147,148.041188,10066.800811
4104.394135,-1378.971896,-888.247130,10510.924376
4104.394451,-1532.190996,-1332.370696,10732.986159
4104.394766,-689.485948,-1036.288319,10881.027347
4104.395081,153.219100,222.061783,9770.718434
4104.395396,229.828649,1850.514855,9178.553681
4104.395711,-229.828649,2664.741391,8660.409521
4104.396027,0.000000,2886.803174,8586.388927
4104.396342,229.828649,1850.514855,8956.491898
4104.396657,0.000000,1110.308913,9474.636058
4104.396972,-459.657299,-666.185348,10436.903782
4104.397288,-919.314598,-962.267725,10658.965565
4104.397603,-306.438199,-1406.391290,10362.883188
4104.397918,536.266849,-370.102971,10510.924376
4104.398233,842.705048,1036.288319,9548.656652
4104.398549,612.876398,2220.617826,8956.491898
4104.398864,153.219100,2368.659014,9030.512492
4104.399179,459.657299,2146.597232,8512.368333
4104.399494,0.000000,1184.329507,8956.491898
4104.399809,0.000000,-0.000000,10140.821405
4104.400125,-383.047749,-1480.411884,10807.006753
4104.400440,-995.924147,-1776.494261,11103.089130
4104.400755,-229.828649,-962.267725,10584.944971
4104.401070,612.876398,-296.082377,10288.862594
4104.401386,995.924147,962.267725,9622.677246
4104.401701,1225.752797,1702.473667,9400.615463
4104.402016,919.314598,2072.576638,9104.533087
4104.402331,766.095498,1110.308913,9548.656652
4104.402646,689.485948,666.185348,9622.677246
4104.402962,536.266849,-592.164754,10140.821405
4104.403277,0.000000,-1332.370696,9918.759623
4104.403592,459.657299,-1850.514855,10066.800811
4104.403907,842.705048,-1480.411884,9918.759623
4104.404223,689.485948,-740.205942,9178.553681
4104.404538,612.876398,370.102971,8808.450710
4104.404853,76.609550,1036.288319,8734.430116
4104.405168,0.000000,518.144159,9030.512492
4104.405483,-459.657299,-222.061783,9400.615463
4104.405799,-842.705048,-1110.308913,9918.759623
4104.406114,-536.266849,-1776.494261,10288.862594
4104.406429,-459.657299,-1998.556043,9992.780217
4104.406744,459.657299,-1406.391290,9844.739029
4104.407060,1302.362347,-222.061783,9252.574275
4104.407375,1072.533697,740.205942,9178.553681
4104.407690,689.485948,1850.514855,8586.388927
4104.408005,0.000000,1480.411884,8734.430116
4104.408320,76.609550,740.205942,8660.409521
4104.408636,-306.438199,-222.061783,9474.636058
4104.408951,-766.095498,-1480.411884,10288.862594
4104.409266,-1455.581446,-2590.720797,10732.986159
4104.409581,-919.314598,-2812.782580,10510.924376
4104.409897,0.000000,-1702.473667,9622.677246
4104.410212,459.657299,-148.041188,9474.636058
4104.410527,383.047749,1110.308913,8660.409521
4104.410842,0.000000,1998.556043,8142.265362
4104.411157,153.219100,1702.473667,8068.244768
4104.411473,229.828649,814.226536,8364.327145
4104.411788,-459.657299,-0.000000,9400.615463
4104.412103,-689.485948,-1036.288319,10584.944971
4104.412418,-995.924147,-1406.391290,10732.986159
4104.412734,-383.047749,-962.267725,10214.842000
4104.413049,76.609550,-296.082377,10214.842000
4104.413364,229.828649,592.164754,9696.697840
4104.413679,0.000000,1850.514855,9474.636058
4104.413995,0.000000,1998.556043,8808.450710
4104.414310,0.000000,1332.370696,9030.512492
4104.414625,0.000000,444.123565,9474.636058
4104.414940,-383.047749,-222.061783,9548.656652
4104.415255,-306.438199,-888.247130,10066.800811
4104.415571,0.000000,-1184.329507,10214.842000
4104.415886,689.485948,-740.205942,9992.780217
4104.416201,1225.752797,518.144159,9178.553681
4104.416516,1378.971896,1332.370696,9030.512492
4104.416832,689.485948,2146.597232,8882.471304
4104.417147,459.657299,1850.514855,8956.491898
4104.417462,306.438199,1332.370696,9474.636058
4104.417777,0.000000,444.123565,10066.800811
4104.418092,-766.095498,-666.185348,10732.986159
4104.418408,-153.219100,-1110.308913,10955.047942
4104.418723,76.609550,-888.247130,10510.924376
4104.419038,1072.533697,-0.000000,10288.862594
4104.419353,1991.848295,1184.329507,9474.636058
4104.419669,1072.533697,2146.597232,8438.347739
4104.419984,612.876398,2442.679609,9030.512492
4104.420299,842.705048,1702.473667,9252.574275
4104.420614,76.609550,1258.350101,9030.512492
4104.420929,0.000000,-0.000000,10658.965565
4104.421245,-689.485948,-1406.391290,10140.821405
4104.421560,-766.095498,-1628.453072,10881.027347
4104.421875,-229.828649,-962.267725,10362.883188
4104.422190,229.828649,-0.000000,9992.780217
4104.422506,76.609550,1332.370696,9178.553681
4104.422821,0.000000,2072.576638,9104.533087
4104.423136,-229.828649,1998.556043,9104.533087
4104.423451,0.000000,1258.350101,9178.553681
4104.423766,-459.657299,1110.308913,9622.677246
4104.424082,-536.266849,-666.185348,10362.883188
4104.424397,-1072.533697,-1332.370696,10658.965565
4104.424712,-383.047749,-1628.453072,10584.944971
4104.425027,76.609550,-444.123565,9770.718434
4104.425343,689.485948,444.123565,9252.574275
4104.425658,229.828649,1406.391290,8586.388927
4104.425973,0.000000,1850.514855,8438.347739
4104.426288,0.000000,1258.350101,8364.327145
4104.426603,-919.314598,518.144159,9178.553681
4104.426919,-842.705048,-296.082377,9918.759623
4104.427234,-995.924147,-1702.473667,10510.924376
4104.427549,-689.485948,-1998.556043,10288.862594
4104.427864,153.219100,-1480.411884,10140.821405
4104.428180,1072.533697,-296.082377,10066.800811
4104.428495,1302.362347,740.205942,9104.533087
4104.428810,689.485948,2072.576638,8586.388927
4104.429125,612.876398,2072.576638,8142.265362
4104.429441,766.095498,1110.308913,8956.491898
4104.429756,76.609550,-0.000000,9622.677246
4104.430071,229.828649,-1110.308913,9918.759623
4104.430386,-459.657299,-2146.597232,10362.883188
4104.430701,-459.657299,-2442.679609,10436.903782
4104.431017,383.047749,-1554.432478,9992.780217
4104.431332,995.924147,-148.041188,9696.697840
4104.431647,842.705048,962.267725,9474.636058
4104.431962,459.657299,1480.411884,9104.533087
4104.432278,766.095498,1258.350101,8882.471304
4104.432593,612.876398,592.164754,9178.553681
4104.432908,229.828649,-592.164754,9844.739029
4104.433223,0.000000,-1332.370696,10288.862594
4104.433538,0.000000,-1924.535449,10362.883188
4104.433854,459.657299,-1998.556043,10732.986159
4104.434169,1302.362347,-888.247130,9770.718434
4104.434484,1149.143247,592.164754,9548.656652
4104.434799,536.266849,1628.453072,9030.512492
4104.435115,383.047749,1554.432478,8956.491898
4104.435430,0.000000,518.144159,9178.553681
4104.435745,-229.828649,-296.082377,9474.636058
4104.436060,-689.485948,-1480.411884,10214.842000
4104.436375,-766.095498,-2146.597232,10140.821405
4104.436691,0.000000,-1702.473667,10066.800811
4104.437006,383.047749,-518.144159,9770.718434
4104.437321,459.657299,444.123565,9548.656652
4104.437636,229.828649,1850.514855,8808.450710
4104.437952,229.828649,2368.659014,8216.285956
4104.438267,229.828649,1850.514855,8660.409521
4104.438582,-229.828649,740.205942,9252.574275
4104.438897,-842.705048,-74.020594,9918.759623
4104.439212,-766.095498,-1332.370696,11029.068536
4104.439528,-842.705048,-1554.432478,9918.759623
4104.439843,-383.047749,-1628.453072,10584.944971
4104.440158,383.047749,-222.061783,9844.739029
4104.440473,536.266849,1332.370696,8956.491898
4104.440789,153.219100,2146.597232,9030.512492
4104.441104,0.000000,2442.679609,8216.285956
4104.441419,229.828649,1776.494261,9030.512492
4104.441734,-153.219100,962.267725,9474.636058
4104.442049,-689.485948,-222.061783,9696.697840
4104.442365,-612.876398,-888.247130,10807.006753
4104.442680,-229.828649,-1036.288319,10658.965565
4104.442995,383.047749,-370.102971,10214.842000
4104.443310,383.047749,814.226536,9918.759623
4104.443626,383.047749,1776.494261,9178.553681
4104.443941,76.609550,2516.700203,9178.553681
4104.444256,766.095498,2590.720797,8882.471304
4104.444571,383.047749,1776.494261,9400.615463
4104.444887,0.000000,666.185348,9844.739029
4104.445202,0.000000,-592.164754,10288.862594
4104.445517,76.609550,-1110.308913,10436.903782
4104.445832,306.438199,-1406.391290,10584.944971
4104.446147,1072.533697,-74.020594,10214.842000
4104.446463,766.095498,1036.288319,9400.615463
4104.446778,459.657299,1628.453072,9178.553681
4104.447093,995.924147,1702.473667,8512.368333
4104.447408,842.705048,1554.432478,9178.553681
4104.447724,0.000000,814.226536,9696.697840
4104.448039,-536.266849,-444.123565,10510.924376
4104.448354,-536.266849,-1258.350101,10510.924376
4104.448669,0.000000,-1332.370696,10584.944971
4104.448984,689.485948,-740.205942,10584.944971
4104.449300,842.705048,-0.000000,9844.739029
4104.449615,842.705048,1184.329507,9030.512492
4104.449930,612.876398,2072.576638,9474.636058
4104.450245,306.438199,1406.391290,8734.430116
4104.450561,459.657299,666.185348,8882.471304
4104.450876,-229.828649,-148.041188,9696.697840
4104.451191,-689.485948,-1406.391290,10288.862594
4104.451506,-766.095498,-1850.514855,10288.862594
4104.451821,-306.438199,-1776.494261,9918.759623
4104.452137,306.438199,-518.144159,9622.677246
4104.452452,306.438199,740.205942,8956.491898
4104.452767,76.609550,1554.432478,8512.368333
4104.453082,0.000000,1480.411884,8808.450710
4104.453398,229.828649,1406.391290,9030.512492
4104.453713,-612.876398,518.144159,9622.677246
4104.454028,-919.314598,-518.144159,10066.800811
4104.454343,-1149.143247,-1554.432478,10510.924376
4104.454658,-842.705048,-1628.453072,10732.986159
4104.454974,-306.438199,-1036.288319,10362.883188
4104.455289,229.828649,-0.000000,9474.636058
4104.455604,76.609550,1258.350101,8882.471304
4104.455919,0.000000,1850.514855,8660.409521
4104.456235,0.000000,1554.432478,8216.285956
4104.456550,-842.705048,740.205942,8956.491898
4104.456865,-689.485948,-0.000000,9696.697840
4104.457180,-842.705048,-1406.391290,10436.903782
4104.457495,-766.095498,-1998.556043,10362.883188
4104.457811,0.000000,-1554.432478,10288.862594
4104.458126,1072.533697,-592.164754,9548.656652
4104.458441,1455.581446,666.185348,9326.594869
4104.458756,1072.533697,1554.432478,8216.285956
4104.459072,1225.752797,1702.473667,8512.368333
4104.459387,995.924147,1258.350101,8290.306550
4104.459702,689.485948,222.061783,8734.430116
4104.460017,229.828649,-222.061783,9918.759623
4104.460333,-76.609550,-1998.556043,10140.821405
4104.460648,76.609550,-2368.659014,10436.903782
4104.460963,459.657299,-1998.556043,10288.862594
4104.461278,1149.143247,-666.185348,9548.656652
4104.461593,919.314598,592.164754,9252.574275
4104.461909,766.095498,1554.432478,9326.594869
4104.462224,536.266849,1628.453072,9104.533087
4104.462539,1455.581446,1036.288319,9400.615463
4104.462854,612.876398,444.123565,9696.697840
4104.463170,306.438199,-518.144159,10436.903782
4104.463485,153.219100,-888.247130,10288.862594
4104.463800,383.047749,-962.267725,10214.842000
4104.464115,1378.971896,-740.205942,9844.739029
4104.464430,766.095498,592.164754,9548.656652
4104.464746,383.047749,1554.432478,9178.553681
4104.465061,0.000000,1924.535449,9030.512492
4104.465376,-229.828649,1036.288319,9326.594869
4104.465691,-306.438199,-0.000000,9696.697840
4104.466006,-1225.752797,-962.267725,10288.862594
4104.466321,-1532.190996,-1332.370696,10732.986159
4104.466637,-995.924147,-1554.432478,10584.944971
4104.466952,76.609550,-740.205942,10140.821405
4104.467267,306.438199,296.082377,9696.697840
4104.467582,383.047749,1776.494261,9104.533087
4104.467897,-306.438199,2812.782580,8956.491898
4104.468212,76.609550,2368.659014,8586.388927
4104.468528,76.609550,1554.432478,8808.450710
4104.468843,0.000000,518.144159,9474.636058
4104.469158,-612.876398,-666.185348,10140.821405
4104.469473,-1378.971896,-1702.473667,10732.986159
4104.469788,-995.924147,-1702.473667,10732.986159
4104.470104,-229.828649,-814.226536,9918.759623
4104.470419,229.828649,-0.000000,9548.656652
4104.470734,153.219100,1036.288319,8660.409521
4104.471049,0.000000,1924.535449,8364.327145
4104.471364,0.000000,1258.350101,8216.285956
4104.471679,76.609550,962.267725,8882.471304
4104.471995,-536.266849,-0.000000,9770.718434
4104.472310,-689.485948,-1110.308913,9622.677246
4104.472625,-766.095498,-1850.514855,10584.944971
4104.472940,383.047749,-1332.370696,10066.800811
4104.473255,1149.143247,-444.123565,9918.759623
4104.473570,612.876398,1184.329507,9474.636058
4104.473886,536.266849,2220.617826,9326.594869
4104.474201,229.828649,2072.576638,8882.471304
4104.474516,459.657299,1332.370696,8882.471304
4104.474831,689.485948,666.185348,8734.430116
4104.475146,306.438199,-740.205942,10066.800811
4104.475461,-306.438199,-1850.514855,10584.944971
4104.475777,0.000000,-1554.432478,10658.965565
4104.476092,919.314598,-1332.370696,10066.800811
4104.476407,1225.752797,-0.000000,9696.697840
4104.476722,1149.143247,1110.308913,8882.471304
4104.477037,842.705048,1850.514855,8882.471304
4104.477353,1072.533697,1480.411884,8734.430116
4104.477668,1072.533697,1036.288319,8956.491898
4104.477983,0.000000,-0.000000,9844.739029
4104.478298,-459.657299,-1184.329507,10288.862594
4104.478613,-612.876398,-1776.494261,10288.862594
4104.478928,0.000000,-1406.391290,10214.842000
4104.479244,536.266849,-296.082377,10066.800811
4104.479559,383.047749,370.102971,9696.697840
4104.479874,76.609550,1628.453072,8808.450710
4104.480189,-306.438199,1554.432478,8660.409521
4104.480504,0.000000,962.267725,9622.677246
4104.480819,-536.266849,-0.000000,9918.759623
4104.481135,-536.266849,-740.205942,10140.821405
4104.481450,-459.657299,-1406.391290,10436.903782
4104.481765,-536.266849,-1184.329507,10288.862594
4104.482080,229.828649,-962.267725,9622.677246
4104.482395,689.485948,444.123565,9030.512492
4104.482711,536.266849,1036.288319,9696.697840
4104.483026,0.000000,2220.617826,8512.368333
4104.483341,-306.438199,1702.473667,8660.409521
4104.483656,-306.438199,666.185348,9104.533087
4104.483971,-919.314598,-0.000000,9696.697840
4104.484286,-689.485948,-1480.411884,10362.883188
4104.484602,-1302.362347,-1776.494261,10955.047942
4104.484917,-689.485948,-1480.411884,10807.006753
4104.485232,0.000000,-444.123565,9844.739029
4104.485547,306.438199,962.267725,8956.491898
4104.485862,-306.438199,2072.576638,9030.512492
4104.486177,0.000000,2146.597232,8734.430116
4104.486493,76.609550,1628.453072,8956.491898
4104.486808,-383.047749,962.267725,9326.594869
4104.487123,-612.876398,-74.020594,10140.821405
4104.487438,-459.657299,-1184.329507,10066.800811
4104.487753,-306.438199,-1480.411884,10658.965565
4104.488069,766.095498,-888.247130,10140.821405
4104.488384,842.705048,-0.000000,9400.615463
4104.488699,766.095498,1406.391290,9178.553681
4104.489014,383.047749,2146.597232,8956.491898
4104.489329,383.047749,2072.576638,8660.409521
4104.489644,383.047749,1258.350101,8734.430116
4104.489960,153.219100,370.102971,9622.677246
4104.490275,-229.828649,-740.205942,10288.862594
4104.490590,-536.266849,-1480.411884,10214.842000
4104.490905,0.000000,-1258.350101,10510.924376
4104.491220,536.266849,-592.164754,10362.883188
4104.491535,1072.533697,666.185348,9400.615463
4104.491851,1532.190996,1480.411884,8660.409521
4104.492166,766.095498,2146.597232,8882.471304
4104.492481,1149.143247,1554.432478,9252.574275
4104.492796,306.438199,666.185348,9400.615463
4104.493111,383.047749,-148.041188,9918.759623
4104.493427,229.828649,-1332.370696,10955.047942
4104.493742,229.828649,-1554.432478,10510.924376
4104.494057,766.095498,-1110.308913,9844.739029
4104.494372,1378.971896,-0.000000,9696.697840
4104.494687,1072.533697,962.267725,9104.533087
4104.495002,459.657299,1554.432478,9030.512492
4104.495318,612.876398,1332.370696,8956.491898
4104.495633,383.047749,592.164754,9474.636058
4104.495948,0.000000,-0.000000,9622.677246
4104.496263,0.000000,-962.267725,10510.924376
4104.496578,-1149.143247,-1850.514855,10584.944971
4104.496893,0.000000,-1480.411884,10955.047942
4104.497209,689.485948,-444.123565,10066.800811
4104.497524,766.095498,888.247130,9252.574275
4104.497839,153.219100,1702.473667,8808.450710
4104.498154,0.000000,2442.679609,8660.409521
4104.498469,-153.219100,1702.473667,9252.574275
4104.498785,-536.266849,888.247130,9474.636058
4104.499100,-766.095498,-148.041188,9918.759623
4104.499415,-536.266849,-1924.535449,10362.883188
4104.499730,-612.876398,-1924.535449,10807.006753
4104.500045,459.657299,-1406.391290,10140.821405
4104.500360,459.657299,-296.082377,9474.636058
4104.500676,306.438199,1036.288319,9104.533087
4104.500991,76.609550,1702.473667,8660.409521
4104.501306,0.000000,1702.473667,8364.327145
4104.501621,306.438199,1184.329507,8142.265362
4104.501936,-766.095498,444.123565,8956.491898
4104.502251,-995.924147,-1110.308913,9696.697840
4104.502567,-1302.362347,-2220.617826,10066.800811
4104.502882,-842.705048,-2220.617826,10584.944971
4104.503197,0.000000,-1184.329507,10140.821405
4104.503512,306.438199,296.082377,9548.656652
4104.503827,1072.533697,1628.453072,8808.450710
4104.504143,229.828649,1776.494261,9178.553681
4104.504458,383.047749,1702.473667,8882.471304
4104.504773,306.438199,962.267725,8808.450710
4104.505088,0.000000,296.082377,9474.636058
4104.505403,-153.219100,-962.267725,10140.821405
4104.505718,153.219100,-1554.432478,9992.780217
4104.506034,766.095498,-1702.473667,10140.821405
4104.506349,612.876398,-296.082377,9474.636058
4104.506664,1072.533697,592.164754,9474.636058
4104.506979,766.095498,1850.514855,8956.491898
4104.507294,612.876398,1776.494261,9178.553681
4104.507609,689.485948,1258.350101,9252.574275
4104.507925,0.000000,222.061783,9696.697840
4104.508240,-153.219100,-666.185348,10362.883188
4104.508555,0.000000,-1332.370696,10510.924376
4104.508870,0.000000,-1110.308913,10436.903782
4104.509185,842.705048,-370.102971,10066.800811
4104.509500,842.705048,814.226536,9696.697840
4104.509816,383.047749,2146.597232,9104.533087
4104.510131,536.266849,2368.659014,9400.615463
4104.510446,229.828649,1850.514855,9474.636058
4104.510761,0.000000,666.185348,9474.636058
4104.511076,-612.876398,-0.000000,10066.800811
4104.511392,-689.485948,-1406.391290,10510.924376
4104.511707,-766.095498,-1628.453072,10510.924376
4104.512022,-306.438199,-1184.329507,10140.821405
4104.512337,229.828649,-0.000000,9474.636058
4104.512652,229.828649,1036.288319,8660.409521
4104.512967,76.609550,2072.576638,8364.327145
4104.513283,536.266849,2368.659014,8438.347739
4104.513598,0.000000,1332.370696,8882.471304
4104.513913,-153.219100,666.185348,9770.718434
4104.514228,-919.314598,-370.102971,10362.883188
4104.514543,-1225.752797,-1184.329507,10807.006753
4104.514858,-536.266849,-1776.494261,11177.109724
4104.515174,0.000000,-1036.288319,10140.821405
4104.515489,306.438199,296.082377,9696.697840
