#time,accel_x,accel_y,accel_z
3765.942264,76.609550,-0.000000,9696.697840
3765.942578,153.219100,-0.000000,9548.656652
3765.942892,229.828649,-0.000000,9696.697840
3765.943207,76.609550,148.041188,9474.636058
3765.943521,229.828649,444.123565,9918.759623
3765.943836,536.266849,296.082377,9622.677246
3765.944150,76.609550,296.082377,9992.780217
3765.944465,0.000000,148.041188,9548.656652
3765.944779,153.219100,-0.000000,9770.718434
3765.945094,153.219100,222.061783,10066.800811
3765.945408,0.000000,-0.000000,9770.718434
3765.945723,0.000000,-0.000000,9622.677246
3765.946037,-229.828649,-0.000000,9474.636058
3765.946352,306.438199,-0.000000,9622.677246
3765.946666,306.438199,-0.000000,9548.656652
3765.946981,0.000000,222.061783,9474.636058
3765.947295,0.000000,296.082377,9474.636058
3765.947609,76.609550,-0.000000,9252.574275
3765.947924,383.047749,-0.000000,9474.636058
3765.948238,229.828649,-0.000000,9548.656652
3765.948553,153.219100,-0.000000,9252.574275
3765.948867,306.438199,444.123565,9474.636058
3765.949182,0.000000,-444.123565,9474.636058
3765.949496,383.047749,-444.123565,9696.697840
3765.949811,306.438199,-0.000000,9548.656652
3765.950125,0.000000,-74.020594,9548.656652
3765.950440,0.000000,-222.061783,9400.615463
3765.950754,306.438199,-0.000000,9548.656652
3765.951069,153.219100,-0.000000,9548.656652
3765.951383,153.219100,222.061783,9622.677246
3765.951698,76.609550,148.041188,9474.636058
3765.952012,306.438199,-0.000000,9474.636058
3765.952327,306.438199,-0.000000,9548.656652
3765.952641,0.000000,-0.000000,9696.697840
3765.952955,383.047749,370.102971,9474.636058
3765.953270,229.828649,444.123565,9474.636058
3765.953584,76.609550,-0.000000,9474.636058
3765.953899,76.609550,-0.000000,9770.718434
3765.954213,229.828649,222.061783,9548.656652
3765.954528,153.219100,370.102971,9696.697840
3765.954842,0.000000,-0.000000,9770.718434
3765.955157,153.219100,148.041188,9474.636058
3765.955471,383.047749,-222.061783,9326.594869
3765.955786,-306.438199,74.020594,9770.718434
3765.956100,0.000000,-0.000000,9696.697840
3765.956415,0.000000,444.123565,9770.718434
3765.956729,-229.828649,-0.000000,9622.677246
3765.957044,689.485948,-0.000000,9844.739029
3765.957358,0.000000,148.041188,9474.636058
3765.957672,0.000000,222.061783,9326.594869
3765.957987,0.000000,-0.000000,9992.780217
3765.958301,-229.828649,-0.000000,9474.636058
3765.958616,76.609550,222.061783,9548.656652
3765.958930,76.609550,-0.000000,9474.636058
3765.959245,153.219100,370.102971,9474.636058
3765.959559,229.828649,370.102971,9400.615463
3765.959874,153.219100,-0.000000,9474.636058
3765.960188,459.657299,-0.000000,9696.697840
3765.960503,229.828649,222.061783,9474.636058
3765.960817,153.219100,-0.000000,9474.636058
3765.961132,76.609550,-0.000000,9474.636058
3765.961446,76.609550,-222.061783,9622.677246
3765.961761,229.828649,296.082377,9548.656652
3765.962075,153.219100,-0.000000,9548.656652
3765.962390,459.657299,-0.000000,9770.718434
3765.962704,383.047749,-0.000000,9474.636058
3765.963018,612.876398,296.082377,9548.656652
3765.963333,383.047749,518.144159,9326.594869
3765.963647,766.095498,666.185348,9696.697840
3765.963962,612.876398,1110.308913,9400.615463
3765.964276,766.095498,666.185348,8882.471304
3765.964591,842.705048,-0.000000,9400.615463
3765.964905,766.095498,370.102971,9474.636058
3765.965220,536.266849,370.102971,9474.636058
3765.965534,689.485948,222.061783,9918.759623
3765.965849,612.876398,74.020594,9992.780217
3765.966163,306.438199,518.144159,9474.636058
3765.966478,842.705048,888.247130,9622.677246
3765.966792,689.485948,814.226536,9696.697840
3765.967107,1149.143247,740.205942,9918.759623
3765.967421,1455.581446,444.123565,9622.677246
3765.967735,1608.800546,666.185348,9844.739029
3765.968050,1762.019645,1036.288319,9696.697840
3765.968364,2451.505594,1406.391290,9770.718434
3765.968679,2451.505594,1554.432478,9622.677246
3765.968993,2834.553343,1776.494261,8586.388927
3765.969308,3294.210641,2220.617826,8734.430116
3765.969622,3524.039291,2516.700203,8586.388927
3765.969937,3524.039291,2220.617826,8364.327145
3765.970251,3753.867940,2220.617826,8734.430116
3765.970566,3600.648841,1924.535449,8956.491898
3765.970880,3600.648841,1924.535449,8734.430116
3765.971195,3294.210641,2368.659014,9104.533087
3765.971509,3217.601092,2220.617826,9400.615463
3765.971824,2911.162892,2738.761985,9474.636058
3765.972138,3064.381992,3034.844362,9030.512492
3765.972453,3140.991542,3330.926739,9178.553681
3765.972767,3294.210641,3478.967927,9104.533087
3765.973081,3140.991542,3775.050304,9178.553681
3765.973396,2834.553343,3849.070898,9326.594869
3765.973710,2604.724693,3552.988522,9474.636058
3765.974025,2451.505594,3627.009116,9622.677246
3765.974339,2298.286494,3627.009116,10288.862594
3765.974654,1915.238745,3775.050304,10955.047942
3765.974968,1685.410096,3701.029710,10881.027347
3765.975283,1838.629195,3552.988522,11103.089130
3765.975597,1915.238745,3997.112087,10881.027347
3765.975912,1608.800546,4219.173869,10807.006753
3765.976226,1302.362347,3775.050304,10288.862594
3765.976541,1608.800546,3849.070898,10436.903782
3765.976855,2145.067394,4293.194464,11103.089130
3765.977170,2068.457845,4367.215058,9844.739029
3765.977484,2145.067394,4441.235652,9844.739029
3765.977798,2374.896044,4071.132681,9992.780217
3765.978113,1991.848295,3701.029710,9696.697840
3765.978427,1762.019645,3330.926739,9622.677246
3765.978742,1608.800546,3108.864956,10140.821405
3765.979056,1915.238745,2886.803174,10214.842000
3765.979371,1915.238745,2812.782580,10214.842000
3765.979685,1685.410096,2738.761985,9918.759623
3765.980000,1455.581446,2886.803174,10066.800811
3765.980314,1685.410096,3478.967927,9918.759623
3765.980629,1608.800546,3330.926739,9622.677246
3765.980943,1685.410096,2812.782580,9548.656652
3765.981258,1685.410096,2960.823768,9326.594869
3765.981572,1915.238745,2738.761985,9548.656652
3765.981887,1685.410096,2368.659014,9622.677246
3765.982201,1455.581446,1480.411884,9770.718434
3765.982515,1455.581446,1110.308913,10214.842000
3765.982830,1378.971896,1110.308913,10140.821405
3765.983144,1302.362347,1480.411884,9992.780217
3765.983459,1532.190996,1628.453072,10066.800811
3765.983773,2068.457845,1628.453072,9696.697840
3765.984088,2528.115143,1998.556043,9844.739029
3765.984402,2528.115143,1998.556043,8882.471304
3765.984717,2757.943793,1776.494261,8734.430116
3765.985031,3447.429741,2072.576638,8364.327145
3765.985346,3677.258390,1702.473667,8660.409521
3765.985660,3677.258390,1850.514855,8438.347739
3765.985975,3830.477490,740.205942,8364.327145
3765.986289,3294.210641,1480.411884,8808.450710
3765.986604,2911.162892,1184.329507,9178.553681
3765.986918,2451.505594,1036.288319,8734.430116
3765.987233,2451.505594,814.226536,8956.491898
3765.987547,1915.238745,666.185348,9474.636058
3765.987861,1838.629195,222.061783,9770.718434
3765.988176,1532.190996,74.020594,9844.739029
3765.988490,2068.457845,444.123565,10584.944971
3765.988805,2145.067394,962.267725,10066.800811
3765.989119,2681.334243,1406.391290,9918.759623
3765.989434,3600.648841,2072.576638,9400.615463
3765.989748,4136.915689,2220.617826,8660.409521
3765.990063,4060.306139,2368.659014,8068.244768
3765.990377,3983.696590,2738.761985,7920.203579
3765.990692,3294.210641,1924.535449,7846.182985
3765.991006,2911.162892,1480.411884,8734.430116
3765.991321,2068.457845,1036.288319,8882.471304
3765.991635,1072.533697,-0.000000,9548.656652
3765.991950,306.438199,-740.205942,11029.068536
3765.992264,-383.047749,-1036.288319,11917.315666
3765.992578,-536.266849,-222.061783,12731.542202
3765.992893,0.000000,444.123565,12583.501014
3765.993207,1072.533697,1776.494261,11325.150913
3765.993522,2604.724693,2886.803174,10510.924376
3765.993836,3600.648841,4145.153275,9400.615463
3765.994151,4213.525239,4589.276840,7624.121203
3765.994465,4903.011187,4885.359217,6809.894666
3765.994780,4673.182538,4589.276840,7105.977043
3765.995094,4213.525239,3552.988522,7920.203579
3765.995409,3217.601092,2294.638420,8956.491898
3765.995723,1685.410096,1258.350101,10140.821405
3765.996038,0.000000,592.164754,11621.233289
3765.996352,-1149.143247,666.185348,12287.418637
3765.996667,-1302.362347,740.205942,12805.562797
3765.996981,-995.924147,1702.473667,11547.212695
3765.997296,0.000000,2960.823768,9992.780217
3765.997610,919.314598,3552.988522,8956.491898
3765.997924,2604.724693,4367.215058,7994.224174
3765.998239,3907.087040,3997.112087,7772.162391
3765.998553,4519.963438,4515.256246,7994.224174
3765.998868,4290.134789,4663.297435,8660.409521
3765.999182,3140.991542,4145.153275,9474.636058
3765.999497,2528.115143,3478.967927,10955.047942
3765.999811,1608.800546,3182.885551,11621.233289
3766.000126,1225.752797,3182.885551,10955.047942
3766.000440,306.438199,3330.926739,9918.759623
3766.000755,766.095498,2664.741391,9992.780217
3766.001069,1838.629195,2368.659014,9696.697840
3766.001384,2145.067394,2220.617826,8734.430116
3766.001698,2451.505594,2368.659014,7846.182985
3766.002013,2528.115143,2738.761985,7920.203579
3766.002327,3217.601092,2960.823768,8438.347739
3766.002641,3217.601092,3182.885551,8438.347739
3766.002956,2528.115143,3552.988522,8364.327145
3766.003270,1991.848295,2960.823768,9548.656652
3766.003585,1378.971896,1554.432478,10807.006753
3766.003899,536.266849,1110.308913,11843.295072
3766.004214,0.000000,1110.308913,11991.336260
3766.004528,229.828649,1998.556043,11621.233289
3766.004843,766.095498,2664.741391,11177.109724
3766.005157,1302.362347,3330.926739,9770.718434
3766.005472,2221.676944,3552.988522,8734.430116
3766.005786,2528.115143,3330.926739,7920.203579
3766.006101,3140.991542,2738.761985,7624.121203
3766.006415,2911.162892,1924.535449,8882.471304
3766.006730,1685.410096,296.082377,9548.656652
3766.007044,995.924147,-666.185348,10807.006753
3766.007359,76.609550,-962.267725,11695.253884
3766.007673,-536.266849,-148.041188,11029.068536
3766.007987,-766.095498,888.247130,10658.965565
3766.008302,0.000000,740.205942,10510.924376
3766.008616,536.266849,1036.288319,10066.800811
3766.008931,842.705048,666.185348,9104.533087
3766.009245,1915.238745,1184.329507,8660.409521
3766.009560,2221.676944,1184.329507,8586.388927
3766.009874,2068.457845,518.144159,8808.450710
3766.010189,1991.848295,1258.350101,8512.368333
3766.010503,1608.800546,370.102971,8438.347739
3766.010818,1149.143247,-444.123565,9326.594869
3766.011132,0.000000,-740.205942,10214.842000
3766.011447,-1225.752797,-1480.411884,10732.986159
3766.011761,-2221.676944,-1850.514855,11103.089130
3766.012076,-2604.724693,-2146.597232,11029.068536
3766.012390,-2221.676944,-1406.391290,10658.965565
3766.012705,-1608.800546,-1110.308913,9696.697840
3766.013019,-153.219100,-1110.308913,9474.636058
3766.013334,0.000000,-518.144159,9178.553681
3766.013648,536.266849,-222.061783,9030.512492
3766.013963,1608.800546,148.041188,8882.471304
3766.014277,1608.800546,-74.020594,8438.347739
3766.014592,1455.581446,-0.000000,8438.347739
3766.014906,689.485948,-666.185348,9030.512492
3766.015221,612.876398,-1628.453072,9104.533087
3766.015535,76.609550,-1776.494261,10140.821405
3766.015850,-995.924147,-1332.370696,10140.821405
3766.016164,-1072.533697,-1776.494261,9918.759623
3766.016479,-1225.752797,-1702.473667,9400.615463
3766.016793,-995.924147,-1480.411884,8882.471304
3766.017108,0.000000,-1110.308913,8512.368333
3766.017422,0.000000,-1258.350101,8882.471304
3766.017737,306.438199,-1406.391290,9178.553681
3766.018051,229.828649,-1480.411884,9696.697840
3766.018366,612.876398,-962.267725,9474.636058
3766.018680,689.485948,-1258.350101,10066.800811
3766.018995,995.924147,-592.164754,10288.862594
3766.019309,229.828649,518.144159,9326.594869
3766.019624,153.219100,666.185348,9400.615463
3766.019938,153.219100,444.123565,9326.594869
3766.020252,0.000000,-0.000000,9252.574275
3766.020567,0.000000,-148.041188,9104.533087
3766.020881,0.000000,-666.185348,8734.430116
3766.021196,76.609550,-962.267725,8512.368333
3766.021510,0.000000,-1110.308913,8882.471304
3766.021825,0.000000,-888.247130,8734.430116
3766.022139,-229.828649,-1036.288319,9622.677246
3766.022454,-229.828649,-592.164754,10140.821405
3766.022768,-919.314598,-666.185348,10140.821405
3766.023083,-1072.533697,74.020594,10288.862594
3766.023397,-383.047749,962.267725,9844.739029
3766.023712,0.000000,1480.411884,9326.594869
3766.024026,766.095498,1554.432478,8734.430116
3766.024341,1378.971896,1628.453072,9104.533087
3766.024655,1685.410096,1332.370696,8882.471304
3766.024970,1302.362347,1776.494261,9400.615463
3766.025284,919.314598,1184.329507,9326.594869
3766.025599,1149.143247,1258.350101,9622.677246
3766.025913,306.438199,666.185348,10140.821405
3766.026228,0.000000,222.061783,9622.677246
3766.026542,-612.876398,-0.000000,10214.842000
3766.026857,-459.657299,-0.000000,10732.986159
3766.027171,-766.095498,296.082377,11177.109724
3766.027486,-766.095498,592.164754,11251.130318
3766.027800,0.000000,962.267725,10362.883188
3766.028115,0.000000,1628.453072,9918.759623
3766.028429,536.266849,2294.638420,9474.636058
3766.028744,1378.971896,2590.720797,9178.553681
3766.029058,1838.629195,1850.514855,8660.409521
3766.029373,1838.629195,1554.432478,9770.718434
3766.029687,689.485948,1184.329507,10214.842000
3766.030002,153.219100,666.185348,10584.944971
3766.030316,-306.438199,814.226536,11177.109724
3766.030631,-995.924147,1110.308913,10732.986159
3766.030945,-1302.362347,962.267725,10584.944971
3766.031260,-919.314598,666.185348,10732.986159
3766.031574,-689.485948,296.082377,10362.883188
3766.031889,-536.266849,444.123565,9918.759623
3766.032203,0.000000,296.082377,9844.739029
3766.032518,153.219100,1036.288319,9326.594869
3766.032832,612.876398,666.185348,8882.471304
3766.033147,842.705048,888.247130,8660.409521
3766.033461,1378.971896,592.164754,8586.388927
3766.033776,1149.143247,-0.000000,9770.718434
3766.034090,229.828649,888.247130,9400.615463
3766.034405,-229.828649,222.061783,9622.677246
3766.034719,-306.438199,-0.000000,9918.759623
3766.035034,-536.266849,-0.000000,9622.677246
3766.035348,-689.485948,-0.000000,8956.491898
3766.035663,-612.876398,-518.144159,9104.533087
3766.035977,-459.657299,-148.041188,9326.594869
3766.036292,0.000000,-666.185348,9252.574275
3766.036606,-153.219100,-296.082377,9104.533087
3766.036921,153.219100,-518.144159,9178.553681
3766.037235,229.828649,-296.082377,9178.553681
3766.037550,0.000000,-0.000000,9252.574275
3766.037864,76.609550,-0.000000,9252.574275
3766.038179,0.000000,-444.123565,9918.759623
3766.038493,-383.047749,-148.041188,9326.594869
3766.038808,-536.266849,-370.102971,9622.677246
3766.039122,-306.438199,-148.041188,9770.718434
3766.039437,0.000000,-518.144159,9770.718434
3766.039751,76.609550,-222.061783,9400.615463
3766.040066,536.266849,-148.041188,8956.491898
3766.040380,689.485948,-740.205942,8956.491898
3766.040695,153.219100,-888.247130,9474.636058
3766.041009,-306.438199,-888.247130,9696.697840
3766.041324,-612.876398,-1332.370696,10436.903782
3766.041638,-459.657299,-888.247130,10214.842000
3766.041953,-76.609550,-518.144159,10288.862594
3766.042267,-459.657299,-0.000000,9696.697840
3766.042582,153.219100,-296.082377,9844.739029
3766.042896,0.000000,-370.102971,9770.718434
3766.043211,76.609550,-74.020594,9474.636058
3766.043525,383.047749,-518.144159,9622.677246
3766.043840,1149.143247,-666.185348,9696.697840
3766.044154,612.876398,-370.102971,9178.553681
3766.044469,459.657299,-148.041188,9178.553681
3766.044783,229.828649,-74.020594,8956.491898
3766.045098,229.828649,-962.267725,10140.821405
3766.045412,0.000000,-888.247130,10140.821405
3766.045727,-153.219100,-740.205942,10214.842000
3766.046041,-153.219100,-518.144159,10362.883188
3766.046355,0.000000,-370.102971,9622.677246
3766.046670,153.219100,-0.000000,9474.636058
3766.046984,689.485948,-0.000000,9474.636058
3766.047299,919.314598,370.102971,8882.471304
3766.047613,919.314598,222.061783,8660.409521
3766.047928,995.924147,518.144159,8660.409521
3766.048242,842.705048,296.082377,9400.615463
3766.048557,612.876398,296.082377,9030.512492
3766.048871,383.047749,-0.000000,8956.491898
3766.049186,0.000000,-0.000000,9030.512492
3766.049500,0.000000,148.041188,9696.697840
3766.049815,-383.047749,-0.000000,10140.821405
3766.050129,-1149.143247,-0.000000,10214.842000
3766.050444,-1685.410096,592.164754,9400.615463
3766.050758,0.000000,-518.144159,11177.109724
3766.051073,0.000000,1406.391290,9622.677246
3766.051387,-842.705048,962.267725,9252.574275
3766.051702,306.438199,296.082377,9770.718434
3766.052016,689.485948,1036.288319,9252.574275
3766.052331,76.609550,1184.329507,9474.636058
3766.052645,306.438199,666.185348,9770.718434
3766.052960,459.657299,888.247130,10066.800811
3766.053274,306.438199,740.205942,9474.636058
3766.053589,-383.047749,962.267725,10140.821405
3766.053903,-459.657299,1110.308913,9548.656652
3766.054218,0.000000,148.041188,10140.821405
3766.054532,229.828649,592.164754,9992.780217
3766.054847,0.000000,814.226536,9696.697840
3766.055161,689.485948,814.226536,9474.636058
3766.055476,919.314598,1258.350101,9104.533087
3766.055790,306.438199,1628.453072,9104.533087
3766.056105,689.485948,1258.350101,8956.491898
3766.056419,536.266849,1184.329507,9474.636058
3766.056734,0.000000,222.061783,10436.903782
3766.057048,-306.438199,370.102971,10510.924376
3766.057363,-842.705048,296.082377,10288.862594
3766.057677,-459.657299,444.123565,11103.089130
3766.057992,-153.219100,962.267725,10584.944971
3766.058306,0.000000,1332.370696,9622.677246
3766.058621,689.485948,1258.350101,9622.677246
3766.058935,1149.143247,1184.329507,9400.615463
3766.059250,919.314598,962.267725,9844.739029
3766.059564,689.485948,888.247130,9474.636058
3766.059879,459.657299,666.185348,8808.450710
3766.060193,306.438199,666.185348,9178.553681
3766.060508,153.219100,444.123565,9178.553681
3766.060822,0.000000,-0.000000,9474.636058
3766.061137,-306.438199,-222.061783,10140.821405
3766.061451,-689.485948,-444.123565,10288.862594
3766.061766,-689.485948,-444.123565,10288.862594
3766.062080,-919.314598,-370.102971,11103.089130
3766.062395,-459.657299,-222.061783,10362.883188
3766.062709,0.000000,444.123565,9992.780217
3766.063024,919.314598,370.102971,9400.615463
3766.063338,1225.752797,592.164754,9326.594869
3766.063653,1608.800546,592.164754,9326.594869
3766.063967,1302.362347,296.082377,9178.553681
3766.064282,766.095498,-0.000000,8882.471304
3766.064596,766.095498,-0.000000,9548.656652
3766.064911,0.000000,-222.061783,8956.491898
3766.065225,-459.657299,-1036.288319,9252.574275
3766.065540,-306.438199,-1850.514855,10140.821405
3766.065854,-766.095498,-1702.473667,10288.862594
3766.066169,-995.924147,-1628.453072,10288.862594
3766.066483,-153.219100,-1406.391290,10362.883188
3766.066798,-306.438199,-1258.350101,9918.759623
3766.067112,306.438199,-518.144159,9474.636058
3766.067427,842.705048,-0.000000,8660.409521
3766.067741,1072.533697,-444.123565,9326.594869
3766.068056,1225.752797,-296.082377,8808.450710
3766.068370,612.876398,-444.123565,8734.430116
3766.068685,306.438199,-814.226536,9252.574275
3766.068999,689.485948,-518.144159,9474.636058
3766.069314,-153.219100,74.020594,9252.574275
3766.069628,153.219100,-222.061783,8956.491898
3766.069943,-459.657299,-814.226536,9400.615463
3766.070257,-919.314598,-1480.411884,9992.780217
3766.070572,-842.705048,-1776.494261,9992.780217
3766.070886,-995.924147,-1776.494261,10214.842000
3766.071201,-995.924147,-962.267725,10436.903782
3766.071515,-383.047749,-444.123565,9844.739029
3766.071830,-153.219100,222.061783,9104.533087
3766.072144,153.219100,222.061783,9104.533087
3766.072459,459.657299,666.185348,9474.636058
3766.072773,459.657299,-0.000000,9696.697840
3766.073087,76.609550,-0.000000,9474.636058
3766.073402,153.219100,592.164754,9474.636058
3766.073716,153.219100,444.123565,9326.594869
3766.074031,-76.609550,592.164754,9178.553681
3766.074345,0.000000,-0.000000,9326.594869
3766.074660,0.000000,-222.061783,9326.594869
3766.074974,-536.266849,-148.041188,9844.739029
3766.075289,-842.705048,148.041188,9474.636058
3766.075603,-612.876398,-666.185348,9770.718434
3766.075918,153.219100,74.020594,10066.800811
3766.076232,-229.828649,370.102971,9548.656652
3766.076547,0.000000,148.041188,9400.615463
3766.076861,459.657299,962.267725,9918.759623
3766.077176,459.657299,1110.308913,9548.656652
3766.077490,459.657299,1184.329507,9474.636058
3766.077805,536.266849,1332.370696,9770.718434
3766.078119,612.876398,1332.370696,9400.615463
3766.078434,536.266849,1554.432478,9104.533087
3766.078748,229.828649,1776.494261,9252.574275
3766.079063,383.047749,962.267725,9548.656652
3766.079377,0.000000,740.205942,9844.739029
3766.079692,-536.266849,518.144159,10140.821405
3766.080006,-536.266849,-0.000000,10584.944971
3766.080321,306.438199,-0.000000,10732.986159
3766.080635,-76.609550,1110.308913,10584.944971
3766.080950,-153.219100,1702.473667,9770.718434
3766.081264,153.219100,1406.391290,9622.677246
3766.081579,919.314598,1184.329507,9474.636058
3766.081893,1378.971896,962.267725,9400.615463
3766.082208,1378.971896,1258.350101,9770.718434
3766.082522,1149.143247,1628.453072,9178.553681
3766.082837,995.924147,1554.432478,9178.553681
3766.083151,842.705048,1924.535449,9252.574275
3766.083466,1072.533697,1406.391290,9030.512492
3766.083780,229.828649,296.082377,9622.677246
3766.084095,76.609550,-74.020594,10066.800811
3766.084409,-689.485948,-148.041188,10732.986159
3766.084724,-459.657299,-0.000000,10584.944971
3766.085038,-383.047749,-0.000000,10732.986159
3766.085353,-536.266849,222.061783,10140.821405
3766.085667,0.000000,370.102971,9918.759623
3766.085982,689.485948,740.205942,9918.759623
3766.086296,766.095498,740.205942,9770.718434
3766.086611,459.657299,740.205942,9474.636058
3766.086925,995.924147,518.144159,9474.636058
3766.087240,1149.143247,518.144159,8882.471304
3766.087554,536.266849,1036.288319,9104.533087
3766.087869,306.438199,444.123565,8660.409521
3766.088183,612.876398,-592.164754,9104.533087
3766.088498,76.609550,-666.185348,9696.697840
3766.088812,-689.485948,-592.164754,9770.718434
3766.089127,-766.095498,-1184.329507,9770.718434
3766.089441,-689.485948,-962.267725,10214.842000
3766.089756,0.000000,-1258.350101,10658.965565
3766.090070,-689.485948,-888.247130,9992.780217
3766.090385,-229.828649,-518.144159,9252.574275
3766.090699,383.047749,-518.144159,9474.636058
3766.091014,612.876398,-0.000000,9326.594869
3766.091328,995.924147,-0.000000,9474.636058
3766.091643,1455.581446,-0.000000,9400.615463
3766.091957,1149.143247,-0.000000,8808.450710
3766.092272,919.314598,-0.000000,8364.327145
3766.092586,689.485948,-0.000000,7920.203579
3766.092901,459.657299,-1110.308913,8882.471304
3766.093215,-306.438199,-1332.370696,9326.594869
3766.093530,-1378.971896,-1998.556043,9696.697840
3766.093844,-1225.752797,-2442.679609,10288.862594
3766.094159,-1378.971896,-2220.617826,10362.883188
3766.094473,-1838.629195,-1850.514855,10436.903782
3766.094788,-1608.800546,-962.267725,9844.739029
3766.095102,-919.314598,-740.205942,9918.759623
3766.095417,0.000000,-148.041188,9844.739029
3766.095731,459.657299,-0.000000,9474.636058
3766.096046,995.924147,-0.000000,9030.512492
3766.096360,1302.362347,592.164754,8734.430116
3766.096675,1149.143247,1406.391290,8586.388927
3766.096989,919.314598,962.267725,8142.265362
3766.097304,842.705048,222.061783,8734.430116
3766.097618,229.828649,-518.144159,9474.636058
3766.097933,-459.657299,-518.144159,9696.697840
3766.098247,-842.705048,-1554.432478,10214.842000
3766.098562,-1302.362347,-1406.391290,10658.965565
3766.098876,-1608.800546,-1332.370696,10436.903782
3766.099190,-1149.143247,-962.267725,9918.759623
3766.099505,-612.876398,-74.020594,9696.697840
3766.099819,153.219100,-0.000000,9844.739029
3766.100134,766.095498,666.185348,9696.697840
3766.100448,1455.581446,962.267725,8734.430116
3766.100763,2145.067394,1554.432478,8808.450710
3766.101077,2145.067394,2220.617826,8586.388927
3766.101392,1608.800546,1998.556043,8586.388927
3766.101706,1608.800546,1702.473667,8512.368333
3766.102021,995.924147,814.226536,9548.656652
3766.102335,459.657299,-222.061783,10140.821405
3766.102650,-612.876398,-222.061783,10732.986159
3766.102964,-1072.533697,-222.061783,10807.006753
3766.103279,-1455.581446,-0.000000,10881.027347
3766.103593,-919.314598,518.144159,10955.047942
3766.103908,-766.095498,-0.000000,9696.697840
3766.104222,-306.438199,740.205942,9400.615463
3766.104537,536.266849,444.123565,10362.883188
3766.104851,306.438199,1628.453072,9474.636058
3766.105166,689.485948,2146.597232,9474.636058
3766.105480,1302.362347,2220.617826,9844.739029
3766.105795,1149.143247,2220.617826,9252.574275
3766.106109,1378.971896,2220.617826,8882.471304
3766.106424,1072.533697,1554.432478,9474.636058
3766.106738,612.876398,1110.308913,9548.656652
3766.107053,0.000000,518.144159,10436.903782
3766.107367,-1072.533697,370.102971,9992.780217
3766.107682,-995.924147,-370.102971,10807.006753
3766.107996,-1149.143247,-148.041188,10362.883188
3766.108311,-1302.362347,-0.000000,9696.697840
3766.108625,-229.828649,-0.000000,10066.800811
3766.108940,229.828649,370.102971,9844.739029
3766.109254,229.828649,592.164754,9474.636058
3766.109569,995.924147,740.205942,9474.636058
3766.109883,1532.190996,1554.432478,9474.636058
3766.110198,1378.971896,1554.432478,9252.574275
3766.110512,1608.800546,1702.473667,8438.347739
3766.110827,1532.190996,1406.391290,8068.244768
3766.111141,1072.533697,962.267725,8734.430116
3766.111456,459.657299,-74.020594,9696.697840
3766.111770,-153.219100,-666.185348,9844.739029
3766.112085,-383.047749,-666.185348,10066.800811
3766.112399,-459.657299,-740.205942,9918.759623
3766.112714,-536.266849,-1036.288319,9992.780217
3766.113028,-536.266849,-962.267725,9992.780217
3766.113343,-766.095498,-1110.308913,9992.780217
3766.113657,-766.095498,-666.185348,9548.656652
3766.113972,76.609550,-0.000000,9770.718434
3766.114286,689.485948,-0.000000,9548.656652
3766.114601,995.924147,518.144159,9326.594869
3766.114915,995.924147,962.267725,8882.471304
3766.115230,766.095498,518.144159,8438.347739
3766.115544,919.314598,592.164754,8512.368333
3766.115859,842.705048,370.102971,9252.574275
3766.116173,383.047749,-222.061783,10066.800811
3766.116487,-306.438199,-888.247130,10140.821405
3766.116802,-459.657299,-1332.370696,9918.759623
3766.117116,-612.876398,-1480.411884,10066.800811
3766.117431,-1072.533697,-1258.350101,10288.862594
3766.117745,-1072.533697,-1258.350101,10140.821405
3766.118060,-842.705048,-1110.308913,9918.759623
3766.118374,-153.219100,-592.164754,9622.677246
3766.118689,153.219100,-0.000000,9548.656652
3766.119003,383.047749,-444.123565,9104.533087
3766.119318,612.876398,-0.000000,9474.636058
3766.119632,842.705048,666.185348,8734.430116
3766.119947,1149.143247,666.185348,8290.306550
3766.120261,1149.143247,592.164754,8734.430116
3766.120576,1072.533697,-0.000000,9326.594869
3766.120890,536.266849,-0.000000,9548.656652
3766.121205,0.000000,-370.102971,9770.718434
3766.121519,-153.219100,-370.102971,9770.718434
3766.121834,-383.047749,-592.164754,9178.553681
3766.122148,-689.485948,-592.164754,9548.656652
3766.122463,-766.095498,-1258.350101,9918.759623
3766.122777,-689.485948,-1258.350101,10436.903782
3766.123092,-1149.143247,-1036.288319,10140.821405
3766.123406,-383.047749,-296.082377,9918.759623
3766.123721,153.219100,148.041188,9622.677246
3766.124035,689.485948,1184.329507,9326.594869
3766.124350,1225.752797,1110.308913,8290.306550
3766.124664,1532.190996,296.082377,7920.203579
3766.124978,689.485948,518.144159,9326.594869
3766.125293,306.438199,444.123565,9474.636058
3766.125607,-459.657299,222.061783,9548.656652
3766.125922,-689.485948,-0.000000,9844.739029
3766.126236,-1532.190996,-0.000000,10362.883188
3766.126551,-995.924147,296.082377,10362.883188
3766.126865,-1225.752797,-370.102971,10140.821405
3766.127180,-995.924147,-222.061783,10140.821405
3766.127494,-689.485948,222.061783,10362.883188
3766.127809,-612.876398,-0.000000,10140.821405
3766.128123,306.438199,1258.350101,10066.800811
3766.128438,766.095498,1628.453072,9474.636058
3766.128752,689.485948,1924.535449,8364.327145
3766.129067,1149.143247,1480.411884,8438.347739
3766.129381,1302.362347,1480.411884,8734.430116
3766.129696,1072.533697,814.226536,9252.574275
3766.130010,306.438199,962.267725,9104.533087
3766.130325,-306.438199,-0.000000,9992.780217
3766.130639,-306.438199,-0.000000,10732.986159
3766.130954,-919.314598,-740.205942,11029.068536
3766.131268,-919.314598,-0.000000,10436.903782
3766.131583,-306.438199,148.041188,10362.883188
3766.131897,0.000000,370.102971,10658.965565
3766.132212,536.266849,518.144159,9992.780217
3766.132526,153.219100,1110.308913,9548.656652
3766.132841,1455.581446,1628.453072,9622.677246
3766.133155,1225.752797,2072.576638,8660.409521
3766.133470,1915.238745,1998.556043,8142.265362
3766.133784,1838.629195,1184.329507,8808.450710
3766.134098,1685.410096,888.247130,9030.512492
3766.134413,689.485948,222.061783,9548.656652
3766.134727,76.609550,-0.000000,9844.739029
3766.135042,-153.219100,-592.164754,10732.986159
3766.135356,-536.266849,-814.226536,10436.903782
3766.135671,-689.485948,-518.144159,9992.780217
3766.135985,-536.266849,-370.102971,10510.924376
3766.136300,0.000000,-518.144159,10362.883188
3766.136614,153.219100,-74.020594,9992.780217
3766.136929,459.657299,518.144159,9474.636058
3766.137243,995.924147,666.185348,9770.718434
3766.137558,1149.143247,1036.288319,9030.512492
3766.137872,1378.971896,1332.370696,8290.306550
3766.138187,1302.362347,962.267725,9104.533087
3766.138501,995.924147,-0.000000,9326.594869
3766.138816,383.047749,-0.000000,9326.594869
3766.139130,0.000000,-74.020594,9696.697840
3766.139445,-612.876398,-888.247130,9770.718434
3766.139759,-1225.752797,-1036.288319,10214.842000
3766.140074,-1225.752797,-1406.391290,9844.739029
3766.140388,-1072.533697,-1184.329507,9548.656652
3766.140703,-995.924147,-888.247130,10066.800811
3766.141017,-766.095498,-444.123565,9992.780217
3766.141332,-612.876398,-222.061783,9548.656652
3766.141646,0.000000,74.020594,9548.656652
3766.141961,1072.533697,-0.000000,9548.656652
3766.142275,1225.752797,962.267725,8882.471304
3766.142589,919.314598,1258.350101,8290.306550
3766.142904,995.924147,962.267725,8438.347739
3766.143218,1225.752797,518.144159,9474.636058
3766.143533,306.438199,-0.000000,9622.677246
3766.143847,-153.219100,-1110.308913,10140.821405
3766.144162,-612.876398,-962.267725,10066.800811
3766.144476,-842.705048,-814.226536,9696.697840
3766.144791,-1225.752797,-666.185348,9548.656652
3766.145105,-919.314598,-814.226536,9918.759623
3766.145420,-459.657299,-740.205942,10066.800811
3766.145734,-689.485948,-888.247130,9770.718434
3766.146049,-536.266849,-518.144159,9696.697840
3766.146363,919.314598,148.041188,9696.697840
3766.146678,612.876398,740.205942,9326.594869
3766.146992,536.266849,1036.288319,8808.450710
3766.147307,995.924147,1184.329507,8586.388927
3766.147621,919.314598,814.226536,8956.491898
3766.147936,766.095498,148.041188,9474.636058
3766.148250,0.000000,296.082377,10140.821405
3766.148565,0.000000,-74.020594,9992.780217
3766.148879,-612.876398,-370.102971,10436.903782
3766.149194,-1072.533697,-0.000000,10288.862594
3766.149508,-689.485948,-222.061783,9770.718434
3766.149823,-536.266849,-148.041188,9918.759623
3766.150137,-536.266849,-296.082377,10288.862594
3766.150452,-459.657299,-148.041188,9770.718434
3766.150766,76.609550,-0.000000,9622.677246
3766.151080,459.657299,444.123565,9252.574275
3766.151395,536.266849,1036.288319,9474.636058
3766.151709,459.657299,1332.370696,9178.553681
3766.152024,1072.533697,740.205942,8660.409521
3766.152338,995.924147,962.267725,9474.636058
3766.152653,689.485948,592.164754,9400.615463
3766.152967,306.438199,370.102971,9696.697840
3766.153282,153.219100,296.082377,9844.739029
3766.153596,0.000000,-0.000000,9918.759623
3766.153911,0.000000,444.123565,9474.636058
3766.154225,-383.047749,-0.000000,9622.677246
3766.154540,0.000000,-592.164754,10584.944971
3766.154854,-459.657299,-148.041188,10362.883188
3766.155169,-229.828649,-0.000000,9844.739029
3766.155483,306.438199,-74.020594,9992.780217
3766.155798,536.266849,740.205942,9770.718434
3766.156112,919.314598,1480.411884,9474.636058
3766.156427,1149.143247,1406.391290,8364.327145
3766.156741,1455.581446,1036.288319,8734.430116
3766.157056,1149.143247,740.205942,9622.677246
3766.157370,383.047749,814.226536,9548.656652
3766.157685,536.266849,148.041188,9474.636058
3766.157999,0.000000,-148.041188,9696.697840
3766.158314,-383.047749,-592.164754,9326.594869
3766.158628,-919.314598,-444.123565,9474.636058
3766.158943,-995.924147,-666.185348,9992.780217
3766.159257,-766.095498,-962.267725,10436.903782
3766.159572,-1072.533697,-518.144159,10140.821405
3766.159886,-229.828649,-0.000000,9548.656652
3766.160200,76.609550,222.061783,9474.636058
3766.160515,229.828649,962.267725,9252.574275
3766.160829,229.828649,740.205942,8808.450710
3766.161144,612.876398,666.185348,8808.450710
3766.161458,842.705048,666.185348,9030.512492
3766.161773,766.095498,444.123565,9474.636058
3766.162087,153.219100,-0.000000,9696.697840
3766.162402,0.000000,-0.000000,10066.800811
3766.162716,-689.485948,-0.000000,9770.718434
3766.163031,-995.924147,-0.000000,9844.739029
3766.163345,-1072.533697,-296.082377,9992.780217
3766.163660,-689.485948,-740.205942,9992.780217
3766.163974,0.000000,-296.082377,10140.821405
3766.164289,-459.657299,-148.041188,9696.697840
3766.164603,0.000000,296.082377,9548.656652
3766.164918,459.657299,-0.000000,9178.553681
3766.165232,306.438199,666.185348,8364.327145
3766.165547,919.314598,740.205942,8438.347739
3766.165861,919.314598,-0.000000,9178.553681
3766.166176,306.438199,370.102971,9918.759623
3766.166490,0.000000,-444.123565,10066.800811
3766.166805,-229.828649,-0.000000,10214.842000
3766.167119,-153.219100,-0.000000,10214.842000
3766.167434,-612.876398,296.082377,9696.697840
3766.167748,0.000000,296.082377,10066.800811
3766.168063,459.657299,-148.041188,10066.800811
3766.168377,0.000000,-0.000000,10436.903782
3766.168691,-306.438199,-0.000000,9844.739029
3766.169006,306.438199,-0.000000,9474.636058
3766.169320,612.876398,370.102971,9474.636058
3766.169635,612.876398,-74.020594,9030.512492
3766.169949,689.485948,-74.020594,8512.368333
3766.170264,536.266849,-74.020594,9326.594869
3766.170578,306.438199,-0.000000,9104.533087
3766.170893,-229.828649,-74.020594,10288.862594
3766.171207,-536.266849,-518.144159,10140.821405
3766.171522,-459.657299,-444.123565,10288.862594
3766.171836,-766.095498,-0.000000,9918.759623
3766.172151,-536.266849,-0.000000,9770.718434
3766.172465,0.000000,222.061783,9474.636058
3766.172780,766.095498,370.102971,9474.636058
3766.173094,612.876398,592.164754,9474.636058
3766.173409,689.485948,296.082377,9474.636058
3766.173723,459.657299,666.185348,9326.594869
3766.174038,842.705048,518.144159,9104.533087
3766.174352,229.828649,666.185348,9178.553681
3766.174667,76.609550,148.041188,9178.553681
3766.174981,0.000000,-740.205942,9844.739029
3766.175296,-306.438199,-518.144159,9992.780217
3766.175610,-842.705048,-592.164754,9992.780217
3766.175925,-1225.752797,-444.123565,9918.759623
3766.176239,-1072.533697,-74.020594,10066.800811
3766.176554,-689.485948,-0.000000,9696.697840
3766.176868,0.000000,-0.000000,9400.615463
3766.177183,306.438199,370.102971,9548.656652
3766.177497,766.095498,740.205942,9474.636058
3766.177811,766.095498,888.247130,9474.636058
3766.178126,1225.752797,1258.350101,9474.636058
3766.178440,766.095498,592.164754,9178.553681
3766.178755,995.924147,1332.370696,9252.574275
3766.179069,689.485948,444.123565,9400.615463
3766.179384,0.000000,370.102971,9474.636058
3766.179698,0.000000,-296.082377,9548.656652
3766.180013,0.000000,-962.267725,10214.842000
3766.180327,-766.095498,-1332.370696,10510.924376
3766.180642,-766.095498,-1406.391290,10436.903782
3766.180956,-459.657299,-444.123565,10436.903782
3766.181271,-536.266849,444.123565,9252.574275
3766.181585,459.657299,296.082377,8956.491898
3766.181900,919.314598,1184.329507,8586.388927
3766.182214,919.314598,666.185348,9030.512492
3766.182529,536.266849,592.164754,8734.430116
3766.182843,995.924147,444.123565,9252.574275
3766.183158,842.705048,592.164754,8956.491898
3766.183472,536.266849,814.226536,9474.636058
3766.183787,0.000000,518.144159,9548.656652
3766.184101,0.000000,-222.061783,9844.739029
3766.184416,-229.828649,-518.144159,10436.903782
3766.184730,-919.314598,-370.102971,10510.924376
3766.185045,-612.876398,-296.082377,10362.883188
3766.185359,-459.657299,-74.020594,10436.903782
3766.185674,229.828649,-0.000000,9696.697840
3766.185988,229.828649,148.041188,8956.491898
3766.186302,766.095498,518.144159,9104.533087
3766.186617,1149.143247,518.144159,9548.656652
3766.186931,1072.533697,1184.329507,9400.615463
3766.187246,1302.362347,1258.350101,9252.574275
3766.187560,1072.533697,1110.308913,9030.512492
3766.187875,766.095498,888.247130,9474.636058
3766.188189,306.438199,740.205942,9548.656652
3766.188504,229.828649,296.082377,9548.656652
3766.188818,-383.047749,-74.020594,10584.944971
3766.189133,-919.314598,-370.102971,10732.986159
3766.189447,-689.485948,-74.020594,10436.903782
3766.189762,-689.485948,-74.020594,11029.068536
3766.190076,-689.485948,-0.000000,10807.006753
3766.190391,-612.876398,444.123565,10140.821405
3766.190705,229.828649,-0.000000,9400.615463
3766.191020,459.657299,518.144159,9548.656652
3766.191334,459.657299,962.267725,9252.574275
3766.191649,536.266849,740.205942,9178.553681
3766.191963,689.485948,518.144159,9178.553681
3766.192278,919.314598,592.164754,9474.636058
3766.192592,459.657299,740.205942,8882.471304
3766.192907,0.000000,-0.000000,8808.450710
3766.193221,-383.047749,-0.000000,9326.594869
3766.193536,-1072.533697,-888.247130,10066.800811
3766.193850,-1072.533697,-666.185348,9696.697840
3766.194165,-1302.362347,-1554.432478,10510.924376
3766.194479,-919.314598,-518.144159,9622.677246
3766.194793,-1455.581446,-148.041188,9548.656652
3766.195108,-689.485948,296.082377,8882.471304
3766.195422,306.438199,-0.000000,9622.677246
3766.195737,306.438199,666.185348,9770.718434
3766.196051,153.219100,740.205942,9474.636058
3766.196366,459.657299,962.267725,9104.533087
3766.196680,766.095498,1110.308913,9104.533087
3766.196995,919.314598,1036.288319,8290.306550
3766.197309,995.924147,666.185348,8512.368333
3766.197624,383.047749,-0.000000,8956.491898
3766.197938,76.609550,-666.185348,9474.636058
3766.198253,-766.095498,-962.267725,9252.574275
3766.198567,-995.924147,-1258.350101,9992.780217
3766.198882,-766.095498,-1258.350101,10732.986159
3766.199196,-536.266849,-444.123565,10214.842000
3766.199511,-459.657299,-148.041188,9844.739029
3766.199825,153.219100,-0.000000,9400.615463
3766.200140,766.095498,592.164754,9622.677246
3766.200454,995.924147,518.144159,9548.656652
3766.200769,1149.143247,666.185348,9474.636058
3766.201083,1991.848295,1110.308913,9400.615463
3766.201398,1608.800546,1554.432478,9030.512492
3766.201712,1455.581446,1332.370696,8660.409521
3766.202027,1302.362347,814.226536,8882.471304
3766.202341,689.485948,-222.061783,9770.718434
3766.202656,0.000000,-962.267725,9918.759623
3766.202970,-842.705048,-962.267725,10510.924376
3766.203285,-995.924147,-1628.453072,10807.006753
3766.203599,-1302.362347,-1480.411884,10510.924376
3766.203913,-1225.752797,-370.102971,10288.862594
3766.204228,-1072.533697,-592.164754,10066.800811
3766.204542,536.266849,-444.123565,9474.636058
3766.204857,536.266849,74.020594,9696.697840
3766.205171,766.095498,222.061783,9400.615463
3766.205486,1608.800546,592.164754,9326.594869
3766.205800,1378.971896,740.205942,8734.430116
3766.206115,1378.971896,1184.329507,8512.368333
3766.206429,995.924147,1332.370696,8290.306550
3766.206744,612.876398,370.102971,8734.430116
3766.207058,153.219100,-222.061783,9400.615463
3766.207373,-536.266849,-1036.288319,9770.718434
3766.207687,-1149.143247,-888.247130,10658.965565
3766.208002,-1302.362347,-1110.308913,10732.986159
3766.208316,-1532.190996,-1110.308913,10881.027347
3766.208631,-1302.362347,-666.185348,10881.027347
3766.208945,-612.876398,-74.020594,9918.759623
3766.209260,76.609550,518.144159,9918.759623
3766.209574,612.876398,1332.370696,9696.697840
3766.209889,1455.581446,1702.473667,9326.594869
3766.210203,1762.019645,1924.535449,8142.265362
3766.210518,1685.410096,1406.391290,8216.285956
3766.210832,1225.752797,1628.453072,8364.327145
3766.211147,842.705048,888.247130,8512.368333
3766.211461,536.266849,444.123565,9252.574275
3766.211776,-459.657299,-592.164754,9844.739029
3766.212090,-1532.190996,-888.247130,10214.842000
3766.212405,-1991.848295,-666.185348,11103.089130
3766.212719,-1762.019645,-962.267725,11029.068536
3766.213034,-1608.800546,-814.226536,10658.965565
3766.213348,-1455.581446,-0.000000,9400.615463
3766.213663,0.000000,-0.000000,9918.759623
3766.213978,536.266849,740.205942,9474.636058
3766.214292,536.266849,1480.411884,9474.636058
3766.214607,1302.362347,1110.308913,9178.553681
3766.214921,1685.410096,1258.350101,8882.471304
3766.215236,1532.190996,2146.597232,8290.306550
3766.215551,1302.362347,962.267725,7846.182985
3766.215865,919.314598,592.164754,8734.430116
3766.216180,153.219100,-444.123565,10214.842000
3766.216494,-842.705048,-666.185348,10214.842000
3766.216809,-1915.238745,-1258.350101,10140.821405
3766.217124,-2068.457845,-888.247130,10881.027347
3766.217438,-1302.362347,-1110.308913,11029.068536
3766.217753,-1072.533697,-518.144159,10140.821405
3766.218067,-536.266849,-518.144159,10140.821405
3766.218382,76.609550,222.061783,9844.739029
3766.218697,536.266849,592.164754,9548.656652
3766.219011,1072.533697,1628.453072,9104.533087
3766.219326,1991.848295,1184.329507,8882.471304
3766.219640,2298.286494,1702.473667,8808.450710
3766.219955,1762.019645,1332.370696,8438.347739
3766.220270,1072.533697,962.267725,8734.430116
3766.220584,1225.752797,74.020594,9696.697840
3766.220899,0.000000,-148.041188,10288.862594
3766.221213,-612.876398,-518.144159,9918.759623
3766.221528,-995.924147,-888.247130,10362.883188
3766.221843,-919.314598,-1258.350101,10881.027347
3766.222157,-995.924147,-518.144159,10584.944971
3766.222472,-689.485948,-148.041188,9992.780217
3766.222786,-306.438199,-0.000000,10066.800811
3766.223101,842.705048,370.102971,10066.800811
3766.223416,1378.971896,444.123565,9474.636058
3766.223730,1378.971896,962.267725,9992.780217
3766.224045,1991.848295,1332.370696,9770.718434
3766.224359,1532.190996,1850.514855,8438.347739
3766.224674,1532.190996,1702.473667,7994.224174
3766.224989,1302.362347,1110.308913,8882.471304
3766.225303,536.266849,-0.000000,9252.574275
3766.225618,0.000000,-814.226536,9622.677246
3766.225932,-995.924147,-1406.391290,9622.677246
3766.226247,-1915.238745,-1850.514855,10288.862594
3766.226562,-1915.238745,-2368.659014,10362.883188
3766.226876,-1378.971896,-1776.494261,9622.677246
3766.227191,-1149.143247,-1702.473667,10140.821405
3766.227505,-766.095498,-1628.453072,10066.800811
3766.227820,76.609550,-222.061783,9918.759623
3766.228135,306.438199,-0.000000,9622.677246
3766.228449,689.485948,370.102971,9252.574275
3766.228764,1072.533697,1036.288319,8512.368333
3766.229079,1378.971896,1332.370696,8364.327145
3766.229393,1532.190996,1184.329507,7698.141797
3766.229708,919.314598,444.123565,8882.471304
3766.230022,153.219100,-148.041188,9474.636058
3766.230337,-612.876398,-740.205942,9474.636058
3766.230652,-1149.143247,-1036.288319,9992.780217
3766.230966,-1072.533697,-1554.432478,9918.759623
3766.231281,-1225.752797,-1110.308913,10140.821405
3766.231595,-1378.971896,-740.205942,9770.718434
3766.231910,-842.705048,-814.226536,9844.739029
3766.232225,-306.438199,-296.082377,9844.739029
3766.232539,0.000000,444.123565,9696.697840
3766.232854,536.266849,814.226536,9622.677246
3766.233168,1225.752797,1332.370696,8660.409521
3766.233483,1915.238745,1850.514855,8660.409521
3766.233798,1685.410096,1998.556043,8068.244768
3766.234112,2068.457845,1628.453072,8734.430116
3766.234427,1225.752797,1258.350101,9400.615463
3766.234741,383.047749,1184.329507,9548.656652
3766.235056,153.219100,666.185348,10066.800811
3766.235371,-536.266849,-0.000000,10658.965565
3766.235685,-612.876398,-518.144159,10658.965565
3766.236000,-1225.752797,-740.205942,10214.842000
3766.236314,-1149.143247,-370.102971,10510.924376
3766.236629,-612.876398,-296.082377,10436.903782
3766.236944,0.000000,296.082377,10288.862594
3766.237258,383.047749,814.226536,10584.944971
3766.237573,919.314598,1036.288319,9252.574275
3766.237887,1455.581446,1332.370696,9104.533087
3766.238202,1762.019645,1998.556043,8882.471304
3766.238517,1991.848295,1850.514855,8586.388927
3766.238831,1838.629195,1036.288319,9104.533087
3766.239146,1149.143247,888.247130,9400.615463
3766.239460,0.000000,444.123565,9474.636058
3766.239775,0.000000,-666.185348,10214.842000
3766.240090,-459.657299,-740.205942,10881.027347
3766.240404,-1378.971896,-370.102971,10955.047942
3766.240719,-1532.190996,-444.123565,10732.986159
3766.241033,-1455.581446,-518.144159,10955.047942
3766.241348,-689.485948,296.082377,10584.944971
3766.241663,-229.828649,370.102971,10214.842000
3766.241977,229.828649,518.144159,9844.739029
3766.242292,1072.533697,1110.308913,9844.739029
3766.242606,1455.581446,1850.514855,8882.471304
3766.242921,1838.629195,1702.473667,7994.224174
3766.243236,1838.629195,1554.432478,8512.368333
3766.243550,1455.581446,1332.370696,9178.553681
3766.243865,459.657299,592.164754,9326.594869
3766.244179,-459.657299,-148.041188,9918.759623
3766.244494,-612.876398,-1110.308913,10436.903782
3766.244809,-1762.019645,-1258.350101,10436.903782
3766.245123,-1762.019645,-740.205942,10362.883188
3766.245438,-1302.362347,-888.247130,10214.842000
3766.245752,-919.314598,-962.267725,10288.862594
3766.246067,-306.438199,-370.102971,10140.821405
3766.246382,229.828649,370.102971,9474.636058
3766.246696,766.095498,1036.288319,9178.553681
3766.247011,1302.362347,1406.391290,8438.347739
3766.247325,1378.971896,1406.391290,8290.306550
3766.247640,1378.971896,814.226536,7920.203579
3766.247955,1532.190996,-74.020594,8660.409521
3766.248269,536.266849,-666.185348,9030.512492
3766.248584,153.219100,-962.267725,8956.491898
3766.248898,-919.314598,-2072.576638,9548.656652
3766.249213,-1455.581446,-1628.453072,10732.986159
3766.249528,-1838.629195,-1776.494261,10362.883188
3766.249842,-1608.800546,-1850.514855,9622.677246
3766.250157,-1072.533697,-1850.514855,9992.780217
3766.250471,-766.095498,-962.267725,9696.697840
3766.250786,0.000000,-962.267725,9844.739029
3766.251101,459.657299,-518.144159,9474.636058
3766.251415,842.705048,-74.020594,9474.636058
3766.251730,1149.143247,666.185348,8734.430116
3766.252044,1378.971896,1184.329507,8364.327145
3766.252359,1838.629195,740.205942,8586.388927
3766.252674,1455.581446,148.041188,9326.594869
3766.252988,612.876398,74.020594,9474.636058
3766.253303,0.000000,-592.164754,10214.842000
3766.253617,-536.266849,-962.267725,9992.780217
3766.253932,-766.095498,-888.247130,10510.924376
3766.254247,-689.485948,-666.185348,9844.739029
3766.254561,-842.705048,-962.267725,10288.862594
3766.254876,-383.047749,-592.164754,10584.944971
3766.255190,-153.219100,-222.061783,10214.842000
3766.255505,229.828649,148.041188,9474.636058
3766.255820,842.705048,444.123565,9696.697840
3766.256134,1072.533697,1258.350101,9548.656652
3766.256449,1455.581446,1924.535449,8512.368333
3766.256763,1455.581446,1702.473667,8734.430116
3766.257078,1378.971896,1480.411884,9548.656652
3766.257393,842.705048,1258.350101,9622.677246
3766.257707,0.000000,814.226536,9696.697840
3766.258022,-383.047749,296.082377,10066.800811
3766.258336,-536.266849,444.123565,10732.986159
3766.258651,-995.924147,-222.061783,10362.883188
3766.258966,-995.924147,-0.000000,9918.759623
3766.259280,-689.485948,-0.000000,10140.821405
3766.259595,-383.047749,-370.102971,9992.780217
3766.259909,-383.047749,-0.000000,9844.739029
3766.260224,76.609550,370.102971,9696.697840
3766.260539,536.266849,666.185348,9548.656652
3766.260853,536.266849,1406.391290,9030.512492
3766.261168,612.876398,1702.473667,8808.450710
3766.261483,766.095498,814.226536,8660.409521
3766.261797,842.705048,370.102971,9400.615463
3766.262112,229.828649,148.041188,9770.718434
3766.262426,-459.657299,296.082377,9992.780217
3766.262741,0.000000,-0.000000,9474.636058
3766.263056,-536.266849,222.061783,9918.759623
3766.263370,-383.047749,296.082377,9548.656652
3766.263685,-383.047749,-74.020594,9548.656652
3766.263999,76.609550,-222.061783,9992.780217
3766.264314,76.609550,-0.000000,10214.842000
3766.264629,0.000000,666.185348,9992.780217
3766.264943,0.000000,1036.288319,10140.821405
3766.265258,689.485948,1258.350101,9770.718434
3766.265572,842.705048,1554.432478,9326.594869
3766.265887,919.314598,1406.391290,8734.430116
3766.266202,842.705048,1332.370696,9474.636058
3766.266516,536.266849,1036.288319,9770.718434
3766.266831,76.609550,444.123565,9918.759623
3766.267145,153.219100,370.102971,9474.636058
3766.267460,0.000000,-0.000000,9474.636058
3766.267775,153.219100,-0.000000,9400.615463
3766.268089,-536.266849,-0.000000,9622.677246
3766.268404,0.000000,370.102971,9696.697840
3766.268718,0.000000,222.061783,9844.739029
3766.269033,-76.609550,-74.020594,9992.780217
3766.269348,0.000000,-296.082377,9918.759623
3766.269662,612.876398,-0.000000,9696.697840
3766.269977,153.219100,-0.000000,9844.739029
3766.270291,383.047749,518.144159,9030.512492
3766.270606,612.876398,444.123565,9030.512492
3766.270921,1072.533697,444.123565,9326.594869
3766.271235,919.314598,-0.000000,9474.636058
3766.271550,459.657299,-370.102971,9474.636058
3766.271864,459.657299,-888.247130,9696.697840
3766.272179,0.000000,-740.205942,9696.697840
3766.272494,-229.828649,-814.226536,9104.533087
3766.272808,-383.047749,-962.267725,9474.636058
3766.273123,-612.876398,-1184.329507,9696.697840
3766.273437,-306.438199,-888.247130,10214.842000
3766.273752,-383.047749,-1110.308913,9992.780217
3766.274067,0.000000,-592.164754,10436.903782
3766.274381,0.000000,-148.041188,9770.718434
3766.274696,153.219100,-0.000000,9104.533087
3766.275010,842.705048,296.082377,8438.347739
3766.275325,689.485948,-222.061783,9030.512492
3766.275640,612.876398,-296.082377,9252.574275
3766.275954,689.485948,-0.000000,9548.656652
3766.276269,229.828649,-0.000000,9622.677246
3766.276583,0.000000,-222.061783,9844.739029
3766.276898,-459.657299,-0.000000,9770.718434
3766.277213,-842.705048,-0.000000,10066.800811
3766.277527,-919.314598,-444.123565,9844.739029
3766.277842,-919.314598,-740.205942,10510.924376
3766.278156,-612.876398,-370.102971,9992.780217
3766.278471,0.000000,-148.041188,9474.636058
3766.278786,0.000000,518.144159,9474.636058
3766.279100,0.000000,592.164754,9400.615463
3766.279415,383.047749,814.226536,8660.409521
3766.279729,229.828649,370.102971,9178.553681
3766.280044,0.000000,222.061783,9030.512492
3766.280359,-153.219100,296.082377,9326.594869
3766.280673,-459.657299,-0.000000,9770.718434
3766.280988,-306.438199,-222.061783,9622.677246
3766.281302,-153.219100,-222.061783,9770.718434
3766.281617,-842.705048,-0.000000,9622.677246
3766.281932,0.000000,370.102971,9104.533087
3766.282246,-229.828649,296.082377,9696.697840
3766.282561,229.828649,296.082377,9548.656652
3766.282875,306.438199,296.082377,9252.574275
3766.283190,383.047749,148.041188,9326.594869
3766.283505,689.485948,-148.041188,9770.718434
3766.283819,306.438199,74.020594,8882.471304
3766.284134,459.657299,148.041188,9030.512492
3766.284448,383.047749,518.144159,9030.512492
3766.284763,229.828649,-74.020594,9622.677246
3766.285078,153.219100,370.102971,9992.780217
3766.285392,-229.828649,-0.000000,10288.862594
3766.285707,306.438199,370.102971,10362.883188
3766.286021,-306.438199,666.185348,9844.739029
3766.286336,536.266849,888.247130,9474.636058
3766.286651,536.266849,888.247130,10288.862594
3766.286965,536.266849,1036.288319,9844.739029
3766.287280,919.314598,740.205942,10140.821405
3766.287594,842.705048,962.267725,9548.656652
3766.287909,689.485948,1036.288319,10066.800811
3766.288224,459.657299,1406.391290,9696.697840
3766.288538,76.609550,1184.329507,9252.574275
3766.288853,306.438199,814.226536,9474.636058
3766.289167,0.000000,148.041188,10288.862594
3766.289482,153.219100,222.061783,10436.903782
3766.289797,-306.438199,-0.000000,10288.862594
3766.290111,-306.438199,222.061783,10214.842000
3766.290426,0.000000,444.123565,10214.842000
3766.290740,76.609550,592.164754,9622.677246
3766.291055,536.266849,888.247130,9548.656652
3766.291370,1072.533697,962.267725,9474.636058
3766.291684,919.314598,1406.391290,9178.553681
3766.291999,842.705048,1036.288319,8956.491898
3766.292313,689.485948,888.247130,9400.615463
3766.292628,689.485948,222.061783,9548.656652
3766.292943,306.438199,148.041188,9252.574275
3766.293257,0.000000,-0.000000,9474.636058
3766.293572,-306.438199,-370.102971,9474.636058
3766.293887,0.000000,-370.102971,9992.780217
3766.294201,-1532.190996,-888.247130,10584.944971
3766.294516,-1225.752797,-1184.329507,10214.842000
3766.294830,-919.314598,-814.226536,9918.759623
3766.295145,-459.657299,-370.102971,9326.594869
3766.295460,0.000000,-148.041188,8882.471304
3766.295774,536.266849,-222.061783,9400.615463
3766.296089,459.657299,-0.000000,9474.636058
3766.296403,306.438199,222.061783,9474.636058
3766.296718,383.047749,-0.000000,9178.553681
3766.297033,383.047749,-0.000000,8882.471304
3766.297347,0.000000,-370.102971,9104.533087
3766.297662,-153.219100,-296.082377,9326.594869
3766.297976,-306.438199,-740.205942,9326.594869
3766.298291,-995.924147,-1406.391290,9992.780217
3766.298606,-1302.362347,-1110.308913,10066.800811
3766.298920,-1149.143247,-1036.288319,10288.862594
3766.299235,-612.876398,-1110.308913,10066.800811
3766.299549,0.000000,-518.144159,9770.718434
3766.299864,0.000000,148.041188,8660.409521
3766.300179,612.876398,444.123565,8882.471304
3766.300493,919.314598,740.205942,8956.491898
3766.300808,842.705048,370.102971,9030.512492
3766.301122,1072.533697,592.164754,8734.430116
3766.301437,766.095498,-0.000000,9030.512492
3766.301752,995.924147,-0.000000,9252.574275
3766.302066,229.828649,-148.041188,9474.636058
3766.302381,229.828649,-148.041188,9104.533087
3766.302695,0.000000,-666.185348,9770.718434
3766.303010,-536.266849,-444.123565,10288.862594
3766.303325,-459.657299,-592.164754,10362.883188
3766.303639,-459.657299,-444.123565,9918.759623
3766.303954,0.000000,-0.000000,10510.924376
3766.304268,0.000000,444.123565,9252.574275
3766.304583,842.705048,666.185348,8808.450710
3766.304898,1302.362347,666.185348,9696.697840
3766.305212,1149.143247,518.144159,9474.636058
3766.305527,1455.581446,1036.288319,8882.471304
3766.305841,1608.800546,814.226536,9178.553681
3766.306156,1149.143247,888.247130,9622.677246
3766.306471,766.095498,740.205942,9548.656652
3766.306785,383.047749,814.226536,9400.615463
3766.307100,0.000000,-296.082377,9548.656652
3766.307414,76.609550,-296.082377,9918.759623
3766.307729,-689.485948,-148.041188,10732.986159
3766.308044,-1149.143247,-444.123565,10510.924376
3766.308358,-842.705048,-296.082377,11029.068536
3766.308673,-536.266849,-0.000000,10362.883188
3766.308987,0.000000,666.185348,9622.677246
3766.309302,459.657299,962.267725,9548.656652
3766.309617,1072.533697,1110.308913,9696.697840
3766.309931,919.314598,1702.473667,9474.636058
3766.310246,919.314598,1998.556043,9474.636058
3766.310560,1072.533697,1554.432478,9400.615463
3766.310875,1149.143247,1554.432478,9400.615463
3766.311190,536.266849,1998.556043,8956.491898
3766.311504,229.828649,666.185348,8956.491898
3766.311819,0.000000,222.061783,10066.800811
3766.312133,-1149.143247,-222.061783,10510.924376
3766.312448,-1302.362347,-370.102971,10066.800811
3766.312763,-1762.019645,-740.205942,10510.924376
3766.313077,-1225.752797,-444.123565,10288.862594
3766.313392,-919.314598,222.061783,9770.718434
3766.313707,-612.876398,666.185348,9252.574275
3766.314021,229.828649,592.164754,9474.636058
3766.314336,689.485948,1332.370696,9918.759623
3766.314650,995.924147,1258.350101,9178.553681
3766.314965,1608.800546,1332.370696,8808.450710
3766.315280,1762.019645,1554.432478,8734.430116
3766.315594,995.924147,888.247130,8734.430116
3766.315909,612.876398,518.144159,8512.368333
3766.316224,76.609550,-0.000000,9474.636058
3766.316538,-459.657299,-888.247130,9696.697840
3766.316853,-766.095498,-1036.288319,10140.821405
3766.317167,-1455.581446,-1776.494261,10214.842000
3766.317482,-1225.752797,-1332.370696,10732.986159
3766.317797,-1302.362347,-1036.288319,10436.903782
3766.318111,-919.314598,-592.164754,9622.677246
3766.318426,0.000000,-444.123565,10288.862594
3766.318741,459.657299,-296.082377,9770.718434
3766.319055,1072.533697,-0.000000,9326.594869
3766.319370,1455.581446,592.164754,9030.512492
3766.319684,1685.410096,592.164754,8882.471304
3766.319999,2068.457845,444.123565,8660.409521
3766.320314,1685.410096,592.164754,7920.203579
3766.320628,536.266849,-0.000000,8364.327145
3766.320943,536.266849,-1110.308913,9474.636058
3766.321258,-383.047749,-1332.370696,9622.677246
3766.321572,-995.924147,-1702.473667,9918.759623
3766.321887,-1915.238745,-1480.411884,10436.903782
3766.322201,-1915.238745,-1776.494261,11103.089130
3766.322516,-1685.410096,-1110.308913,10510.924376
3766.322831,-919.314598,-1036.288319,10214.842000
3766.323145,306.438199,-518.144159,9548.656652
3766.323460,919.314598,592.164754,9474.636058
3766.323775,1378.971896,1184.329507,9474.636058
3766.324089,1685.410096,1628.453072,8290.306550
3766.324404,2451.505594,1702.473667,8290.306550
3766.324718,1915.238745,1258.350101,8216.285956
3766.325033,1532.190996,1110.308913,8068.244768
3766.325348,1302.362347,148.041188,8882.471304
3766.325662,229.828649,-222.061783,9622.677246
3766.325977,-1072.533697,-1110.308913,10955.047942
3766.326292,-1532.190996,-1258.350101,10658.965565
3766.326606,-1915.238745,-1554.432478,10807.006753
3766.326921,-1532.190996,-1258.350101,11103.089130
3766.327235,-689.485948,-814.226536,10288.862594
3766.327550,0.000000,-0.000000,9622.677246
3766.327865,536.266849,74.020594,9400.615463
3766.328179,1149.143247,1184.329507,9178.553681
3766.328494,1455.581446,1776.494261,8364.327145
3766.328809,2145.067394,1924.535449,7846.182985
3766.329123,1608.800546,2146.597232,8364.327145
3766.329438,1225.752797,1628.453072,8586.388927
3766.329752,536.266849,962.267725,9178.553681
3766.330067,-306.438199,222.061783,9918.759623
3766.330382,-1455.581446,-592.164754,10881.027347
3766.330696,-2374.896044,-888.247130,11399.171507
3766.331011,-2528.115143,-1258.350101,11695.253884
3766.331326,-2221.676944,-740.205942,11621.233289
3766.331640,-1685.410096,-74.020594,11029.068536
3766.331955,-842.705048,370.102971,10214.842000
3766.332269,0.000000,962.267725,9622.677246
3766.332584,612.876398,1554.432478,9696.697840
3766.332899,1149.143247,1406.391290,9030.512492
3766.333213,1302.362347,1332.370696,8512.368333
3766.333528,1532.190996,1480.411884,8660.409521
3766.333843,1378.971896,1776.494261,8142.265362
3766.334157,766.095498,1702.473667,7994.224174
3766.334472,383.047749,666.185348,9548.656652
3766.334786,0.000000,-148.041188,10140.821405
3766.335101,-766.095498,-518.144159,10066.800811
3766.335416,-1302.362347,-740.205942,10288.862594
3766.335730,-1225.752797,-518.144159,10584.944971
3766.336045,-1225.752797,-148.041188,10658.965565
3766.336360,-766.095498,222.061783,9770.718434
3766.336674,0.000000,296.082377,9918.759623
3766.336989,995.924147,666.185348,9696.697840
3766.337303,1378.971896,1554.432478,9326.594869
3766.337618,1838.629195,1776.494261,8882.471304
3766.337933,1991.848295,1776.494261,9178.553681
3766.338247,1991.848295,1110.308913,8068.244768
3766.338562,1378.971896,1332.370696,8512.368333
3766.338877,1302.362347,592.164754,8882.471304
3766.339191,919.314598,-296.082377,9030.512492
3766.339506,76.609550,-370.102971,9474.636058
3766.339820,153.219100,-888.247130,9992.780217
3766.340135,-919.314598,-1332.370696,10362.883188
3766.340450,-842.705048,-1406.391290,10510.924376
3766.340764,-766.095498,-888.247130,10066.800811
3766.341079,-459.657299,-1036.288319,9696.697840
3766.341394,612.876398,-222.061783,10436.903782
3766.341708,842.705048,-0.000000,9696.697840
3766.342023,612.876398,518.144159,9696.697840
3766.342337,1225.752797,518.144159,9622.677246
3766.342652,1608.800546,666.185348,9400.615463
3766.342967,2068.457845,814.226536,9178.553681
3766.343281,1302.362347,740.205942,8956.491898
3766.343596,842.705048,-74.020594,8808.450710
3766.343911,0.000000,-666.185348,9770.718434
3766.344225,-995.924147,-888.247130,9918.759623
3766.344540,-1072.533697,-1702.473667,9770.718434
3766.344854,-1149.143247,-1776.494261,10584.944971
3766.345169,-1072.533697,-1406.391290,9770.718434
3766.345484,-1072.533697,-888.247130,9622.677246
3766.345798,-766.095498,-518.144159,9622.677246
3766.346113,-229.828649,-444.123565,9918.759623
3766.346428,0.000000,296.082377,9400.615463
3766.346742,306.438199,148.041188,9178.553681
3766.347057,842.705048,962.267725,8956.491898
3766.347371,1072.533697,740.205942,8882.471304
3766.347686,1149.143247,1184.329507,8660.409521
3766.348001,766.095498,1258.350101,8882.471304
3766.348315,229.828649,222.061783,9400.615463
3766.348630,-153.219100,-222.061783,9474.636058
3766.348945,-766.095498,-444.123565,9400.615463
3766.349259,-1302.362347,-666.185348,9770.718434
3766.349574,-919.314598,-592.164754,9844.739029
3766.349889,-1532.190996,-222.061783,9548.656652
3766.350203,-1225.752797,-370.102971,9622.677246
3766.350518,0.000000,-370.102971,9992.780217
3766.350832,-306.438199,-0.000000,9918.759623
3766.351147,-229.828649,-0.000000,9770.718434
3766.351462,459.657299,888.247130,9548.656652
3766.351776,919.314598,1036.288319,9622.677246
3766.352091,995.924147,1036.288319,8808.450710
3766.352406,995.924147,1332.370696,8216.285956
3766.352720,1225.752797,1184.329507,8808.450710
3766.353035,689.485948,518.144159,9400.615463
3766.353349,0.000000,370.102971,9548.656652
3766.353664,0.000000,-444.123565,9696.697840
3766.353979,-766.095498,-740.205942,10436.903782
3766.354293,-1149.143247,-740.205942,10807.006753
3766.354608,-1302.362347,-444.123565,10288.862594
3766.354923,-459.657299,-592.164754,10510.924376
3766.355237,-383.047749,-370.102971,10288.862594
3766.355552,0.000000,-0.000000,10140.821405
3766.355866,536.266849,962.267725,9474.636058
3766.356181,919.314598,1332.370696,9104.533087
3766.356496,1608.800546,1258.350101,9104.533087
3766.356810,1608.800546,1628.453072,8512.368333
3766.357125,1762.019645,1924.535449,8364.327145
3766.357440,1378.971896,962.267725,9400.615463
3766.357754,766.095498,666.185348,9474.636058
3766.358069,229.828649,222.061783,10066.800811
3766.358383,-153.219100,-0.000000,9770.718434
3766.358698,-306.438199,-518.144159,10881.027347
3766.359013,-536.266849,-148.041188,10140.821405
3766.359327,-459.657299,-296.082377,9992.780217
3766.359642,0.000000,-0.000000,10510.924376
3766.359957,306.438199,222.061783,9918.759623
3766.360271,459.657299,1036.288319,9474.636058
3766.360586,1225.752797,1332.370696,9622.677246
3766.360900,1915.238745,1406.391290,9252.574275
3766.361215,1838.629195,1998.556043,8364.327145
3766.361530,1455.581446,1850.514855,8512.368333
3766.361844,1455.581446,1406.391290,8956.491898
3766.362159,1149.143247,888.247130,9696.697840
3766.362474,76.609550,370.102971,9548.656652
3766.362788,-459.657299,-592.164754,9992.780217
3766.363103,-1302.362347,-592.164754,10288.862594
3766.363417,-1455.581446,-1258.350101,10510.924376
3766.363732,-1455.581446,-740.205942,10584.944971
3766.364047,-1149.143247,-518.144159,10214.842000
3766.364361,-306.438199,-74.020594,9918.759623
3766.364676,-536.266849,-222.061783,9918.759623
3766.364991,0.000000,-0.000000,9548.656652
3766.365305,612.876398,-0.000000,9400.615463
3766.365620,1225.752797,296.082377,8956.491898
3766.365934,612.876398,444.123565,8438.347739
3766.366249,766.095498,518.144159,8808.450710
3766.366564,536.266849,-0.000000,9252.574275
3766.366878,-229.828649,-444.123565,9474.636058
3766.367193,-919.314598,-1036.288319,9844.739029
3766.367508,-766.095498,-962.267725,10288.862594
3766.367822,-919.314598,-1332.370696,10066.800811
3766.368137,-1225.752797,-666.185348,9992.780217
3766.368451,-1149.143247,-666.185348,9548.656652
3766.368766,-536.266849,-740.205942,9770.718434
3766.369081,-153.219100,-518.144159,10066.800811
3766.369395,0.000000,-148.041188,9844.739029
3766.369710,306.438199,-0.000000,9474.636058
3766.370025,995.924147,814.226536,9326.594869
3766.370339,1455.581446,1406.391290,8216.285956
3766.370654,1838.629195,1406.391290,8512.368333
3766.370968,1532.190996,962.267725,8882.471304
3766.371283,1149.143247,-0.000000,9400.615463
3766.371598,-459.657299,-74.020594,9326.594869
3766.371912,-153.219100,-74.020594,9696.697840
3766.372227,-306.438199,-296.082377,9770.718434
3766.372542,-612.876398,-1258.350101,10140.821405
3766.372856,-689.485948,-1110.308913,9696.697840
3766.373171,-919.314598,-814.226536,9104.533087
3766.373485,-536.266849,-666.185348,9918.759623
3766.373800,-306.438199,-0.000000,9548.656652
3766.374115,306.438199,666.185348,9104.533087
3766.374429,689.485948,666.185348,9696.697840
3766.374744,612.876398,814.226536,9326.594869
3766.375059,1072.533697,1184.329507,8660.409521
3766.375373,995.924147,1036.288319,9400.615463
3766.375688,766.095498,814.226536,9474.636058
3766.376002,383.047749,370.102971,10288.862594
3766.376317,0.000000,-0.000000,10214.842000
3766.376632,-306.438199,-444.123565,10288.862594
3766.376946,-229.828649,-518.144159,10362.883188
3766.377261,-536.266849,-296.082377,9918.759623
3766.377576,-766.095498,-0.000000,9770.718434
3766.377890,-383.047749,-592.164754,9400.615463
3766.378205,-383.047749,-222.061783,9474.636058
3766.378519,-229.828649,-148.041188,9622.677246
3766.378834,306.438199,148.041188,9844.739029
3766.379149,612.876398,666.185348,9770.718434
3766.379463,536.266849,1258.350101,9474.636058
3766.379778,766.095498,1628.453072,9326.594869
3766.380093,1072.533697,962.267725,9178.553681
3766.380407,612.876398,888.247130,10066.800811
3766.380722,153.219100,592.164754,10066.800811
3766.381036,76.609550,-74.020594,10066.800811
3766.381351,76.609550,222.061783,9992.780217
3766.381666,-153.219100,370.102971,9992.780217
3766.381980,-459.657299,740.205942,9474.636058
3766.382295,-229.828649,222.061783,9770.718434
3766.382610,-306.438199,444.123565,9844.739029
3766.382924,-383.047749,148.041188,9918.759623
3766.383239,-459.657299,-0.000000,9844.739029
3766.383554,-536.266849,-0.000000,10362.883188
3766.383868,-383.047749,666.185348,9770.718434
3766.384183,0.000000,1110.308913,9326.594869
3766.384497,76.609550,1184.329507,9030.512492
3766.384812,536.266849,888.247130,9548.656652
3766.385127,383.047749,666.185348,9622.677246
3766.385441,0.000000,518.144159,9104.533087
3766.385756,229.828649,296.082377,9474.636058
3766.386071,-229.828649,-0.000000,9844.739029
3766.386385,-612.876398,-0.000000,9326.594869
3766.386700,-459.657299,-296.082377,9918.759623
3766.387014,-1149.143247,-1036.288319,9844.739029
3766.387329,-536.266849,-814.226536,9918.759623
3766.387644,-612.876398,-740.205942,9474.636058
3766.387958,-229.828649,-740.205942,9622.677246
3766.388273,306.438199,-518.144159,9844.739029
3766.388588,153.219100,-148.041188,8956.491898
3766.388902,766.095498,-0.000000,8586.388927
3766.389217,995.924147,444.123565,8512.368333
3766.389531,1072.533697,-0.000000,9326.594869
3766.389846,842.705048,-0.000000,9252.574275
3766.390161,1072.533697,-74.020594,9696.697840
3766.390475,995.924147,-0.000000,9548.656652
3766.390790,0.000000,-0.000000,9918.759623
3766.391105,76.609550,-222.061783,9548.656652
3766.391419,229.828649,-666.185348,9622.677246
3766.391734,76.609550,-518.144159,10066.800811
3766.392048,459.657299,222.061783,9844.739029
3766.392363,306.438199,-0.000000,9474.636058
3766.392678,689.485948,148.041188,9474.636058
3766.392992,1072.533697,444.123565,9030.512492
3766.393307,1608.800546,518.144159,8808.450710
3766.393622,1685.410096,740.205942,8438.347739
3766.393936,995.924147,444.123565,9622.677246
3766.394251,459.657299,148.041188,9918.759623
3766.394565,0.000000,-444.123565,9770.718434
3766.394880,306.438199,-148.041188,10140.821405
3766.395195,0.000000,-148.041188,10066.800811
3766.395509,0.000000,-0.000000,9770.718434
3766.395824,-229.828649,-0.000000,9770.718434
3766.396139,0.000000,444.123565,9696.697840
3766.396453,0.000000,222.061783,9770.718434
3766.396768,153.219100,518.144159,9548.656652
3766.397082,0.000000,-0.000000,9474.636058
3766.397397,383.047749,-0.000000,9474.636058
3766.397712,383.047749,592.164754,9104.533087
3766.398026,76.609550,740.205942,8142.265362
3766.398341,76.609550,148.041188,9030.512492
3766.398656,0.000000,-222.061783,10140.821405
3766.398970,-766.095498,-370.102971,10140.821405
3766.399285,-1072.533697,-222.061783,9992.780217
3766.399599,-1378.971896,-296.082377,10732.986159
3766.399914,-1225.752797,-0.000000,10214.842000
3766.400229,-306.438199,666.185348,9622.677246
3766.400543,-459.657299,222.061783,9622.677246
3766.400858,0.000000,-0.000000,9844.739029
3766.401173,153.219100,814.226536,9844.739029
3766.401487,306.438199,888.247130,9400.615463
3766.401802,383.047749,814.226536,9548.656652
3766.402116,153.219100,1110.308913,9326.594869
3766.402431,229.828649,1036.288319,8734.430116
3766.402746,536.266849,518.144159,9030.512492
3766.403060,0.000000,148.041188,9770.718434
3766.403375,0.000000,-0.000000,10362.883188
3766.403690,-612.876398,-0.000000,10362.883188
3766.404004,-612.876398,148.041188,10658.965565
3766.404319,-536.266849,-0.000000,9992.780217
3766.404633,-689.485948,518.144159,9770.718434
3766.404948,306.438199,666.185348,9992.780217
3766.405263,459.657299,518.144159,9770.718434
3766.405577,766.095498,592.164754,9548.656652
3766.405892,842.705048,962.267725,9474.636058
3766.406207,536.266849,1554.432478,9326.594869
3766.406521,1072.533697,1110.308913,9104.533087
3766.406836,1149.143247,814.226536,8808.450710
3766.407150,766.095498,444.123565,9326.594869
3766.407465,536.266849,-296.082377,9104.533087
3766.407780,0.000000,-518.144159,9770.718434
3766.408094,-536.266849,-740.205942,10066.800811
3766.408409,-689.485948,-666.185348,10214.842000
3766.408724,-612.876398,-888.247130,9844.739029
3766.409038,-306.438199,-1036.288319,10510.924376
3766.409353,383.047749,-0.000000,9622.677246
3766.409667,766.095498,-222.061783,9030.512492
3766.409982,842.705048,222.061783,9104.533087
3766.410297,995.924147,296.082377,9178.553681
3766.410611,1149.143247,518.144159,9178.553681
3766.410926,1225.752797,-0.000000,9178.553681
3766.411241,995.924147,-0.000000,9104.533087
3766.411555,612.876398,-0.000000,8956.491898
3766.411870,459.657299,-518.144159,9178.553681
3766.412184,459.657299,-444.123565,10584.944971
3766.412499,-153.219100,-1110.308913,10510.924376
3766.412814,-536.266849,-1110.308913,10288.862594
3766.413128,-612.876398,-1184.329507,10140.821405
3766.413443,-306.438199,-518.144159,10436.903782
3766.413758,0.000000,148.041188,9770.718434
3766.414072,459.657299,222.061783,8808.450710
3766.414387,1072.533697,370.102971,9252.574275
3766.414701,1225.752797,296.082377,9326.594869
3766.415016,1302.362347,444.123565,8734.430116
3766.415331,919.314598,444.123565,9104.533087
3766.415645,689.485948,814.226536,9622.677246
3766.415960,0.000000,518.144159,9474.636058
3766.416274,0.000000,370.102971,9326.594869
3766.416589,0.000000,-0.000000,9622.677246
3766.416904,-459.657299,-814.226536,10066.800811
3766.417218,-1302.362347,-444.123565,10066.800811
3766.417533,-919.314598,-592.164754,9918.759623
3766.417847,-995.924147,-0.000000,10436.903782
3766.418162,-842.705048,-0.000000,10140.821405
3766.418476,-459.657299,962.267725,9326.594869
3766.418791,-383.047749,444.123565,9104.533087
3766.419106,459.657299,666.185348,9400.615463
3766.419420,76.609550,888.247130,8882.471304
3766.419735,459.657299,814.226536,9178.553681
3766.420049,306.438199,740.205942,9548.656652
3766.420364,0.000000,888.247130,9326.594869
3766.420679,-536.266849,518.144159,9104.533087
3766.420993,-536.266849,-74.020594,9252.574275
3766.421308,-842.705048,-518.144159,10436.903782
3766.421622,-995.924147,-592.164754,10066.800811
3766.421937,-995.924147,222.061783,9844.739029
3766.422252,-1072.533697,-0.000000,10288.862594
3766.422566,-842.705048,148.041188,10066.800811
3766.422881,-306.438199,518.144159,9696.697840
3766.423195,0.000000,296.082377,9770.718434
3766.423510,153.219100,666.185348,9918.759623
3766.423825,536.266849,1258.350101,9622.677246
3766.424139,842.705048,1480.411884,9844.739029
3766.424454,842.705048,1036.288319,9918.759623
3766.424768,995.924147,1184.329507,9474.636058
3766.425083,842.705048,1184.329507,9252.574275
3766.425398,689.485948,592.164754,8956.491898
3766.425712,766.095498,370.102971,9104.533087
3766.426027,0.000000,592.164754,9770.718434
3766.426341,-536.266849,222.061783,9992.780217
3766.426656,-536.266849,-666.185348,10881.027347
3766.426971,-229.828649,-666.185348,10510.924376
3766.427285,-229.828649,-0.000000,10881.027347
3766.427600,153.219100,888.247130,9844.739029
3766.427914,306.438199,666.185348,9696.697840
3766.428229,1302.362347,1332.370696,9548.656652
3766.428543,1532.190996,1184.329507,9770.718434
3766.428858,1532.190996,1184.329507,9548.656652
3766.429173,1838.629195,740.205942,9844.739029
3766.429487,1608.800546,1110.308913,9030.512492
3766.429802,766.095498,1036.288319,8438.347739
3766.430116,383.047749,444.123565,8660.409521
3766.430431,612.876398,-666.185348,9474.636058
3766.430746,-689.485948,-1406.391290,9992.780217
3766.431060,-995.924147,-1258.350101,9770.718434
3766.431375,-1149.143247,-1480.411884,9918.759623
3766.431689,-1072.533697,-1406.391290,9770.718434
3766.432004,-612.876398,-444.123565,9622.677246
3766.432319,-536.266849,-222.061783,9030.512492
3766.432633,153.219100,-444.123565,9252.574275
3766.432948,459.657299,-148.041188,9696.697840
3766.433262,842.705048,-74.020594,9326.594869
3766.433577,919.314598,518.144159,8660.409521
3766.433892,842.705048,-0.000000,8956.491898
3766.434206,612.876398,-0.000000,9252.574275
3766.434521,0.000000,-370.102971,8660.409521
3766.434835,76.609550,-1184.329507,9178.553681
3766.435150,-459.657299,-1702.473667,9844.739029
3766.435465,-1225.752797,-1406.391290,9918.759623
3766.435779,-1685.410096,-1332.370696,10214.842000
3766.436094,-1532.190996,-1480.411884,10362.883188
3766.436408,-1455.581446,-1110.308913,10288.862594
3766.436723,-919.314598,-592.164754,9918.759623
3766.437037,0.000000,-666.185348,9622.677246
3766.437352,153.219100,370.102971,9474.636058
3766.437667,459.657299,740.205942,9548.656652
3766.437981,689.485948,1406.391290,8660.409521
3766.438296,1378.971896,1702.473667,8660.409521
3766.438610,1455.581446,1628.453072,8882.471304
3766.438925,1302.362347,1184.329507,8586.388927
3766.439240,919.314598,740.205942,8512.368333
3766.439554,153.219100,-296.082377,9474.636058
3766.439869,-766.095498,-666.185348,10288.862594
3766.440183,-1762.019645,-148.041188,10732.986159
3766.440498,-1685.410096,-740.205942,11029.068536
3766.440813,-1608.800546,-1036.288319,10955.047942
3766.441127,-1225.752797,-296.082377,10140.821405
3766.441442,-766.095498,148.041188,9844.739029
3766.441756,383.047749,444.123565,9548.656652
3766.442071,612.876398,888.247130,9696.697840
3766.442386,995.924147,1554.432478,8512.368333
3766.442700,1838.629195,1406.391290,8956.491898
3766.443015,2374.896044,1702.473667,8882.471304
3766.443329,2068.457845,1702.473667,8512.368333
3766.443644,1608.800546,1628.453072,8068.244768
3766.443959,1072.533697,518.144159,9252.574275
3766.444273,229.828649,-222.061783,10362.883188
3766.444588,-459.657299,-592.164754,9770.718434
3766.444902,-1072.533697,-1036.288319,10881.027347
3766.445217,-995.924147,-1110.308913,11325.150913
3766.445532,-1072.533697,-740.205942,10510.924376
3766.445846,-689.485948,-0.000000,10510.924376
3766.446161,-306.438199,222.061783,10510.924376
3766.446475,766.095498,740.205942,10214.842000
3766.446790,1149.143247,1776.494261,9474.636058
3766.447104,1685.410096,1628.453072,8808.450710
3766.447419,3140.991542,1998.556043,9474.636058
3766.447734,1991.848295,1776.494261,9474.636058
3766.448048,1608.800546,1850.514855,8734.430116
3766.448363,919.314598,1110.308913,9104.533087
3766.448677,612.876398,-0.000000,9548.656652
3766.448992,0.000000,-222.061783,10066.800811
3766.449307,-995.924147,-296.082377,10214.842000
3766.449621,-689.485948,-666.185348,10807.006753
3766.449936,-1225.752797,-148.041188,10510.924376
3766.450250,-995.924147,-148.041188,9918.759623
3766.450565,-766.095498,-0.000000,9918.759623
3766.450880,0.000000,-0.000000,10140.821405
3766.451194,153.219100,444.123565,9992.780217
3766.451509,383.047749,1036.288319,9326.594869
3766.451823,842.705048,1184.329507,9474.636058
3766.452138,919.314598,1850.514855,9030.512492
3766.452453,1072.533697,1332.370696,8808.450710
3766.452767,766.095498,1332.370696,8142.265362
3766.453082,995.924147,222.061783,8660.409521
3766.453396,76.609550,-296.082377,9178.553681
3766.453711,-1455.581446,-222.061783,9548.656652
3766.454026,-1302.362347,-370.102971,9770.718434
3766.454340,-1532.190996,-1628.453072,10362.883188
3766.454655,-1915.238745,-1332.370696,9992.780217
3766.454969,-1532.190996,-1850.514855,10436.903782
3766.455284,-1072.533697,-1554.432478,9696.697840
3766.455598,-536.266849,-666.185348,9548.656652
3766.455913,-383.047749,-0.000000,9548.656652
3766.456228,306.438199,814.226536,9104.533087
3766.456542,1608.800546,370.102971,9030.512492
3766.456857,1225.752797,666.185348,8734.430116
3766.457171,1378.971896,962.267725,8364.327145
3766.457486,1302.362347,666.185348,8364.327145
3766.457801,842.705048,-0.000000,8808.450710
3766.458115,76.609550,-148.041188,9770.718434
3766.458430,-766.095498,-814.226536,10066.800811
3766.458744,-766.095498,-1406.391290,10584.944971
3766.459059,-995.924147,-1332.370696,10807.006753
3766.459374,-1532.190996,-1184.329507,10362.883188
3766.459688,-766.095498,-1258.350101,10140.821405
3766.460003,-536.266849,-888.247130,10288.862594
3766.460317,0.000000,-74.020594,10140.821405
3766.460632,306.438199,222.061783,9770.718434
3766.460947,1072.533697,592.164754,9400.615463
3766.461261,1762.019645,888.247130,9326.594869
3766.461576,1991.848295,1628.453072,8660.409521
3766.461890,1915.238745,1184.329507,8808.450710
3766.462205,1838.629195,888.247130,8956.491898
3766.462520,1149.143247,148.041188,8660.409521
3766.462834,459.657299,-148.041188,9844.739029
3766.463149,0.000000,-0.000000,10140.821405
3766.463463,-612.876398,-1110.308913,10732.986159
3766.463778,-995.924147,-1110.308913,10510.924376
3766.464093,-536.266849,-888.247130,10140.821405
3766.464407,-612.876398,-740.205942,10214.842000
3766.464722,-229.828649,-592.164754,10066.800811
3766.465036,153.219100,-0.000000,9992.780217
3766.465351,383.047749,666.185348,9252.574275
3766.465665,1225.752797,740.205942,9252.574275
3766.465980,1149.143247,1776.494261,8882.471304
3766.466295,1532.190996,1554.432478,7846.182985
3766.466609,1455.581446,1332.370696,7846.182985
3766.466924,1455.581446,814.226536,8660.409521
3766.467238,766.095498,444.123565,9104.533087
3766.467553,153.219100,-148.041188,9918.759623
3766.467868,-766.095498,-296.082377,9992.780217
3766.468182,-1685.410096,-1184.329507,10807.006753
3766.468497,-1915.238745,-518.144159,9918.759623
3766.468811,-1225.752797,-740.205942,9844.739029
3766.469126,-842.705048,-370.102971,10288.862594
3766.469441,-842.705048,-74.020594,10584.944971
3766.469755,-306.438199,148.041188,10066.800811
3766.470070,383.047749,666.185348,9696.697840
3766.470384,766.095498,1554.432478,9474.636058
3766.470699,995.924147,2294.638420,9178.553681
3766.471014,1302.362347,2146.597232,8290.306550
3766.471328,1302.362347,1628.453072,8512.368333
3766.471643,919.314598,1036.288319,9104.533087
3766.471957,383.047749,296.082377,9548.656652
3766.472272,-1149.143247,-74.020594,10214.842000
3766.472587,-1532.190996,-444.123565,10658.965565
3766.472901,-1762.019645,-666.185348,10955.047942
3766.473216,-2068.457845,-370.102971,10288.862594
3766.473530,-1608.800546,-888.247130,10510.924376
3766.473845,-842.705048,-222.061783,10436.903782
3766.474160,-383.047749,-74.020594,9844.739029
3766.474474,229.828649,814.226536,9326.594869
3766.474789,1225.752797,1036.288319,9326.594869
3766.475103,1149.143247,1850.514855,7994.224174
3766.475418,1532.190996,1850.514855,8808.450710
3766.475732,2068.457845,1332.370696,8438.347739
3766.476047,2068.457845,592.164754,9104.533087
3766.476362,1455.581446,-0.000000,9030.512492
3766.476676,0.000000,222.061783,9548.656652
3766.476991,-306.438199,-444.123565,10658.965565
3766.477305,-919.314598,-1184.329507,10510.924376
3766.477620,-1225.752797,-962.267725,9918.759623
3766.477935,-1762.019645,-1258.350101,9696.697840
3766.478249,-919.314598,-1258.350101,10362.883188
3766.478564,-536.266849,-740.205942,10214.842000
3766.478878,76.609550,-222.061783,10066.800811
3766.479193,1072.533697,370.102971,9474.636058
3766.479508,1685.410096,-0.000000,9252.574275
3766.479822,1608.800546,740.205942,8882.471304
3766.480137,1685.410096,962.267725,8512.368333
3766.480451,1762.019645,666.185348,9104.533087
3766.480766,1455.581446,-0.000000,9622.677246
3766.481081,76.609550,-222.061783,9696.697840
3766.481395,76.609550,-296.082377,10066.800811
3766.481710,0.000000,-666.185348,10436.903782
3766.482024,-612.876398,-888.247130,10436.903782
3766.482339,76.609550,-518.144159,9696.697840
3766.482654,0.000000,-1036.288319,9474.636058
3766.482968,306.438199,-666.185348,10140.821405
3766.483283,383.047749,-222.061783,9770.718434
3766.483597,459.657299,-0.000000,8660.409521
3766.483912,995.924147,-148.041188,9622.677246
3766.484226,995.924147,962.267725,9030.512492
3766.484541,1455.581446,1258.350101,8586.388927
3766.484856,1378.971896,962.267725,8586.388927
3766.485170,1149.143247,444.123565,8512.368333
3766.485485,536.266849,370.102971,9696.697840
3766.485799,-153.219100,222.061783,9474.636058
3766.486114,-383.047749,-0.000000,9992.780217
3766.486429,-1225.752797,-370.102971,10140.821405
3766.486743,-842.705048,-222.061783,9622.677246
3766.487058,-1378.971896,-444.123565,9178.553681
3766.487372,-1225.752797,-518.144159,9622.677246
3766.487687,-1225.752797,-74.020594,10214.842000
3766.488002,-1378.971896,-0.000000,9844.739029
3766.488316,-459.657299,-0.000000,9474.636058
3766.488631,-459.657299,296.082377,9474.636058
3766.488945,0.000000,1110.308913,9252.574275
3766.489260,0.000000,1258.350101,8808.450710
3766.489575,383.047749,740.205942,9030.512492
3766.489889,153.219100,888.247130,9252.574275
3766.490204,-459.657299,518.144159,9400.615463
3766.490518,-459.657299,296.082377,9548.656652
3766.490833,-842.705048,-74.020594,10288.862594
3766.491148,-842.705048,-0.000000,10066.800811
3766.491462,-919.314598,222.061783,9474.636058
3766.491777,-995.924147,-222.061783,9918.759623
3766.492091,-612.876398,-222.061783,10584.944971
3766.492406,-536.266849,-0.000000,10214.842000
3766.492721,-306.438199,370.102971,10288.862594
3766.493035,0.000000,666.185348,10584.944971
3766.493350,0.000000,740.205942,9770.718434
3766.493664,459.657299,1406.391290,9548.656652
3766.493979,1072.533697,1184.329507,9400.615463
3766.494293,995.924147,592.164754,9696.697840
3766.494608,689.485948,296.082377,9770.718434
3766.494923,919.314598,370.102971,9548.656652
3766.495237,919.314598,-0.000000,9696.697840
3766.495552,766.095498,-0.000000,9770.718434
3766.495866,459.657299,296.082377,9548.656652
3766.496181,306.438199,-0.000000,8808.450710
3766.496496,536.266849,-222.061783,9400.615463
3766.496810,612.876398,-444.123565,9844.739029
3766.497125,76.609550,-370.102971,9918.759623
3766.497439,689.485948,-222.061783,9548.656652
3766.497754,766.095498,518.144159,9474.636058
3766.498069,1149.143247,888.247130,8956.491898
3766.498383,1762.019645,592.164754,8956.491898
3766.498698,1838.629195,-0.000000,9178.553681
3766.499012,1455.581446,296.082377,8956.491898
3766.499327,1149.143247,814.226536,8808.450710
3766.499642,1149.143247,148.041188,8956.491898
3766.499956,689.485948,-74.020594,9548.656652
3766.500271,766.095498,-592.164754,9770.718434
3766.500585,0.000000,-666.185348,8586.388927
3766.500900,76.609550,-740.205942,9252.574275
3766.501215,-229.828649,-962.267725,9844.739029
3766.501529,0.000000,-296.082377,9918.759623
3766.501844,0.000000,-0.000000,9474.636058
3766.502158,-153.219100,-444.123565,9622.677246
3766.502473,0.000000,-74.020594,9104.533087
3766.502787,76.609550,444.123565,8660.409521
3766.503102,306.438199,592.164754,8512.368333
3766.503417,76.609550,370.102971,9474.636058
3766.503731,0.000000,296.082377,9992.780217
3766.504046,-383.047749,-0.000000,9548.656652
3766.504360,-229.828649,-296.082377,10510.924376
3766.504675,-842.705048,-74.020594,10066.800811
3766.504990,-766.095498,-148.041188,9918.759623
3766.505304,-842.705048,-0.000000,9918.759623
3766.505619,-842.705048,-0.000000,9844.739029
3766.505933,-995.924147,-222.061783,10066.800811
3766.506248,-995.924147,222.061783,9770.718434
3766.506563,-995.924147,-0.000000,10140.821405
3766.506877,-689.485948,296.082377,9622.677246
3766.507192,-536.266849,666.185348,9178.553681
3766.507506,-536.266849,814.226536,8882.471304
3766.507821,-229.828649,-0.000000,9474.636058
3766.508136,0.000000,-0.000000,10066.800811
3766.508450,-766.095498,-0.000000,9918.759623
3766.508765,-536.266849,222.061783,10214.842000
3766.509079,-536.266849,518.144159,10584.944971
3766.509394,-612.876398,666.185348,9992.780217
3766.509709,-459.657299,888.247130,9474.636058
3766.510023,-306.438199,-0.000000,9474.636058
3766.510338,229.828649,-0.000000,9770.718434
3766.510652,536.266849,-0.000000,9622.677246
3766.510967,229.828649,296.082377,9696.697840
3766.511282,153.219100,444.123565,9474.636058
3766.511596,383.047749,592.164754,9326.594869
3766.511911,459.657299,666.185348,9030.512492
3766.512225,612.876398,-0.000000,8808.450710
3766.512540,689.485948,-370.102971,9474.636058
3766.512854,536.266849,-444.123565,9622.677246
3766.513169,0.000000,-74.020594,9474.636058
3766.513484,153.219100,-666.185348,10436.903782
3766.513798,0.000000,370.102971,9770.718434
3766.514113,76.609550,-0.000000,9918.759623
3766.514428,689.485948,148.041188,9770.718434
3766.514742,766.095498,-0.000000,8882.471304
3766.515057,842.705048,296.082377,9696.697840
3766.515372,689.485948,444.123565,9400.615463
3766.515686,766.095498,148.041188,9030.512492
3766.516001,766.095498,-74.020594,9770.718434
3766.516315,306.438199,-74.020594,9104.533087
3766.516630,76.609550,-0.000000,8956.491898
3766.516945,306.438199,-74.020594,9178.553681
3766.517259,229.828649,-666.185348,10881.027347
3766.517574,-306.438199,-444.123565,10214.842000
3766.517889,0.000000,-518.144159,10140.821405
3766.518203,76.609550,-222.061783,10732.986159
3766.518518,689.485948,-74.020594,10066.800811
3766.518833,1225.752797,740.205942,9400.615463
3766.519147,1685.410096,1184.329507,8956.491898
3766.519462,2221.676944,1110.308913,9030.512492
3766.519777,1991.848295,666.185348,8660.409521
3766.520091,1915.238745,1036.288319,8512.368333
3766.520406,1762.019645,592.164754,8956.491898
3766.520721,919.314598,814.226536,8290.306550
3766.521035,153.219100,296.082377,8808.450710
3766.521350,76.609550,-148.041188,9326.594869
3766.521665,-919.314598,-518.144159,10140.821405
3766.521979,-1608.800546,-814.226536,10658.965565
3766.522294,-1762.019645,-666.185348,10658.965565
3766.522609,-1149.143247,-666.185348,11325.150913
3766.522923,-1378.971896,444.123565,10807.006753
3766.523238,-383.047749,888.247130,10214.842000
3766.523553,-306.438199,1406.391290,9252.574275
3766.523867,-153.219100,888.247130,9474.636058
3766.524182,153.219100,1184.329507,9918.759623
3766.524497,153.219100,1184.329507,9326.594869
3766.524811,0.000000,592.164754,9696.697840
3766.525126,0.000000,518.144159,9696.697840
3766.525441,-612.876398,-0.000000,9474.636058
3766.525755,-766.095498,-296.082377,9252.574275
3766.526070,-1149.143247,-888.247130,9844.739029
3766.526385,-1302.362347,-1110.308913,10288.862594
3766.526699,-1991.848295,-1184.329507,10362.883188
3766.527014,-1608.800546,-1110.308913,10584.944971
3766.527329,-1072.533697,-962.267725,10658.965565
3766.527643,-383.047749,-0.000000,9992.780217
3766.527958,229.828649,-0.000000,9400.615463
3766.528273,842.705048,444.123565,9400.615463
3766.528587,1378.971896,666.185348,9400.615463
3766.528902,1302.362347,888.247130,8808.450710
3766.529217,1455.581446,1258.350101,8882.471304
3766.529531,1378.971896,592.164754,9252.574275
3766.529846,919.314598,444.123565,8882.471304
3766.530161,76.609550,-370.102971,8808.450710
3766.530475,0.000000,-296.082377,8882.471304
3766.530790,-229.828649,-1258.350101,9696.697840
3766.531105,-612.876398,-1036.288319,10214.842000
3766.531419,-919.314598,-1406.391290,9992.780217
3766.531734,-229.828649,-1184.329507,10066.800811
3766.532049,153.219100,-518.144159,9622.677246
3766.532363,766.095498,592.164754,8956.491898
3766.532678,995.924147,444.123565,9326.594869
3766.532993,1685.410096,518.144159,8956.491898
3766.533307,1378.971896,740.205942,9474.636058
3766.533622,1608.800546,1628.453072,8586.388927
3766.533937,1838.629195,1184.329507,9400.615463
3766.534251,1762.019645,1332.370696,9030.512492
3766.534566,842.705048,740.205942,9030.512492
3766.534881,1149.143247,518.144159,8808.450710
3766.535195,383.047749,-592.164754,9252.574275
3766.535510,153.219100,-1036.288319,9622.677246
3766.535824,-612.876398,-1036.288319,10362.883188
3766.536139,-1072.533697,-444.123565,10066.800811
3766.536454,-919.314598,-592.164754,9770.718434
3766.536768,-612.876398,-296.082377,10140.821405
3766.537083,-306.438199,-0.000000,10288.862594
3766.537398,306.438199,370.102971,9474.636058
3766.537712,306.438199,666.185348,9770.718434
3766.538027,383.047749,962.267725,9474.636058
3766.538342,306.438199,888.247130,9548.656652
3766.538656,383.047749,888.247130,9696.697840
3766.538971,536.266849,740.205942,9474.636058
3766.539286,153.219100,592.164754,9326.594869
3766.539600,0.000000,666.185348,9474.636058
3766.539915,-306.438199,-0.000000,9696.697840
3766.540230,-1225.752797,-518.144159,10510.924376
3766.540544,-1685.410096,-666.185348,9844.739029
3766.540859,-1532.190996,-1036.288319,10732.986159
3766.541174,-1685.410096,-740.205942,10140.821405
3766.541488,-2145.067394,-74.020594,10288.862594
3766.541803,-1072.533697,296.082377,9548.656652
3766.542118,-229.828649,814.226536,9474.636058
3766.542432,153.219100,666.185348,9104.533087
3766.542747,0.000000,1110.308913,9326.594869
3766.543062,459.657299,1554.432478,9178.553681
3766.543376,766.095498,1480.411884,9030.512492
3766.543691,459.657299,1036.288319,9474.636058
3766.544006,306.438199,1110.308913,8808.450710
3766.544320,153.219100,74.020594,9400.615463
3766.544635,-459.657299,-148.041188,10436.903782
3766.544950,-689.485948,-592.164754,10510.924376
3766.545264,-995.924147,-666.185348,10510.924376
3766.545579,-919.314598,-962.267725,10214.842000
3766.545894,-383.047749,-370.102971,10066.800811
3766.546208,-459.657299,-222.061783,9548.656652
3766.546523,459.657299,-0.000000,8882.471304
3766.546838,1532.190996,-222.061783,9400.615463
3766.547152,1225.752797,370.102971,8882.471304
3766.547467,1685.410096,518.144159,8290.306550
3766.547782,1915.238745,888.247130,8364.327145
3766.548096,1455.581446,592.164754,8808.450710
3766.548411,1225.752797,740.205942,8290.306550
3766.548726,842.705048,-148.041188,8290.306550
3766.549040,76.609550,-1110.308913,9844.739029
3766.549355,-459.657299,-1406.391290,10436.903782
3766.549670,-995.924147,-1554.432478,10436.903782
3766.549984,-1302.362347,-2072.576638,11029.068536
3766.550299,-536.266849,-1332.370696,11399.171507
3766.550614,-383.047749,-592.164754,10510.924376
3766.550928,76.609550,-0.000000,9622.677246
3766.551243,995.924147,296.082377,9178.553681
3766.551558,1378.971896,740.205942,9178.553681
3766.551872,2298.286494,888.247130,8512.368333
3766.552187,2298.286494,1036.288319,8290.306550
3766.552502,1991.848295,962.267725,8364.327145
3766.552816,1302.362347,1184.329507,8216.285956
3766.553131,1225.752797,666.185348,7624.121203
3766.553446,842.705048,-0.000000,9474.636058
3766.553760,-459.657299,-740.205942,10214.842000
3766.554075,-1225.752797,-1110.308913,10140.821405
3766.554390,-1532.190996,-888.247130,11251.130318
3766.554704,-1302.362347,-814.226536,11103.089130
3766.555019,-1072.533697,-0.000000,10436.903782
3766.555334,-459.657299,592.164754,9992.780217
3766.555648,76.609550,666.185348,9622.677246
3766.555963,995.924147,1332.370696,9548.656652
3766.556277,1149.143247,1998.556043,8734.430116
3766.556592,1532.190996,2294.638420,8808.450710
3766.556907,1685.410096,2220.617826,9030.512492
3766.557221,1149.143247,2442.679609,8512.368333
3766.557536,306.438199,1702.473667,8512.368333
3766.557851,0.000000,296.082377,9474.636058
3766.558165,-766.095498,-962.267725,10510.924376
3766.558480,-1991.848295,-1036.288319,11029.068536
3766.558795,-2681.334243,-1184.329507,11103.089130
3766.559109,-2911.162892,-1036.288319,11399.171507
3766.559424,-2451.505594,-740.205942,11177.109724
3766.559739,-1685.410096,-296.082377,10807.006753
3766.560053,-1225.752797,444.123565,9696.697840
3766.560368,0.000000,962.267725,9400.615463
3766.560683,459.657299,1332.370696,9474.636058
3766.560997,919.314598,1554.432478,9326.594869
3766.561312,1225.752797,1480.411884,9252.574275
3766.561627,1455.581446,1554.432478,9178.553681
3766.561941,995.924147,1554.432478,9178.553681
3766.562256,229.828649,814.226536,9104.533087
3766.562571,229.828649,-148.041188,9696.697840
3766.562885,-995.924147,-1258.350101,10510.924376
3766.563200,-1762.019645,-1258.350101,10955.047942
3766.563515,-1608.800546,-1554.432478,10955.047942
3766.563829,-1378.971896,-1258.350101,10140.821405
3766.564144,-689.485948,-1332.370696,10362.883188
3766.564459,0.000000,518.144159,9474.636058
3766.564773,995.924147,222.061783,9252.574275
3766.565088,1608.800546,-0.000000,9104.533087
3766.565403,2068.457845,666.185348,9178.553681
3766.565717,2528.115143,1480.411884,8586.388927
3766.566032,2451.505594,888.247130,8956.491898
3766.566347,2068.457845,1184.329507,8734.430116
3766.566661,1455.581446,1036.288319,8216.285956
3766.566976,919.314598,-148.041188,8216.285956
3766.567291,0.000000,-740.205942,9474.636058
3766.567605,-536.266849,-888.247130,9918.759623
3766.567920,-1072.533697,-1406.391290,10140.821405
3766.568235,-1455.581446,-1480.411884,10288.862594
3766.568549,-1149.143247,-1776.494261,10510.924376
3766.568864,-1225.752797,-1332.370696,10214.842000
3766.569179,-995.924147,-592.164754,10288.862594
3766.569493,766.095498,-222.061783,10066.800811
3766.569808,1072.533697,592.164754,9548.656652
3766.570123,1149.143247,888.247130,8586.388927
3766.570437,2221.676944,1184.329507,8586.388927
3766.570752,2145.067394,1036.288319,8364.327145
3766.571067,2145.067394,592.164754,8290.306550
3766.571381,1838.629195,370.102971,8216.285956
3766.571696,1225.752797,-74.020594,8068.244768
3766.572011,459.657299,-814.226536,9252.574275
3766.572325,-459.657299,-962.267725,9326.594869
3766.572640,-1149.143247,-1628.453072,9770.718434
3766.572955,-1455.581446,-2146.597232,10732.986159
3766.573269,-1302.362347,-1554.432478,10732.986159
3766.573584,-1149.143247,-740.205942,9548.656652
3766.573899,-612.876398,-740.205942,10510.924376
3766.574213,0.000000,444.123565,10066.800811
3766.574528,229.828649,518.144159,9918.759623
3766.574843,1225.752797,1850.514855,9400.615463
3766.575157,1225.752797,2146.597232,9400.615463
3766.575472,1302.362347,2368.659014,8734.430116
3766.575786,995.924147,1924.535449,8660.409521
3766.576101,459.657299,1332.370696,8586.388927
3766.576416,0.000000,962.267725,10362.883188
3766.576730,-995.924147,-0.000000,10066.800811
3766.577045,-2068.457845,-666.185348,10584.944971
3766.577360,-2298.286494,-1036.288319,10955.047942
3766.577674,-2298.286494,-888.247130,10584.944971
3766.577989,-2298.286494,-0.000000,9992.780217
3766.578304,-1685.410096,-0.000000,9918.759623
3766.578618,-1149.143247,222.061783,10362.883188
3766.578933,-383.047749,1110.308913,9696.697840
3766.579248,383.047749,1184.329507,9770.718434
3766.579562,842.705048,1850.514855,9252.574275
3766.579877,1302.362347,2072.576638,9178.553681
3766.580192,1532.190996,2516.700203,8956.491898
3766.580506,1455.581446,2072.576638,7920.203579
3766.580821,1302.362347,962.267725,8882.471304
3766.581136,842.705048,444.123565,9474.636058
3766.581450,0.000000,148.041188,9696.697840
3766.581765,-995.924147,-370.102971,10362.883188
3766.582080,-1225.752797,-1184.329507,10584.944971
3766.582394,-1455.581446,-1036.288319,10362.883188
3766.582709,-1072.533697,-740.205942,10140.821405
3766.583024,0.000000,-1036.288319,10362.883188
3766.583338,153.219100,-444.123565,9844.739029
3766.583653,689.485948,-0.000000,9548.656652
3766.583968,1378.971896,888.247130,9474.636058
3766.584282,1991.848295,1110.308913,8734.430116
3766.584597,2298.286494,1036.288319,8512.368333
3766.584912,2604.724693,1406.391290,8364.327145
3766.585226,2068.457845,1110.308913,8364.327145
3766.585541,1608.800546,222.061783,8512.368333
3766.585856,1685.410096,-370.102971,9918.759623
3766.586170,919.314598,-0.000000,10362.883188
3766.586485,0.000000,-666.185348,10140.821405
3766.586800,153.219100,-1036.288319,10362.883188
3766.587114,0.000000,-814.226536,10362.883188
3766.587429,0.000000,-592.164754,9844.739029
3766.587744,383.047749,-296.082377,10140.821405
3766.588058,919.314598,-222.061783,9918.759623
3766.588373,1302.362347,592.164754,9400.615463
3766.588688,1838.629195,1036.288319,9178.553681
3766.589002,1762.019645,740.205942,8660.409521
3766.589317,1608.800546,1184.329507,8364.327145
3766.589632,1608.800546,1110.308913,7994.224174
3766.589946,1608.800546,518.144159,8586.388927
3766.590261,842.705048,-370.102971,9474.636058
3766.590576,-383.047749,-148.041188,9844.739029
3766.590890,-1302.362347,-814.226536,9918.759623
3766.591205,-1762.019645,-1258.350101,10510.924376
3766.591520,-1762.019645,-1258.350101,10510.924376
3766.591834,-1991.848295,-666.185348,9770.718434
3766.592149,-1685.410096,-888.247130,10140.821405
3766.592464,-1378.971896,-370.102971,10658.965565
3766.592778,-1378.971896,-148.041188,9696.697840
3766.593093,-383.047749,-0.000000,9178.553681
3766.593408,-229.828649,666.185348,9252.574275
3766.593722,0.000000,222.061783,9400.615463
3766.594037,0.000000,740.205942,8216.285956
3766.594352,0.000000,370.102971,8438.347739
3766.594666,-536.266849,-0.000000,9844.739029
3766.594981,-1302.362347,-0.000000,9622.677246
3766.595296,-1915.238745,-296.082377,9992.780217
3766.595610,-1762.019645,-1036.288319,10214.842000
3766.595925,-1838.629195,-962.267725,10436.903782
3766.596239,-1838.629195,-592.164754,10140.821405
3766.596554,-1225.752797,-370.102971,9918.759623
3766.596869,-766.095498,-666.185348,10658.965565
3766.597183,-766.095498,-0.000000,10510.924376
3766.597498,0.000000,518.144159,9844.739029
3766.597813,76.609550,666.185348,9400.615463
3766.598127,689.485948,518.144159,9474.636058
3766.598442,1149.143247,1554.432478,9104.533087
3766.598757,1455.581446,1628.453072,8068.244768
3766.599071,1378.971896,740.205942,8956.491898
3766.599386,995.924147,592.164754,9474.636058
3766.599701,689.485948,222.061783,9474.636058
3766.600015,0.000000,-0.000000,9918.759623
3766.600330,0.000000,-444.123565,10362.883188
3766.600645,-459.657299,-0.000000,9992.780217
3766.600959,-459.657299,-74.020594,9622.677246
3766.601274,76.609550,-740.205942,9992.780217
3766.601589,536.266849,-296.082377,10066.800811
3766.601903,689.485948,518.144159,9326.594869
3766.602218,995.924147,518.144159,9326.594869
3766.602533,1455.581446,814.226536,9400.615463
3766.602847,1685.410096,1110.308913,9104.533087
3766.603162,1915.238745,1332.370696,8586.388927
3766.603477,1608.800546,1258.350101,8586.388927
3766.603791,1608.800546,444.123565,9474.636058
3766.604106,1225.752797,370.102971,9400.615463
3766.604421,919.314598,-74.020594,9474.636058
3766.604735,76.609550,-222.061783,9548.656652
3766.605050,76.609550,-592.164754,9844.739029
3766.605365,0.000000,-370.102971,9474.636058
3766.605679,-153.219100,-0.000000,9326.594869
3766.605994,536.266849,-74.020594,9770.718434
3766.606309,229.828649,-0.000000,9326.594869
3766.606623,0.000000,518.144159,9918.759623
3766.606938,306.438199,518.144159,9548.656652
3766.607253,383.047749,888.247130,10066.800811
3766.607567,689.485948,1332.370696,9474.636058
3766.607882,766.095498,1184.329507,9104.533087
3766.608197,1378.971896,1406.391290,9474.636058
3766.608511,842.705048,814.226536,9400.615463
3766.608826,76.609550,222.061783,9844.739029
3766.609141,0.000000,222.061783,9992.780217
3766.609455,-383.047749,296.082377,10510.924376
3766.609770,-766.095498,444.123565,9992.780217
3766.610085,-1149.143247,-0.000000,9474.636058
3766.610399,-1225.752797,-222.061783,9918.759623
3766.610714,-766.095498,-370.102971,10214.842000
3766.611029,-1225.752797,-148.041188,10658.965565
3766.611343,-1302.362347,-0.000000,10140.821405
3766.611658,-536.266849,-0.000000,10510.924376
3766.611973,-459.657299,666.185348,9696.697840
3766.612287,-459.657299,1258.350101,9252.574275
3766.612602,0.000000,1110.308913,9104.533087
3766.612917,383.047749,592.164754,9400.615463
3766.613231,0.000000,370.102971,9622.677246
3766.613546,-229.828649,222.061783,9474.636058
3766.613861,-612.876398,-148.041188,9548.656652
3766.614175,-612.876398,-592.164754,9400.615463
3766.614490,-1149.143247,-518.144159,9992.780217
3766.614805,-995.924147,-666.185348,9252.574275
3766.615119,-689.485948,-1406.391290,10140.821405
3766.615434,-689.485948,-888.247130,9918.759623
3766.615749,-536.266849,-666.185348,9622.677246
3766.616063,-153.219100,-518.144159,9252.574275
3766.616378,306.438199,-740.205942,9474.636058
3766.616693,536.266849,-0.000000,9622.677246
3766.617007,842.705048,148.041188,8216.285956
3766.617322,1455.581446,-74.020594,8142.265362
3766.617637,1072.533697,-296.082377,9252.574275
3766.617951,689.485948,-148.041188,8882.471304
3766.618266,689.485948,-148.041188,9326.594869
3766.618581,229.828649,-592.164754,9918.759623
3766.618895,76.609550,-888.247130,10288.862594
3766.619210,-229.828649,-222.061783,9326.594869
3766.619525,612.876398,-1258.350101,9474.636058
3766.619839,383.047749,-888.247130,10066.800811
3766.620154,0.000000,-814.226536,10288.862594
3766.620469,459.657299,-222.061783,9474.636058
3766.620783,689.485948,296.082377,9474.636058
3766.621098,612.876398,666.185348,9548.656652
3766.621413,1072.533697,740.205942,8586.388927
3766.621727,1455.581446,296.082377,8882.471304
3766.622042,1455.581446,222.061783,9548.656652
3766.622357,766.095498,296.082377,9474.636058
3766.622671,766.095498,148.041188,9474.636058
3766.622986,842.705048,-0.000000,10214.842000
3766.623301,383.047749,370.102971,9622.677246
3766.623615,76.609550,-0.000000,9474.636058
3766.623930,306.438199,148.041188,9400.615463
3766.624245,153.219100,-0.000000,9770.718434
3766.624559,0.000000,222.061783,10066.800811
3766.624874,0.000000,518.144159,9474.636058
3766.625189,153.219100,666.185348,9252.574275
3766.625503,459.657299,518.144159,9474.636058
3766.625818,383.047749,814.226536,9030.512492
3766.626133,459.657299,1258.350101,9104.533087
3766.626447,536.266849,740.205942,9474.636058
3766.626762,-306.438199,666.185348,9696.697840
3766.627077,-919.314598,592.164754,9548.656652
3766.627391,-766.095498,592.164754,10658.965565
3766.627706,-1302.362347,592.164754,10955.047942
3766.628021,-1378.971896,370.102971,10362.883188
3766.628335,-1302.362347,592.164754,9918.759623
3766.628650,-536.266849,-0.000000,10214.842000
3766.628965,-536.266849,666.185348,10510.924376
3766.629279,-536.266849,1110.308913,10214.842000
3766.629594,0.000000,814.226536,9548.656652
3766.629909,0.000000,666.185348,9474.636058
3766.630223,383.047749,888.247130,9400.615463
3766.630538,306.438199,1184.329507,9474.636058
3766.630853,0.000000,1110.308913,8882.471304
3766.631167,76.609550,296.082377,9992.780217
3766.631482,-153.219100,296.082377,10066.800811
3766.631797,-842.705048,222.061783,10362.883188
3766.632111,-842.705048,370.102971,10658.965565
3766.632426,-995.924147,-0.000000,11029.068536
3766.632741,-612.876398,296.082377,10140.821405
3766.633055,0.000000,444.123565,9992.780217
3766.633370,306.438199,296.082377,10214.842000
3766.633685,766.095498,222.061783,9622.677246
3766.633999,1072.533697,592.164754,9696.697840
3766.634314,1225.752797,1110.308913,8956.491898
3766.634629,1302.362347,962.267725,8956.491898
3766.634943,1608.800546,1184.329507,9104.533087
3766.635258,1225.752797,1036.288319,8808.450710
3766.635573,689.485948,-370.102971,9326.594869
3766.635887,306.438199,-1332.370696,9252.574275
3766.636202,-689.485948,-1628.453072,10288.862594
3766.636517,-459.657299,-1406.391290,10066.800811
3766.636831,-229.828649,-962.267725,10066.800811
3766.637146,0.000000,-518.144159,9548.656652
3766.637461,536.266849,-148.041188,8882.471304
3766.637775,1225.752797,-222.061783,8882.471304
3766.638090,1762.019645,-0.000000,8734.430116
3766.638405,1608.800546,518.144159,8956.491898
3766.638719,1685.410096,296.082377,8512.368333
3766.639034,1685.410096,148.041188,8956.491898
3766.639349,1225.752797,-0.000000,9252.574275
3766.639663,1149.143247,-222.061783,9178.553681
3766.639978,766.095498,-740.205942,9252.574275
3766.640293,153.219100,-1110.308913,9992.780217
3766.640607,229.828649,-962.267725,10066.800811
3766.640922,-383.047749,-1110.308913,10214.842000
3766.641237,-612.876398,-1850.514855,10436.903782
3766.641551,-536.266849,-1406.391290,10510.924376
3766.641866,-536.266849,-518.144159,9474.636058
3766.642181,0.000000,-74.020594,8956.491898
3766.642495,689.485948,-0.000000,9474.636058
3766.642810,842.705048,296.082377,9178.553681
3766.643125,1072.533697,-0.000000,9474.636058
3766.643439,766.095498,-0.000000,9252.574275
3766.643754,383.047749,296.082377,9548.656652
3766.644069,153.219100,518.144159,9622.677246
3766.644383,0.000000,444.123565,9252.574275
3766.644698,-536.266849,-74.020594,9844.739029
3766.645013,-842.705048,-444.123565,9992.780217
3766.645327,-842.705048,-592.164754,10362.883188
3766.645642,-1685.410096,-666.185348,10066.800811
3766.645957,-1378.971896,-592.164754,10362.883188
3766.646271,-1378.971896,-74.020594,10288.862594
3766.646586,-1149.143247,222.061783,9104.533087
3766.646901,-536.266849,222.061783,9474.636058
3766.647215,0.000000,-0.000000,9474.636058
3766.647530,0.000000,592.164754,9178.553681
3766.647845,76.609550,962.267725,9252.574275
3766.648159,0.000000,1332.370696,9326.594869
3766.648474,689.485948,1406.391290,9326.594869
3766.648789,0.000000,1406.391290,8660.409521
3766.649103,-306.438199,814.226536,9400.615463
3766.649418,-229.828649,370.102971,9918.759623
3766.649733,-612.876398,148.041188,10362.883188
3766.650047,-995.924147,-222.061783,10362.883188
3766.650362,-689.485948,-0.000000,10510.924376
3766.650677,-383.047749,444.123565,10584.944971
3766.650991,-306.438199,666.185348,9622.677246
3766.651306,0.000000,1036.288319,9474.636058
3766.651621,995.924147,962.267725,10140.821405
3766.651935,689.485948,1110.308913,9400.615463
3766.652250,919.314598,1036.288319,9696.697840
3766.652565,1149.143247,1258.350101,9326.594869
3766.652879,995.924147,814.226536,9326.594869
3766.653194,1149.143247,888.247130,9104.533087
3766.653509,689.485948,888.247130,8956.491898
3766.653823,995.924147,-0.000000,9474.636058
3766.654138,689.485948,-74.020594,9548.656652
3766.654453,153.219100,-74.020594,9844.739029
3766.654767,-306.438199,-370.102971,9992.780217
3766.655082,-383.047749,-518.144159,10584.944971
3766.655397,-229.828649,148.041188,10732.986159
3766.655711,0.000000,518.144159,10214.842000
3766.656026,842.705048,592.164754,9992.780217
3766.656341,1072.533697,592.164754,9474.636058
3766.656655,1302.362347,1406.391290,9474.636058
3766.656970,1455.581446,1554.432478,9548.656652
3766.657285,1378.971896,1110.308913,9400.615463
3766.657599,1608.800546,1184.329507,8808.450710
3766.657914,1455.581446,1406.391290,8438.347739
3766.658229,1378.971896,518.144159,8142.265362
3766.658543,612.876398,-222.061783,8882.471304
3766.658858,0.000000,-888.247130,8956.491898
3766.659173,-766.095498,-1332.370696,9770.718434
3766.659487,-919.314598,-1258.350101,9918.759623
3766.659802,-919.314598,-1258.350101,10288.862594
3766.660117,-919.314598,-592.164754,9844.739029
3766.660431,-383.047749,-74.020594,9622.677246
3766.660746,0.000000,-0.000000,9548.656652
3766.661061,536.266849,296.082377,10066.800811
3766.661375,612.876398,444.123565,9474.636058
3766.661690,995.924147,814.226536,9474.636058
3766.662005,1225.752797,888.247130,8956.491898
3766.662319,1072.533697,962.267725,8586.388927
3766.662634,229.828649,814.226536,8586.388927
3766.662949,229.828649,-0.000000,9400.615463
3766.663263,-842.705048,-1258.350101,9918.759623
3766.663578,-1455.581446,-1776.494261,9918.759623
3766.663893,-1915.238745,-2072.576638,10881.027347
3766.664207,-2068.457845,-1998.556043,10955.047942
3766.664522,-2374.896044,-1628.453072,11325.150913
3766.664837,-1838.629195,-74.020594,10066.800811
3766.665151,-689.485948,-222.061783,9178.553681
3766.665466,0.000000,-0.000000,9326.594869
3766.665781,612.876398,-0.000000,9696.697840
3766.666095,919.314598,740.205942,9104.533087
3766.666410,766.095498,518.144159,8808.450710
3766.666725,995.924147,1184.329507,8586.388927
3766.667039,995.924147,666.185348,8364.327145
3766.667354,689.485948,296.082377,8512.368333
3766.667669,306.438199,-592.164754,9622.677246
3766.667983,-689.485948,-1258.350101,10214.842000
3766.668298,-1991.848295,-962.267725,10436.903782
3766.668613,-1685.410096,-1332.370696,10881.027347
3766.668927,-1378.971896,-1110.308913,10881.027347
3766.669242,-1149.143247,-592.164754,10584.944971
3766.669557,-306.438199,-370.102971,9622.677246
3766.669871,689.485948,-74.020594,9326.594869
3766.670186,1762.019645,1258.350101,9104.533087
3766.670501,1915.238745,1628.453072,8290.306550
3766.670815,2298.286494,1850.514855,8216.285956
3766.671130,2374.896044,1406.391290,8216.285956
3766.671445,2068.457845,1406.391290,7846.182985
3766.671759,1532.190996,1184.329507,7772.162391
3766.672074,1378.971896,296.082377,8734.430116
3766.672389,153.219100,-370.102971,9770.718434
3766.672703,-536.266849,-222.061783,9622.677246
3766.673018,-766.095498,-444.123565,9992.780217
3766.673333,-842.705048,-1258.350101,10436.903782
3766.673647,-1532.190996,-666.185348,10658.965565
3766.673962,-919.314598,-296.082377,10807.006753
3766.674277,0.000000,518.144159,9992.780217
3766.674591,1225.752797,666.185348,9548.656652
3766.674906,1072.533697,1998.556043,9622.677246
3766.675221,1455.581446,1628.453072,9622.677246
3766.675535,2068.457845,1702.473667,9474.636058
3766.675850,1838.629195,1850.514855,9178.553681
3766.676165,1685.410096,2146.597232,8216.285956
3766.676479,1378.971896,1036.288319,9326.594869
3766.676794,612.876398,370.102971,9918.759623
3766.677109,-766.095498,-222.061783,9844.739029
3766.677423,-1302.362347,-814.226536,10510.924376
3766.677738,-995.924147,-740.205942,11103.089130
3766.678053,-1302.362347,-814.226536,11251.130318
3766.678367,-1608.800546,-74.020594,10288.862594
3766.678682,-995.924147,-296.082377,10214.842000
3766.678997,0.000000,-0.000000,10510.924376
3766.679311,383.047749,296.082377,9770.718434
3766.679626,842.705048,1184.329507,9844.739029
3766.679941,1302.362347,1702.473667,9400.615463
3766.680255,1378.971896,2072.576638,9252.574275
3766.680570,1149.143247,1998.556043,8142.265362
3766.680885,1225.752797,1850.514855,8512.368333
3766.681199,919.314598,592.164754,9474.636058
3766.681514,0.000000,-592.164754,9696.697840
3766.681829,-842.705048,-814.226536,9992.780217
3766.682143,-1762.019645,-888.247130,10288.862594
3766.682458,-1762.019645,-1110.308913,10362.883188
3766.682773,-1685.410096,-1406.391290,10732.986159
3766.683087,-1302.362347,-666.185348,9474.636058
3766.683402,-689.485948,-444.123565,9548.656652
3766.683717,153.219100,-0.000000,9474.636058
3766.684031,383.047749,148.041188,9326.594869
3766.684346,1225.752797,962.267725,9326.594869
3766.684661,1225.752797,814.226536,8956.491898
3766.684975,1685.410096,1036.288319,8734.430116
3766.685290,1378.971896,740.205942,8660.409521
3766.685605,1149.143247,740.205942,8364.327145
3766.685919,612.876398,-148.041188,9178.553681
3766.686234,0.000000,-296.082377,9178.553681
3766.686549,-689.485948,-666.185348,10214.842000
3766.686864,-1302.362347,-1110.308913,10066.800811
3766.687178,-1532.190996,-2072.576638,10288.862594
3766.687493,-1532.190996,-1628.453072,10214.842000
3766.687808,-919.314598,-1480.411884,9992.780217
3766.688122,-612.876398,-1258.350101,10214.842000
3766.688437,0.000000,-592.164754,9696.697840
3766.688752,766.095498,370.102971,9252.574275
3766.689066,1149.143247,444.123565,9104.533087
3766.689381,1302.362347,814.226536,8734.430116
3766.689696,2374.896044,1110.308913,8660.409521
3766.690010,1991.848295,1332.370696,8142.265362
3766.690325,1915.238745,666.185348,8438.347739
3766.690640,919.314598,-0.000000,8808.450710
3766.690954,536.266849,-666.185348,9696.697840
3766.691269,-383.047749,-444.123565,9474.636058
3766.691584,-1072.533697,-1258.350101,10584.944971
3766.691898,-1302.362347,-1184.329507,10510.924376
3766.692213,-1685.410096,-962.267725,9918.759623
3766.692528,-536.266849,-1184.329507,9992.780217
3766.692842,-919.314598,-1184.329507,10436.903782
3766.693157,-459.657299,-666.185348,9992.780217
3766.693472,153.219100,-0.000000,10140.821405
3766.693786,766.095498,1036.288319,9548.656652
3766.694101,1225.752797,1776.494261,8956.491898
3766.694416,1991.848295,2590.720797,7846.182985
3766.694730,2068.457845,2072.576638,7624.121203
3766.695045,1762.019645,1480.411884,8734.430116
3766.695360,612.876398,666.185348,9548.656652
3766.695674,0.000000,222.061783,9992.780217
3766.695989,-995.924147,-222.061783,10658.965565
3766.696304,-1302.362347,-740.205942,11103.089130
3766.696618,-1762.019645,-444.123565,10436.903782
3766.696933,-1532.190996,-518.144159,10362.883188
3766.697248,-1149.143247,-592.164754,11325.150913
3766.697562,-1072.533697,-148.041188,10807.006753
3766.697877,-383.047749,740.205942,9918.759623
3766.698192,536.266849,1554.432478,9474.636058
3766.698506,1149.143247,1480.411884,9326.594869
3766.698821,1608.800546,1628.453072,8956.491898
3766.699136,1762.019645,1850.514855,8142.265362
3766.699450,1685.410096,1332.370696,8216.285956
3766.699765,1225.752797,814.226536,9178.553681
3766.700080,229.828649,814.226536,9474.636058
3766.700394,-306.438199,222.061783,9770.718434
3766.700709,-1072.533697,-370.102971,10881.027347
3766.701024,-1915.238745,-814.226536,10807.006753
3766.701338,-1608.800546,-518.144159,10436.903782
3766.701653,-1302.362347,-962.267725,10436.903782
3766.701968,-689.485948,-222.061783,10658.965565
3766.702282,-153.219100,148.041188,10214.842000
3766.702597,306.438199,740.205942,9696.697840
3766.702912,1225.752797,1110.308913,9474.636058
3766.703226,1991.848295,1776.494261,9252.574275
3766.703541,1838.629195,2072.576638,7846.182985
3766.703856,2145.067394,1628.453072,7920.203579
3766.704170,2068.457845,296.082377,8808.450710
3766.704485,1149.143247,-0.000000,9252.574275
3766.704800,76.609550,-740.205942,9474.636058
3766.705114,-612.876398,-1406.391290,9696.697840
3766.705429,-766.095498,-1036.288319,10584.944971
3766.705744,-842.705048,-444.123565,9548.656652
3766.706058,-919.314598,-740.205942,9474.636058
3766.706373,-306.438199,-1184.329507,10214.842000
3766.706688,-229.828649,-1110.308913,9696.697840
3766.707002,229.828649,-222.061783,9400.615463
3766.707317,536.266849,-0.000000,9770.718434
3766.707632,1072.533697,1036.288319,9400.615463
3766.707946,2068.457845,1480.411884,8586.388927
3766.708261,1302.362347,1480.411884,8068.244768
3766.708576,1378.971896,592.164754,9400.615463
3766.708890,842.705048,518.144159,9474.636058
3766.709205,153.219100,-0.000000,9770.718434
3766.709520,-383.047749,-148.041188,10140.821405
3766.709834,-689.485948,-1110.308913,10510.924376
3766.710149,-995.924147,-740.205942,10214.842000
3766.710464,-1378.971896,-740.205942,9770.718434
3766.710778,-1302.362347,-888.247130,9622.677246
3766.711093,-536.266849,-1480.411884,9918.759623
3766.711408,-229.828649,-370.102971,9622.677246
3766.711722,-383.047749,-0.000000,9400.615463
3766.712037,383.047749,370.102971,9326.594869
3766.712352,766.095498,592.164754,9178.553681
3766.712666,536.266849,888.247130,8586.388927
3766.712981,689.485948,296.082377,9104.533087
3766.713296,766.095498,-0.000000,9622.677246
3766.713610,0.000000,-0.000000,10214.842000
3766.713925,-229.828649,370.102971,10436.903782
3766.714240,-459.657299,-0.000000,10362.883188
3766.714554,-459.657299,-0.000000,10436.903782
3766.714869,-766.095498,-0.000000,10066.800811
3766.715184,-689.485948,-148.041188,9622.677246
3766.715498,76.609550,-1036.288319,9918.759623
3766.715813,0.000000,-370.102971,9918.759623
3766.716128,-153.219100,222.061783,9992.780217
3766.716442,0.000000,148.041188,9474.636058
3766.716757,153.219100,592.164754,9474.636058
3766.717072,536.266849,888.247130,9178.553681
3766.717387,459.657299,1036.288319,9030.512492
3766.717701,995.924147,888.247130,8882.471304
3766.718016,459.657299,-0.000000,9474.636058
3766.718331,0.000000,370.102971,9622.677246
3766.718646,0.000000,518.144159,10288.862594
3766.718960,-536.266849,-0.000000,9622.677246
3766.719275,-459.657299,-222.061783,9844.739029
3766.719590,-536.266849,444.123565,9696.697840
3766.719905,0.000000,148.041188,9622.677246
3766.720219,-229.828649,-0.000000,10066.800811
3766.720534,-229.828649,-0.000000,9844.739029
3766.720849,0.000000,222.061783,9992.780217
3766.721163,0.000000,296.082377,9770.718434
3766.721478,459.657299,370.102971,9548.656652
3766.721793,612.876398,740.205942,8956.491898
3766.722108,919.314598,888.247130,8660.409521
3766.722422,1149.143247,296.082377,9252.574275
3766.722737,612.876398,518.144159,9400.615463
3766.723052,306.438199,296.082377,8882.471304
3766.723367,536.266849,-222.061783,9030.512492
3766.723681,383.047749,-148.041188,9696.697840
3766.723996,153.219100,-74.020594,9474.636058
3766.724311,0.000000,-296.082377,9474.636058
3766.724626,-153.219100,-296.082377,10066.800811
3766.724940,-229.828649,-518.144159,10214.842000
3766.725255,229.828649,-296.082377,10066.800811
3766.725570,76.609550,-0.000000,9918.759623
3766.725884,536.266849,444.123565,10658.965565
3766.726199,229.828649,1332.370696,9474.636058
3766.726514,306.438199,1480.411884,8956.491898
3766.726829,995.924147,740.205942,9622.677246
3766.727143,1225.752797,592.164754,10066.800811
3766.727458,383.047749,666.185348,9326.594869
3766.727773,689.485948,-0.000000,9474.636058
3766.728088,229.828649,296.082377,9844.739029
3766.728402,0.000000,296.082377,9844.739029
3766.728717,-842.705048,-0.000000,9178.553681
3766.729032,-459.657299,-518.144159,10362.883188
3766.729347,-383.047749,-666.185348,10436.903782
3766.729661,-306.438199,-222.061783,9992.780217
3766.729976,-229.828649,-0.000000,10066.800811
3766.730291,-229.828649,-0.000000,10436.903782
3766.730605,153.219100,1036.288319,10140.821405
3766.730920,383.047749,1036.288319,8734.430116
3766.731235,919.314598,740.205942,8956.491898
3766.731550,842.705048,222.061783,9326.594869
3766.731864,995.924147,-0.000000,9400.615463
3766.732179,383.047749,444.123565,9622.677246
3766.732494,-229.828649,-370.102971,9844.739029
3766.732809,-229.828649,-148.041188,10066.800811
3766.733123,-383.047749,-370.102971,9400.615463
3766.733438,76.609550,-370.102971,9548.656652
3766.733753,0.000000,-592.164754,10362.883188
3766.734068,-306.438199,-222.061783,9474.636058
3766.734382,-229.828649,-0.000000,10066.800811
3766.734697,-229.828649,-0.000000,9400.615463
3766.735012,153.219100,-148.041188,9474.636058
3766.735326,383.047749,-0.000000,8956.491898
3766.735641,536.266849,148.041188,8512.368333
3766.735956,612.876398,-0.000000,8734.430116
3766.736271,306.438199,-592.164754,9474.636058
3766.736585,76.609550,-0.000000,9696.697840
3766.736900,-229.828649,296.082377,9696.697840
3766.737215,-689.485948,-148.041188,9918.759623
3766.737530,-383.047749,-0.000000,9918.759623
3766.737844,-459.657299,-148.041188,9844.739029
3766.738159,-383.047749,-222.061783,10066.800811
3766.738474,0.000000,-0.000000,9548.656652
3766.738789,0.000000,222.061783,9474.636058
3766.739103,229.828649,370.102971,9622.677246
3766.739418,383.047749,-0.000000,9622.677246
3766.739733,842.705048,222.061783,8956.491898
3766.740047,383.047749,740.205942,8586.388927
3766.740362,919.314598,518.144159,8438.347739
3766.740677,536.266849,-0.000000,9030.512492
3766.740992,0.000000,-0.000000,9548.656652
3766.741306,-842.705048,-0.000000,9992.780217
3766.741621,-536.266849,-148.041188,9844.739029
