#time,accel_x,accel_y,accel_z
3788.910115,153.219100,-0.000000,9696.697840
3788.910429,536.266849,-0.000000,9770.718434
3788.910744,536.266849,-0.000000,9474.636058
3788.911059,229.828649,296.082377,9474.636058
3788.911373,229.828649,-0.000000,9474.636058
3788.911688,229.828649,296.082377,9474.636058
3788.912002,383.047749,518.144159,9622.677246
3788.912317,0.000000,-0.000000,9696.697840
3788.912631,76.609550,-0.000000,9474.636058
3788.912946,459.657299,-0.000000,9474.636058
3788.913260,-383.047749,-74.020594,9696.697840
3788.913575,0.000000,148.041188,10066.800811
3788.913890,229.828649,148.041188,9918.759623
3788.914204,-153.219100,222.061783,9622.677246
3788.914519,0.000000,-0.000000,9326.594869
3788.914833,383.047749,-0.000000,9918.759623
3788.915148,153.219100,222.061783,9696.697840
3788.915462,0.000000,222.061783,9696.697840
3788.915777,0.000000,-0.000000,9696.697840
3788.916091,0.000000,-0.000000,9622.677246
3788.916406,766.095498,-222.061783,9326.594869
3788.916721,0.000000,296.082377,9326.594869
3788.917035,383.047749,-0.000000,9770.718434
3788.917350,76.609550,-0.000000,9696.697840
3788.917664,153.219100,-0.000000,9474.636058
3788.917979,0.000000,-0.000000,9696.697840
3788.918293,0.000000,-0.000000,9622.677246
3788.918608,153.219100,-0.000000,9474.636058
3788.918922,0.000000,-74.020594,9548.656652
3788.919237,229.828649,-0.000000,9474.636058
3788.919552,306.438199,296.082377,9474.636058
3788.919866,0.000000,-74.020594,9474.636058
3788.920181,0.000000,-0.000000,9770.718434
3788.920495,0.000000,-0.000000,9548.656652
3788.920810,153.219100,-0.000000,9400.615463
3788.921124,153.219100,-0.000000,9474.636058
3788.921439,306.438199,370.102971,9622.677246
3788.921753,153.219100,370.102971,9400.615463
3788.922068,229.828649,222.061783,9400.615463
3788.922382,383.047749,-148.041188,9474.636058
3788.922697,0.000000,-0.000000,9770.718434
3788.923012,229.828649,296.082377,9474.636058
3788.923326,0.000000,370.102971,9696.697840
3788.923641,153.219100,148.041188,9326.594869
3788.923955,459.657299,-0.000000,9178.553681
3788.924270,76.609550,222.061783,9696.697840
3788.924584,0.000000,-0.000000,9918.759623
3788.924899,-383.047749,222.061783,9548.656652
3788.925213,0.000000,222.061783,9622.677246
3788.925528,76.609550,296.082377,9548.656652
3788.925843,0.000000,-0.000000,9474.636058
3788.926157,0.000000,222.061783,9844.739029
3788.926472,0.000000,222.061783,9400.615463
3788.926786,153.219100,-0.000000,9474.636058
3788.927101,383.047749,-74.020594,9770.718434
3788.927415,76.609550,518.144159,9622.677246
3788.927730,0.000000,-0.000000,9622.677246
3788.928044,229.828649,-0.000000,9770.718434
3788.928359,153.219100,-0.000000,9770.718434
3788.928674,0.000000,-0.000000,9622.677246
3788.928988,306.438199,370.102971,9844.739029
3788.929303,153.219100,222.061783,9474.636058
3788.929617,229.828649,-0.000000,9400.615463
3788.929932,76.609550,-0.000000,9474.636058
3788.930246,306.438199,-0.000000,9178.553681
3788.930561,76.609550,222.061783,9696.697840
3788.930875,0.000000,-0.000000,9548.656652
3788.931190,229.828649,-0.000000,9622.677246
3788.931505,229.828649,-0.000000,9622.677246
3788.931819,306.438199,-0.000000,9548.656652
3788.932134,229.828649,296.082377,9474.636058
3788.932448,0.000000,222.061783,9252.574275
3788.932763,0.000000,-0.000000,9548.656652
3788.933077,76.609550,296.082377,9548.656652
3788.933392,383.047749,-0.000000,9622.677246
3788.933706,153.219100,-0.000000,9844.739029
3788.934021,306.438199,-0.000000,9400.615463
3788.934336,153.219100,-0.000000,9696.697840
3788.934650,-153.219100,148.041188,9548.656652
3788.934965,306.438199,222.061783,9548.656652
3788.935279,383.047749,296.082377,9326.594869
3788.935594,0.000000,592.164754,9474.636058
3788.935908,0.000000,296.082377,9844.739029
3788.936223,0.000000,-0.000000,9474.636058
3788.936537,-229.828649,222.061783,9474.636058
3788.936852,0.000000,222.061783,9474.636058
3788.937166,-153.219100,-0.000000,9548.656652
3788.937481,0.000000,-0.000000,9622.677246
3788.937796,0.000000,148.041188,9474.636058
3788.938110,0.000000,-0.000000,9770.718434
3788.938425,153.219100,-0.000000,9474.636058
3788.938739,-153.219100,-148.041188,9474.636058
3788.939054,0.000000,-0.000000,9548.656652
3788.939368,76.609550,222.061783,9622.677246
3788.939683,306.438199,-0.000000,9622.677246
3788.939997,76.609550,-0.000000,9696.697840
3788.940312,0.000000,-0.000000,9474.636058
3788.940627,229.828649,-0.000000,9400.615463
3788.940941,0.000000,222.061783,9622.677246
3788.941256,229.828649,148.041188,9548.656652
3788.941570,153.219100,-0.000000,9474.636058
3788.941885,459.657299,-0.000000,9400.615463
3788.942199,0.000000,-0.000000,9548.656652
3788.942514,0.000000,222.061783,9548.656652
3788.942828,383.047749,296.082377,9770.718434
3788.943143,153.219100,148.041188,9622.677246
3788.943458,76.609550,-0.000000,9770.718434
3788.943772,76.609550,-0.000000,9622.677246
3788.944087,153.219100,222.061783,9400.615463
3788.944401,0.000000,296.082377,9770.718434
3788.944716,153.219100,370.102971,9696.697840
3788.945030,0.000000,-0.000000,9696.697840
3788.945345,76.609550,296.082377,9622.677246
3788.945659,76.609550,-0.000000,9548.656652
3788.945974,76.609550,370.102971,9696.697840
3788.946289,0.000000,222.061783,9474.636058
3788.946603,229.828649,296.082377,9696.697840
3788.946918,229.828649,-0.000000,9696.697840
3788.947232,0.000000,-74.020594,9770.718434
3788.947547,-229.828649,-0.000000,9548.656652
3788.947861,0.000000,148.041188,9622.677246
3788.948176,76.609550,-0.000000,9622.677246
3788.948490,76.609550,-0.000000,9400.615463
3788.948805,153.219100,296.082377,9474.636058
3788.949120,0.000000,148.041188,9474.636058
3788.949434,76.609550,222.061783,9474.636058
3788.949749,0.000000,-74.020594,9696.697840
3788.950063,306.438199,-0.000000,9918.759623
3788.950378,383.047749,-0.000000,9548.656652
3788.950692,306.438199,-0.000000,9548.656652
3788.951007,459.657299,296.082377,9696.697840
3788.951321,383.047749,444.123565,9326.594869
3788.951636,766.095498,814.226536,9400.615463
3788.951950,383.047749,592.164754,9104.533087
3788.952265,612.876398,296.082377,8956.491898
3788.952580,766.095498,-0.000000,9326.594869
3788.952894,536.266849,296.082377,9030.512492
3788.953209,689.485948,222.061783,9474.636058
3788.953523,536.266849,296.082377,10288.862594
3788.953838,383.047749,222.061783,9770.718434
3788.954152,383.047749,592.164754,9770.718434
3788.954467,842.705048,740.205942,9400.615463
3788.954781,1532.190996,962.267725,9400.615463
3788.955096,1455.581446,814.226536,9474.636058
3788.955411,1532.190996,888.247130,9696.697840
3788.955725,1608.800546,962.267725,10066.800811
3788.956040,1838.629195,1110.308913,9844.739029
3788.956354,2145.067394,1628.453072,10140.821405
3788.956669,2604.724693,1924.535449,9696.697840
3788.956983,2834.553343,2146.597232,9326.594869
3788.957298,3140.991542,2146.597232,8956.491898
3788.957612,3447.429741,2294.638420,8808.450710
3788.957927,3830.477490,2220.617826,8956.491898
3788.958242,3753.867940,2368.659014,8956.491898
3788.958556,3677.258390,2442.679609,8956.491898
3788.958871,3753.867940,2368.659014,9030.512492
3788.959185,3600.648841,2886.803174,9178.553681
3788.959500,3140.991542,2294.638420,8808.450710
3788.959814,3140.991542,2368.659014,9548.656652
3788.960129,2834.553343,2960.823768,9400.615463
3788.960443,2834.553343,3034.844362,9030.512492
3788.960758,3217.601092,2886.803174,8882.471304
3788.961073,2911.162892,3182.885551,8882.471304
3788.961387,2911.162892,3256.906145,9104.533087
3788.961702,2834.553343,3701.029710,9474.636058
3788.962016,2528.115143,3627.009116,9770.718434
3788.962331,2145.067394,3923.091493,9992.780217
3788.962645,1838.629195,3775.050304,10140.821405
3788.962960,1608.800546,3849.070898,10658.965565
3788.963274,1915.238745,3849.070898,11177.109724
3788.963589,2068.457845,3923.091493,11029.068536
3788.963903,1762.019645,3404.947333,10584.944971
3788.964218,1762.019645,3701.029710,11177.109724
3788.964533,2298.286494,3923.091493,10955.047942
3788.964847,2221.676944,4145.153275,10066.800811
3788.965162,2221.676944,4219.173869,9622.677246
3788.965476,2757.943793,4071.132681,10066.800811
3788.965791,2987.772442,3775.050304,9696.697840
3788.966105,2374.896044,3775.050304,9548.656652
3788.966420,2298.286494,3404.947333,9474.636058
3788.966734,2068.457845,2812.782580,9474.636058
3788.967049,1685.410096,2812.782580,9770.718434
3788.967364,1532.190996,2812.782580,10362.883188
3788.967678,1532.190996,2516.700203,10807.006753
3788.967993,1225.752797,2590.720797,10140.821405
3788.968307,1302.362347,2738.761985,9696.697840
3788.968622,1455.581446,2960.823768,9918.759623
3788.968936,1685.410096,3182.885551,9770.718434
3788.969251,1762.019645,2886.803174,9548.656652
3788.969565,1532.190996,2590.720797,9252.574275
3788.969880,1455.581446,2516.700203,9696.697840
3788.970195,1838.629195,1924.535449,9992.780217
3788.970509,1608.800546,1554.432478,10288.862594
3788.970824,1225.752797,1628.453072,10140.821405
3788.971138,1072.533697,1332.370696,10066.800811
3788.971453,1225.752797,1480.411884,9918.759623
3788.971767,1838.629195,1110.308913,9918.759623
3788.972082,1838.629195,1776.494261,9696.697840
3788.972396,2145.067394,2072.576638,8808.450710
3788.972711,2757.943793,1480.411884,9104.533087
3788.973026,3677.258390,1258.350101,9400.615463
3788.973340,3370.820191,1776.494261,7846.182985
3788.973655,3370.820191,1332.370696,7994.224174
3788.973969,3140.991542,1332.370696,9030.512492
3788.974284,2681.334243,1332.370696,8882.471304
3788.974598,2451.505594,1184.329507,9252.574275
3788.974913,1915.238745,888.247130,8956.491898
3788.975227,1915.238745,1184.329507,9474.636058
3788.975542,2068.457845,518.144159,9548.656652
3788.975857,2374.896044,-0.000000,9696.697840
3788.976171,2451.505594,296.082377,10362.883188
3788.976486,1838.629195,370.102971,10140.821405
3788.976800,2911.162892,1406.391290,10066.800811
3788.977115,3447.429741,2146.597232,9326.594869
3788.977429,3907.087040,2220.617826,9104.533087
3788.977744,3830.477490,2516.700203,8438.347739
3788.978058,4213.525239,2516.700203,7994.224174
3788.978373,3524.039291,1998.556043,8142.265362
3788.978687,3140.991542,1332.370696,8364.327145
3788.979002,2451.505594,888.247130,9030.512492
3788.979317,1302.362347,-0.000000,9548.656652
3788.979631,536.266849,-296.082377,10881.027347
3788.979946,153.219100,-370.102971,11843.295072
3788.980260,-229.828649,-0.000000,12213.398043
3788.980575,76.609550,666.185348,12287.418637
3788.980889,1072.533697,1776.494261,11473.192101
3788.981204,2374.896044,2664.741391,10732.986159
3788.981518,3600.648841,3552.988522,9474.636058
3788.981833,4213.525239,4219.173869,8216.285956
3788.982148,4903.011187,5033.400406,7328.038826
3788.982462,4903.011187,4811.338623,6809.894666
3788.982777,4596.572988,3701.029710,7846.182985
3788.983091,3677.258390,2442.679609,8586.388927
3788.983406,1991.848295,1480.411884,9548.656652
3788.983720,229.828649,444.123565,11399.171507
3788.984035,-995.924147,370.102971,12065.356855
3788.984349,-1608.800546,592.164754,12435.459826
3788.984664,-1072.533697,1184.329507,11917.315666
3788.984979,-766.095498,2146.597232,10510.924376
3788.985293,306.438199,3108.864956,9104.533087
3788.985608,2528.115143,4811.338623,7920.203579
3788.985922,3677.258390,4663.297435,7476.080014
3788.986237,4673.182538,4811.338623,7994.224174
3788.986551,4596.572988,4589.276840,8438.347739
3788.986866,3677.258390,4367.215058,9030.512492
3788.987180,2681.334243,3627.009116,10140.821405
3788.987495,1915.238745,2960.823768,11991.336260
3788.987810,1072.533697,2960.823768,11473.192101
3788.988124,76.609550,2664.741391,10881.027347
3788.988439,306.438199,2738.761985,10732.986159
3788.988753,1072.533697,1924.535449,10510.924376
3788.989068,1608.800546,2368.659014,9548.656652
3788.989382,2221.676944,2738.761985,8882.471304
3788.989697,2298.286494,2960.823768,8364.327145
3788.990011,3294.210641,3108.864956,8290.306550
3788.990326,3600.648841,3627.009116,8586.388927
3788.990641,3294.210641,3701.029710,8438.347739
3788.990955,2757.943793,3478.967927,8956.491898
3788.991270,1991.848295,2442.679609,9844.739029
3788.991584,1608.800546,2294.638420,11325.150913
3788.991899,1225.752797,1776.494261,11695.253884
3788.992213,919.314598,1702.473667,11843.295072
3788.992528,1378.971896,2146.597232,11103.089130
3788.992842,2298.286494,2442.679609,10732.986159
3788.993157,2451.505594,3923.091493,8660.409521
3788.993472,3753.867940,3552.988522,7846.182985
3788.993787,4136.915689,3108.864956,7698.141797
3788.994102,4290.134789,2516.700203,8290.306550
3788.994416,3753.867940,1332.370696,8882.471304
3788.994731,3677.258390,888.247130,9548.656652
3788.995046,2834.553343,962.267725,10881.027347
3788.995361,1685.410096,1258.350101,10288.862594
3788.995676,1455.581446,1776.494261,9992.780217
3788.995991,1915.238745,2072.576638,9844.739029
3788.996305,2145.067394,2442.679609,9400.615463
3788.996620,2221.676944,2664.741391,9104.533087
3788.996935,2451.505594,2294.638420,8586.388927
3788.997250,2298.286494,2072.576638,8882.471304
3788.997565,2451.505594,2072.576638,8586.388927
3788.997879,2221.676944,1110.308913,9178.553681
3788.998194,1455.581446,814.226536,9844.739029
3788.998509,612.876398,296.082377,11103.089130
3788.998824,0.000000,592.164754,11325.150913
3788.999139,-536.266849,888.247130,11103.089130
3788.999454,-612.876398,1036.288319,10510.924376
3788.999768,-536.266849,1332.370696,10510.924376
3789.000083,153.219100,1036.288319,9696.697840
3789.000398,536.266849,740.205942,9474.636058
3789.000713,766.095498,888.247130,8956.491898
3789.001028,995.924147,740.205942,8956.491898
3789.001342,1532.190996,666.185348,8808.450710
3789.001657,1149.143247,888.247130,8882.471304
3789.001972,1225.752797,222.061783,8882.471304
3789.002287,459.657299,-296.082377,9400.615463
3789.002602,-383.047749,-888.247130,10362.883188
3789.002917,-1455.581446,-814.226536,10066.800811
3789.003231,-2145.067394,-666.185348,10214.842000
3789.003546,-2145.067394,-1258.350101,10510.924376
3789.003861,-2145.067394,-666.185348,9770.718434
3789.004176,-1302.362347,-518.144159,9696.697840
3789.004491,-459.657299,-222.061783,9770.718434
3789.004805,-689.485948,222.061783,10288.862594
3789.005120,0.000000,-0.000000,9918.759623
3789.005435,459.657299,296.082377,9696.697840
3789.005750,536.266849,592.164754,9474.636058
3789.006065,995.924147,222.061783,9622.677246
3789.006380,2068.457845,-444.123565,8586.388927
3789.006694,1455.581446,-592.164754,9104.533087
3789.007009,919.314598,-518.144159,9326.594869
3789.007324,612.876398,-370.102971,9178.553681
3789.007639,0.000000,-296.082377,9030.512492
3789.007954,0.000000,-148.041188,8290.306550
3789.008268,689.485948,-888.247130,8142.265362
3789.008583,612.876398,-1258.350101,8512.368333
3789.008898,383.047749,-1850.514855,9252.574275
3789.009213,383.047749,-2072.576638,9548.656652
3789.009528,0.000000,-888.247130,9548.656652
3789.009842,0.000000,-0.000000,9474.636058
3789.010157,995.924147,518.144159,9252.574275
3789.010472,1072.533697,592.164754,9622.677246
3789.010787,1225.752797,-0.000000,9696.697840
3789.011102,919.314598,592.164754,9696.697840
3789.011417,766.095498,888.247130,8808.450710
3789.011731,1072.533697,1184.329507,9326.594869
3789.012046,842.705048,1258.350101,8438.347739
3789.012361,1608.800546,518.144159,8808.450710
3789.012676,766.095498,-592.164754,9178.553681
3789.012991,536.266849,-1184.329507,9844.739029
3789.013305,459.657299,-1924.535449,9474.636058
3789.013620,-536.266849,-740.205942,9474.636058
3789.013935,-612.876398,-0.000000,9474.636058
3789.014250,153.219100,-518.144159,9252.574275
3789.014565,0.000000,-148.041188,9474.636058
3789.014880,0.000000,-0.000000,9548.656652
3789.015194,76.609550,444.123565,9844.739029
3789.015509,0.000000,1628.453072,9474.636058
3789.015824,919.314598,3182.885551,9326.594869
3789.016139,1532.190996,3034.844362,9104.533087
3789.016454,1378.971896,1628.453072,8734.430116
3789.016768,1072.533697,370.102971,9622.677246
3789.017083,153.219100,-296.082377,11029.068536
3789.017398,-995.924147,-0.000000,10955.047942
3789.017713,-1532.190996,1036.288319,10584.944971
3789.018028,-1532.190996,962.267725,10881.027347
3789.018343,-1149.143247,-0.000000,10807.006753
3789.018657,-919.314598,-666.185348,10288.862594
3789.018972,-1378.971896,-296.082377,10584.944971
3789.019287,-1455.581446,-222.061783,10584.944971
3789.019602,-919.314598,1110.308913,9474.636058
3789.019917,0.000000,1924.535449,9104.533087
3789.020231,612.876398,1332.370696,8438.347739
3789.020546,1149.143247,962.267725,8882.471304
3789.020861,383.047749,666.185348,9844.739029
3789.021176,76.609550,518.144159,10362.883188
3789.021491,-536.266849,444.123565,10362.883188
3789.021806,-536.266849,1332.370696,9918.759623
3789.022120,-536.266849,666.185348,9474.636058
3789.022435,-383.047749,-0.000000,9992.780217
3789.022750,-1225.752797,-592.164754,11177.109724
3789.023065,-1225.752797,-296.082377,10881.027347
3789.023380,-2681.334243,1110.308913,8734.430116
3789.023694,-459.657299,-74.020594,9992.780217
3789.024009,229.828649,1332.370696,8734.430116
3789.024324,536.266849,-444.123565,8216.285956
3789.024639,1225.752797,-1184.329507,9474.636058
3789.024954,995.924147,-1110.308913,9474.636058
3789.025268,459.657299,-296.082377,9622.677246
3789.025583,689.485948,666.185348,9252.574275
3789.025898,1149.143247,962.267725,8808.450710
3789.026213,1532.190996,-0.000000,8586.388927
3789.026528,1762.019645,-148.041188,9474.636058
3789.026843,612.876398,-518.144159,9400.615463
3789.027157,459.657299,-1036.288319,9622.677246
3789.027472,383.047749,-814.226536,9326.594869
3789.027787,383.047749,-444.123565,9030.512492
3789.028102,1302.362347,-74.020594,9474.636058
3789.028417,1608.800546,-1036.288319,9474.636058
3789.028731,1072.533697,-888.247130,9770.718434
3789.029046,842.705048,-888.247130,10658.965565
3789.029361,153.219100,-592.164754,10140.821405
3789.029676,383.047749,296.082377,9696.697840
3789.029991,689.485948,666.185348,9252.574275
3789.030306,1149.143247,-0.000000,9104.533087
3789.030620,842.705048,-370.102971,9696.697840
3789.030935,306.438199,-518.144159,9770.718434
3789.031250,229.828649,-666.185348,9918.759623
3789.031565,612.876398,-74.020594,9548.656652
3789.031880,766.095498,-74.020594,9474.636058
3789.032194,995.924147,-740.205942,9326.594869
3789.032509,306.438199,-1110.308913,9400.615463
3789.032824,-842.705048,-1110.308913,10362.883188
3789.033139,-1378.971896,-1628.453072,10584.944971
3789.033454,-1455.581446,-74.020594,10288.862594
3789.033769,-1532.190996,222.061783,9474.636058
3789.034083,-306.438199,74.020594,8956.491898
3789.034398,76.609550,-0.000000,9474.636058
3789.034713,0.000000,-0.000000,9474.636058
3789.035028,0.000000,222.061783,9918.759623
3789.035343,-229.828649,814.226536,9474.636058
3789.035657,229.828649,962.267725,8808.450710
3789.035972,459.657299,1332.370696,8808.450710
3789.036287,689.485948,-0.000000,9030.512492
3789.036602,0.000000,-592.164754,9622.677246
3789.036917,-1455.581446,-222.061783,9696.697840
3789.037232,-2298.286494,-0.000000,10140.821405
3789.037546,-2221.676944,222.061783,10066.800811
3789.037861,-1762.019645,666.185348,9400.615463
3789.038176,-536.266849,370.102971,9178.553681
3789.038491,-612.876398,-0.000000,8882.471304
3789.038806,-1532.190996,-814.226536,9622.677246
3789.039120,-153.219100,-74.020594,9696.697840
3789.039435,-536.266849,962.267725,9622.677246
3789.039750,0.000000,1924.535449,9326.594869
3789.040065,766.095498,1924.535449,9474.636058
3789.040380,1302.362347,1036.288319,10362.883188
3789.040695,76.609550,888.247130,9770.718434
3789.041009,-153.219100,888.247130,10288.862594
3789.041324,0.000000,1332.370696,10214.842000
3789.041639,0.000000,1850.514855,9548.656652
3789.041954,-153.219100,1184.329507,9400.615463
3789.042269,842.705048,370.102971,9474.636058
3789.042583,229.828649,-444.123565,10066.800811
3789.042898,0.000000,-222.061783,10066.800811
3789.043213,-229.828649,370.102971,10362.883188
3789.043528,0.000000,1110.308913,10066.800811
3789.043843,766.095498,888.247130,9326.594869
3789.044157,1302.362347,1110.308913,9622.677246
3789.044472,1225.752797,444.123565,9844.739029
3789.044787,536.266849,592.164754,9992.780217
3789.045102,1302.362347,1184.329507,9918.759623
3789.045417,1149.143247,2072.576638,9622.677246
3789.045732,1762.019645,2146.597232,9474.636058
3789.046046,2145.067394,1332.370696,8364.327145
3789.046361,2374.896044,-296.082377,9178.553681
3789.046676,1225.752797,-296.082377,9622.677246
3789.046991,536.266849,-962.267725,10658.965565
3789.047306,0.000000,-518.144159,10436.903782
3789.047620,-306.438199,-0.000000,9844.739029
3789.047935,459.657299,-0.000000,9696.697840
3789.048250,612.876398,-518.144159,9548.656652
3789.048565,536.266849,-370.102971,9548.656652
3789.048880,459.657299,-74.020594,10140.821405
3789.049195,306.438199,444.123565,9030.512492
3789.049509,1378.971896,740.205942,8438.347739
3789.049824,1149.143247,592.164754,8142.265362
3789.050139,1685.410096,-0.000000,8364.327145
3789.050454,1149.143247,-74.020594,9104.533087
3789.050769,306.438199,-518.144159,10288.862594
3789.051083,-459.657299,-740.205942,10584.944971
3789.051398,-919.314598,-148.041188,10288.862594
3789.051713,-1378.971896,-0.000000,9844.739029
3789.052028,-766.095498,-518.144159,10140.821405
3789.052343,-306.438199,-666.185348,10066.800811
3789.052658,-306.438199,-74.020594,9992.780217
3789.052972,-766.095498,-444.123565,9474.636058
3789.053287,-459.657299,-0.000000,9178.553681
3789.053602,459.657299,592.164754,8808.450710
3789.053917,1378.971896,962.267725,7698.141797
3789.054232,612.876398,-148.041188,8808.450710
3789.054546,153.219100,-1036.288319,9474.636058
3789.054861,-919.314598,-1332.370696,10140.821405
3789.055176,-1608.800546,-814.226536,10362.883188
3789.055491,-1915.238745,-962.267725,10732.986159
3789.055806,-1302.362347,666.185348,9178.553681
3789.056121,-612.876398,-296.082377,9474.636058
3789.056435,-536.266849,-518.144159,9474.636058
3789.056750,-612.876398,-888.247130,10066.800811
3789.057065,-842.705048,-222.061783,9030.512492
3789.057380,-612.876398,-0.000000,8882.471304
3789.057695,-536.266849,814.226536,9104.533087
3789.058009,536.266849,222.061783,8734.430116
3789.058324,306.438199,-296.082377,9474.636058
3789.058639,-459.657299,-370.102971,10288.862594
3789.058954,-919.314598,-592.164754,10658.965565
3789.059269,-612.876398,-74.020594,10140.821405
3789.059584,-842.705048,592.164754,9844.739029
3789.059898,0.000000,-0.000000,9844.739029
3789.060213,383.047749,-0.000000,9326.594869
3789.060528,383.047749,-0.000000,9030.512492
3789.060843,1149.143247,-0.000000,9104.533087
3789.061158,995.924147,370.102971,9030.512492
3789.061472,919.314598,962.267725,8586.388927
3789.061787,1302.362347,1554.432478,7920.203579
3789.062102,1302.362347,888.247130,8290.306550
3789.062417,995.924147,370.102971,9696.697840
3789.062732,76.609550,-296.082377,10955.047942
3789.063046,-919.314598,-296.082377,11473.192101
3789.063361,-995.924147,222.061783,10510.924376
3789.063676,-536.266849,814.226536,10436.903782
3789.063991,612.876398,1184.329507,9992.780217
3789.064306,995.924147,666.185348,10214.842000
3789.064621,1072.533697,740.205942,10436.903782
3789.064935,919.314598,814.226536,9474.636058
3789.065250,1225.752797,814.226536,9918.759623
3789.065565,1455.581446,1480.411884,9474.636058
3789.065880,1838.629195,1554.432478,9030.512492
3789.066195,1915.238745,814.226536,9326.594869
3789.066509,1302.362347,-0.000000,9770.718434
3789.066824,612.876398,-592.164754,10214.842000
3789.067139,306.438199,-740.205942,10066.800811
3789.067454,-306.438199,222.061783,10362.883188
3789.067769,0.000000,1036.288319,9770.718434
3789.068084,306.438199,370.102971,9474.636058
3789.068398,766.095498,-0.000000,9400.615463
3789.068713,536.266849,-0.000000,9548.656652
3789.069028,766.095498,-222.061783,9622.677246
3789.069343,612.876398,888.247130,9326.594869
3789.069658,1072.533697,1776.494261,8808.450710
3789.069972,1378.971896,888.247130,8734.430116
3789.070287,995.924147,592.164754,9326.594869
3789.070602,76.609550,-0.000000,9844.739029
3789.070917,-766.095498,-444.123565,10362.883188
3789.071232,-995.924147,-74.020594,10214.842000
3789.071547,-1225.752797,148.041188,10066.800811
3789.071861,-612.876398,-0.000000,9622.677246
3789.072176,-306.438199,-0.000000,9474.636058
3789.072491,0.000000,-592.164754,9548.656652
3789.072806,0.000000,-592.164754,10510.924376
3789.073121,-689.485948,518.144159,9474.636058
3789.073435,0.000000,814.226536,8882.471304
3789.073750,306.438199,962.267725,8808.450710
3789.074065,536.266849,962.267725,8290.306550
3789.074380,306.438199,-0.000000,9104.533087
3789.074695,-229.828649,-222.061783,9992.780217
3789.075010,-995.924147,-148.041188,10436.903782
3789.075324,-1149.143247,-0.000000,11103.089130
3789.075639,-1532.190996,740.205942,9844.739029
3789.075954,-1149.143247,-0.000000,9918.759623
3789.076269,-229.828649,-518.144159,10584.944971
3789.076584,-842.705048,-148.041188,10140.821405
3789.076898,-536.266849,-148.041188,10214.842000
3789.077213,-612.876398,-0.000000,9622.677246
3789.077528,-306.438199,740.205942,8364.327145
3789.077843,306.438199,814.226536,8142.265362
3789.078158,1072.533697,-0.000000,8216.285956
3789.078473,306.438199,-296.082377,9326.594869
3789.078787,-536.266849,-740.205942,9918.759623
3789.079102,-766.095498,-888.247130,10140.821405
3789.079417,-1302.362347,-74.020594,9992.780217
3789.079732,-1072.533697,-222.061783,9992.780217
3789.080047,0.000000,-666.185348,9770.718434
3789.080361,76.609550,-814.226536,9918.759623
3789.080676,0.000000,-888.247130,9992.780217
3789.080991,76.609550,-444.123565,9844.739029
3789.081306,229.828649,592.164754,9548.656652
3789.081621,689.485948,1036.288319,8808.450710
3789.081935,1302.362347,1184.329507,8586.388927
3789.082250,1455.581446,592.164754,9400.615463
3789.082565,1149.143247,-148.041188,9548.656652
3789.082880,536.266849,-666.185348,10140.821405
3789.083195,0.000000,-296.082377,10288.862594
3789.083510,-153.219100,-0.000000,9622.677246
3789.083824,0.000000,-74.020594,9400.615463
3789.084139,1302.362347,-518.144159,9770.718434
3789.084454,766.095498,-592.164754,9918.759623
3789.084769,612.876398,-518.144159,9622.677246
3789.085084,612.876398,-296.082377,9474.636058
3789.085398,306.438199,518.144159,8734.430116
3789.085713,1225.752797,592.164754,8290.306550
3789.086028,1762.019645,-148.041188,8512.368333
3789.086343,1378.971896,-370.102971,8956.491898
3789.086658,766.095498,148.041188,9992.780217
3789.086973,153.219100,222.061783,9696.697840
3789.087287,-459.657299,740.205942,9844.739029
3789.087602,0.000000,1110.308913,9918.759623
3789.087917,306.438199,1036.288319,9326.594869
3789.088232,306.438199,-444.123565,9474.636058
3789.088547,0.000000,-592.164754,10066.800811
3789.088861,76.609550,-518.144159,10140.821405
3789.089176,-536.266849,-0.000000,9770.718434
3789.089491,-229.828649,518.144159,9548.656652
3789.089806,0.000000,666.185348,9104.533087
3789.090121,383.047749,222.061783,9030.512492
3789.090436,76.609550,-222.061783,9474.636058
3789.090750,-383.047749,-296.082377,9622.677246
3789.091065,-536.266849,-518.144159,9548.656652
3789.091380,-459.657299,370.102971,9548.656652
3789.091694,-306.438199,740.205942,9252.574275
3789.092009,383.047749,222.061783,9474.636058
3789.092324,536.266849,-74.020594,9696.697840
3789.092639,-306.438199,-370.102971,9770.718434
3789.092953,-842.705048,296.082377,9918.759623
3789.093268,-766.095498,740.205942,10066.800811
3789.093583,-612.876398,1480.411884,9474.636058
3789.093898,0.000000,814.226536,9178.553681
3789.094212,459.657299,-148.041188,10066.800811
3789.094527,0.000000,-370.102971,9918.759623
3789.094842,-689.485948,-0.000000,9992.780217
3789.095157,-842.705048,888.247130,10140.821405
3789.095471,-766.095498,1776.494261,9548.656652
3789.095786,0.000000,962.267725,9326.594869
3789.096101,612.876398,296.082377,9326.594869
3789.096416,0.000000,-0.000000,9696.697840
3789.096730,-536.266849,-1036.288319,10584.944971
3789.097045,-689.485948,-296.082377,10214.842000
3789.097360,-153.219100,1332.370696,10584.944971
3789.097675,76.609550,1554.432478,9326.594869
3789.097989,766.095498,814.226536,9178.553681
3789.098304,612.876398,518.144159,9918.759623
3789.098619,-306.438199,148.041188,9696.697840
3789.098933,0.000000,814.226536,9474.636058
3789.099248,0.000000,888.247130,9400.615463
3789.099563,459.657299,1258.350101,9474.636058
3789.099878,689.485948,222.061783,9104.533087
3789.100192,536.266849,-444.123565,9474.636058
3789.100507,153.219100,-962.267725,10807.006753
3789.100822,-383.047749,-370.102971,10732.986159
3789.101137,0.000000,222.061783,10436.903782
3789.101451,0.000000,1184.329507,9400.615463
3789.101766,1225.752797,814.226536,8808.450710
3789.102081,1762.019645,-296.082377,8438.347739
3789.102396,1149.143247,-74.020594,8882.471304
3789.102710,842.705048,-148.041188,9696.697840
3789.103025,612.876398,-0.000000,9474.636058
3789.103340,536.266849,740.205942,8956.491898
3789.103655,919.314598,444.123565,8808.450710
3789.103969,1455.581446,-370.102971,9326.594869
3789.104284,842.705048,-740.205942,10066.800811
3789.104599,-383.047749,-444.123565,10288.862594
3789.104914,-383.047749,-1628.453072,10807.006753
3789.105228,0.000000,-74.020594,10584.944971
3789.105543,-153.219100,888.247130,8882.471304
3789.105858,689.485948,370.102971,9178.553681
3789.106172,1532.190996,-0.000000,9252.574275
3789.106487,842.705048,296.082377,9326.594869
3789.106802,766.095498,-0.000000,9474.636058
3789.107117,383.047749,148.041188,9548.656652
3789.107431,153.219100,888.247130,9474.636058
3789.107746,306.438199,370.102971,9178.553681
3789.108061,153.219100,-296.082377,10288.862594
3789.108376,-459.657299,-1110.308913,10881.027347
3789.108690,-1149.143247,-814.226536,11029.068536
3789.109005,-1225.752797,-518.144159,10732.986159
3789.109320,-995.924147,-0.000000,10288.862594
3789.109635,-153.219100,814.226536,9474.636058
3789.109949,306.438199,370.102971,9400.615463
3789.110264,383.047749,-222.061783,8882.471304
3789.110579,-383.047749,-148.041188,9474.636058
3789.110894,-689.485948,-444.123565,9622.677246
3789.111208,-536.266849,-0.000000,9844.739029
3789.111523,-612.876398,-0.000000,10066.800811
3789.111838,-536.266849,-0.000000,9474.636058
3789.112153,-383.047749,-222.061783,10066.800811
3789.112467,-612.876398,-370.102971,10732.986159
3789.112782,-919.314598,-296.082377,10214.842000
3789.113097,-229.828649,592.164754,9622.677246
3789.113411,0.000000,1184.329507,9252.574275
3789.113726,689.485948,962.267725,8586.388927
3789.114041,1149.143247,370.102971,8586.388927
3789.114356,995.924147,-0.000000,8586.388927
3789.114670,995.924147,-518.144159,9252.574275
3789.114985,459.657299,-370.102971,9474.636058
3789.115300,-229.828649,-148.041188,9474.636058
3789.115615,0.000000,370.102971,9104.533087
3789.115929,536.266849,-0.000000,9400.615463
3789.116244,153.219100,-370.102971,9770.718434
3789.116559,0.000000,-370.102971,9770.718434
3789.116874,0.000000,-0.000000,9548.656652
3789.117188,0.000000,296.082377,9474.636058
3789.117503,612.876398,888.247130,8808.450710
3789.117818,1532.190996,444.123565,8808.450710
3789.118133,1608.800546,518.144159,9474.636058
3789.118447,1149.143247,-0.000000,10362.883188
3789.118762,229.828649,-0.000000,10214.842000
3789.119077,0.000000,-0.000000,9992.780217
3789.119392,-459.657299,888.247130,9696.697840
3789.119706,0.000000,740.205942,9474.636058
3789.120021,536.266849,222.061783,9474.636058
3789.120336,153.219100,-444.123565,9474.636058
3789.120650,0.000000,-370.102971,9548.656652
3789.120965,0.000000,-148.041188,9696.697840
3789.121280,0.000000,740.205942,9474.636058
3789.121595,459.657299,592.164754,9178.553681
3789.121909,995.924147,-0.000000,9030.512492
3789.122224,995.924147,-0.000000,9474.636058
3789.122539,229.828649,-370.102971,10436.903782
3789.122854,0.000000,296.082377,10214.842000
3789.123168,-459.657299,1036.288319,9992.780217
3789.123483,0.000000,1628.453072,9622.677246
3789.123798,689.485948,1258.350101,9770.718434
3789.124113,919.314598,518.144159,9400.615463
3789.124427,536.266849,-0.000000,9770.718434
3789.124742,-153.219100,148.041188,10584.944971
3789.125057,-383.047749,148.041188,10140.821405
3789.125372,0.000000,740.205942,9844.739029
3789.125686,0.000000,518.144159,9178.553681
3789.126001,919.314598,-888.247130,9918.759623
3789.126316,153.219100,-518.144159,10362.883188
3789.126631,-459.657299,-370.102971,9548.656652
3789.126945,-383.047749,-370.102971,10066.800811
3789.127260,-153.219100,740.205942,9992.780217
3789.127575,0.000000,1036.288319,9104.533087
3789.127889,842.705048,-0.000000,8882.471304
3789.128204,383.047749,-296.082377,9400.615463
3789.128519,0.000000,-370.102971,9770.718434
3789.128834,-689.485948,-0.000000,9696.697840
3789.129148,-919.314598,-0.000000,9622.677246
3789.129463,-383.047749,222.061783,9474.636058
3789.129778,0.000000,-222.061783,9622.677246
3789.130093,0.000000,-740.205942,10066.800811
3789.130407,-1149.143247,-814.226536,11029.068536
3789.130722,-1532.190996,-962.267725,10584.944971
3789.131037,-995.924147,-518.144159,9770.718434
3789.131352,-383.047749,962.267725,9326.594869
3789.131666,536.266849,814.226536,8142.265362
3789.131981,1608.800546,-592.164754,9030.512492
3789.132296,536.266849,-444.123565,8956.491898
3789.132611,229.828649,-444.123565,9326.594869
3789.132925,0.000000,222.061783,9400.615463
3789.133240,0.000000,222.061783,9178.553681
3789.133555,842.705048,-0.000000,8956.491898
3789.133870,766.095498,-296.082377,9326.594869
3789.134184,76.609550,-592.164754,9696.697840
3789.134499,-153.219100,-740.205942,10214.842000
3789.134814,-689.485948,-74.020594,10214.842000
3789.135128,-383.047749,370.102971,9178.553681
3789.135443,153.219100,592.164754,8734.430116
3789.135758,1378.971896,148.041188,8882.471304
3789.136073,1072.533697,-0.000000,8808.450710
3789.136387,689.485948,-0.000000,9770.718434
3789.136702,459.657299,-0.000000,9770.718434
3789.137017,459.657299,888.247130,9474.636058
3789.137332,459.657299,1258.350101,8956.491898
3789.137646,766.095498,814.226536,8438.347739
3789.137961,995.924147,-444.123565,9400.615463
3789.138276,76.609550,-592.164754,10140.821405
3789.138591,-919.314598,-222.061783,10436.903782
3789.138905,-919.314598,592.164754,10288.862594
3789.139220,-1072.533697,740.205942,9844.739029
3789.139535,0.000000,518.144159,10066.800811
3789.139850,153.219100,-0.000000,9992.780217
3789.140164,153.219100,-74.020594,10510.924376
3789.140479,-76.609550,444.123565,10584.944971
3789.140794,0.000000,814.226536,9918.759623
3789.141108,0.000000,1554.432478,10140.821405
3789.141423,153.219100,1776.494261,9474.636058
3789.141738,689.485948,814.226536,9178.553681
3789.142053,1072.533697,296.082377,9696.697840
3789.142367,-383.047749,-222.061783,10658.965565
3789.142682,-612.876398,-222.061783,10807.006753
3789.142997,-842.705048,-518.144159,11621.233289
3789.143312,-459.657299,962.267725,10362.883188
3789.143626,0.000000,814.226536,9696.697840
3789.143941,766.095498,222.061783,9474.636058
3789.144256,459.657299,148.041188,9844.739029
3789.144571,383.047749,444.123565,9844.739029
3789.144885,153.219100,666.185348,9474.636058
3789.145200,459.657299,1110.308913,9030.512492
3789.145515,1072.533697,1184.329507,8882.471304
3789.145830,1149.143247,444.123565,9326.594869
3789.146144,689.485948,-296.082377,9548.656652
3789.146459,-229.828649,-370.102971,10066.800811
3789.146774,-766.095498,-888.247130,10658.965565
3789.147089,-1072.533697,-0.000000,10510.924376
3789.147403,-689.485948,814.226536,9844.739029
3789.147718,-153.219100,-0.000000,9030.512492
3789.148033,153.219100,-592.164754,9474.636058
3789.148347,229.828649,-1258.350101,9474.636058
3789.148662,76.609550,-740.205942,9474.636058
3789.148977,306.438199,-0.000000,8364.327145
3789.149292,383.047749,444.123565,8438.347739
3789.149606,995.924147,666.185348,7994.224174
3789.149921,1225.752797,-222.061783,8364.327145
3789.150236,229.828649,-740.205942,9104.533087
3789.150551,-536.266849,-1332.370696,10066.800811
3789.150865,-919.314598,-1332.370696,10140.821405
3789.151180,-995.924147,-592.164754,9992.780217
3789.151495,-536.266849,-0.000000,9400.615463
3789.151810,536.266849,-0.000000,9178.553681
3789.152124,919.314598,-296.082377,8734.430116
3789.152439,306.438199,-148.041188,8956.491898
3789.152754,612.876398,962.267725,8660.409521
3789.153069,306.438199,888.247130,8290.306550
3789.153383,766.095498,1110.308913,8142.265362
3789.153698,1149.143247,-0.000000,8882.471304
3789.154013,306.438199,-1036.288319,9326.594869
3789.154328,-612.876398,-1036.288319,10362.883188
3789.154642,-1149.143247,-814.226536,11177.109724
3789.154957,-919.314598,-148.041188,11029.068536
3789.155272,-1302.362347,444.123565,10140.821405
3789.155586,383.047749,962.267725,9622.677246
3789.155901,995.924147,518.144159,8808.450710
3789.156216,612.876398,740.205942,8734.430116
3789.156531,766.095498,518.144159,9696.697840
3789.156845,383.047749,518.144159,9104.533087
3789.157160,459.657299,1036.288319,9178.553681
3789.157475,842.705048,962.267725,9104.533087
3789.157790,995.924147,-0.000000,9326.594869
3789.158104,459.657299,-148.041188,10214.842000
3789.158419,-689.485948,-444.123565,11843.295072
3789.158734,-1685.410096,-740.205942,11177.109724
3789.159049,-1991.848295,296.082377,10881.027347
3789.159363,-1455.581446,814.226536,10140.821405
3789.159678,-536.266849,-148.041188,10066.800811
3789.159993,306.438199,-222.061783,10140.821405
3789.160308,-306.438199,-0.000000,10066.800811
3789.160622,0.000000,518.144159,9770.718434
3789.160937,229.828649,1036.288319,9622.677246
3789.161252,0.000000,1702.473667,9104.533087
3789.161567,1149.143247,1184.329507,9030.512492
3789.161881,1072.533697,740.205942,9252.574275
3789.162196,153.219100,-0.000000,10140.821405
3789.162511,0.000000,-0.000000,10288.862594
3789.162825,-689.485948,-296.082377,9992.780217
3789.163140,-689.485948,-0.000000,9770.718434
3789.163455,-383.047749,-296.082377,9548.656652
3789.163770,153.219100,-592.164754,9548.656652
3789.164084,76.609550,-740.205942,9474.636058
3789.164399,0.000000,-518.144159,9918.759623
3789.164714,0.000000,-666.185348,9696.697840
3789.165029,306.438199,370.102971,8586.388927
3789.165343,612.876398,1110.308913,8586.388927
3789.165658,1378.971896,370.102971,8660.409521
3789.165973,1991.848295,-0.000000,9252.574275
3789.166288,689.485948,-0.000000,9696.697840
3789.166602,229.828649,-0.000000,9696.697840
3789.166917,-306.438199,-0.000000,9548.656652
3789.167232,-153.219100,370.102971,9400.615463
3789.167547,306.438199,-444.123565,9474.636058
3789.167861,383.047749,-888.247130,9326.594869
3789.168176,229.828649,-1036.288319,9992.780217
3789.168491,153.219100,-296.082377,9918.759623
3789.168806,0.000000,-74.020594,9622.677246
3789.169120,76.609550,296.082377,9474.636058
3789.169435,689.485948,666.185348,8882.471304
3789.169750,1149.143247,-0.000000,8512.368333
3789.170064,919.314598,-0.000000,8956.491898
3789.170379,76.609550,-518.144159,9844.739029
3789.170694,0.000000,-296.082377,10066.800811
3789.171009,-383.047749,-0.000000,9696.697840
3789.171323,-229.828649,518.144159,9474.636058
3789.171638,383.047749,370.102971,9548.656652
3789.171953,153.219100,-370.102971,9844.739029
3789.172268,0.000000,-592.164754,10807.006753
3789.172582,-459.657299,444.123565,9474.636058
3789.172897,0.000000,592.164754,9326.594869
3789.173212,76.609550,962.267725,9030.512492
3789.173527,842.705048,814.226536,9030.512492
3789.173841,842.705048,296.082377,9252.574275
3789.174156,153.219100,-222.061783,9474.636058
3789.174471,-306.438199,-296.082377,10288.862594
3789.174786,-766.095498,222.061783,10140.821405
3789.175100,-919.314598,740.205942,9474.636058
3789.175415,-383.047749,740.205942,10288.862594
3789.175730,306.438199,-0.000000,9696.697840
3789.176045,-306.438199,518.144159,9992.780217
3789.176359,-306.438199,370.102971,10584.944971
3789.176674,-383.047749,370.102971,9918.759623
3789.176989,0.000000,1480.411884,8808.450710
3789.177303,459.657299,1628.453072,9030.512492
3789.177618,1378.971896,962.267725,8956.491898
3789.177933,459.657299,222.061783,9474.636058
3789.178248,-459.657299,-0.000000,10288.862594
3789.178562,-612.876398,-0.000000,11177.109724
3789.178877,-1072.533697,-0.000000,10436.903782
3789.179192,-919.314598,666.185348,10584.944971
3789.179507,-459.657299,-0.000000,10214.842000
3789.179821,153.219100,-518.144159,10214.842000
3789.180136,-612.876398,-444.123565,10140.821405
3789.180451,0.000000,518.144159,9992.780217
3789.180766,0.000000,1258.350101,9178.553681
3789.181080,306.438199,1480.411884,8660.409521
3789.181395,1149.143247,1110.308913,8438.347739
3789.181710,1302.362347,-0.000000,8438.347739
3789.182025,306.438199,-888.247130,9696.697840
3789.182339,0.000000,-592.164754,9992.780217
3789.182654,-306.438199,-148.041188,10584.944971
3789.182969,-689.485948,-370.102971,10362.883188
3789.183283,-459.657299,-592.164754,9770.718434
3789.183598,689.485948,-222.061783,9474.636058
3789.183913,153.219100,-740.205942,9696.697840
3789.184228,0.000000,-222.061783,9918.759623
3789.184542,76.609550,-0.000000,9770.718434
3789.184857,229.828649,592.164754,8956.491898
3789.185172,1225.752797,518.144159,8290.306550
3789.185487,1915.238745,814.226536,7550.100608
3789.185801,2068.457845,-222.061783,8512.368333
3789.186116,766.095498,-518.144159,9474.636058
3789.186431,306.438199,-666.185348,10066.800811
3789.186746,-306.438199,-370.102971,10140.821405
3789.187060,-689.485948,-0.000000,9696.697840
3789.187375,-383.047749,-74.020594,9696.697840
3789.187690,229.828649,-888.247130,9474.636058
3789.188005,-383.047749,-666.185348,9696.697840
3789.188319,-536.266849,-740.205942,10362.883188
3789.188634,-229.828649,-370.102971,10066.800811
3789.188949,76.609550,222.061783,9474.636058
3789.189264,689.485948,814.226536,9030.512492
3789.189578,1302.362347,1110.308913,8734.430116
3789.189893,1838.629195,222.061783,9104.533087
3789.190208,612.876398,-74.020594,9400.615463
3789.190522,0.000000,-148.041188,10140.821405
3789.190837,0.000000,-0.000000,9770.718434
3789.191152,229.828649,296.082377,9400.615463
3789.191467,-306.438199,-0.000000,9548.656652
3789.191781,0.000000,-888.247130,9770.718434
3789.192096,-766.095498,-814.226536,10436.903782
3789.192411,-995.924147,-370.102971,10732.986159
3789.192726,-689.485948,-148.041188,10288.862594
3789.193040,-536.266849,296.082377,9696.697840
3789.193355,536.266849,1184.329507,9474.636058
3789.193670,1072.533697,592.164754,9104.533087
3789.193985,153.219100,296.082377,9326.594869
3789.194299,229.828649,-0.000000,10510.924376
3789.194614,153.219100,518.144159,9474.636058
3789.194929,-229.828649,1184.329507,9622.677246
3789.195243,-306.438199,1924.535449,9622.677246
3789.195558,0.000000,814.226536,9326.594869
3789.195873,229.828649,-148.041188,9770.718434
3789.196187,-383.047749,-592.164754,10288.862594
3789.196502,-842.705048,-0.000000,10288.862594
3789.196817,-1149.143247,-0.000000,9474.636058
3789.197131,-689.485948,814.226536,9474.636058
3789.197446,76.609550,888.247130,9030.512492
3789.197761,536.266849,444.123565,8956.491898
3789.198075,229.828649,370.102971,9252.574275
3789.198390,0.000000,592.164754,9992.780217
3789.198705,0.000000,888.247130,9104.533087
3789.199019,-536.266849,1036.288319,9030.512492
3789.199334,0.000000,740.205942,9104.533087
3789.199649,306.438199,-148.041188,9770.718434
3789.199963,-383.047749,-444.123565,10214.842000
3789.200278,-383.047749,-740.205942,11177.109724
3789.200593,-842.705048,-0.000000,10881.027347
3789.200907,-766.095498,444.123565,9992.780217
3789.201222,306.438199,1110.308913,9474.636058
3789.201537,1302.362347,962.267725,9104.533087
3789.201851,995.924147,-222.061783,9030.512492
3789.202166,842.705048,296.082377,8734.430116
3789.202481,995.924147,518.144159,8956.491898
3789.202795,536.266849,592.164754,9622.677246
3789.203110,842.705048,666.185348,9400.615463
3789.203425,995.924147,296.082377,8808.450710
3789.203739,612.876398,-518.144159,9844.739029
3789.204054,-229.828649,-518.144159,10658.965565
3789.204368,-766.095498,-592.164754,10510.924376
3789.204683,-1532.190996,-444.123565,10807.006753
3789.204998,-689.485948,222.061783,10362.883188
3789.205312,0.000000,518.144159,9474.636058
3789.205627,766.095498,370.102971,9252.574275
3789.205942,1225.752797,222.061783,9474.636058
3789.206256,536.266849,666.185348,9030.512492
3789.206571,919.314598,444.123565,9326.594869
3789.206886,689.485948,-0.000000,9326.594869
3789.207200,995.924147,592.164754,9474.636058
3789.207515,919.314598,-148.041188,9474.636058
3789.207830,0.000000,-1110.308913,9474.636058
3789.208144,-536.266849,-814.226536,10436.903782
3789.208459,-689.485948,-740.205942,10140.821405
3789.208774,-766.095498,-666.185348,9696.697840
3789.209088,-689.485948,-148.041188,9622.677246
3789.209403,383.047749,-444.123565,8956.491898
3789.209718,689.485948,-666.185348,8734.430116
3789.210032,229.828649,-222.061783,9474.636058
3789.210347,76.609550,-444.123565,9844.739029
3789.210662,-229.828649,-148.041188,9178.553681
3789.210976,76.609550,518.144159,9252.574275
3789.211291,766.095498,962.267725,8512.368333
3789.211606,1378.971896,-0.000000,9400.615463
3789.211920,612.876398,-0.000000,9696.697840
3789.212235,-229.828649,-222.061783,10584.944971
3789.212550,-383.047749,-148.041188,9622.677246
3789.212864,-459.657299,-74.020594,9252.574275
3789.213179,-306.438199,-0.000000,8882.471304
3789.213494,995.924147,-666.185348,8956.491898
3789.213808,306.438199,-814.226536,9474.636058
3789.214123,-306.438199,-296.082377,9474.636058
3789.214438,-766.095498,-222.061783,9696.697840
3789.214752,-383.047749,-0.000000,9326.594869
3789.215067,0.000000,296.082377,9770.718434
3789.215382,612.876398,1110.308913,8808.450710
3789.215696,612.876398,-74.020594,9474.636058
3789.216011,0.000000,222.061783,9474.636058
3789.216326,153.219100,518.144159,10214.842000
3789.216640,-459.657299,962.267725,9400.615463
3789.216955,-536.266849,1184.329507,9178.553681
3789.217270,153.219100,1332.370696,9178.553681
3789.217584,383.047749,444.123565,9178.553681
3789.217899,0.000000,-370.102971,10214.842000
3789.218214,-536.266849,-148.041188,10584.944971
3789.218528,-1302.362347,-444.123565,10436.903782
3789.218843,-612.876398,444.123565,10362.883188
3789.219158,-383.047749,1184.329507,9474.636058
3789.219472,459.657299,1258.350101,9326.594869
3789.219787,536.266849,222.061783,9326.594869
3789.220102,0.000000,370.102971,9918.759623
3789.220416,536.266849,666.185348,9696.697840
3789.220731,76.609550,1332.370696,9030.512492
3789.221046,229.828649,1480.411884,9030.512492
3789.221360,459.657299,740.205942,9178.553681
3789.221675,1072.533697,-444.123565,10584.944971
3789.221989,0.000000,-222.061783,10066.800811
3789.222304,0.000000,-0.000000,11029.068536
3789.222619,-306.438199,592.164754,10584.944971
3789.222933,0.000000,1332.370696,9918.759623
3789.223248,919.314598,1628.453072,9474.636058
3789.223563,1225.752797,962.267725,9474.636058
3789.223877,766.095498,444.123565,9474.636058
3789.224192,536.266849,370.102971,10362.883188
3789.224507,459.657299,814.226536,9918.759623
3789.224821,766.095498,1036.288319,9844.739029
3789.225136,383.047749,1554.432478,9474.636058
3789.225451,766.095498,296.082377,9400.615463
3789.225765,612.876398,-74.020594,9770.718434
3789.226080,0.000000,-296.082377,11029.068536
3789.226395,0.000000,-148.041188,9844.739029
3789.226709,-383.047749,-148.041188,9474.636058
3789.227024,153.219100,962.267725,9326.594869
3789.227339,842.705048,962.267725,9178.553681
3789.227653,536.266849,-370.102971,9400.615463
3789.227968,306.438199,-740.205942,9548.656652
3789.228283,76.609550,-444.123565,9622.677246
3789.228597,229.828649,-296.082377,9548.656652
3789.228912,153.219100,370.102971,9474.636058
3789.229227,229.828649,370.102971,9104.533087
3789.229541,842.705048,-592.164754,9474.636058
3789.229856,153.219100,-740.205942,9622.677246
3789.230171,0.000000,-666.185348,9844.739029
3789.230485,0.000000,-444.123565,9622.677246
3789.230800,-383.047749,-0.000000,9178.553681
3789.231115,459.657299,444.123565,9030.512492
3789.231429,995.924147,-0.000000,8512.368333
3789.231744,536.266849,-1036.288319,8660.409521
3789.232059,-229.828649,-1480.411884,9770.718434
3789.232373,-536.266849,-1406.391290,9918.759623
3789.232688,-459.657299,-814.226536,9696.697840
3789.233003,-612.876398,-0.000000,9252.574275
3789.233317,76.609550,-296.082377,9400.615463
3789.233632,76.609550,-592.164754,9252.574275
3789.233947,-229.828649,-962.267725,9474.636058
3789.234261,-383.047749,-370.102971,9696.697840
3789.234576,-459.657299,222.061783,9844.739029
3789.234891,0.000000,962.267725,8882.471304
3789.235205,459.657299,1332.370696,8808.450710
3789.235520,306.438199,222.061783,9548.656652
3789.235835,-229.828649,-740.205942,9992.780217
3789.236149,-306.438199,-888.247130,10584.944971
3789.236464,-612.876398,-148.041188,9918.759623
3789.236779,-919.314598,370.102971,10214.842000
3789.237093,-689.485948,666.185348,9696.697840
3789.237408,76.609550,666.185348,9030.512492
3789.237723,229.828649,-74.020594,9622.677246
3789.238037,-306.438199,-296.082377,10510.924376
3789.238352,-459.657299,-0.000000,9992.780217
3789.238667,-689.485948,-0.000000,9918.759623
3789.238981,-306.438199,1406.391290,9178.553681
3789.239296,689.485948,962.267725,9400.615463
3789.239610,689.485948,148.041188,9474.636058
3789.239925,612.876398,148.041188,10362.883188
3789.240240,0.000000,444.123565,10436.903782
3789.240554,0.000000,518.144159,9844.739029
3789.240869,-459.657299,1480.411884,9474.636058
3789.241184,383.047749,1406.391290,9104.533087
3789.241498,612.876398,74.020594,9474.636058
3789.241813,459.657299,-962.267725,10214.842000
3789.242128,76.609550,-0.000000,10288.862594
3789.242442,-306.438199,222.061783,9770.718434
3789.242757,0.000000,814.226536,10140.821405
3789.243072,383.047749,1036.288319,9844.739029
3789.243386,1532.190996,740.205942,9030.512492
3789.243701,1225.752797,-0.000000,9474.636058
3789.244016,459.657299,-0.000000,10140.821405
3789.244330,689.485948,444.123565,10066.800811
3789.244645,76.609550,962.267725,9252.574275
3789.244960,459.657299,1702.473667,8956.491898
3789.245274,842.705048,740.205942,9104.533087
3789.245589,459.657299,-370.102971,9474.636058
3789.245904,0.000000,-444.123565,10658.965565
3789.246218,-689.485948,-444.123565,11029.068536
3789.246533,-842.705048,296.082377,10436.903782
3789.246848,-689.485948,296.082377,9992.780217
3789.247162,0.000000,814.226536,9622.677246
3789.247477,995.924147,-0.000000,9326.594869
3789.247792,766.095498,-0.000000,9474.636058
3789.248106,306.438199,296.082377,9400.615463
3789.248421,536.266849,814.226536,8364.327145
3789.248736,0.000000,888.247130,8216.285956
3789.249050,0.000000,666.185348,8438.347739
3789.249365,153.219100,-296.082377,8734.430116
3789.249680,-459.657299,-1628.453072,9400.615463
3789.249994,-1225.752797,-1628.453072,10288.862594
3789.250309,-1378.971896,-962.267725,11103.089130
3789.250624,-1302.362347,-296.082377,10584.944971
3789.250938,-1455.581446,296.082377,10140.821405
3789.251253,153.219100,1332.370696,9178.553681
3789.251568,919.314598,740.205942,8364.327145
3789.251882,1378.971896,296.082377,8882.471304
3789.252197,1378.971896,592.164754,8808.450710
3789.252512,1072.533697,1332.370696,8068.244768
3789.252826,919.314598,1110.308913,8216.285956
3789.253141,1455.581446,444.123565,8882.471304
3789.253456,689.485948,-370.102971,9622.677246
3789.253770,-383.047749,-1554.432478,10140.821405
3789.254085,-919.314598,-1554.432478,10807.006753
3789.254400,-1608.800546,-1184.329507,10881.027347
3789.254714,-1455.581446,-666.185348,11103.089130
3789.255029,-536.266849,370.102971,10140.821405
3789.255344,689.485948,592.164754,9474.636058
3789.255658,919.314598,296.082377,9400.615463
3789.255973,1378.971896,592.164754,9252.574275
3789.256287,1762.019645,888.247130,8882.471304
3789.256602,1455.581446,1554.432478,9104.533087
3789.256917,1302.362347,1184.329507,8882.471304
3789.257231,1225.752797,666.185348,9474.636058
3789.257546,689.485948,-148.041188,10066.800811
3789.257861,-459.657299,-1110.308913,10955.047942
3789.258175,-1302.362347,-1184.329507,11769.274478
3789.258490,-1608.800546,-666.185348,10732.986159
3789.258805,-1685.410096,-74.020594,10214.842000
3789.259119,-459.657299,-0.000000,9622.677246
3789.259434,229.828649,296.082377,9400.615463
3789.259749,536.266849,-0.000000,9252.574275
3789.260063,612.876398,592.164754,9474.636058
3789.260378,1378.971896,444.123565,9030.512492
3789.260693,995.924147,962.267725,8660.409521
3789.261007,1225.752797,1184.329507,8364.327145
3789.261322,1455.581446,444.123565,8660.409521
3789.261637,536.266849,-296.082377,9770.718434
3789.261951,-689.485948,-444.123565,10288.862594
3789.262266,-842.705048,-370.102971,10362.883188
3789.262581,-1072.533697,-370.102971,10066.800811
3789.262895,-1225.752797,666.185348,9474.636058
3789.263210,-153.219100,518.144159,8882.471304
3789.263525,76.609550,-444.123565,9030.512492
3789.263839,-229.828649,-592.164754,9474.636058
3789.264154,153.219100,-222.061783,9992.780217
3789.264469,459.657299,-0.000000,8956.491898
3789.264783,153.219100,962.267725,9178.553681
3789.265098,459.657299,740.205942,8956.491898
3789.265413,842.705048,-0.000000,9104.533087
3789.265727,76.609550,-296.082377,9992.780217
3789.266042,-306.438199,-296.082377,10584.944971
3789.266357,-612.876398,-0.000000,10436.903782
3789.266671,-1072.533697,888.247130,9474.636058
3789.266986,-229.828649,888.247130,9252.574275
3789.267301,306.438199,-0.000000,9474.636058
3789.267615,0.000000,-740.205942,10140.821405
3789.267930,-459.657299,-666.185348,9992.780217
3789.268245,0.000000,-148.041188,9992.780217
3789.268559,-76.609550,1110.308913,9474.636058
3789.268874,306.438199,1258.350101,9326.594869
3789.269189,612.876398,666.185348,8882.471304
3789.269503,459.657299,-222.061783,9252.574275
3789.269818,76.609550,-222.061783,10140.821405
3789.270133,-229.828649,-370.102971,10584.944971
3789.270447,-689.485948,444.123565,10066.800811
3789.270762,-536.266849,814.226536,9696.697840
3789.271077,459.657299,222.061783,9696.697840
3789.271391,1072.533697,-518.144159,9474.636058
3789.271706,689.485948,-1110.308913,10066.800811
3789.272021,153.219100,-296.082377,9992.780217
3789.272335,229.828649,370.102971,9326.594869
3789.272650,919.314598,1184.329507,8734.430116
3789.272965,919.314598,1110.308913,7772.162391
3789.273279,1608.800546,-0.000000,8808.450710
3789.273594,1149.143247,-592.164754,9030.512492
3789.273908,229.828649,-666.185348,9326.594869
3789.274223,-383.047749,-518.144159,9992.780217
3789.274538,-842.705048,296.082377,9474.636058
3789.274852,-383.047749,592.164754,9696.697840
3789.275167,76.609550,-148.041188,10288.862594
3789.275482,0.000000,-444.123565,9918.759623
3789.275796,-306.438199,-0.000000,10436.903782
3789.276111,0.000000,518.144159,9918.759623
3789.276426,383.047749,592.164754,9622.677246
3789.276740,842.705048,1554.432478,8956.491898
3789.277055,1915.238745,1110.308913,8438.347739
3789.277370,1225.752797,814.226536,8364.327145
3789.277684,919.314598,-296.082377,9400.615463
3789.277999,-536.266849,-148.041188,9992.780217
3789.278314,-1149.143247,-962.267725,10214.842000
3789.278628,-995.924147,-518.144159,10807.006753
3789.278943,-1149.143247,-74.020594,9844.739029
3789.279258,-459.657299,-814.226536,9992.780217
3789.279572,-536.266849,-962.267725,10436.903782
3789.279887,-766.095498,-518.144159,11103.089130
3789.280202,-842.705048,-0.000000,9918.759623
3789.280516,0.000000,1110.308913,9178.553681
3789.280831,383.047749,1850.514855,8734.430116
3789.281146,1455.581446,1406.391290,8734.430116
3789.281460,1378.971896,888.247130,9178.553681
3789.281775,536.266849,-0.000000,9770.718434
3789.282090,-229.828649,-0.000000,10658.965565
3789.282404,-842.705048,370.102971,10140.821405
3789.282719,-842.705048,444.123565,10584.944971
3789.283034,-459.657299,666.185348,10732.986159
3789.283348,0.000000,-296.082377,9474.636058
3789.283663,-383.047749,-222.061783,9770.718434
3789.283978,-536.266849,-148.041188,10214.842000
3789.284292,306.438199,518.144159,9474.636058
3789.284607,0.000000,888.247130,8438.347739
3789.284922,612.876398,740.205942,8734.430116
3789.285236,1072.533697,444.123565,9252.574275
3789.285551,689.485948,-370.102971,9326.594869
3789.285866,76.609550,-296.082377,10214.842000
3789.286180,-153.219100,-444.123565,10436.903782
3789.286495,-689.485948,-0.000000,9918.759623
3789.286810,0.000000,1184.329507,9474.636058
3789.287124,306.438199,592.164754,9474.636058
3789.287439,689.485948,-666.185348,9252.574275
3789.287754,0.000000,-814.226536,9992.780217
3789.288068,-306.438199,518.144159,9474.636058
3789.288383,0.000000,74.020594,9844.739029
3789.288698,0.000000,296.082377,9400.615463
3789.289012,536.266849,370.102971,9178.553681
3789.289327,995.924147,-592.164754,9548.656652
3789.289642,-153.219100,-1110.308913,9844.739029
3789.289956,-459.657299,-222.061783,10584.944971
3789.290271,-383.047749,-74.020594,10214.842000
3789.290586,-383.047749,148.041188,9548.656652
3789.290900,459.657299,148.041188,9400.615463
3789.291215,1149.143247,-0.000000,8956.491898
3789.291529,766.095498,-222.061783,9474.636058
3789.291844,153.219100,-148.041188,10140.821405
3789.292159,0.000000,-0.000000,10140.821405
3789.292473,0.000000,444.123565,9030.512492
3789.292788,229.828649,740.205942,9178.553681
3789.293103,1149.143247,222.061783,8734.430116
3789.293417,995.924147,-370.102971,9030.512492
3789.293732,229.828649,-444.123565,9770.718434
3789.294047,-306.438199,-0.000000,9992.780217
3789.294361,-306.438199,592.164754,9104.533087
3789.294676,-153.219100,962.267725,9030.512492
3789.294991,766.095498,444.123565,8956.491898
3789.295305,383.047749,-222.061783,9400.615463
3789.295620,-383.047749,-518.144159,9474.636058
3789.295935,-153.219100,-592.164754,10510.924376
3789.296249,-459.657299,740.205942,9770.718434
3789.296564,-306.438199,1036.288319,9030.512492
3789.296879,689.485948,1258.350101,9178.553681
3789.297193,536.266849,666.185348,8882.471304
3789.297508,842.705048,-0.000000,9474.636058
3789.297823,76.609550,-0.000000,9844.739029
3789.298137,153.219100,666.185348,9548.656652
3789.298452,-153.219100,222.061783,9400.615463
3789.298767,0.000000,888.247130,8882.471304
3789.299081,153.219100,296.082377,9474.636058
3789.299396,76.609550,-888.247130,10066.800811
3789.299710,-459.657299,-222.061783,11103.089130
3789.300025,-766.095498,-74.020594,11029.068536
3789.300340,-766.095498,148.041188,9770.718434
3789.300654,-459.657299,1110.308913,9992.780217
3789.300969,536.266849,1036.288319,9474.636058
3789.301284,1072.533697,222.061783,9474.636058
3789.301598,536.266849,296.082377,9770.718434
3789.301913,536.266849,592.164754,9474.636058
3789.302228,229.828649,814.226536,9474.636058
3789.302542,0.000000,1036.288319,9474.636058
3789.302857,0.000000,888.247130,9474.636058
3789.303172,229.828649,-222.061783,9622.677246
3789.303486,0.000000,-1258.350101,10658.965565
3789.303801,-842.705048,-1036.288319,10807.006753
3789.304115,-459.657299,-296.082377,10807.006753
3789.304430,-766.095498,666.185348,9992.780217
3789.304745,306.438199,888.247130,9474.636058
3789.305059,689.485948,666.185348,9030.512492
3789.305374,1225.752797,592.164754,8586.388927
3789.305689,612.876398,-74.020594,8808.450710
3789.306003,383.047749,-0.000000,9474.636058
3789.306318,0.000000,-0.000000,9326.594869
3789.306633,0.000000,-0.000000,9030.512492
3789.306947,383.047749,-0.000000,9400.615463
3789.307262,459.657299,-814.226536,9548.656652
3789.307577,-383.047749,-814.226536,9918.759623
3789.307891,-536.266849,-814.226536,10140.821405
3789.308206,-153.219100,-518.144159,9622.677246
3789.308521,-459.657299,222.061783,8586.388927
3789.308835,459.657299,592.164754,8438.347739
3789.309150,919.314598,-0.000000,8364.327145
3789.309464,842.705048,-666.185348,8734.430116
3789.309779,689.485948,-1258.350101,9178.553681
3789.310094,153.219100,-814.226536,9548.656652
3789.310408,153.219100,-148.041188,9696.697840
3789.310723,76.609550,370.102971,9474.636058
3789.311038,306.438199,-296.082377,9770.718434
3789.311352,612.876398,-592.164754,9770.718434
3789.311667,0.000000,-444.123565,10066.800811
3789.311982,0.000000,-74.020594,10140.821405
3789.312296,-383.047749,296.082377,9474.636058
3789.312611,306.438199,740.205942,9252.574275
3789.312926,766.095498,962.267725,8438.347739
3789.313240,766.095498,444.123565,9252.574275
3789.313555,153.219100,-296.082377,9770.718434
3789.313870,-536.266849,-666.185348,9992.780217
3789.314184,-229.828649,-666.185348,10732.986159
3789.314499,-919.314598,222.061783,9696.697840
3789.314813,0.000000,370.102971,10066.800811
3789.315128,76.609550,-148.041188,9474.636058
3789.315443,0.000000,-74.020594,9918.759623
3789.315757,0.000000,666.185348,10214.842000
3789.316072,-383.047749,740.205942,9918.759623
3789.316387,0.000000,1332.370696,9474.636058
3789.316701,383.047749,1480.411884,8734.430116
3789.317016,766.095498,1184.329507,9030.512492
3789.317331,536.266849,-222.061783,9844.739029
3789.317645,0.000000,-148.041188,10584.944971
3789.317960,-306.438199,-148.041188,11251.130318
3789.318275,-766.095498,888.247130,9770.718434
3789.318589,-919.314598,1258.350101,9844.739029
3789.318904,76.609550,1036.288319,9252.574275
3789.319219,383.047749,444.123565,9030.512492
3789.319533,689.485948,296.082377,9474.636058
3789.319848,0.000000,-0.000000,9844.739029
3789.320162,0.000000,-0.000000,9474.636058
3789.320477,76.609550,518.144159,9474.636058
3789.320792,229.828649,888.247130,9178.553681
3789.321106,459.657299,-0.000000,9770.718434
3789.321421,0.000000,-592.164754,10658.965565
3789.321736,-459.657299,-518.144159,10807.006753
3789.322050,0.000000,296.082377,10066.800811
3789.322365,-153.219100,1036.288319,9474.636058
3789.322680,153.219100,1628.453072,9400.615463
3789.322994,689.485948,666.185348,9326.594869
3789.323309,919.314598,518.144159,9474.636058
3789.323624,306.438199,-0.000000,9844.739029
3789.323938,0.000000,-0.000000,10214.842000
3789.324253,-229.828649,740.205942,9474.636058
3789.324568,-153.219100,370.102971,9252.574275
3789.324882,306.438199,-0.000000,9030.512492
3789.325197,383.047749,-666.185348,9770.718434
3789.325511,-306.438199,-1258.350101,9992.780217
3789.325826,-612.876398,-592.164754,10362.883188
3789.326141,-689.485948,-0.000000,9400.615463
3789.326455,76.609550,74.020594,9326.594869
3789.326770,306.438199,1036.288319,8512.368333
3789.327085,1378.971896,222.061783,8808.450710
3789.327399,1378.971896,-0.000000,8586.388927
3789.327714,766.095498,-222.061783,9252.574275
3789.328029,153.219100,-0.000000,9326.594869
3789.328343,0.000000,-0.000000,9104.533087
3789.328658,153.219100,222.061783,9400.615463
3789.328973,459.657299,-592.164754,9400.615463
3789.329287,76.609550,-1184.329507,9622.677246
3789.329602,-612.876398,-1184.329507,10140.821405
3789.329916,-689.485948,-666.185348,10584.944971
3789.330231,-536.266849,-74.020594,10214.842000
3789.330546,-229.828649,296.082377,8956.491898
3789.330860,229.828649,444.123565,9030.512492
3789.331175,1608.800546,-148.041188,8956.491898
3789.331490,1378.971896,-0.000000,8734.430116
3789.331804,842.705048,-0.000000,9548.656652
3789.332119,689.485948,296.082377,9696.697840
3789.332434,842.705048,962.267725,9178.553681
3789.332748,1072.533697,1258.350101,8808.450710
3789.333063,1225.752797,-0.000000,9030.512492
3789.333378,383.047749,-592.164754,9770.718434
3789.333692,-459.657299,-518.144159,10362.883188
3789.334007,-1149.143247,-592.164754,10732.986159
3789.334322,-1225.752797,-0.000000,10362.883188
3789.334636,-612.876398,814.226536,10140.821405
3789.334951,0.000000,-0.000000,9622.677246
3789.335265,383.047749,-148.041188,10214.842000
3789.335580,0.000000,-0.000000,10584.944971
3789.335895,0.000000,-0.000000,9770.718434
3789.336209,76.609550,592.164754,9474.636058
3789.336524,536.266849,1850.514855,8808.450710
3789.336839,1225.752797,1554.432478,8512.368333
3789.337153,1302.362347,592.164754,9030.512492
3789.337468,153.219100,-0.000000,9992.780217
3789.337783,-383.047749,-74.020594,9992.780217
3789.338097,-919.314598,148.041188,10140.821405
3789.338412,-689.485948,814.226536,9918.759623
3789.338727,-689.485948,222.061783,9918.759623
3789.339041,-306.438199,-592.164754,10288.862594
3789.339356,-842.705048,-888.247130,10066.800811
3789.339671,-995.924147,-592.164754,10436.903782
3789.339985,-766.095498,-0.000000,9844.739029
3789.340300,-229.828649,1332.370696,8882.471304
3789.340614,536.266849,2072.576638,8364.327145
3789.340929,995.924147,1480.411884,8734.430116
3789.341244,1302.362347,592.164754,9474.636058
3789.341558,689.485948,518.144159,9474.636058
3789.341873,383.047749,296.082377,9844.739029
3789.342188,0.000000,518.144159,10214.842000
3789.342502,0.000000,888.247130,9474.636058
3789.342817,153.219100,296.082377,10066.800811
3789.343132,76.609550,-370.102971,9474.636058
3789.343446,-229.828649,-888.247130,9400.615463
3789.343761,0.000000,-444.123565,9622.677246
3789.344076,-689.485948,-296.082377,9844.739029
3789.344390,229.828649,444.123565,9104.533087
3789.344705,153.219100,444.123565,8216.285956
3789.345020,612.876398,-518.144159,9474.636058
3789.345334,919.314598,-814.226536,10362.883188
3789.345649,0.000000,-0.000000,10732.986159
3789.345963,0.000000,148.041188,10584.944971
3789.346278,0.000000,444.123565,10732.986159
3789.346593,229.828649,1332.370696,9992.780217
3789.346907,689.485948,-0.000000,9474.636058
3789.347222,919.314598,-0.000000,9474.636058
3789.347537,612.876398,-370.102971,9770.718434
3789.347851,536.266849,-0.000000,9326.594869
3789.348166,383.047749,-0.000000,8956.491898
3789.348481,153.219100,370.102971,8364.327145
3789.348795,766.095498,-518.144159,8660.409521
3789.349110,995.924147,-740.205942,9104.533087
3789.349425,76.609550,-1332.370696,9622.677246
3789.349739,-383.047749,-1332.370696,10510.924376
3789.350054,-459.657299,-740.205942,10214.842000
3789.350368,-306.438199,-518.144159,10140.821405
3789.350683,766.095498,592.164754,9474.636058
3789.350998,919.314598,-74.020594,8660.409521
3789.351312,1455.581446,370.102971,8808.450710
3789.351627,1302.362347,444.123565,9030.512492
3789.351942,1149.143247,888.247130,8660.409521
3789.352256,536.266849,1480.411884,8216.285956
3789.352571,612.876398,814.226536,8216.285956
3789.352886,919.314598,-0.000000,9252.574275
3789.353200,76.609550,-1110.308913,9844.739029
3789.353515,-612.876398,-1480.411884,11029.068536
3789.353830,-1378.971896,-1480.411884,11473.192101
3789.354144,-1685.410096,-296.082377,10955.047942
3789.354459,-995.924147,814.226536,9770.718434
3789.354774,306.438199,888.247130,9178.553681
3789.355088,919.314598,370.102971,9400.615463
3789.355403,689.485948,740.205942,8586.388927
3789.355717,536.266849,814.226536,8586.388927
3789.356032,536.266849,740.205942,9252.574275
3789.356347,0.000000,1036.288319,9104.533087
3789.356661,0.000000,962.267725,9548.656652
3789.356976,-229.828649,-0.000000,9696.697840
3789.357291,-689.485948,-888.247130,10658.965565
3789.357605,-1378.971896,-888.247130,11473.192101
3789.357920,-1838.629195,-444.123565,11399.171507
3789.358235,-2145.067394,296.082377,11251.130318
3789.358549,-1455.581446,1628.453072,9844.739029
3789.358864,0.000000,814.226536,9326.594869
3789.359179,383.047749,-0.000000,9178.553681
3789.359493,766.095498,-74.020594,9770.718434
3789.359808,1225.752797,740.205942,9178.553681
3789.360123,842.705048,1258.350101,8808.450710
3789.360437,689.485948,1850.514855,8808.450710
3789.360752,1302.362347,1036.288319,8586.388927
3789.361066,1072.533697,-0.000000,9474.636058
3789.361381,306.438199,-592.164754,9844.739029
3789.361696,-459.657299,-296.082377,10732.986159
3789.362010,-842.705048,-74.020594,10436.903782
3789.362325,-1149.143247,518.144159,10140.821405
3789.362640,0.000000,1110.308913,9696.697840
3789.362954,459.657299,-74.020594,9474.636058
3789.363269,689.485948,-0.000000,9548.656652
3789.363584,689.485948,-0.000000,10140.821405
3789.363898,766.095498,740.205942,9474.636058
3789.364213,995.924147,1258.350101,9030.512492
3789.364528,842.705048,1628.453072,8734.430116
3789.364842,1455.581446,740.205942,8956.491898
3789.365157,766.095498,-0.000000,9326.594869
3789.365472,0.000000,-666.185348,10066.800811
3789.365786,-383.047749,-888.247130,10807.006753
3789.366101,-1149.143247,-814.226536,10584.944971
3789.366415,-766.095498,-222.061783,9252.574275
3789.366730,153.219100,-74.020594,9474.636058
3789.367045,153.219100,-814.226536,9844.739029
3789.367359,-383.047749,-1184.329507,9696.697840
3789.367674,0.000000,-592.164754,9992.780217
3789.367989,383.047749,-222.061783,9326.594869
3789.368303,689.485948,814.226536,8586.388927
3789.368618,1378.971896,814.226536,8290.306550
3789.368933,1532.190996,148.041188,8290.306550
3789.369247,766.095498,-518.144159,9400.615463
3789.369562,76.609550,-592.164754,9844.739029
3789.369877,0.000000,-444.123565,10214.842000
3789.370191,-536.266849,-370.102971,10214.842000
3789.370506,0.000000,-592.164754,9918.759623
3789.370821,76.609550,-592.164754,9548.656652
3789.371135,383.047749,-1332.370696,10066.800811
3789.371450,0.000000,-888.247130,9918.759623
3789.371764,76.609550,-518.144159,9770.718434
3789.372079,153.219100,666.185348,9178.553681
3789.372394,612.876398,888.247130,8142.265362
3789.372708,1302.362347,888.247130,7698.141797
3789.373023,1532.190996,148.041188,8364.327145
3789.373338,995.924147,-518.144159,9030.512492
3789.373652,0.000000,-370.102971,10214.842000
3789.373967,-689.485948,-74.020594,9992.780217
3789.374282,-995.924147,148.041188,9992.780217
3789.374596,-459.657299,518.144159,9992.780217
3789.374911,-306.438199,-0.000000,10732.986159
3789.375226,-306.438199,-0.000000,10140.821405
3789.375540,-612.876398,-74.020594,10510.924376
3789.375855,-536.266849,444.123565,10214.842000
3789.376169,0.000000,1554.432478,9400.615463
3789.376484,612.876398,1776.494261,8216.285956
3789.376799,842.705048,1332.370696,8438.347739
3789.377113,842.705048,666.185348,8956.491898
3789.377428,0.000000,-0.000000,9474.636058
3789.377743,-612.876398,740.205942,9844.739029
3789.378057,-842.705048,592.164754,10288.862594
3789.378372,-1378.971896,370.102971,10436.903782
3789.378687,-919.314598,-0.000000,9918.759623
3789.379001,-612.876398,-592.164754,10436.903782
3789.379316,-919.314598,-296.082377,10584.944971
3789.379631,-1225.752797,-74.020594,10807.006753
3789.379945,-229.828649,888.247130,9400.615463
3789.380260,229.828649,1480.411884,8808.450710
3789.380575,995.924147,1850.514855,8512.368333
3789.380889,1685.410096,740.205942,9030.512492
3789.381204,1072.533697,222.061783,9178.553681
3789.381518,229.828649,-296.082377,9918.759623
3789.381833,-383.047749,444.123565,10362.883188
3789.382148,-383.047749,222.061783,9992.780217
3789.382462,0.000000,518.144159,9918.759623
3789.382777,-229.828649,-296.082377,10288.862594
3789.383092,0.000000,-444.123565,9918.759623
3789.383406,-153.219100,-148.041188,9474.636058
3789.383721,0.000000,518.144159,9696.697840
3789.384036,76.609550,888.247130,9030.512492
3789.384350,766.095498,888.247130,8808.450710
3789.384665,1378.971896,-0.000000,9030.512492
3789.384980,1072.533697,-74.020594,9326.594869
3789.385294,76.609550,-0.000000,9770.718434
3789.385609,0.000000,-0.000000,10362.883188
3789.385924,-229.828649,296.082377,10584.944971
3789.386238,-229.828649,592.164754,9918.759623
3789.386553,383.047749,666.185348,9696.697840
3789.386867,766.095498,370.102971,9770.718434
3789.387182,536.266849,-814.226536,9918.759623
3789.387497,76.609550,-0.000000,9696.697840
3789.387811,229.828649,222.061783,9622.677246
3789.388126,842.705048,666.185348,8956.491898
3789.388441,1072.533697,592.164754,8512.368333
3789.388755,2145.067394,-370.102971,8808.450710
3789.389070,995.924147,-666.185348,9474.636058
3789.389385,0.000000,-1036.288319,9918.759623
3789.389699,0.000000,-888.247130,10214.842000
3789.390014,-536.266849,-296.082377,9844.739029
3789.390329,-383.047749,-296.082377,9992.780217
3789.390643,153.219100,-0.000000,9474.636058
3789.390958,153.219100,-666.185348,9622.677246
3789.391273,76.609550,-1184.329507,10436.903782
3789.391587,842.705048,-222.061783,10807.006753
3789.391902,0.000000,148.041188,9696.697840
3789.392216,229.828649,518.144159,9104.533087
3789.392531,766.095498,740.205942,8734.430116
3789.392846,1302.362347,-0.000000,9104.533087
3789.393161,612.876398,-1036.288319,9622.677246
3789.393475,0.000000,-1036.288319,10288.862594
3789.393790,-689.485948,-518.144159,9770.718434
3789.394105,-1149.143247,-222.061783,9030.512492
3789.394419,-842.705048,222.061783,8956.491898
3789.394734,-153.219100,-444.123565,9696.697840
3789.395049,0.000000,-666.185348,10066.800811
3789.395364,-919.314598,-740.205942,10362.883188
3789.395678,-919.314598,-296.082377,10140.821405
3789.395993,-995.924147,666.185348,9474.636058
3789.396308,-306.438199,1110.308913,9474.636058
3789.396623,919.314598,1184.329507,8956.491898
3789.396937,766.095498,740.205942,8956.491898
3789.397252,612.876398,666.185348,9104.533087
3789.397567,0.000000,666.185348,9696.697840
3789.397881,-229.828649,740.205942,9696.697840
3789.398196,-536.266849,1332.370696,9326.594869
3789.398511,0.000000,1184.329507,8660.409521
3789.398826,0.000000,-222.061783,9548.656652
3789.399140,-459.657299,-666.185348,10658.965565
3789.399455,-1149.143247,-814.226536,11029.068536
3789.399770,-995.924147,-74.020594,10732.986159
3789.400085,-842.705048,814.226536,10214.842000
3789.400399,76.609550,2146.597232,8586.388927
3789.400714,1762.019645,1184.329507,8142.265362
3789.401029,995.924147,444.123565,7994.224174
3789.401343,919.314598,222.061783,9104.533087
3789.401658,689.485948,296.082377,9104.533087
3789.401973,0.000000,518.144159,9400.615463
3789.402288,0.000000,1036.288319,9548.656652
3789.402602,459.657299,592.164754,9992.780217
3789.402917,229.828649,370.102971,9992.780217
3789.403232,0.000000,-814.226536,11103.089130
3789.403546,-383.047749,-444.123565,11473.192101
3789.403861,-229.828649,-0.000000,10436.903782
3789.404176,0.000000,888.247130,10436.903782
3789.404491,842.705048,1998.556043,9178.553681
3789.404805,1762.019645,1184.329507,8660.409521
3789.405120,1762.019645,296.082377,9030.512492
3789.405435,1225.752797,-0.000000,9474.636058
3789.405750,1072.533697,-0.000000,9844.739029
3789.406064,459.657299,222.061783,9548.656652
3789.406379,153.219100,962.267725,9548.656652
3789.406694,766.095498,222.061783,9474.636058
3789.407008,-306.438199,-1110.308913,10288.862594
3789.407323,-612.876398,-1480.411884,11177.109724
3789.407638,-995.924147,-1258.350101,11325.150913
3789.407953,-919.314598,-0.000000,10214.842000
3789.408267,-76.609550,1110.308913,9326.594869
3789.408582,612.876398,1702.473667,9030.512492
3789.408897,1532.190996,592.164754,9104.533087
3789.409212,1072.533697,-74.020594,9104.533087
3789.409526,842.705048,-222.061783,9474.636058
3789.409841,383.047749,296.082377,9474.636058
3789.410156,0.000000,592.164754,9474.636058
3789.410470,0.000000,592.164754,9474.636058
3789.410785,459.657299,-74.020594,9548.656652
3789.411100,0.000000,-814.226536,9474.636058
3789.411415,-842.705048,-1184.329507,9622.677246
3789.411729,-919.314598,-1110.308913,9844.739029
3789.412044,-1225.752797,-222.061783,8956.491898
3789.412359,-919.314598,222.061783,8438.347739
3789.412674,76.609550,-296.082377,8438.347739
3789.412988,76.609550,-888.247130,8808.450710
3789.413303,229.828649,-1036.288319,9474.636058
3789.413618,-383.047749,-666.185348,9474.636058
3789.413932,-612.876398,-0.000000,9474.636058
3789.414247,0.000000,1184.329507,8956.491898
3789.414562,612.876398,888.247130,8660.409521
3789.414877,229.828649,-518.144159,9622.677246
3789.415191,0.000000,-962.267725,9696.697840
3789.415506,-459.657299,-518.144159,9696.697840
3789.415821,-919.314598,-0.000000,9474.636058
3789.416135,-842.705048,666.185348,9548.656652
3789.416450,-612.876398,518.144159,9400.615463
3789.416765,0.000000,-296.082377,9770.718434
3789.417080,-76.609550,-592.164754,9918.759623
3789.417394,-612.876398,-592.164754,10658.965565
3789.417709,-536.266849,-518.144159,10362.883188
3789.418024,0.000000,962.267725,9622.677246
3789.418339,153.219100,1554.432478,9178.553681
3789.418653,842.705048,740.205942,9030.512492
3789.418968,995.924147,-0.000000,9474.636058
3789.419283,459.657299,-0.000000,9918.759623
3789.419597,0.000000,370.102971,10066.800811
3789.419912,-229.828649,962.267725,9326.594869
3789.420227,76.609550,814.226536,9622.677246
3789.420542,306.438199,74.020594,10214.842000
3789.420856,306.438199,-74.020594,10288.862594
3789.421171,0.000000,-518.144159,10807.006753
3789.421486,-153.219100,-296.082377,10955.047942
3789.421801,-229.828649,740.205942,9992.780217
3789.422115,383.047749,1554.432478,9770.718434
3789.422430,1149.143247,1554.432478,9178.553681
3789.422745,1685.410096,962.267725,9252.574275
3789.423059,1225.752797,-0.000000,9474.636058
3789.423374,919.314598,-74.020594,9030.512492
3789.423689,612.876398,814.226536,9844.739029
3789.424004,76.609550,666.185348,9400.615463
3789.424318,306.438199,592.164754,9474.636058
3789.424633,612.876398,-222.061783,9770.718434
3789.424948,383.047749,-740.205942,10584.944971
3789.425263,0.000000,-1036.288319,10732.986159
3789.425577,-229.828649,-0.000000,10140.821405
3789.425892,-76.609550,592.164754,9696.697840
3789.426207,0.000000,1480.411884,8808.450710
3789.426521,1149.143247,1110.308913,8956.491898
3789.426836,1455.581446,222.061783,8956.491898
3789.427151,919.314598,-296.082377,9252.574275
3789.427466,229.828649,-222.061783,9770.718434
3789.427780,0.000000,-0.000000,9178.553681
3789.428095,0.000000,296.082377,9400.615463
3789.428410,536.266849,-0.000000,9548.656652
3789.428724,306.438199,-296.082377,9548.656652
3789.429039,-229.828649,-370.102971,9770.718434
3789.429354,-842.705048,-962.267725,9770.718434
3789.429669,-1225.752797,-0.000000,9770.718434
3789.429983,-1072.533697,592.164754,9104.533087
3789.430298,-766.095498,666.185348,8512.368333
3789.430613,0.000000,444.123565,8882.471304
3789.430928,0.000000,-74.020594,9474.636058
3789.431242,-153.219100,-222.061783,9474.636058
3789.431557,-383.047749,-74.020594,10214.842000
3789.431872,-612.876398,814.226536,9918.759623
3789.432186,-306.438199,1258.350101,8512.368333
3789.432501,229.828649,592.164754,9104.533087
3789.432816,306.438199,296.082377,9104.533087
3789.433131,-383.047749,-222.061783,9696.697840
3789.433445,-612.876398,-0.000000,9918.759623
3789.433760,-1149.143247,-0.000000,9474.636058
3789.434075,-919.314598,370.102971,8734.430116
3789.434390,0.000000,148.041188,9030.512492
3789.434704,76.609550,-296.082377,9178.553681
3789.435019,0.000000,-1332.370696,10436.903782
3789.435334,-459.657299,-740.205942,10510.924376
3789.435648,76.609550,-592.164754,10140.821405
3789.435963,-536.266849,814.226536,9326.594869
3789.436278,459.657299,1184.329507,9326.594869
3789.436593,1378.971896,370.102971,8956.491898
3789.436907,612.876398,-148.041188,9474.636058
3789.437222,0.000000,370.102971,9696.697840
3789.437537,-229.828649,-296.082377,10807.006753
3789.437852,0.000000,592.164754,10214.842000
3789.438166,0.000000,888.247130,9844.739029
3789.438481,229.828649,370.102971,9696.697840
3789.438796,459.657299,-814.226536,10436.903782
3789.439110,383.047749,-444.123565,10362.883188
3789.439425,76.609550,-444.123565,11029.068536
3789.439740,76.609550,148.041188,9696.697840
3789.440055,612.876398,740.205942,9400.615463
3789.440369,1302.362347,592.164754,8660.409521
3789.440684,1991.848295,-0.000000,9326.594869
3789.440999,1455.581446,-296.082377,9326.594869
3789.441313,995.924147,-666.185348,9474.636058
3789.441628,1302.362347,-222.061783,9622.677246
3789.441943,1149.143247,518.144159,9474.636058
3789.442258,612.876398,888.247130,9400.615463
3789.442572,1378.971896,518.144159,9400.615463
3789.442887,1072.533697,-148.041188,9696.697840
3789.443202,612.876398,-148.041188,10066.800811
3789.443517,383.047749,-0.000000,9770.718434
3789.443831,153.219100,740.205942,8882.471304
3789.444146,229.828649,888.247130,8734.430116
3789.444461,612.876398,222.061783,8808.450710
3789.444775,0.000000,-444.123565,9178.553681
3789.445090,-689.485948,-666.185348,10066.800811
3789.445405,-689.485948,-740.205942,10066.800811
3789.445720,-842.705048,-0.000000,9770.718434
3789.446034,-995.924147,222.061783,9178.553681
3789.446349,-383.047749,-0.000000,9400.615463
3789.446664,536.266849,-148.041188,9252.574275
3789.446979,383.047749,-666.185348,9326.594869
3789.447293,383.047749,-0.000000,9178.553681
3789.447608,0.000000,518.144159,8956.491898
3789.447923,0.000000,1110.308913,8290.306550
3789.448237,612.876398,1258.350101,8290.306550
3789.448552,919.314598,518.144159,8734.430116
3789.448867,-153.219100,-296.082377,9844.739029
3789.449182,-842.705048,-1184.329507,10658.965565
3789.449496,-1608.800546,-1184.329507,10955.047942
3789.449811,-1762.019645,-444.123565,11103.089130
3789.450126,-1302.362347,666.185348,10584.944971
3789.450441,-306.438199,814.226536,9844.739029
3789.450755,306.438199,296.082377,9474.636058
3789.451070,612.876398,222.061783,9696.697840
3789.451385,153.219100,740.205942,9178.553681
3789.451699,153.219100,1184.329507,8734.430116
3789.452014,0.000000,1480.411884,8660.409521
3789.452329,229.828649,1036.288319,9104.533087
3789.452644,0.000000,-296.082377,9770.718434
3789.452958,-689.485948,-962.267725,11103.089130
3789.453273,-1149.143247,-592.164754,11769.274478
3789.453588,-1225.752797,222.061783,11399.171507
3789.453902,-919.314598,1110.308913,10214.842000
3789.454217,0.000000,1850.514855,9252.574275
3789.454532,995.924147,814.226536,9548.656652
3789.454847,1225.752797,518.144159,8956.491898
3789.455161,1149.143247,370.102971,9178.553681
3789.455476,1225.752797,962.267725,9326.594869
3789.455791,842.705048,888.247130,8956.491898
3789.456106,1149.143247,1110.308913,8660.409521
3789.456420,1225.752797,222.061783,9326.594869
3789.456735,842.705048,-444.123565,9918.759623
3789.457050,0.000000,-1184.329507,10584.944971
3789.457364,-536.266849,-740.205942,11177.109724
3789.457679,-612.876398,-0.000000,10807.006753
3789.457994,-689.485948,740.205942,9622.677246
3789.458309,229.828649,592.164754,9326.594869
3789.458623,1455.581446,-0.000000,9030.512492
3789.458938,1302.362347,-444.123565,9178.553681
3789.459253,1149.143247,-0.000000,8882.471304
3789.459568,919.314598,296.082377,9030.512492
3789.459882,689.485948,814.226536,8808.450710
3789.460197,1072.533697,518.144159,8364.327145
3789.460512,1225.752797,-222.061783,9178.553681
3789.460826,612.876398,-1110.308913,10066.800811
3789.461141,-459.657299,-1184.329507,10881.027347
3789.461456,-842.705048,-888.247130,10955.047942
3789.461771,-689.485948,-148.041188,10140.821405
3789.462085,-459.657299,740.205942,9770.718434
3789.462400,153.219100,444.123565,9474.636058
3789.462715,689.485948,-222.061783,9474.636058
3789.463030,306.438199,-0.000000,9696.697840
3789.463344,76.609550,148.041188,9030.512492
3789.463659,383.047749,222.061783,9104.533087
3789.463974,76.609550,1184.329507,8586.388927
3789.464288,689.485948,296.082377,8438.347739
3789.464603,383.047749,-222.061783,9178.553681
3789.464918,-612.876398,-814.226536,10288.862594
3789.465233,-1302.362347,-814.226536,10584.944971
3789.465547,-1762.019645,-888.247130,10066.800811
3789.465862,-1685.410096,-148.041188,9918.759623
3789.466177,-1302.362347,-0.000000,9548.656652
3789.466491,-766.095498,-666.185348,9622.677246
3789.466806,-459.657299,-1036.288319,9844.739029
3789.467121,-306.438199,-148.041188,9844.739029
3789.467436,0.000000,148.041188,9992.780217
3789.467750,76.609550,1110.308913,8808.450710
3789.468065,536.266849,1998.556043,7994.224174
3789.468380,1455.581446,1036.288319,8956.491898
3789.468695,1149.143247,-0.000000,8512.368333
3789.469009,76.609550,-518.144159,9326.594869
3789.469324,-689.485948,-74.020594,9622.677246
3789.469639,-1149.143247,-0.000000,10140.821405
3789.469953,-1302.362347,370.102971,10066.800811
3789.470268,-766.095498,-148.041188,10214.842000
3789.470583,-536.266849,-1332.370696,10510.924376
3789.470898,-689.485948,-1258.350101,10658.965565
3789.471212,-383.047749,-148.041188,10214.842000
3789.471527,76.609550,666.185348,10214.842000
3789.471842,306.438199,1702.473667,9178.553681
3789.472157,1455.581446,1850.514855,8586.388927
3789.472471,1991.848295,962.267725,8512.368333
3789.472786,1991.848295,296.082377,9252.574275
3789.473101,842.705048,222.061783,9548.656652
3789.473415,0.000000,-0.000000,9844.739029
3789.473730,-536.266849,148.041188,10140.821405
3789.474045,-459.657299,-0.000000,9770.718434
3789.474360,0.000000,-296.082377,9992.780217
3789.474674,-229.828649,-1184.329507,10658.965565
3789.474989,-383.047749,-1184.329507,10955.047942
3789.475304,-306.438199,-0.000000,10510.924376
3789.475619,-459.657299,814.226536,9918.759623
3789.475933,153.219100,1332.370696,9104.533087
3789.476248,1225.752797,1628.453072,8512.368333
3789.476563,1838.629195,888.247130,7994.224174
3789.476877,1378.971896,-0.000000,9030.512492
3789.477192,766.095498,-0.000000,9622.677246
3789.477507,0.000000,666.185348,9474.636058
3789.477822,-612.876398,1036.288319,9548.656652
3789.478136,76.609550,814.226536,9474.636058
3789.478451,995.924147,-592.164754,9326.594869
3789.478766,612.876398,-1110.308913,9770.718434
3789.479080,306.438199,-962.267725,10066.800811
3789.479395,-306.438199,-444.123565,9770.718434
3789.479710,-306.438199,666.185348,8734.430116
3789.480025,383.047749,1332.370696,8364.327145
3789.480339,1608.800546,666.185348,8364.327145
3789.480654,1838.629195,-444.123565,8882.471304
3789.480969,842.705048,-370.102971,9918.759623
3789.481284,229.828649,-0.000000,10288.862594
3789.481598,-689.485948,666.185348,9844.739029
3789.481913,-229.828649,962.267725,9770.718434
3789.482228,459.657299,1110.308913,9844.739029
3789.482542,919.314598,-296.082377,9696.697840
3789.482857,0.000000,-814.226536,10288.862594
3789.483172,-459.657299,-148.041188,9992.780217
3789.483487,-459.657299,148.041188,9844.739029
3789.483801,-383.047749,666.185348,9696.697840
3789.484116,306.438199,888.247130,9252.574275
3789.484431,1302.362347,-0.000000,8956.491898
3789.484746,383.047749,-592.164754,9918.759623
3789.485060,-536.266849,-740.205942,10658.965565
3789.485375,-1149.143247,-740.205942,10658.965565
3789.485690,-1608.800546,-296.082377,9992.780217
3789.486004,-995.924147,666.185348,9844.739029
3789.486319,0.000000,296.082377,9622.677246
3789.486634,-153.219100,-666.185348,9622.677246
3789.486949,-229.828649,-444.123565,10066.800811
3789.487263,-153.219100,518.144159,10214.842000
3789.487578,-459.657299,814.226536,9548.656652
3789.487893,0.000000,1036.288319,8734.430116
3789.488208,919.314598,444.123565,8660.409521
3789.488522,919.314598,-74.020594,9400.615463
3789.488837,76.609550,-518.144159,9696.697840
3789.489152,0.000000,-444.123565,9918.759623
3789.489466,-689.485948,-666.185348,9992.780217
3789.489781,-536.266849,222.061783,9992.780217
3789.490096,76.609550,666.185348,8882.471304
3789.490411,612.876398,-444.123565,8586.388927
3789.490725,612.876398,-1184.329507,9178.553681
3789.491040,76.609550,-888.247130,9548.656652
3789.491355,153.219100,-370.102971,9252.574275
3789.491669,0.000000,370.102971,8882.471304
3789.491984,153.219100,666.185348,8956.491898
3789.492299,1149.143247,740.205942,8956.491898
3789.492614,1302.362347,-0.000000,9252.574275
3789.492928,76.609550,-0.000000,9696.697840
3789.493243,0.000000,-148.041188,9992.780217
3789.493558,-229.828649,222.061783,9844.739029
3789.493873,0.000000,1110.308913,8882.471304
3789.494187,612.876398,740.205942,9178.553681
3789.494502,612.876398,-0.000000,9622.677246
3789.494817,0.000000,-444.123565,10066.800811
3789.495131,0.000000,-296.082377,10066.800811
3789.495446,-459.657299,-222.061783,9696.697840
3789.495761,0.000000,962.267725,9548.656652
3789.496076,383.047749,1110.308913,8882.471304
3789.496390,689.485948,296.082377,9030.512492
3789.496705,306.438199,-296.082377,9474.636058
3789.497020,0.000000,-592.164754,9770.718434
3789.497335,-306.438199,-370.102971,9474.636058
3789.497650,-306.438199,592.164754,9474.636058
3789.497964,0.000000,1184.329507,9696.697840
3789.498279,536.266849,666.185348,9030.512492
3789.498594,1072.533697,222.061783,9400.615463
3789.498909,153.219100,-296.082377,10584.944971
3789.499223,153.219100,-148.041188,10732.986159
3789.499538,76.609550,592.164754,10362.883188
3789.499853,153.219100,1850.514855,8956.491898
3789.500168,842.705048,1184.329507,9178.553681
3789.500483,1302.362347,148.041188,9104.533087
3789.500797,536.266849,-296.082377,9548.656652
3789.501112,153.219100,-370.102971,10214.842000
3789.501427,0.000000,370.102971,9400.615463
3789.501742,-612.876398,370.102971,9252.574275
3789.502057,0.000000,888.247130,9252.574275
3789.502371,766.095498,296.082377,9992.780217
3789.502686,76.609550,-666.185348,10214.842000
3789.503001,-459.657299,-518.144159,11029.068536
3789.503316,-612.876398,-0.000000,10955.047942
3789.503631,-383.047749,1258.350101,10140.821405
3789.503945,536.266849,2294.638420,9104.533087
3789.504260,1378.971896,1702.473667,8734.430116
3789.504575,842.705048,740.205942,9030.512492
3789.504890,459.657299,-148.041188,9474.636058
3789.505205,0.000000,-148.041188,10214.842000
3789.505519,-459.657299,-222.061783,10066.800811
3789.505834,-536.266849,370.102971,9474.636058
3789.506149,0.000000,-0.000000,8956.491898
3789.506464,-229.828649,-740.205942,10066.800811
3789.506778,-612.876398,-888.247130,10510.924376
3789.507093,-689.485948,-962.267725,10881.027347
3789.507408,-766.095498,-592.164754,10362.883188
3789.507723,0.000000,592.164754,8956.491898
3789.508038,1149.143247,1998.556043,8364.327145
3789.508352,1532.190996,444.123565,8068.244768
3789.508667,1072.533697,-222.061783,9326.594869
3789.508982,383.047749,-962.267725,9548.656652
3789.509297,-229.828649,-666.185348,10066.800811
3789.509612,-306.438199,296.082377,9622.677246
3789.509926,0.000000,814.226536,9326.594869
3789.510241,76.609550,-296.082377,9400.615463
3789.510556,0.000000,-1036.288319,9548.656652
3789.510871,-229.828649,-1406.391290,10288.862594
3789.511186,-689.485948,-1036.288319,9918.759623
3789.511500,-612.876398,-666.185348,9474.636058
3789.511815,0.000000,-0.000000,8660.409521
3789.512130,842.705048,814.226536,8290.306550
3789.512445,1762.019645,370.102971,8290.306550
3789.512759,1149.143247,-592.164754,9400.615463
3789.513074,689.485948,-444.123565,9992.780217
3789.513389,459.657299,296.082377,9030.512492
3789.513704,459.657299,888.247130,8660.409521
3789.514019,919.314598,1110.308913,9104.533087
3789.514333,995.924147,222.061783,9474.636058
3789.514648,229.828649,-518.144159,9918.759623
3789.514963,-459.657299,-370.102971,10510.924376
3789.515278,-536.266849,-0.000000,10214.842000
3789.515593,-689.485948,148.041188,9548.656652
3789.515907,-229.828649,1036.288319,9696.697840
3789.516222,0.000000,370.102971,9622.677246
3789.516537,-153.219100,-148.041188,9918.759623
3789.516852,0.000000,-370.102971,10214.842000
3789.517167,0.000000,-444.123565,10732.986159
3789.517481,-383.047749,962.267725,9918.759623
3789.517796,0.000000,1406.391290,9474.636058
3789.518111,383.047749,1850.514855,9104.533087
3789.518426,766.095498,444.123565,9548.656652
3789.518740,536.266849,222.061783,9474.636058
3789.519055,229.828649,-0.000000,9992.780217
3789.519370,-383.047749,-148.041188,10362.883188
3789.519685,-536.266849,444.123565,9474.636058
3789.520000,-229.828649,518.144159,9178.553681
3789.520314,76.609550,-370.102971,9992.780217
3789.520629,-459.657299,-962.267725,10510.924376
3789.520944,-919.314598,-518.144159,10807.006753
3789.521259,-612.876398,-148.041188,10140.821405
3789.521574,-459.657299,814.226536,9918.759623
3789.521888,0.000000,1628.453072,9326.594869
3789.522203,1149.143247,1554.432478,8586.388927
3789.522518,1149.143247,222.061783,9178.553681
3789.522833,459.657299,148.041188,9696.697840
3789.523148,459.657299,-0.000000,9252.574275
3789.523462,76.609550,-0.000000,9252.574275
3789.523777,76.609550,1036.288319,9326.594869
3789.524092,766.095498,370.102971,8956.491898
3789.524407,76.609550,-592.164754,9474.636058
3789.524722,-229.828649,-1036.288319,10288.862594
3789.525036,-842.705048,-814.226536,10658.965565
3789.525351,-766.095498,-222.061783,10214.842000
3789.525666,0.000000,962.267725,9252.574275
3789.525981,383.047749,1110.308913,8882.471304
3789.526295,1149.143247,296.082377,9326.594869
3789.526610,1149.143247,-0.000000,9474.636058
3789.526925,612.876398,-0.000000,9474.636058
3789.527240,689.485948,370.102971,9474.636058
3789.527555,842.705048,1110.308913,9104.533087
3789.527869,919.314598,1332.370696,8586.388927
3789.528184,842.705048,518.144159,8808.450710
3789.528499,995.924147,-1110.308913,9548.656652
3789.528814,-612.876398,-888.247130,10140.821405
3789.529129,-612.876398,-962.267725,10362.883188
3789.529443,-306.438199,-518.144159,9992.780217
3789.529758,-383.047749,444.123565,9474.636058
3789.530073,459.657299,370.102971,9178.553681
3789.530388,842.705048,-740.205942,9252.574275
3789.530703,459.657299,-518.144159,9548.656652
3789.531017,612.876398,-592.164754,10066.800811
3789.531332,76.609550,-0.000000,8808.450710
3789.531647,612.876398,962.267725,9252.574275
3789.531962,1072.533697,1184.329507,9252.574275
3789.532276,1072.533697,-0.000000,9030.512492
3789.532591,536.266849,-740.205942,9770.718434
3789.532906,0.000000,-962.267725,10066.800811
3789.533221,-689.485948,-740.205942,9844.739029
3789.533536,-689.485948,296.082377,10066.800811
3789.533850,-383.047749,814.226536,8808.450710
3789.534165,153.219100,-0.000000,9696.697840
3789.534480,0.000000,-1110.308913,10214.842000
3789.534795,-459.657299,-888.247130,10066.800811
3789.535110,-306.438199,-740.205942,10362.883188
3789.535424,-459.657299,296.082377,9400.615463
3789.535739,0.000000,1406.391290,9030.512492
3789.536054,306.438199,740.205942,9622.677246
3789.536369,383.047749,-0.000000,9622.677246
3789.536684,-306.438199,-74.020594,10510.924376
3789.536998,-306.438199,-0.000000,9918.759623
3789.537313,-995.924147,518.144159,9992.780217
3789.537628,-612.876398,962.267725,9622.677246
3789.537943,-306.438199,592.164754,9622.677246
3789.538258,-229.828649,444.123565,9548.656652
3789.538572,0.000000,-1110.308913,10066.800811
3789.538887,-612.876398,-0.000000,10214.842000
3789.539202,-612.876398,148.041188,9844.739029
3789.539517,-689.485948,740.205942,9252.574275
3789.539831,0.000000,1924.535449,8364.327145
3789.540146,995.924147,666.185348,8586.388927
3789.540461,689.485948,-370.102971,9474.636058
3789.540776,-76.609550,-0.000000,9770.718434
3789.541091,-229.828649,-222.061783,10362.883188
3789.541405,-459.657299,740.205942,9770.718434
3789.541720,-229.828649,1110.308913,9918.759623
3789.542035,766.095498,740.205942,9326.594869
3789.542350,1072.533697,-592.164754,9770.718434
3789.542665,383.047749,-296.082377,9770.718434
3789.542979,229.828649,-222.061783,9400.615463
3789.543294,153.219100,518.144159,9474.636058
3789.543609,0.000000,1480.411884,9104.533087
3789.543924,612.876398,666.185348,8660.409521
3789.544239,1149.143247,-296.082377,8808.450710
3789.544553,689.485948,-1480.411884,9992.780217
3789.544868,0.000000,-740.205942,10584.944971
3789.545183,0.000000,-148.041188,10732.986159
3789.545498,-383.047749,592.164754,10732.986159
3789.545812,306.438199,1036.288319,10066.800811
3789.546127,1378.971896,592.164754,9622.677246
3789.546442,1762.019645,296.082377,9400.615463
3789.546757,1532.190996,-0.000000,9918.759623
3789.547072,919.314598,296.082377,9770.718434
3789.547386,766.095498,370.102971,9400.615463
3789.547701,766.095498,1036.288319,8808.450710
3789.548016,1302.362347,222.061783,8956.491898
3789.548331,459.657299,-592.164754,9400.615463
3789.548646,76.609550,-1480.411884,10732.986159
3789.548960,-459.657299,-1554.432478,11325.150913
3789.549275,-995.924147,-444.123565,10584.944971
3789.549590,-1149.143247,666.185348,10066.800811
3789.549905,-153.219100,666.185348,9474.636058
3789.550220,766.095498,222.061783,9474.636058
3789.550534,1149.143247,-0.000000,8660.409521
3789.550849,1072.533697,296.082377,8956.491898
3789.551164,612.876398,444.123565,9030.512492
3789.551479,536.266849,888.247130,8290.306550
3789.551794,153.219100,1406.391290,8068.244768
3789.552108,76.609550,222.061783,9104.533087
3789.552423,-689.485948,-888.247130,9770.718434
3789.552738,-1378.971896,-1554.432478,10732.986159
3789.553053,-2145.067394,-1554.432478,11621.233289
3789.553367,-1991.848295,-222.061783,10732.986159
3789.553682,-1991.848295,888.247130,9252.574275
3789.553997,-459.657299,962.267725,8882.471304
3789.554312,76.609550,-0.000000,9696.697840
3789.554627,383.047749,-0.000000,9400.615463
3789.554941,153.219100,222.061783,8808.450710
3789.555256,76.609550,814.226536,9178.553681
3789.555571,0.000000,1406.391290,8660.409521
3789.555886,536.266849,1776.494261,8734.430116
3789.556201,306.438199,-0.000000,9326.594869
3789.556515,-383.047749,-1184.329507,10436.903782
3789.556830,-1455.581446,-1554.432478,11103.089130
3789.557145,-1838.629195,-1036.288319,10732.986159
3789.557460,-1838.629195,148.041188,10362.883188
3789.557775,-1072.533697,962.267725,9474.636058
3789.558089,153.219100,444.123565,9326.594869
3789.558404,0.000000,-0.000000,8956.491898
3789.558719,459.657299,-296.082377,9474.636058
3789.559034,1225.752797,222.061783,9252.574275
3789.559348,766.095498,740.205942,8956.491898
3789.559663,766.095498,1628.453072,8438.347739
3789.559978,995.924147,1036.288319,8660.409521
3789.560293,842.705048,-74.020594,9178.553681
3789.560608,0.000000,-592.164754,10288.862594
3789.560922,-383.047749,-666.185348,11177.109724
3789.561237,-1072.533697,-0.000000,10658.965565
3789.561552,-1149.143247,518.144159,9770.718434
3789.561867,-383.047749,370.102971,9844.739029
3789.562182,306.438199,-444.123565,10066.800811
3789.562496,842.705048,-592.164754,9844.739029
3789.562811,689.485948,-296.082377,10362.883188
3789.563126,842.705048,518.144159,9696.697840
3789.563441,1149.143247,1554.432478,8290.306550
3789.563756,1915.238745,2146.597232,7550.100608
3789.564070,2298.286494,1036.288319,8586.388927
3789.564385,1915.238745,148.041188,8586.388927
3789.564700,1072.533697,-296.082377,9622.677246
3789.565015,0.000000,-444.123565,9992.780217
3789.565329,-612.876398,-222.061783,10436.903782
3789.565644,-536.266849,-296.082377,10140.821405
3789.565959,0.000000,-296.082377,9622.677246
3789.566274,229.828649,-1184.329507,10584.944971
3789.566589,0.000000,-666.185348,10362.883188
3789.566903,689.485948,-148.041188,10658.965565
3789.567218,76.609550,814.226536,9622.677246
3789.567533,919.314598,1628.453072,9326.594869
3789.567848,1532.190996,1998.556043,8290.306550
3789.568163,1991.848295,-0.000000,8586.388927
3789.568477,1915.238745,-148.041188,9474.636058
3789.568792,536.266849,-148.041188,9918.759623
3789.569107,-306.438199,-0.000000,9696.697840
3789.569422,-689.485948,-0.000000,9622.677246
3789.569737,-842.705048,148.041188,9770.718434
3789.570051,-689.485948,-962.267725,10436.903782
3789.570366,-1225.752797,-1628.453072,10732.986159
3789.570681,-1225.752797,-1480.411884,10584.944971
3789.570996,-919.314598,-666.185348,10288.862594
3789.571311,-842.705048,1110.308913,9326.594869
3789.571625,459.657299,1480.411884,8734.430116
3789.571940,919.314598,1702.473667,8068.244768
3789.572255,1455.581446,518.144159,8438.347739
3789.572570,842.705048,-74.020594,9326.594869
3789.572884,229.828649,222.061783,10140.821405
3789.573199,-689.485948,814.226536,9918.759623
3789.573514,-995.924147,1406.391290,9178.553681
3789.573829,-1225.752797,888.247130,9918.759623
3789.574144,-1149.143247,-296.082377,10140.821405
3789.574458,-1225.752797,-1036.288319,10288.862594
3789.574773,-1225.752797,-1184.329507,10362.883188
3789.575088,-919.314598,-222.061783,9622.677246
3789.575403,-536.266849,1110.308913,8882.471304
3789.575718,0.000000,1702.473667,7476.080014
3789.576032,536.266849,1036.288319,8660.409521
3789.576347,842.705048,-0.000000,9030.512492
3789.576662,229.828649,-0.000000,9104.533087
3789.576977,76.609550,-74.020594,10140.821405
3789.577292,-459.657299,592.164754,10066.800811
3789.577606,-459.657299,1184.329507,9992.780217
3789.577921,306.438199,-0.000000,10066.800811
3789.578236,229.828649,-740.205942,9844.739029
3789.578551,0.000000,-296.082377,10732.986159
3789.578865,919.314598,296.082377,10066.800811
3789.579180,229.828649,888.247130,9622.677246
3789.579495,766.095498,1628.453072,8956.491898
3789.579810,1225.752797,1110.308913,8216.285956
3789.580125,2221.676944,-0.000000,8882.471304
3789.580439,2145.067394,-666.185348,9474.636058
3789.580754,612.876398,-370.102971,10658.965565
3789.581069,306.438199,74.020594,10288.862594
3789.581384,0.000000,962.267725,9918.759623
3789.581699,76.609550,740.205942,9918.759623
3789.582013,459.657299,-74.020594,9770.718434
3789.582328,459.657299,-666.185348,10214.842000
3789.582643,0.000000,-814.226536,10066.800811
3789.582958,-383.047749,-296.082377,9918.759623
3789.583273,-306.438199,666.185348,9252.574275
3789.583587,306.438199,814.226536,9030.512492
3789.583902,995.924147,518.144159,9178.553681
3789.584217,1149.143247,-592.164754,9474.636058
3789.584532,459.657299,-740.205942,10140.821405
3789.584847,0.000000,-518.144159,10140.821405
3789.585161,-383.047749,-0.000000,10436.903782
3789.585476,-612.876398,592.164754,9918.759623
3789.585791,0.000000,444.123565,9252.574275
3789.586106,383.047749,-222.061783,9474.636058
3789.586420,229.828649,-1036.288319,9252.574275
3789.586735,-306.438199,-1480.411884,9992.780217
3789.587050,0.000000,-0.000000,9474.636058
3789.587365,-536.266849,74.020594,8808.450710
3789.587680,229.828649,740.205942,8734.430116
3789.587994,1072.533697,-444.123565,9252.574275
3789.588309,1225.752797,-592.164754,9400.615463
3789.588624,0.000000,-740.205942,9548.656652
3789.588939,-383.047749,-370.102971,9548.656652
3789.589254,-766.095498,296.082377,9622.677246
3789.589568,-459.657299,666.185348,9178.553681
3789.589883,0.000000,-444.123565,8956.491898
3789.590198,229.828649,-666.185348,8956.491898
3789.590513,0.000000,-1110.308913,9696.697840
3789.590828,-383.047749,-444.123565,9844.739029
3789.591142,-689.485948,-148.041188,10140.821405
3789.591457,-612.876398,444.123565,9844.739029
3789.591772,0.000000,222.061783,8734.430116
3789.592087,536.266849,-148.041188,8808.450710
3789.592401,229.828649,-518.144159,9474.636058
3789.592716,-383.047749,-444.123565,9844.739029
3789.593031,-536.266849,-444.123565,9992.780217
3789.593346,-1225.752797,518.144159,9326.594869
3789.593661,-612.876398,962.267725,8882.471304
3789.593975,0.000000,-0.000000,9030.512492
3789.594290,76.609550,-370.102971,9474.636058
3789.594605,0.000000,-370.102971,10955.047942
3789.594920,-842.705048,-0.000000,10436.903782
3789.595235,-766.095498,444.123565,10066.800811
3789.595549,-76.609550,1110.308913,9252.574275
3789.595864,842.705048,740.205942,9252.574275
3789.596179,919.314598,740.205942,9474.636058
3789.596494,995.924147,296.082377,9326.594869
3789.596809,842.705048,296.082377,9474.636058
3789.597123,383.047749,592.164754,9474.636058
3789.597438,0.000000,1480.411884,8660.409521
3789.597753,153.219100,1110.308913,9474.636058
3789.598068,229.828649,222.061783,9178.553681
3789.598382,0.000000,-888.247130,10584.944971
3789.598697,76.609550,-1332.370696,11843.295072
3789.599012,-1072.533697,370.102971,10955.047942
3789.599327,-1455.581446,1702.473667,10584.944971
3789.599642,0.000000,2220.617826,9622.677246
3789.599956,842.705048,1258.350101,9474.636058
3789.600271,1532.190996,814.226536,9548.656652
3789.600586,1532.190996,592.164754,9696.697840
3789.600901,842.705048,592.164754,9474.636058
3789.601215,689.485948,1332.370696,9474.636058
3789.601530,229.828649,1332.370696,9474.636058
3789.601845,689.485948,666.185348,9474.636058
3789.602160,383.047749,-814.226536,10362.883188
3789.602475,-153.219100,-962.267725,10732.986159
3789.602789,-612.876398,-592.164754,10881.027347
3789.603104,-1072.533697,-518.144159,10214.842000
3789.603419,-612.876398,740.205942,9178.553681
3789.603734,229.828649,814.226536,8586.388927
3789.604048,995.924147,-0.000000,8734.430116
3789.604363,1378.971896,-370.102971,8882.471304
3789.604678,766.095498,370.102971,8882.471304
3789.604993,383.047749,444.123565,8808.450710
3789.605308,0.000000,666.185348,8956.491898
3789.605622,536.266849,370.102971,9696.697840
3789.605937,383.047749,-814.226536,9696.697840
3789.606252,0.000000,-962.267725,10140.821405
3789.606567,-919.314598,-1258.350101,10732.986159
3789.606881,-1225.752797,-1036.288319,10955.047942
3789.607196,-1072.533697,-74.020594,9696.697840
3789.607511,-306.438199,370.102971,9178.553681
3789.607826,536.266849,666.185348,8438.347739
3789.608141,1072.533697,-74.020594,8142.265362
3789.608455,766.095498,-888.247130,8660.409521
3789.608770,0.000000,-1036.288319,8956.491898
3789.609085,-229.828649,-444.123565,8882.471304
3789.609400,-153.219100,518.144159,8438.347739
3789.609714,153.219100,518.144159,8660.409521
3789.610029,612.876398,-444.123565,9474.636058
3789.610344,-459.657299,-814.226536,9548.656652
3789.610659,-1072.533697,-518.144159,10584.944971
3789.610974,-1455.581446,-370.102971,10436.903782
3789.611288,-1532.190996,296.082377,10066.800811
3789.611603,-383.047749,740.205942,9474.636058
3789.611918,0.000000,-0.000000,9474.636058
3789.612233,76.609550,-148.041188,9548.656652
3789.612547,229.828649,-296.082377,10214.842000
3789.612862,0.000000,-0.000000,10140.821405
3789.613177,-459.657299,962.267725,9770.718434
3789.613492,-306.438199,1554.432478,9252.574275
3789.613807,919.314598,1258.350101,8808.450710
3789.614121,612.876398,-222.061783,9548.656652
3789.614436,-229.828649,-444.123565,10066.800811
3789.614751,-689.485948,-518.144159,10288.862594
3789.615066,-459.657299,-370.102971,9844.739029
3789.615380,-76.609550,296.082377,9992.780217
3789.615695,153.219100,740.205942,9252.574275
3789.616010,612.876398,-148.041188,9622.677246
3789.616325,459.657299,-370.102971,10066.800811
3789.616640,153.219100,-592.164754,10584.944971
3789.616954,0.000000,592.164754,10584.944971
3789.617269,459.657299,888.247130,10066.800811
3789.617584,1149.143247,1776.494261,9474.636058
3789.617899,1685.410096,962.267725,9326.594869
3789.618213,842.705048,296.082377,9326.594869
3789.618528,1149.143247,-148.041188,10066.800811
3789.618843,459.657299,296.082377,9548.656652
3789.619158,-229.828649,814.226536,9474.636058
3789.619473,-153.219100,1184.329507,8734.430116
3789.619787,76.609550,222.061783,9252.574275
3789.620102,306.438199,-814.226536,9474.636058
3789.620417,0.000000,-1036.288319,10362.883188
3789.620732,-459.657299,-962.267725,10140.821405
3789.621046,-383.047749,-444.123565,9696.697840
3789.621361,-229.828649,1184.329507,9400.615463
3789.621676,689.485948,1258.350101,8216.285956
3789.621991,1149.143247,888.247130,9252.574275
3789.622306,689.485948,592.164754,9326.594869
3789.622620,383.047749,296.082377,9622.677246
3789.622935,306.438199,-0.000000,9622.677246
3789.623250,0.000000,1036.288319,9178.553681
3789.623565,0.000000,814.226536,9400.615463
3789.623879,612.876398,-0.000000,9474.636058
3789.624194,0.000000,-666.185348,10510.924376
3789.624509,-536.266849,-962.267725,10658.965565
3789.624824,-842.705048,-370.102971,10436.903782
3789.625139,-612.876398,740.205942,9992.780217
3789.625453,-459.657299,888.247130,9030.512492
3789.625768,76.609550,814.226536,8290.306550
3789.626083,919.314598,-370.102971,8956.491898
3789.626398,383.047749,-740.205942,9474.636058
3789.626712,-153.219100,-814.226536,9770.718434
3789.627027,0.000000,-0.000000,9548.656652
3789.627342,-612.876398,1110.308913,9104.533087
3789.627657,229.828649,592.164754,9474.636058
3789.627972,766.095498,-444.123565,10066.800811
3789.628286,76.609550,-814.226536,9696.697840
3789.628601,0.000000,-888.247130,9844.739029
3789.628916,-766.095498,-370.102971,9992.780217
3789.629231,-536.266849,1036.288319,9030.512492
3789.629545,0.000000,740.205942,9474.636058
3789.629860,306.438199,-0.000000,9178.553681
3789.630175,383.047749,-888.247130,9474.636058
3789.630490,153.219100,-888.247130,10584.944971
3789.630805,-306.438199,-148.041188,9918.759623
3789.631119,-612.876398,370.102971,9696.697840
3789.631434,0.000000,1036.288319,9474.636058
3789.631749,153.219100,518.144159,9178.553681
3789.632064,689.485948,-222.061783,9400.615463
3789.632378,536.266849,-296.082377,9918.759623
3789.632693,0.000000,-222.061783,10140.821405
3789.633008,-612.876398,296.082377,9548.656652
3789.633323,0.000000,1332.370696,9178.553681
3789.633638,229.828649,888.247130,9178.553681
3789.633952,1149.143247,148.041188,9474.636058
3789.634267,0.000000,-222.061783,10288.862594
3789.634582,76.609550,-0.000000,9770.718434
3789.634897,-153.219100,222.061783,10140.821405
3789.635211,-383.047749,1406.391290,9400.615463
3789.635526,306.438199,1776.494261,9326.594869
3789.635841,919.314598,592.164754,9622.677246
3789.636156,842.705048,-0.000000,9622.677246
3789.636471,383.047749,-74.020594,9918.759623
3789.636785,0.000000,-222.061783,9918.759623
3789.637100,0.000000,444.123565,9992.780217
3789.637415,0.000000,1036.288319,9326.594869
3789.637730,383.047749,370.102971,9104.533087
3789.638045,919.314598,-444.123565,9400.615463
3789.638359,229.828649,-740.205942,9622.677246
3789.638674,383.047749,-666.185348,9474.636058
3789.638989,-76.609550,518.144159,9474.636058
3789.639304,153.219100,962.267725,8512.368333
3789.639618,766.095498,814.226536,8956.491898
3789.639933,995.924147,-666.185348,9178.553681
3789.640248,612.876398,-370.102971,10436.903782
3789.640563,0.000000,-666.185348,10288.862594
3789.640878,-306.438199,-518.144159,10214.842000
3789.641192,-383.047749,444.123565,9548.656652
3789.641507,76.609550,1036.288319,9474.636058
3789.641822,842.705048,370.102971,9548.656652
3789.642137,842.705048,-148.041188,9992.780217
3789.642451,689.485948,222.061783,9696.697840
3789.642766,229.828649,222.061783,9548.656652
3789.643081,153.219100,1702.473667,8956.491898
3789.643396,153.219100,1554.432478,7994.224174
3789.643711,459.657299,666.185348,8808.450710
3789.644025,766.095498,-740.205942,9992.780217
3789.644340,0.000000,-444.123565,9918.759623
3789.644655,-689.485948,-740.205942,10955.047942
3789.644970,-1378.971896,-148.041188,10732.986159
3789.645284,-842.705048,814.226536,10140.821405
3789.645599,-306.438199,666.185348,9474.636058
3789.645914,76.609550,-0.000000,9770.718434
3789.646229,0.000000,148.041188,9474.636058
3789.646544,766.095498,-0.000000,9770.718434
3789.646858,153.219100,1110.308913,9030.512492
3789.647173,-306.438199,1554.432478,8512.368333
3789.647488,612.876398,962.267725,8734.430116
3789.647803,383.047749,-148.041188,9474.636058
3789.648117,0.000000,-814.226536,10288.862594
3789.648432,-229.828649,-1406.391290,10807.006753
3789.648747,-1072.533697,-962.267725,10881.027347
3789.649062,-1072.533697,222.061783,11029.068536
3789.649377,-1225.752797,1110.308913,9770.718434
3789.649691,-229.828649,740.205942,9474.636058
3789.650006,842.705048,-74.020594,9474.636058
3789.650321,995.924147,-222.061783,8734.430116
3789.650636,842.705048,-0.000000,8660.409521
3789.650950,1072.533697,666.185348,9030.512492
3789.651265,383.047749,1110.308913,8142.265362
3789.651580,766.095498,370.102971,9030.512492
3789.651895,842.705048,-518.144159,9326.594869
3789.652210,0.000000,-740.205942,10510.924376
3789.652524,-766.095498,-740.205942,11177.109724
3789.652839,-1149.143247,-444.123565,11177.109724
3789.653154,-1225.752797,592.164754,9696.697840
3789.653469,-536.266849,666.185348,9030.512492
3789.653783,536.266849,148.041188,8734.430116
3789.654098,306.438199,-962.267725,8808.450710
3789.654413,153.219100,-222.061783,9178.553681
3789.654728,-689.485948,-0.000000,8956.491898
3789.655043,-1149.143247,222.061783,8882.471304
3789.655357,-995.924147,518.144159,9104.533087
3789.655672,-1378.971896,222.061783,9770.718434
3789.655987,-1072.533697,-1258.350101,10881.027347
3789.656302,-2145.067394,-1406.391290,11251.130318
3789.656616,-2451.505594,-1332.370696,11843.295072
3789.656931,-2451.505594,-370.102971,11103.089130
3789.657246,-2451.505594,518.144159,10362.883188
3789.657561,-1608.800546,814.226536,9474.636058
3789.657876,-689.485948,-296.082377,9400.615463
3789.658190,-383.047749,-888.247130,9030.512492
3789.658505,-766.095498,-1258.350101,9252.574275
3789.658820,-1225.752797,-1406.391290,9474.636058
3789.659135,-1532.190996,-1110.308913,9400.615463
3789.659449,-2145.067394,-592.164754,9104.533087
3789.659764,-1532.190996,-1036.288319,9104.533087
3789.660079,-1762.019645,-2220.617826,9474.636058
3789.660394,-1532.190996,-2664.741391,10436.903782
3789.660709,-2451.505594,-2442.679609,10214.842000
3789.661023,-2528.115143,-2146.597232,10214.842000
3789.661338,-2451.505594,-1332.370696,9770.718434
3789.661653,-2221.676944,-1184.329507,9178.553681
3789.661968,-1072.533697,-1702.473667,8882.471304
3789.662282,-1455.581446,-2442.679609,9178.553681
3789.662597,-1149.143247,-2516.700203,9474.636058
3789.662912,-1455.581446,-2442.679609,9770.718434
3789.663227,-1762.019645,-2146.597232,10214.842000
3789.663542,-1685.410096,-1850.514855,10510.924376
3789.663856,-1608.800546,-1850.514855,9918.759623
3789.664171,-2298.286494,-2072.576638,9178.553681
3789.664486,-2145.067394,-2442.679609,9400.615463
3789.664801,-1685.410096,-2960.823768,9622.677246
3789.665115,-1302.362347,-3034.844362,9326.594869
3789.665430,-1762.019645,-2294.638420,8956.491898
3789.665745,-1378.971896,-2738.761985,8956.491898
3789.666060,-1378.971896,-2664.741391,9474.636058
3789.666375,-1225.752797,-2516.700203,9030.512492
3789.666689,-842.705048,-2368.659014,9770.718434
3789.667004,-766.095498,-2368.659014,8956.491898
3789.667319,-919.314598,-2220.617826,9326.594869
3789.667634,-1149.143247,-1554.432478,9104.533087
3789.667948,-1302.362347,-1776.494261,9178.553681
3789.668263,-1149.143247,-1850.514855,9326.594869
3789.668578,-1378.971896,-2442.679609,8660.409521
3789.668893,-1608.800546,-2294.638420,8512.368333
3789.669208,-1762.019645,-2220.617826,8290.306550
3789.669522,-1991.848295,-2368.659014,8808.450710
3789.669837,-2221.676944,-2812.782580,9326.594869
3789.670152,-2451.505594,-2960.823768,9622.677246
3789.670467,-2757.943793,-2812.782580,10362.883188
3789.670781,-2911.162892,-3478.967927,10658.965565
3789.671096,-2911.162892,-3404.947333,11251.130318
3789.671411,-2911.162892,-2294.638420,10658.965565
3789.671726,-2681.334243,-1406.391290,9696.697840
3789.672041,-2068.457845,-962.267725,8512.368333
3789.672355,-1685.410096,-1332.370696,8660.409521
3789.672670,-1378.971896,-1850.514855,8586.388927
3789.672985,-1685.410096,-1776.494261,8438.347739
3789.673300,-1302.362347,-2812.782580,9548.656652
3789.673614,-1532.190996,-2664.741391,10214.842000
3789.673929,-1915.238745,-2590.720797,10362.883188
3789.674244,-2221.676944,-2294.638420,10881.027347
3789.674559,-2987.772442,-1332.370696,9770.718434
3789.674874,-2681.334243,-1036.288319,9178.553681
3789.675188,-2528.115143,-1110.308913,9252.574275
3789.675503,-2681.334243,-1628.453072,8734.430116
3789.675818,-2068.457845,-2516.700203,9400.615463
3789.676133,-3217.601092,-2960.823768,9622.677246
3789.676447,-3140.991542,-3034.844362,10140.821405
3789.676762,-2834.553343,-2368.659014,11103.089130
3789.677077,-3064.381992,-1628.453072,11399.171507
3789.677392,-2145.067394,-518.144159,11473.192101
3789.677707,-1762.019645,-74.020594,10214.842000
3789.678021,-1455.581446,-74.020594,9178.553681
3789.678336,-1302.362347,-518.144159,9326.594869
3789.678651,-1378.971896,-888.247130,8586.388927
3789.678966,-1762.019645,-1702.473667,8586.388927
3789.679280,-1685.410096,-2368.659014,8956.491898
3789.679595,-1608.800546,-2220.617826,9696.697840
3789.679910,-2068.457845,-2368.659014,9918.759623
3789.680225,-1915.238745,-2738.761985,10807.006753
3789.680540,-2145.067394,-1924.535449,10066.800811
3789.680854,-1838.629195,-1850.514855,9844.739029
3789.681169,-1532.190996,-1184.329507,9400.615463
3789.681484,-1302.362347,-1036.288319,8734.430116
3789.681799,-1608.800546,-1258.350101,8142.265362
3789.682113,-1225.752797,-1332.370696,8142.265362
3789.682428,-1455.581446,-1480.411884,7994.224174
3789.682743,-1455.581446,-1850.514855,8512.368333
3789.683058,-2068.457845,-1998.556043,9326.594869
3789.683373,-2451.505594,-2146.597232,10881.027347
3789.683687,-2987.772442,-2590.720797,11843.295072
3789.684002,-3064.381992,-2368.659014,12287.418637
3789.684317,-2911.162892,-2516.700203,12139.377449
3789.684632,-2451.505594,-2516.700203,11843.295072
3789.684946,-1915.238745,-1554.432478,11177.109724
3789.685261,-919.314598,-666.185348,9252.574275
3789.685576,0.000000,-0.000000,7550.100608
3789.685891,459.657299,-0.000000,6883.915261
3789.686206,842.705048,-592.164754,6513.812290
3789.686520,76.609550,-666.185348,7031.956449
3789.686835,-995.924147,-1924.535449,7772.162391
3789.687150,-1915.238745,-3404.947333,9400.615463
3789.687465,-3064.381992,-3849.070898,10732.986159
3789.687779,-4136.915689,-4071.132681,11843.295072
3789.688094,-4366.744339,-4071.132681,12509.480420
3789.688409,-3983.696590,-3478.967927,12731.542202
3789.688724,-3294.210641,-2072.576638,11843.295072
3789.689039,-2757.943793,-962.267725,10214.842000
3789.689353,-2068.457845,-444.123565,9622.677246
3789.689668,-842.705048,-222.061783,8438.347739
3789.689983,76.609550,-296.082377,7920.203579
3789.690298,689.485948,-518.144159,7698.141797
3789.690612,306.438199,-814.226536,8142.265362
3789.690927,-306.438199,-1406.391290,9178.553681
3789.691242,-1149.143247,-1924.535449,9696.697840
3789.691557,-1915.238745,-2294.638420,10140.821405
3789.691872,-2757.943793,-2442.679609,10140.821405
3789.692186,-3907.087040,-3034.844362,9770.718434
3789.692501,-4290.134789,-3552.988522,9474.636058
3789.692816,-4673.182538,-3775.050304,9326.594869
3789.693131,-4443.353888,-3849.070898,8956.491898
3789.693445,-3907.087040,-3478.967927,9178.553681
3789.693760,-3447.429741,-3108.864956,9474.636058
3789.694075,-2834.553343,-2738.761985,10140.821405
3789.694390,-2221.676944,-2146.597232,10955.047942
3789.694705,-1838.629195,-1332.370696,11177.109724
3789.695019,-1225.752797,-1110.308913,10881.027347
3789.695334,-459.657299,-444.123565,10584.944971
3789.695649,0.000000,-0.000000,9770.718434
3789.695964,-459.657299,296.082377,8068.244768
3789.696278,-536.266849,-148.041188,7179.997637
3789.696593,-842.705048,-1110.308913,7254.018232
3789.696908,-1072.533697,-2516.700203,7846.182985
3789.697223,-2145.067394,-3552.988522,8660.409521
3789.697538,-3600.648841,-4515.256246,9548.656652
3789.697852,-4060.306139,-4959.379811,10658.965565
3789.698167,-4290.134789,-4885.359217,11399.171507
3789.698482,-3830.477490,-4219.173869,11917.315666
3789.698797,-3294.210641,-3256.906145,11399.171507
3789.699111,-2528.115143,-2072.576638,10584.944971
3789.699426,-1378.971896,-740.205942,9400.615463
3789.699741,-306.438199,-0.000000,7994.224174
3789.700056,766.095498,888.247130,7254.018232
3789.700371,612.876398,592.164754,7254.018232
3789.700685,766.095498,-0.000000,7328.038826
3789.701000,76.609550,-888.247130,8438.347739
3789.701315,-842.705048,-1776.494261,9252.574275
3789.701630,-1838.629195,-2516.700203,10288.862594
3789.701944,-2911.162892,-3330.926739,11399.171507
3789.702259,-3677.258390,-3997.112087,11991.336260
3789.702574,-3907.087040,-3923.091493,11399.171507
3789.702889,-3447.429741,-3701.029710,10584.944971
3789.703203,-3294.210641,-2886.803174,9548.656652
3789.703518,-2757.943793,-1998.556043,8660.409521
3789.703833,-1378.971896,-888.247130,8216.285956
3789.704148,-383.047749,-444.123565,7698.141797
3789.704463,1608.800546,148.041188,7846.182985
3789.704777,1378.971896,-0.000000,8586.388927
3789.705092,919.314598,-148.041188,9104.533087
3789.705407,612.876398,-296.082377,9918.759623
3789.705722,689.485948,-814.226536,10510.924376
3789.706036,229.828649,-1184.329507,10362.883188
3789.706351,0.000000,-666.185348,10436.903782
3789.706666,-459.657299,-592.164754,9696.697840
3789.706981,-919.314598,-592.164754,9252.574275
3789.707296,-842.705048,-592.164754,8438.347739
3789.707610,-1685.410096,-1628.453072,8290.306550
3789.707925,-1455.581446,-1406.391290,8512.368333
3789.708240,-1838.629195,-1628.453072,8882.471304
3789.708555,-2068.457845,-1924.535449,9474.636058
3789.708869,-1915.238745,-2072.576638,9918.759623
3789.709184,-2374.896044,-1998.556043,10881.027347
3789.709499,-1915.238745,-888.247130,10807.006753
3789.709814,-2451.505594,-296.082377,11103.089130
3789.710128,-2374.896044,370.102971,11103.089130
3789.710443,-2145.067394,518.144159,10807.006753
3789.710758,-2145.067394,518.144159,10214.842000
3789.711073,-2757.943793,592.164754,9992.780217
3789.711388,-2528.115143,-0.000000,9844.739029
3789.711702,-2681.334243,-814.226536,9992.780217
3789.712017,-3064.381992,-1628.453072,9918.759623
3789.712332,-3217.601092,-1924.535449,9918.759623
3789.712647,-3677.258390,-2294.638420,10066.800811
3789.712961,-4213.525239,-2590.720797,10288.862594
