#time,accel_x,accel_y,accel_z
4081.122229,-1302.362347,1480.411884,9918.759623
4081.122544,-1532.190996,1480.411884,9992.780217
4081.122859,-1915.238745,1036.288319,10066.800811
4081.123174,-1532.190996,370.102971,9622.677246
4081.123489,-1455.581446,444.123565,9400.615463
4081.123805,-1455.581446,-74.020594,9548.656652
4081.124120,-1378.971896,148.041188,9326.594869
4081.124435,-842.705048,518.144159,9030.512492
4081.124750,-1149.143247,-0.000000,9326.594869
4081.125066,-536.266849,444.123565,9252.574275
4081.125381,0.000000,666.185348,9400.615463
4081.125696,0.000000,888.247130,9252.574275
4081.126011,153.219100,666.185348,9474.636058
4081.126327,612.876398,296.082377,9326.594869
4081.126642,536.266849,296.082377,9474.636058
4081.126957,766.095498,296.082377,9770.718434
4081.127272,0.000000,-222.061783,9548.656652
4081.127587,153.219100,-0.000000,9400.615463
4081.127903,689.485948,-740.205942,9326.594869
4081.128218,306.438199,-814.226536,9252.574275
4081.128533,459.657299,-740.205942,9178.553681
4081.128848,229.828649,-962.267725,9474.636058
4081.129164,76.609550,-1036.288319,9252.574275
4081.129479,612.876398,-962.267725,9104.533087
4081.129794,612.876398,-962.267725,8808.450710
4081.130109,383.047749,-1184.329507,9252.574275
4081.130425,612.876398,-740.205942,8808.450710
4081.130740,919.314598,-444.123565,9104.533087
4081.131055,766.095498,-74.020594,8808.450710
4081.131370,689.485948,-74.020594,9178.553681
4081.131685,459.657299,-148.041188,9326.594869
4081.132001,459.657299,-444.123565,9474.636058
4081.132316,612.876398,-666.185348,10140.821405
4081.132631,306.438199,-962.267725,10362.883188
4081.132946,0.000000,-592.164754,9918.759623
4081.133262,0.000000,-370.102971,9844.739029
4081.133577,229.828649,-518.144159,9400.615463
4081.133892,0.000000,-0.000000,9252.574275
4081.134207,0.000000,-0.000000,9030.512492
4081.134523,-383.047749,-0.000000,9178.553681
4081.134838,-842.705048,-0.000000,9030.512492
4081.135153,-766.095498,222.061783,8956.491898
4081.135468,-1149.143247,-0.000000,9030.512492
4081.135783,-612.876398,592.164754,9474.636058
4081.136099,-919.314598,296.082377,9770.718434
4081.136414,-689.485948,296.082377,9844.739029
4081.136729,-766.095498,370.102971,9696.697840
4081.137044,-383.047749,1110.308913,9622.677246
4081.137360,0.000000,740.205942,9548.656652
4081.137675,0.000000,962.267725,9474.636058
4081.137990,0.000000,1036.288319,9474.636058
4081.138305,-229.828649,1110.308913,9548.656652
4081.138621,306.438199,740.205942,9474.636058
4081.138936,0.000000,592.164754,9548.656652
4081.139251,0.000000,740.205942,9992.780217
4081.139566,0.000000,666.185348,9844.739029
4081.139881,459.657299,518.144159,10066.800811
4081.140197,612.876398,-0.000000,9474.636058
4081.140512,766.095498,-0.000000,9252.574275
4081.140827,919.314598,592.164754,9622.677246
4081.141142,612.876398,592.164754,9696.697840
4081.141458,689.485948,370.102971,9844.739029
4081.141773,995.924147,592.164754,10140.821405
4081.142088,612.876398,666.185348,10140.821405
4081.142403,153.219100,444.123565,9770.718434
4081.142718,689.485948,814.226536,9844.739029
4081.143034,612.876398,518.144159,10288.862594
4081.143349,536.266849,666.185348,10214.842000
4081.143664,612.876398,592.164754,9992.780217
4081.143979,459.657299,296.082377,9844.739029
4081.144295,229.828649,444.123565,9770.718434
4081.144610,383.047749,518.144159,10140.821405
4081.144925,0.000000,-148.041188,9992.780217
4081.145240,-153.219100,-0.000000,10140.821405
4081.145556,-229.828649,-0.000000,10288.862594
4081.145871,-306.438199,-74.020594,10066.800811
4081.146186,383.047749,-222.061783,10066.800811
4081.146501,0.000000,148.041188,9696.697840
4081.146816,306.438199,-0.000000,9474.636058
4081.147132,383.047749,222.061783,9326.594869
4081.147447,689.485948,296.082377,9326.594869
4081.147762,536.266849,-0.000000,8956.491898
4081.148077,536.266849,-0.000000,9474.636058
4081.148393,536.266849,-0.000000,9474.636058
4081.148708,153.219100,-0.000000,9252.574275
4081.149023,229.828649,-74.020594,9474.636058
4081.149338,383.047749,-370.102971,9474.636058
4081.149654,0.000000,-444.123565,9252.574275
4081.149969,0.000000,-296.082377,8808.450710
4081.150284,-306.438199,-74.020594,9326.594869
4081.150599,0.000000,-148.041188,9474.636058
4081.150914,-76.609550,-444.123565,8882.471304
4081.151230,-383.047749,-370.102971,9030.512492
4081.151545,-383.047749,-518.144159,9474.636058
4081.151860,0.000000,-592.164754,9474.636058
4081.152175,0.000000,-222.061783,9548.656652
4081.152491,0.000000,-296.082377,9844.739029
4081.152806,-229.828649,-296.082377,10066.800811
4081.153121,-306.438199,-370.102971,9474.636058
4081.153436,0.000000,-0.000000,9252.574275
4081.153752,-76.609550,-666.185348,9696.697840
4081.154067,306.438199,-148.041188,9474.636058
4081.154382,306.438199,-148.041188,9474.636058
4081.154697,76.609550,-592.164754,9918.759623
4081.155012,0.000000,-740.205942,9770.718434
4081.155328,306.438199,-296.082377,9548.656652
4081.155643,153.219100,-222.061783,9844.739029
4081.155958,229.828649,-296.082377,10066.800811
4081.156273,0.000000,-222.061783,9696.697840
4081.156589,229.828649,-0.000000,9252.574275
4081.156904,612.876398,-0.000000,9474.636058
4081.157219,383.047749,222.061783,9696.697840
4081.157534,229.828649,-0.000000,9622.677246
4081.157850,383.047749,-0.000000,9548.656652
4081.158165,229.828649,-0.000000,9770.718434
4081.158480,76.609550,74.020594,9622.677246
4081.158795,0.000000,296.082377,9992.780217
4081.159110,153.219100,444.123565,9844.739029
4081.159426,76.609550,518.144159,9326.594869
4081.159741,-229.828649,666.185348,10066.800811
4081.160056,-229.828649,444.123565,9696.697840
4081.160371,0.000000,592.164754,9622.677246
4081.160687,0.000000,666.185348,9696.697840
4081.161002,-536.266849,518.144159,9474.636058
4081.161317,0.000000,888.247130,9548.656652
4081.161632,0.000000,962.267725,9252.574275
4081.161947,-229.828649,148.041188,9474.636058
4081.162263,0.000000,740.205942,9770.718434
4081.162578,-229.828649,814.226536,9474.636058
4081.162893,153.219100,888.247130,9844.739029
4081.163208,153.219100,962.267725,9622.677246
4081.163523,229.828649,740.205942,9696.697840
4081.163839,0.000000,888.247130,9400.615463
4081.164154,306.438199,962.267725,9252.574275
4081.164469,612.876398,666.185348,10140.821405
4081.164784,76.609550,518.144159,9548.656652
4081.165099,153.219100,666.185348,9474.636058
4081.165414,0.000000,666.185348,9844.739029
4081.165730,0.000000,592.164754,9696.697840
4081.166045,153.219100,222.061783,9770.718434
4081.166360,0.000000,296.082377,9918.759623
4081.166675,0.000000,296.082377,9918.759623
4081.166990,0.000000,222.061783,9548.656652
4081.167305,-536.266849,296.082377,9696.697840
4081.167620,-229.828649,-148.041188,9844.739029
4081.167936,459.657299,444.123565,9918.759623
4081.168251,153.219100,-0.000000,9548.656652
4081.168566,306.438199,222.061783,9622.677246
4081.168881,229.828649,-0.000000,9622.677246
4081.169196,306.438199,-0.000000,9252.574275
4081.169511,459.657299,-74.020594,9548.656652
4081.169827,76.609550,-0.000000,9696.697840
4081.170142,76.609550,-222.061783,9474.636058
4081.170457,306.438199,-148.041188,9252.574275
4081.170772,306.438199,-222.061783,9548.656652
4081.171087,76.609550,-592.164754,9400.615463
4081.171402,229.828649,-148.041188,9400.615463
4081.171718,153.219100,-222.061783,9252.574275
4081.172033,536.266849,-74.020594,9548.656652
4081.172348,0.000000,-148.041188,9030.512492
4081.172663,76.609550,-296.082377,9104.533087
4081.172978,153.219100,-0.000000,9474.636058
4081.173293,0.000000,-74.020594,8956.491898
4081.173609,306.438199,-296.082377,9030.512492
4081.173924,306.438199,-0.000000,9548.656652
4081.174239,153.219100,-0.000000,9474.636058
4081.174554,229.828649,-148.041188,9178.553681
4081.174869,0.000000,-0.000000,9252.574275
4081.175184,0.000000,-74.020594,9474.636058
4081.175500,229.828649,-148.041188,9474.636058
4081.175815,0.000000,-0.000000,9252.574275
4081.176130,0.000000,-0.000000,9474.636058
4081.176445,-153.219100,-0.000000,9474.636058
4081.176760,76.609550,-0.000000,9326.594869
4081.177075,0.000000,-222.061783,9326.594869
4081.177391,0.000000,-148.041188,9696.697840
4081.177706,0.000000,74.020594,9548.656652
4081.178021,0.000000,-0.000000,9474.636058
4081.178336,0.000000,-0.000000,9770.718434
4081.178651,76.609550,-0.000000,9696.697840
4081.178966,76.609550,222.061783,9696.697840
4081.179282,229.828649,-0.000000,9992.780217
4081.179597,0.000000,-0.000000,9844.739029
4081.179912,229.828649,-0.000000,9178.553681
4081.180227,612.876398,444.123565,9844.739029
4081.180542,153.219100,370.102971,9918.759623
4081.180857,76.609550,370.102971,9622.677246
4081.181172,153.219100,148.041188,9770.718434
4081.181488,383.047749,222.061783,9696.697840
4081.181803,306.438199,518.144159,9992.780217
4081.182118,306.438199,296.082377,9770.718434
4081.182433,153.219100,444.123565,9844.739029
4081.182748,306.438199,518.144159,9992.780217
4081.183063,306.438199,222.061783,9474.636058
4081.183379,612.876398,296.082377,9992.780217
4081.183694,689.485948,444.123565,9992.780217
4081.184009,229.828649,518.144159,9622.677246
4081.184324,306.438199,740.205942,9696.697840
4081.184639,459.657299,444.123565,9770.718434
4081.184954,612.876398,370.102971,10066.800811
4081.185270,306.438199,370.102971,9474.636058
4081.185585,153.219100,592.164754,9474.636058
4081.185900,306.438199,296.082377,9844.739029
4081.186215,153.219100,666.185348,9474.636058
4081.186530,0.000000,444.123565,9622.677246
4081.186845,153.219100,518.144159,9696.697840
4081.187161,0.000000,518.144159,9622.677246
4081.187476,76.609550,370.102971,9326.594869
4081.187791,459.657299,592.164754,9548.656652
4081.188106,0.000000,222.061783,9622.677246
4081.188421,76.609550,370.102971,9770.718434
4081.188736,-229.828649,444.123565,9622.677246
4081.189052,0.000000,296.082377,9770.718434
4081.189367,-459.657299,370.102971,9844.739029
4081.189682,153.219100,444.123565,9252.574275
4081.189997,-229.828649,-0.000000,9474.636058
4081.190312,0.000000,-0.000000,9696.697840
4081.190627,0.000000,-0.000000,9400.615463
4081.190943,-153.219100,370.102971,9844.739029
4081.191258,0.000000,-0.000000,10066.800811
4081.191573,0.000000,-0.000000,9400.615463
4081.191888,0.000000,-296.082377,9400.615463
4081.192203,229.828649,-370.102971,9474.636058
4081.192518,306.438199,-74.020594,9474.636058
4081.192834,306.438199,-0.000000,9918.759623
4081.193149,76.609550,-148.041188,9548.656652
4081.193464,229.828649,-0.000000,9770.718434
4081.193779,229.828649,-370.102971,9252.574275
4081.194094,229.828649,-666.185348,9622.677246
4081.194409,153.219100,-148.041188,9548.656652
4081.194724,306.438199,-296.082377,9252.574275
4081.195040,536.266849,-74.020594,9474.636058
4081.195355,306.438199,-222.061783,9622.677246
4081.195670,689.485948,-148.041188,9474.636058
4081.195985,153.219100,-444.123565,9400.615463
4081.196300,0.000000,-0.000000,9474.636058
4081.196615,76.609550,-148.041188,9474.636058
4081.196931,229.828649,-0.000000,9474.636058
4081.197246,842.705048,-0.000000,9474.636058
4081.197561,76.609550,-74.020594,9474.636058
4081.197876,0.000000,-0.000000,9178.553681
4081.198191,0.000000,-0.000000,9252.574275
4081.198506,0.000000,-0.000000,9474.636058
4081.198822,0.000000,-148.041188,9474.636058
4081.199137,0.000000,-0.000000,9474.636058
4081.199452,0.000000,-0.000000,8882.471304
4081.199767,-153.219100,-74.020594,9548.656652
4081.200082,0.000000,-0.000000,9548.656652
4081.200397,0.000000,-0.000000,9474.636058
4081.200713,0.000000,-0.000000,9400.615463
4081.201028,76.609550,-0.000000,9252.574275
4081.201343,0.000000,-0.000000,9326.594869
4081.201658,76.609550,222.061783,9548.656652
4081.201973,-306.438199,222.061783,9918.759623
4081.202288,-229.828649,-74.020594,9104.533087
4081.202604,-306.438199,222.061783,9474.636058
4081.202919,153.219100,-0.000000,9474.636058
4081.203234,0.000000,-0.000000,9770.718434
4081.203549,0.000000,296.082377,9252.574275
4081.203864,383.047749,444.123565,9622.677246
4081.204179,306.438199,444.123565,9992.780217
4081.204495,153.219100,-0.000000,9548.656652
4081.204810,0.000000,-74.020594,9918.759623
4081.205125,-306.438199,370.102971,10066.800811
4081.205440,76.609550,296.082377,9844.739029
4081.205755,0.000000,370.102971,9696.697840
4081.206070,536.266849,444.123565,9918.759623
4081.206386,76.609550,222.061783,10140.821405
4081.206701,76.609550,-0.000000,9474.636058
4081.207016,76.609550,296.082377,9622.677246
4081.207331,229.828649,296.082377,9844.739029
4081.207646,76.609550,296.082377,9844.739029
4081.207961,0.000000,296.082377,9992.780217
4081.208276,0.000000,370.102971,10066.800811
4081.208592,0.000000,296.082377,9474.636058
4081.208907,76.609550,444.123565,9918.759623
4081.209222,153.219100,518.144159,9918.759623
4081.209537,76.609550,222.061783,9992.780217
4081.209852,0.000000,296.082377,9400.615463
4081.210167,76.609550,296.082377,9622.677246
4081.210483,76.609550,518.144159,9918.759623
4081.210798,0.000000,-0.000000,9474.636058
4081.211113,0.000000,518.144159,9622.677246
4081.211428,0.000000,518.144159,9400.615463
4081.211743,153.219100,592.164754,9474.636058
4081.212058,229.828649,296.082377,9326.594869
4081.212374,0.000000,222.061783,9474.636058
4081.212689,76.609550,370.102971,9474.636058
4081.213004,-229.828649,-222.061783,9474.636058
4081.213319,76.609550,370.102971,9178.553681
4081.213634,0.000000,-0.000000,9326.594869
4081.213949,229.828649,-0.000000,9474.636058
4081.214265,0.000000,-0.000000,9326.594869
4081.214580,153.219100,-370.102971,9400.615463
4081.214895,76.609550,74.020594,9918.759623
4081.215210,0.000000,-74.020594,9326.594869
4081.215525,153.219100,-296.082377,9474.636058
4081.215840,0.000000,-0.000000,9770.718434
4081.216156,153.219100,-222.061783,9474.636058
4081.216471,153.219100,-0.000000,9548.656652
4081.216786,0.000000,-148.041188,9474.636058
4081.217101,0.000000,-74.020594,9770.718434
4081.217416,76.609550,-0.000000,9622.677246
4081.217731,0.000000,-74.020594,9622.677246
4081.218047,689.485948,-0.000000,9474.636058
4081.218362,153.219100,-148.041188,9474.636058
4081.218677,229.828649,-0.000000,9548.656652
4081.218992,229.828649,-0.000000,9622.677246
4081.219307,76.609550,-0.000000,9992.780217
4081.219622,153.219100,-0.000000,9474.636058
4081.219938,76.609550,-0.000000,9326.594869
4081.220253,0.000000,296.082377,9918.759623
4081.220568,-153.219100,148.041188,9696.697840
4081.220883,229.828649,-0.000000,9844.739029
4081.221198,76.609550,-0.000000,9696.697840
4081.221513,0.000000,-0.000000,9326.594869
4081.221828,0.000000,-0.000000,9548.656652
4081.222144,0.000000,370.102971,9474.636058
4081.222459,536.266849,296.082377,9548.656652
4081.222774,0.000000,-74.020594,9326.594869
4081.223089,0.000000,296.082377,9400.615463
4081.223404,0.000000,222.061783,9474.636058
4081.223719,0.000000,296.082377,9104.533087
4081.224035,0.000000,444.123565,9400.615463
4081.224350,153.219100,-0.000000,9252.574275
4081.224665,0.000000,222.061783,9252.574275
4081.224980,383.047749,518.144159,9474.636058
4081.225295,153.219100,518.144159,9326.594869
4081.225610,612.876398,296.082377,9696.697840
4081.225926,306.438199,222.061783,9474.636058
4081.226241,0.000000,-0.000000,9622.677246
4081.226556,0.000000,444.123565,9844.739029
4081.226871,0.000000,444.123565,9844.739029
4081.227186,612.876398,222.061783,9400.615463
4081.227501,76.609550,-0.000000,9622.677246
4081.227817,229.828649,666.185348,9918.759623
4081.228132,153.219100,370.102971,9770.718434
4081.228447,229.828649,444.123565,9696.697840
4081.228762,459.657299,-0.000000,9844.739029
4081.229077,153.219100,222.061783,9548.656652
4081.229392,76.609550,666.185348,9844.739029
4081.229708,0.000000,-0.000000,9696.697840
4081.230023,0.000000,222.061783,9992.780217
4081.230338,306.438199,-0.000000,9992.780217
4081.230653,0.000000,222.061783,10066.800811
4081.230968,0.000000,444.123565,10140.821405
4081.231283,76.609550,296.082377,9770.718434
4081.231599,76.609550,148.041188,9992.780217
4081.231914,0.000000,148.041188,9696.697840
4081.232229,229.828649,370.102971,9622.677246
4081.232544,0.000000,444.123565,9696.697840
4081.232859,0.000000,222.061783,9622.677246
4081.233174,76.609550,518.144159,9770.718434
4081.233489,-229.828649,-74.020594,9474.636058
4081.233805,0.000000,148.041188,9770.718434
4081.234120,0.000000,296.082377,9548.656652
4081.234435,0.000000,296.082377,9548.656652
4081.234750,229.828649,-0.000000,9178.553681
4081.235065,0.000000,-148.041188,9400.615463
4081.235380,76.609550,-0.000000,9696.697840
4081.235696,229.828649,-0.000000,9326.594869
4081.236011,76.609550,-0.000000,9474.636058
4081.236326,536.266849,-74.020594,9400.615463
4081.236641,383.047749,-222.061783,9474.636058
4081.236956,0.000000,-148.041188,9400.615463
4081.237271,306.438199,-0.000000,9326.594869
4081.237587,153.219100,-74.020594,9474.636058
4081.237902,306.438199,-0.000000,9474.636058
4081.238217,153.219100,-0.000000,9474.636058
4081.238532,76.609550,-0.000000,9474.636058
4081.238847,229.828649,-74.020594,9622.677246
4081.239162,76.609550,-0.000000,9474.636058
4081.239478,0.000000,-222.061783,9326.594869
4081.239793,459.657299,-74.020594,9770.718434
4081.240108,0.000000,-74.020594,9844.739029
4081.240423,0.000000,-0.000000,9622.677246
4081.240738,76.609550,-0.000000,9696.697840
4081.241053,229.828649,-148.041188,9474.636058
4081.241369,76.609550,-0.000000,9548.656652
4081.241684,153.219100,-0.000000,9770.718434
4081.241999,0.000000,-0.000000,9770.718434
4081.242314,0.000000,-0.000000,9844.739029
4081.242629,76.609550,-0.000000,9844.739029
4081.242944,0.000000,-0.000000,9918.759623
4081.243260,0.000000,-74.020594,9770.718434
4081.243575,0.000000,-0.000000,9770.718434
4081.243890,0.000000,-0.000000,9548.656652
4081.244205,536.266849,-0.000000,9474.636058
4081.244520,0.000000,-74.020594,9548.656652
4081.244835,0.000000,222.061783,9622.677246
4081.245151,0.000000,-0.000000,9326.594869
4081.245466,76.609550,222.061783,9474.636058
4081.245781,459.657299,-0.000000,9474.636058
4081.246096,536.266849,-0.000000,9400.615463
4081.246411,76.609550,-0.000000,9474.636058
4081.246726,229.828649,444.123565,9474.636058
4081.247041,76.609550,296.082377,9400.615463
4081.247357,153.219100,-0.000000,9474.636058
4081.247672,229.828649,-0.000000,9474.636058
4081.247987,0.000000,222.061783,9474.636058
4081.248302,0.000000,-0.000000,9474.636058
4081.248617,689.485948,148.041188,9474.636058
4081.248932,306.438199,-0.000000,9474.636058
4081.249248,76.609550,518.144159,9918.759623
4081.249563,153.219100,370.102971,9770.718434
4081.249878,153.219100,370.102971,9400.615463
4081.250193,459.657299,518.144159,9400.615463
4081.250508,153.219100,148.041188,9548.656652
4081.250823,153.219100,296.082377,9622.677246
4081.251139,0.000000,296.082377,9474.636058
4081.251454,-153.219100,370.102971,9622.677246
4081.251769,0.000000,370.102971,9474.636058
4081.252084,-153.219100,518.144159,9770.718434
4081.252399,153.219100,666.185348,9770.718434
4081.252714,-229.828649,148.041188,9844.739029
4081.253030,0.000000,296.082377,9844.739029
4081.253345,459.657299,222.061783,9844.739029
4081.253660,0.000000,370.102971,9696.697840
4081.253975,0.000000,370.102971,9696.697840
4081.254290,0.000000,-0.000000,9548.656652
4081.254605,0.000000,296.082377,9474.636058
4081.254921,76.609550,-0.000000,9622.677246
4081.255236,0.000000,-0.000000,9622.677246
4081.255551,-459.657299,74.020594,9474.636058
4081.255866,-153.219100,-0.000000,9770.718434
4081.256181,76.609550,-0.000000,9474.636058
4081.256496,0.000000,-0.000000,9770.718434
4081.256812,0.000000,148.041188,9474.636058
4081.257127,0.000000,-0.000000,9474.636058
4081.257442,229.828649,-0.000000,9400.615463
4081.257757,612.876398,296.082377,9252.574275
4081.258072,306.438199,-0.000000,9696.697840
4081.258387,76.609550,-0.000000,9326.594869
4081.258703,0.000000,-222.061783,9400.615463
4081.259018,0.000000,-0.000000,9252.574275
4081.259333,153.219100,296.082377,9696.697840
4081.259648,153.219100,-0.000000,9474.636058
4081.259963,306.438199,-0.000000,9548.656652
4081.260278,76.609550,-0.000000,9696.697840
4081.260594,76.609550,-0.000000,9474.636058
4081.260909,153.219100,-0.000000,9696.697840
4081.261224,306.438199,-0.000000,9252.574275
4081.261539,0.000000,-0.000000,9696.697840
4081.261855,-229.828649,-0.000000,9696.697840
4081.262170,0.000000,-0.000000,9474.636058
4081.262485,0.000000,-0.000000,9474.636058
4081.262800,153.219100,222.061783,9622.677246
4081.263116,0.000000,222.061783,9548.656652
4081.263431,0.000000,-0.000000,9548.656652
4081.263746,229.828649,-148.041188,9252.574275
4081.264061,0.000000,518.144159,9622.677246
4081.264377,0.000000,-0.000000,9622.677246
4081.264692,-306.438199,-0.000000,9474.636058
4081.265007,0.000000,-0.000000,9696.697840
4081.265322,0.000000,-0.000000,9400.615463
4081.265638,0.000000,-0.000000,9696.697840
4081.265953,229.828649,-0.000000,9474.636058
4081.266268,153.219100,296.082377,9696.697840
4081.266583,0.000000,222.061783,9622.677246
4081.266899,229.828649,370.102971,9918.759623
4081.267214,0.000000,222.061783,9474.636058
4081.267529,0.000000,222.061783,9474.636058
4081.267844,0.000000,222.061783,9474.636058
4081.268160,0.000000,370.102971,9474.636058
4081.268475,612.876398,296.082377,9622.677246
4081.268790,153.219100,-74.020594,9622.677246
4081.269105,0.000000,-0.000000,9548.656652
4081.269421,0.000000,222.061783,9400.615463
4081.269736,76.609550,296.082377,9696.697840
4081.270051,229.828649,-0.000000,10140.821405
4081.270366,153.219100,-0.000000,9696.697840
4081.270682,76.609550,518.144159,9622.677246
4081.270997,-229.828649,370.102971,9696.697840
4081.271312,153.219100,370.102971,9622.677246
4081.271627,306.438199,518.144159,9474.636058
4081.271943,0.000000,814.226536,9326.594869
4081.272258,-612.876398,148.041188,9844.739029
4081.272573,-842.705048,444.123565,10066.800811
4081.272888,-306.438199,592.164754,9992.780217
4081.273204,-383.047749,296.082377,9844.739029
4081.273519,-536.266849,592.164754,10140.821405
4081.273834,-536.266849,592.164754,9770.718434
4081.274149,-459.657299,370.102971,10140.821405
4081.274465,-306.438199,518.144159,9844.739029
4081.274780,-383.047749,740.205942,9326.594869
4081.275095,-536.266849,962.267725,9252.574275
4081.275410,-612.876398,1036.288319,9252.574275
4081.275726,-689.485948,1258.350101,9104.533087
4081.276041,-842.705048,666.185348,9326.594869
4081.276356,-1532.190996,814.226536,9252.574275
4081.276671,-1685.410096,666.185348,9474.636058
4081.276987,-1991.848295,814.226536,9696.697840
4081.277302,-2145.067394,296.082377,10066.800811
4081.277617,-1915.238745,444.123565,10066.800811
4081.277932,-2374.896044,444.123565,10140.821405
4081.278248,-2068.457845,666.185348,9770.718434
4081.278563,-1762.019645,1480.411884,9548.656652
4081.278878,-1378.971896,1850.514855,9030.512492
4081.279193,-1302.362347,1776.494261,8882.471304
4081.279508,-1455.581446,2220.617826,8660.409521
4081.279824,-1608.800546,2368.659014,8734.430116
4081.280139,-2068.457845,2072.576638,8956.491898
4081.280454,-2451.505594,1776.494261,9400.615463
4081.280769,-2451.505594,1628.453072,9622.677246
4081.281085,-2987.772442,1036.288319,9992.780217
4081.281400,-2987.772442,1110.308913,9770.718434
4081.281715,-3294.210641,1184.329507,10362.883188
4081.282030,-2681.334243,1332.370696,10066.800811
4081.282346,-2987.772442,1850.514855,9326.594869
4081.282661,-2528.115143,2220.617826,9252.574275
4081.282976,-2451.505594,2812.782580,9178.553681
4081.283291,-2374.896044,3256.906145,8882.471304
4081.283607,-2604.724693,3775.050304,8808.450710
4081.283922,-2604.724693,3849.070898,8808.450710
4081.284237,-2834.553343,3701.029710,9178.553681
4081.284552,-2911.162892,3775.050304,9178.553681
4081.284868,-2911.162892,3404.947333,9844.739029
4081.285183,-2987.772442,2886.803174,10066.800811
4081.285498,-3677.258390,3330.926739,10288.862594
4081.285813,-3447.429741,3478.967927,10436.903782
4081.286129,-3447.429741,4145.153275,10288.862594
4081.286444,-2757.943793,4737.318029,9622.677246
4081.286759,-2068.457845,5033.400406,9474.636058
4081.287074,-1072.533697,5625.565159,9104.533087
4081.287390,-1149.143247,6365.771101,8882.471304
4081.287705,-1149.143247,6661.853478,8882.471304
4081.288020,-1378.971896,6143.709319,9400.615463
4081.288335,-995.924147,5773.606348,9622.677246
4081.288651,-689.485948,5477.523971,10362.883188
4081.288966,-842.705048,5033.400406,10658.965565
4081.289281,-842.705048,4885.359217,11177.109724
4081.289596,-842.705048,4737.318029,10584.944971
4081.289912,0.000000,5625.565159,9992.780217
4081.290227,0.000000,5551.544565,10362.883188
4081.290542,-766.095498,5551.544565,9474.636058
4081.290857,-919.314598,5699.585753,8956.491898
4081.291173,-1532.190996,5551.544565,9326.594869
4081.291488,-2221.676944,4885.359217,9548.656652
4081.291803,-2451.505594,4293.194464,10584.944971
4081.292118,-3064.381992,3627.009116,11177.109724
4081.292434,-3447.429741,2368.659014,12139.377449
4081.292749,-2911.162892,2072.576638,12731.542202
4081.293064,-2604.724693,2368.659014,12731.542202
4081.293379,-2068.457845,1406.391290,12509.480420
4081.293695,-1455.581446,1258.350101,12213.398043
4081.294010,-383.047749,1480.411884,11251.130318
4081.294325,766.095498,1998.556043,9622.677246
4081.294640,1302.362347,1776.494261,8882.471304
4081.294956,766.095498,2146.597232,7994.224174
4081.295271,383.047749,1480.411884,7994.224174
4081.295586,-306.438199,1036.288319,7698.141797
4081.295901,-1149.143247,444.123565,7476.080014
4081.296217,-2221.676944,-222.061783,8216.285956
4081.296532,-3524.039291,-1480.411884,9252.574275
4081.296847,-4673.182538,-2442.679609,10436.903782
4081.297162,-4290.134789,-3404.947333,11177.109724
4081.297478,-4136.915689,-3108.864956,10510.924376
4081.297793,-3907.087040,-2812.782580,11695.253884
4081.298108,-2528.115143,-2368.659014,11621.233289
4081.298423,-1302.362347,-2146.597232,10732.986159
4081.298739,536.266849,-666.185348,10066.800811
4081.299054,2298.286494,962.267725,8660.409521
4081.299369,2834.553343,2812.782580,7328.038826
4081.299684,3217.601092,3849.070898,6143.709319
4081.300000,2604.724693,3404.947333,5181.441594
4081.300315,1378.971896,2590.720797,5255.462188
4081.300630,0.000000,1480.411884,5477.523971
4081.300945,-2145.067394,-1110.308913,7402.059420
4081.301261,-3753.867940,-4071.132681,10140.821405
4081.301576,-5132.839837,-5329.482782,10807.006753
4081.301891,-5669.106685,-6365.771101,11103.089130
4081.302206,-5822.325785,-6661.853478,12657.521608
4081.302522,-4213.525239,-5921.647536,13397.727550
4081.302837,-1302.362347,-3404.947333,11251.130318
4081.303152,1225.752797,-1110.308913,9104.533087
4081.303467,2911.162892,1702.473667,7254.018232
4081.303783,3677.258390,4737.318029,4959.379811
4081.304098,4290.134789,5847.626942,3478.967927
4081.304413,3524.039291,5329.482782,3627.009116
4081.304728,1991.848295,4663.297435,4145.153275
4081.305044,-383.047749,2220.617826,7328.038826
4081.305359,-2374.896044,-2368.659014,10510.924376
4081.305674,-3753.867940,-4811.338623,11991.336260
4081.305989,-5975.544884,-7105.977043,14063.912898
4081.306305,-6052.154434,-8216.285956,17172.777854
4081.306620,-4749.792088,-8216.285956,15322.262999
4081.306935,-2757.943793,-4441.235652,12435.459826
4081.307250,-153.219100,-296.082377,11029.068536
4081.307565,1991.848295,3182.885551,7254.018232
4081.307881,2987.772442,7031.956449,3923.091493
4081.308196,4826.401637,9326.594869,1998.556043
4081.308511,2834.553343,9326.594869,2146.597232
4081.308826,995.924147,6439.791695,5329.482782
4081.309142,153.219100,3404.947333,8956.491898
4081.309457,-1685.410096,-1998.556043,11917.315666
4081.309772,-3447.429741,-3849.070898,15618.345376
4081.310087,-3830.477490,-5477.523971,17764.942608
4081.310403,-2834.553343,-5773.606348,16876.695478
4081.310718,-1838.629195,-3182.885551,14211.954086
4081.311033,-842.705048,1998.556043,11029.068536
4081.311348,919.314598,5773.606348,8142.265362
4081.311664,2757.943793,9178.553681,4441.235652
4081.311979,3140.991542,10510.924376,2590.720797
4081.312294,2374.896044,9770.718434,3404.947333
4081.312609,-153.219100,5921.647536,7772.162391
4081.312925,-612.876398,2664.741391,12139.377449
4081.313240,-1608.800546,-888.247130,14804.118840
4081.313555,-2068.457845,-3182.885551,17172.777854
4081.313870,-536.266849,-3627.009116,19023.292709
4081.314186,766.095498,-3404.947333,16358.551318
4081.314501,1532.190996,-296.082377,11843.295072
4081.314816,2604.724693,2738.761985,10955.047942
4081.315131,4596.572988,6883.915261,6513.812290
4081.315447,5286.058936,7994.224174,2590.720797
4081.315762,4673.182538,8882.471304,1924.535449
4081.316077,2068.457845,6587.832884,4145.153275
4081.316392,-842.705048,2516.700203,7994.224174
4081.316708,-2221.676944,-2442.679609,11547.212695
4081.317023,-3677.258390,-5773.606348,13915.871710
4081.317338,-3600.648841,-6957.935855,16580.613101
4081.317653,-1915.238745,-7179.997637,16728.654289
4081.317969,0.000000,-7402.059420,14656.077652
4081.318284,1149.143247,-4515.256246,12731.542202
4081.318599,3140.991542,740.205942,9696.697840
4081.318914,4903.011187,5255.462188,4663.297435
4081.319230,5592.497135,9474.636058,1776.494261
4081.319545,4749.792088,8808.450710,666.185348
4081.319860,2145.067394,4145.153275,3330.926739
4081.320175,1378.971896,-296.082377,7550.100608
4081.320491,-1685.410096,-3108.864956,9474.636058
4081.320806,-3983.696590,-7105.977043,10732.986159
4081.321121,-4903.011187,-9992.780217,16654.633695
4081.321436,-3294.210641,-10881.027347,17246.798449
4081.321752,-2451.505594,-9400.615463,14952.160028
4081.322067,0.000000,-6291.750507,10584.944971
4081.322382,1915.238745,-0.000000,7402.059420
4081.322697,2604.724693,4737.318029,3627.009116
4081.323013,3140.991542,7254.018232,2220.617826
4081.323328,2987.772442,6587.832884,1998.556043
4081.323643,2374.896044,3701.029710,5255.462188
4081.323958,842.705048,2294.638420,6735.874072
4081.324274,-1455.581446,-1258.350101,8808.450710
4081.324589,-3447.429741,-4145.153275,11695.253884
4081.324904,-3447.429741,-6069.688724,15470.304188
4081.325219,-2145.067394,-7846.182985,15766.386565
4081.325535,-383.047749,-6365.771101,14582.057057
4081.325850,-229.828649,-4071.132681,12953.603985
4081.326165,306.438199,1406.391290,8216.285956
4081.326480,153.219100,3330.926739,6809.894666
4081.326796,76.609550,4441.235652,4441.235652
4081.327111,0.000000,3552.988522,3997.112087
4081.327426,0.000000,2516.700203,6291.750507
4081.327741,-1532.190996,592.164754,7031.956449
4081.328057,-2451.505594,-3034.844362,9104.533087
4081.328372,-2451.505594,-4885.359217,15026.180623
4081.328687,-1915.238745,-4293.194464,14063.912898
4081.329002,-612.876398,-3849.070898,14434.015869
4081.329318,1225.752797,-2738.761985,11547.212695
4081.329633,689.485948,-2960.823768,13693.809927
4081.329948,2681.334243,1184.329507,9548.656652
4081.330263,995.924147,2960.823768,7179.997637
4081.330579,383.047749,4071.132681,5995.668130
4081.330894,0.000000,3627.009116,6513.812290
4081.331209,-1455.581446,2738.761985,7402.059420
4081.331524,-1608.800546,-1110.308913,8216.285956
4081.331840,-2145.067394,-4219.173869,12213.398043
4081.332155,-1455.581446,-4589.276840,14582.057057
4081.332470,-612.876398,-3627.009116,12509.480420
4081.332785,229.828649,-2368.659014,11843.295072
4081.333101,1838.629195,-592.164754,11325.150913
4081.333416,2681.334243,370.102971,11621.233289
4081.333731,4366.744339,3256.906145,7402.059420
4081.334046,2987.772442,5699.585753,6587.832884
4081.334362,1991.848295,6365.771101,6291.750507
4081.334677,1072.533697,5181.441594,5773.606348
4081.334992,76.609550,2368.659014,6661.853478
4081.335307,-689.485948,-1480.411884,9400.615463
4081.335623,-1149.143247,-3034.844362,13915.871710
4081.335938,-1149.143247,-2738.761985,13027.624579
4081.336253,-766.095498,-1850.514855,11621.233289
4081.336568,383.047749,-74.020594,9622.677246
4081.336883,1302.362347,1332.370696,9918.759623
4081.337199,1378.971896,2368.659014,10510.924376
4081.337514,2221.676944,4219.173869,7698.141797
4081.337829,2145.067394,5699.585753,7402.059420
4081.338144,842.705048,4515.256246,7476.080014
4081.338460,153.219100,4145.153275,6735.874072
4081.338775,-229.828649,1554.432478,7920.203579
4081.339090,-842.705048,222.061783,11029.068536
4081.339405,-229.828649,296.082377,9918.759623
4081.339721,0.000000,-222.061783,10362.883188
4081.340036,842.705048,-444.123565,10140.821405
4081.340351,459.657299,-0.000000,10955.047942
4081.340666,-153.219100,-0.000000,10955.047942
4081.340982,-1225.752797,740.205942,9326.594869
4081.341297,-1302.362347,2220.617826,9474.636058
4081.341612,-1149.143247,1776.494261,9474.636058
4081.341927,-1149.143247,1702.473667,8364.327145
4081.342243,-1072.533697,592.164754,8216.285956
4081.342558,-612.876398,592.164754,10584.944971
4081.342873,0.000000,-296.082377,8882.471304
4081.343188,1149.143247,-370.102971,9104.533087
4081.343504,2068.457845,888.247130,10362.883188
4081.343819,1608.800546,962.267725,10362.883188
4081.344134,306.438199,888.247130,9474.636058
4081.344449,-153.219100,-0.000000,9696.697840
4081.344765,-1378.971896,-0.000000,10066.800811
4081.345080,-1915.238745,-444.123565,11695.253884
4081.345395,-2451.505594,-1184.329507,10658.965565
4081.345710,-2145.067394,-1554.432478,10658.965565
4081.346026,-1149.143247,-1702.473667,11917.315666
4081.346341,-536.266849,-1480.411884,10510.924376
4081.346656,919.314598,-592.164754,8956.491898
4081.346971,1838.629195,888.247130,7920.203579
4081.347287,2145.067394,1924.535449,8882.471304
4081.347602,2145.067394,2146.597232,8068.244768
4081.347917,1072.533697,1702.473667,8364.327145
4081.348232,383.047749,296.082377,8808.450710
4081.348548,-1225.752797,-1036.288319,10732.986159
4081.348863,-2221.676944,-2220.617826,11917.315666
4081.349178,-2068.457845,-3701.029710,11695.253884
4081.349493,-1762.019645,-3701.029710,11547.212695
4081.349809,-459.657299,-2812.782580,10881.027347
4081.350124,536.266849,-2072.576638,8808.450710
4081.350439,1685.410096,-666.185348,7402.059420
4081.350754,2528.115143,1110.308913,7920.203579
4081.351070,2681.334243,2294.638420,6069.688724
4081.351385,1762.019645,2442.679609,6513.812290
4081.351700,1072.533697,888.247130,7328.038826
4081.352015,0.000000,-2368.659014,10214.842000
4081.352331,-1455.581446,-2886.803174,11547.212695
4081.352646,-1455.581446,-4219.173869,11843.295072
4081.352961,-1072.533697,-4145.153275,12065.356855
4081.353276,306.438199,-3330.926739,11769.274478
4081.353592,919.314598,-1702.473667,9844.739029
4081.353907,1915.238745,-1110.308913,7105.977043
4081.354222,2528.115143,1184.329507,7031.956449
4081.354537,2681.334243,2738.761985,5699.585753
4081.354853,1608.800546,2442.679609,5477.523971
4081.355168,1149.143247,2146.597232,6883.915261
4081.355483,-459.657299,-518.144159,9474.636058
4081.355798,-1532.190996,-2220.617826,11251.130318
4081.356114,-2221.676944,-3404.947333,12361.439231
4081.356429,-2221.676944,-3404.947333,13619.789333
4081.356744,-1608.800546,-3182.885551,13619.789333
4081.357059,76.609550,-2146.597232,11103.089130
4081.357375,1532.190996,-0.000000,9030.512492
4081.357690,2374.896044,2294.638420,7105.977043
4081.358005,2528.115143,3701.029710,6291.750507
4081.358320,1915.238745,4811.338623,5329.482782
4081.358636,689.485948,3997.112087,6365.771101
4081.358951,-306.438199,2442.679609,8216.285956
4081.359266,-1378.971896,370.102971,10955.047942
4081.359581,-2145.067394,-1924.535449,11843.295072
4081.359897,-3140.991542,-3627.009116,13915.871710
4081.360212,-2681.334243,-2960.823768,14359.995275
4081.360527,-1225.752797,-1924.535449,12583.501014
4081.360842,229.828649,370.102971,10214.842000
4081.361158,1532.190996,2590.720797,8808.450710
4081.361473,2451.505594,4737.318029,6735.874072
4081.361788,2145.067394,5699.585753,5773.606348
4081.362103,1455.581446,5773.606348,6069.688724
4081.362419,306.438199,4589.276840,7476.080014
4081.362734,-459.657299,2220.617826,10584.944971
4081.363049,-1762.019645,-148.041188,11917.315666
4081.363364,-2681.334243,-2442.679609,13323.706956
4081.363680,-2451.505594,-2738.761985,15914.427753
4081.363995,-1302.362347,-1998.556043,13249.686362
4081.364313,1072.533697,-666.185348,10807.006753
4081.364629,1762.019645,1850.514855,9548.656652
4081.364944,2528.115143,3330.926739,8068.244768
4081.365259,2681.334243,5033.400406,6365.771101
4081.365574,2374.896044,5181.441594,4811.338623
4081.365890,612.876398,4589.276840,7105.977043
4081.366205,0.000000,3108.864956,9178.553681
4081.366520,-1302.362347,518.144159,11177.109724
4081.366836,-2145.067394,-2146.597232,12361.439231
4081.367151,-1762.019645,-3627.009116,13989.892304
4081.367466,-766.095498,-3330.926739,14359.995275
4081.367781,-306.438199,-2294.638420,13323.706956
4081.368097,842.705048,-0.000000,9992.780217
4081.368412,2145.067394,1628.453072,7772.162391
4081.368727,2911.162892,2886.803174,6809.894666
4081.369043,2911.162892,3849.070898,5255.462188
4081.369358,1608.800546,3849.070898,6439.791695
4081.369673,689.485948,2368.659014,7476.080014
4081.369988,-306.438199,296.082377,9252.574275
4081.370304,-1378.971896,-1554.432478,11325.150913
4081.370619,-1455.581446,-3627.009116,11843.295072
4081.370934,-1455.581446,-4515.256246,13101.645173
4081.371250,-383.047749,-4367.215058,13397.727550
4081.371565,306.438199,-2442.679609,10807.006753
4081.371880,1608.800546,-370.102971,7994.224174
4081.372195,1915.238745,1184.329507,6439.791695
4081.372511,1991.848295,3034.844362,6217.729913
4081.372826,1532.190996,3256.906145,6661.853478
4081.373141,536.266849,1258.350101,7031.956449
4081.373457,0.000000,-74.020594,8438.347739
4081.373772,-1225.752797,-1258.350101,10214.842000
4081.374087,-1838.629195,-2294.638420,10288.862594
4081.374402,-2221.676944,-3701.029710,10436.903782
4081.374718,-995.924147,-4663.297435,11695.253884
4081.375033,459.657299,-4071.132681,12065.356855
4081.375348,1685.410096,-2368.659014,9992.780217
4081.375664,2145.067394,814.226536,8142.265362
4081.375979,995.924147,2590.720797,6439.791695
4081.376294,766.095498,2442.679609,5773.606348
4081.376609,0.000000,1480.411884,7624.121203
4081.376925,-536.266849,-814.226536,8808.450710
4081.377240,-1072.533697,-1332.370696,9844.739029
4081.377555,-1915.238745,-2294.638420,10807.006753
4081.377871,-2221.676944,-3108.864956,12139.377449
4081.378186,-1378.971896,-3552.988522,13323.706956
4081.378501,0.000000,-3627.009116,11399.171507
4081.378816,1072.533697,-1480.411884,8956.491898
4081.379132,2221.676944,814.226536,7698.141797
4081.379447,1532.190996,2516.700203,7624.121203
4081.379762,842.705048,3256.906145,7476.080014
4081.380078,459.657299,2368.659014,8586.388927
4081.380393,-689.485948,222.061783,8734.430116
4081.380708,-1378.971896,-1258.350101,10584.944971
4081.381023,-1838.629195,-1406.391290,10732.986159
4081.381339,-2221.676944,-2368.659014,10881.027347
4081.381654,-842.705048,-3034.844362,11991.336260
4081.381969,76.609550,-2368.659014,12657.521608
4081.382285,1455.581446,370.102971,10288.862594
4081.382600,2145.067394,1184.329507,8512.368333
4081.382915,2145.067394,2072.576638,7105.977043
4081.383230,2068.457845,3108.864956,6809.894666
4081.383546,1072.533697,3034.844362,8290.306550
4081.383861,0.000000,1998.556043,8438.347739
4081.384176,-1302.362347,222.061783,10510.924376
4081.384492,-1762.019645,-1480.411884,11103.089130
4081.384807,-1532.190996,-2072.576638,11843.295072
4081.385122,-1072.533697,-1480.411884,10955.047942
4081.385437,0.000000,-1110.308913,9696.697840
4081.385753,995.924147,370.102971,10214.842000
4081.386068,2451.505594,1702.473667,9622.677246
4081.386383,2604.724693,2664.741391,8808.450710
4081.386699,1838.629195,3404.947333,6735.874072
4081.387014,1149.143247,3849.070898,6587.832884
4081.387329,229.828649,3478.967927,8364.327145
4081.387644,-153.219100,1258.350101,9696.697840
4081.387960,-1072.533697,-222.061783,10807.006753
4081.388275,-1685.410096,-2368.659014,12213.398043
4081.388590,-1378.971896,-1850.514855,12287.418637
4081.388906,-459.657299,-1554.432478,12361.439231
4081.389221,689.485948,-222.061783,10807.006753
4081.389536,1762.019645,1850.514855,7994.224174
4081.389851,2451.505594,2886.803174,7550.100608
4081.390167,1838.629195,3627.009116,6735.874072
4081.390482,919.314598,4367.215058,6809.894666
4081.390797,229.828649,2664.741391,9104.533087
4081.391113,-919.314598,1628.453072,9696.697840
4081.391428,-1991.848295,-592.164754,11325.150913
4081.391743,-2145.067394,-1998.556043,12361.439231
4081.392058,-1378.971896,-1998.556043,12361.439231
4081.392374,-1149.143247,-2220.617826,11695.253884
4081.392689,153.219100,-1332.370696,11547.212695
4081.393004,1149.143247,1554.432478,9030.512492
4081.393320,1838.629195,2146.597232,7328.038826
4081.393635,1302.362347,2812.782580,6365.771101
4081.393950,1072.533697,3108.864956,6957.935855
4081.394265,0.000000,2516.700203,8364.327145
4081.394581,-1225.752797,740.205942,9474.636058
4081.394896,-2221.676944,-1406.391290,11029.068536
4081.395211,-2068.457845,-2812.782580,11917.315666
4081.395527,-2068.457845,-2960.823768,12361.439231
4081.395842,-1072.533697,-3034.844362,11769.274478
4081.396157,229.828649,-2294.638420,11621.233289
4081.396472,1532.190996,592.164754,9326.594869
4081.396788,2911.162892,2220.617826,7402.059420
4081.397103,2374.896044,3256.906145,6439.791695
4081.397418,1762.019645,3701.029710,6291.750507
4081.397734,306.438199,2442.679609,7772.162391
4081.398049,-383.047749,-0.000000,9104.533087
4081.398364,-2068.457845,-1184.329507,10807.006753
4081.398679,-2221.676944,-3108.864956,11843.295072
4081.398995,-1915.238745,-4071.132681,13249.686362
4081.399310,-1225.752797,-3330.926739,12805.562797
4081.399625,229.828649,-2072.576638,10955.047942
4081.399941,1225.752797,-0.000000,8364.327145
4081.400256,2145.067394,888.247130,9104.533087
4081.400571,2911.162892,2886.803174,8216.285956
4081.400886,2681.334243,2516.700203,6439.791695
4081.401202,1685.410096,2886.803174,6143.709319
4081.401517,612.876398,1406.391290,8438.347739
4081.401832,-842.705048,-370.102971,9622.677246
4081.402148,-1532.190996,-2738.761985,11103.089130
4081.402463,-1455.581446,-3923.091493,12509.480420
4081.402778,-1072.533697,-3923.091493,13619.789333
4081.403093,536.266849,-2664.741391,11251.130318
4081.403409,1149.143247,-1776.494261,9622.677246
4081.403724,1991.848295,-0.000000,8734.430116
4081.404039,2451.505594,1332.370696,8364.327145
4081.404355,1838.629195,3330.926739,6513.812290
4081.404670,1378.971896,2146.597232,6809.894666
4081.404985,1072.533697,1036.288319,8512.368333
4081.405300,-459.657299,-444.123565,9622.677246
4081.405616,-1302.362347,-1776.494261,11029.068536
4081.405931,-1915.238745,-2590.720797,11695.253884
4081.406246,-1838.629195,-2960.823768,13841.851115
4081.406562,306.438199,-2886.803174,12065.356855
4081.406877,1225.752797,-1998.556043,9770.718434
4081.407192,2451.505594,-740.205942,7994.224174
4081.407507,2298.286494,1406.391290,8216.285956
4081.407823,2068.457845,3256.906145,7105.977043
4081.408138,842.705048,2886.803174,5995.668130
4081.408453,0.000000,1628.453072,7402.059420
4081.408769,-612.876398,296.082377,9474.636058
4081.409084,-1685.410096,-888.247130,10658.965565
4081.409399,-2068.457845,-1998.556043,10510.924376
4081.409714,-2145.067394,-2812.782580,12139.377449
4081.410030,-1302.362347,-3034.844362,12805.562797
4081.410345,0.000000,-2294.638420,11621.233289
4081.410660,1149.143247,370.102971,9474.636058
4081.410976,2221.676944,2146.597232,7254.018232
4081.411291,1915.238745,3849.070898,6143.709319
4081.411606,1072.533697,4737.318029,6439.791695
4081.411921,0.000000,3923.091493,7624.121203
4081.412237,-536.266849,1776.494261,9474.636058
4081.412552,-1378.971896,-0.000000,10140.821405
4081.412867,-2451.505594,-2220.617826,11325.150913
4081.413183,-2604.724693,-2442.679609,12287.418637
4081.413498,-2068.457845,-2516.700203,12435.459826
4081.413813,-1225.752797,-2146.597232,12435.459826
4081.414128,995.924147,888.247130,10066.800811
4081.414444,1838.629195,2590.720797,8586.388927
4081.414759,1838.629195,3182.885551,6883.915261
4081.415074,1685.410096,4737.318029,6735.874072
4081.415390,536.266849,4071.132681,7846.182985
4081.415705,0.000000,3182.885551,9178.553681
4081.416020,-689.485948,1480.411884,10881.027347
4081.416335,-1762.019645,-1036.288319,11695.253884
4081.416651,-2451.505594,-1998.556043,13101.645173
4081.416966,-1225.752797,-2072.576638,11251.130318
4081.417281,0.000000,-2368.659014,11029.068536
4081.417597,1072.533697,222.061783,10584.944971
4081.417912,2145.067394,2146.597232,9622.677246
4081.418227,2221.676944,2960.823768,7920.203579
4081.418542,2068.457845,2960.823768,5921.647536
4081.418858,1149.143247,3330.926739,6883.915261
4081.419173,306.438199,2146.597232,8956.491898
4081.419488,-842.705048,296.082377,9696.697840
4081.419804,-1762.019645,-1406.391290,11843.295072
4081.420119,-1532.190996,-2812.782580,12731.542202
4081.420434,-459.657299,-3034.844362,12583.501014
4081.420749,153.219100,-1998.556043,12805.562797
4081.421065,1225.752797,-740.205942,10362.883188
4081.421380,2068.457845,1258.350101,7624.121203
4081.421695,2681.334243,1924.535449,7772.162391
4081.422011,2528.115143,3034.844362,6365.771101
4081.422326,1915.238745,3034.844362,7105.977043
4081.422641,306.438199,2146.597232,8808.450710
4081.422956,-1302.362347,-296.082377,9548.656652
4081.423272,-1608.800546,-1998.556043,11103.089130
4081.423587,-1838.629195,-3108.864956,11991.336260
4081.423902,-1608.800546,-3627.009116,11843.295072
4081.424218,-1225.752797,-3256.906145,13249.686362
4081.424533,459.657299,-2368.659014,10881.027347
4081.424848,1302.362347,-74.020594,7772.162391
4081.425163,2374.896044,1480.411884,6217.729913
4081.425479,2068.457845,2368.659014,6365.771101
4081.425794,995.924147,2886.803174,6143.709319
4081.426109,0.000000,1702.473667,7920.203579
4081.426425,-229.828649,-0.000000,8364.327145
4081.426740,-1532.190996,-1924.535449,10510.924376
4081.427055,-2068.457845,-2368.659014,11029.068536
4081.427370,-2298.286494,-3330.926739,11621.233289
4081.427686,-1838.629195,-3552.988522,10955.047942
4081.428001,-306.438199,-3552.988522,11399.171507
4081.428316,919.314598,-814.226536,9326.594869
4081.428632,1532.190996,666.185348,7476.080014
4081.428947,1378.971896,2368.659014,6439.791695
4081.429262,612.876398,2590.720797,6587.832884
4081.429577,229.828649,1554.432478,7550.100608
4081.429893,-612.876398,-74.020594,8956.491898
4081.430208,-1532.190996,-1036.288319,10140.821405
4081.430523,-2221.676944,-1628.453072,11399.171507
4081.430839,-2068.457845,-3182.885551,11843.295072
4081.431154,-1072.533697,-2738.761985,11917.315666
4081.431469,0.000000,-2442.679609,11251.130318
4081.431784,919.314598,-444.123565,9252.574275
4081.432100,1378.971896,1184.329507,8068.244768
4081.432415,1838.629195,1998.556043,8068.244768
4081.432730,1225.752797,2960.823768,7179.997637
4081.433046,153.219100,2960.823768,7550.100608
4081.433361,-459.657299,1258.350101,9104.533087
4081.433676,-1608.800546,-444.123565,10732.986159
4081.433991,-2221.676944,-1406.391290,11547.212695
4081.434307,-1685.410096,-2812.782580,12287.418637
4081.434622,-995.924147,-2368.659014,12879.583391
4081.434937,459.657299,-888.247130,12139.377449
4081.435253,1532.190996,962.267725,9474.636058
4081.435568,2451.505594,2368.659014,7476.080014
4081.435883,2757.943793,2886.803174,7402.059420
4081.436198,2451.505594,3775.050304,6957.935855
4081.436514,1378.971896,3627.009116,7402.059420
4081.436829,153.219100,2812.782580,8734.430116
4081.437144,-842.705048,1258.350101,10066.800811
4081.437460,-1838.629195,-962.267725,11917.315666
4081.437775,-1838.629195,-2442.679609,12213.398043
4081.438090,-1302.362347,-2368.659014,13619.789333
4081.438405,-153.219100,-1554.432478,13323.706956
4081.438721,1225.752797,-0.000000,10362.883188
4081.439036,1915.238745,2072.576638,7846.182985
4081.439351,2987.772442,2886.803174,7402.059420
4081.439667,3447.429741,3627.009116,7105.977043
4081.439982,2221.676944,4441.235652,6735.874072
4081.440297,1149.143247,3552.988522,7994.224174
4081.440612,0.000000,1628.453072,9178.553681
4081.440928,-1225.752797,-0.000000,11399.171507
4081.441243,-1915.238745,-2072.576638,12213.398043
4081.441558,-1455.581446,-2664.741391,12879.583391
4081.441874,-1149.143247,-2368.659014,12287.418637
4081.442189,229.828649,-1036.288319,10807.006753
4081.442504,1378.971896,814.226536,9474.636058
4081.442819,2068.457845,1850.514855,7846.182985
4081.443135,1838.629195,2812.782580,7105.977043
4081.443450,1149.143247,3552.988522,6439.791695
4081.443765,0.000000,2960.823768,7328.038826
4081.444081,-229.828649,1036.288319,9622.677246
4081.444396,-1532.190996,-740.205942,11029.068536
4081.444711,-2145.067394,-1998.556043,11399.171507
4081.445026,-2298.286494,-2886.803174,13175.665768
4081.445342,-1532.190996,-2368.659014,12065.356855
4081.445657,0.000000,-1628.453072,10362.883188
4081.445972,919.314598,-0.000000,9696.697840
4081.446288,1762.019645,1628.453072,8216.285956
4081.446603,1608.800546,2368.659014,7698.141797
4081.446918,612.876398,2960.823768,6217.729913
4081.447233,-153.219100,2368.659014,7105.977043
4081.447549,-1225.752797,888.247130,8808.450710
4081.447864,-1915.238745,-888.247130,10288.862594
4081.448179,-1991.848295,-2442.679609,11251.130318
4081.448495,-2298.286494,-3627.009116,12287.418637
4081.448810,-995.924147,-2886.803174,11695.253884
4081.449125,0.000000,-2368.659014,9622.677246
4081.449440,1225.752797,-148.041188,9696.697840
4081.449756,1991.848295,1258.350101,8586.388927
4081.450071,2298.286494,1998.556043,8364.327145
4081.450386,1762.019645,2738.761985,6513.812290
4081.450702,766.095498,2294.638420,6809.894666
4081.451017,76.609550,1628.453072,7846.182985
4081.451332,-1302.362347,-666.185348,9992.780217
4081.451647,-2145.067394,-1924.535449,11547.212695
4081.451963,-2068.457845,-3478.967927,12287.418637
4081.452278,-1149.143247,-3256.906145,12805.562797
4081.452593,153.219100,-2442.679609,12509.480420
4081.452909,1302.362347,-1184.329507,10066.800811
4081.453224,1991.848295,888.247130,7772.162391
4081.453539,2987.772442,1924.535449,7920.203579
4081.453854,2528.115143,2886.803174,6735.874072
4081.454170,2068.457845,3108.864956,6883.915261
4081.454485,842.705048,2072.576638,8068.244768
4081.454800,0.000000,-222.061783,9252.574275
4081.455116,-1225.752797,-1628.453072,11325.150913
4081.455431,-1685.410096,-2812.782580,11917.315666
4081.455746,-1072.533697,-3404.947333,11843.295072
4081.456061,-383.047749,-3256.906145,12361.439231
4081.456377,766.095498,-2220.617826,11547.212695
4081.456692,1532.190996,-0.000000,9104.533087
4081.457007,2374.896044,962.267725,8216.285956
4081.457323,2451.505594,2146.597232,7031.956449
4081.457638,1685.410096,2442.679609,6513.812290
4081.457953,536.266849,2368.659014,8290.306550
4081.458268,-536.266849,888.247130,9252.574275
4081.458584,-1149.143247,-888.247130,10436.903782
4081.458899,-1302.362347,-2368.659014,11843.295072
4081.459214,-1302.362347,-2886.803174,11917.315666
4081.459530,-766.095498,-2664.741391,10807.006753
4081.459845,689.485948,-1924.535449,11029.068536
4081.460160,1762.019645,-0.000000,9770.718434
4081.460475,2145.067394,1628.453072,7846.182985
4081.460791,1455.581446,2368.659014,7254.018232
4081.461106,919.314598,2738.761985,6217.729913
4081.461421,76.609550,2368.659014,7772.162391
4081.461737,-919.314598,1110.308913,8808.450710
4081.462052,-1608.800546,-1036.288319,10362.883188
4081.462367,-2221.676944,-1850.514855,11103.089130
4081.462682,-2681.334243,-2590.720797,12657.521608
4081.462998,-1838.629195,-2220.617826,12509.480420
4081.463313,0.000000,-1554.432478,11325.150913
4081.463628,1302.362347,740.205942,8734.430116
4081.463944,2298.286494,2072.576638,7476.080014
4081.464259,1608.800546,3552.988522,7476.080014
4081.464574,842.705048,3997.112087,7105.977043
4081.464889,153.219100,3627.009116,7179.997637
4081.465205,-612.876398,1924.535449,9104.533087
4081.465520,-1608.800546,518.144159,10658.965565
4081.465835,-2374.896044,-1332.370696,10881.027347
4081.466150,-2757.943793,-2368.659014,12435.459826
4081.466465,-1685.410096,-2590.720797,13471.748144
4081.466780,-612.876398,-1332.370696,10955.047942
4081.467096,766.095498,444.123565,8660.409521
4081.467411,1608.800546,1998.556043,8142.265362
4081.467726,1762.019645,2812.782580,7846.182985
4081.468041,1225.752797,3775.050304,7105.977043
4081.468356,383.047749,3330.926739,7105.977043
4081.468671,-459.657299,2738.761985,9030.512492
4081.468987,-1378.971896,888.247130,10955.047942
4081.469302,-2068.457845,-1036.288319,11473.192101
4081.469617,-1991.848295,-2738.761985,12509.480420
4081.469932,-1378.971896,-2738.761985,14137.933492
4081.470247,-383.047749,-1628.453072,12361.439231
4081.470562,995.924147,740.205942,9474.636058
4081.470878,1762.019645,2146.597232,7624.121203
4081.471193,2604.724693,2590.720797,7846.182985
4081.471508,2451.505594,3034.844362,6587.832884
4081.471823,1455.581446,3330.926739,7402.059420
4081.472138,229.828649,2516.700203,7994.224174
4081.472453,-612.876398,370.102971,9548.656652
4081.472769,-1838.629195,-1184.329507,11695.253884
4081.473084,-1532.190996,-3108.864956,12287.418637
4081.473399,-1225.752797,-2886.803174,12731.542202
4081.473714,-459.657299,-2442.679609,11991.336260
4081.474029,1455.581446,-1332.370696,11029.068536
4081.474344,2145.067394,1036.288319,9104.533087
4081.474660,2757.943793,1776.494261,8290.306550
4081.474975,2911.162892,3108.864956,6883.915261
4081.475290,2298.286494,3330.926739,6291.750507
4081.475605,1455.581446,2664.741391,7846.182985
4081.475920,306.438199,888.247130,9030.512492
4081.476235,-919.314598,-740.205942,10955.047942
4081.476551,-1532.190996,-2738.761985,11695.253884
4081.476866,-1455.581446,-2960.823768,12435.459826
4081.477181,-1149.143247,-3627.009116,11325.150913
4081.477496,383.047749,-2590.720797,10510.924376
4081.477811,1225.752797,-814.226536,9844.739029
4081.478126,1685.410096,1036.288319,7994.224174
4081.478442,1838.629195,1924.535449,7031.956449
4081.478757,1302.362347,2664.741391,5107.421000
4081.479072,459.657299,2220.617826,7031.956449
4081.479387,-459.657299,1184.329507,8290.306550
4081.479702,-1762.019645,-1184.329507,9844.739029
4081.480017,-1991.848295,-2220.617826,10510.924376
4081.480333,-2374.896044,-3330.926739,12583.501014
4081.480648,-1915.238745,-3182.885551,11251.130318
4081.480963,-459.657299,-3034.844362,10066.800811
4081.481278,1072.533697,-1110.308913,10362.883188
4081.481593,1762.019645,444.123565,8660.409521
4081.481908,1608.800546,1924.535449,7698.141797
4081.482224,459.657299,2442.679609,6587.832884
4081.482539,383.047749,2072.576638,7105.977043
4081.482854,-766.095498,962.267725,7920.203579
4081.483169,-1455.581446,-518.144159,9326.594869
4081.483484,-2374.896044,-2294.638420,10658.965565
4081.483799,-2374.896044,-3552.988522,11399.171507
4081.484115,-1378.971896,-3034.844362,12879.583391
4081.484430,0.000000,-2368.659014,11843.295072
4081.484745,1149.143247,-592.164754,9770.718434
4081.485060,2145.067394,1628.453072,8290.306550
4081.485375,2298.286494,2072.576638,7550.100608
4081.485690,1685.410096,2960.823768,7179.997637
4081.486006,1072.533697,3182.885551,7031.956449
4081.486321,76.609550,2368.659014,8068.244768
4081.486636,-995.924147,518.144159,9992.780217
4081.486951,-1762.019645,-740.205942,11399.171507
4081.487266,-1608.800546,-2220.617826,12065.356855
4081.487581,-1072.533697,-2294.638420,12361.439231
4081.487897,-229.828649,-2516.700203,12731.542202
4081.488212,459.657299,-1184.329507,11177.109724
4081.488527,1838.629195,1406.391290,8512.368333
4081.488842,2528.115143,2368.659014,8290.306550
4081.489157,2451.505594,3330.926739,6587.832884
4081.489472,2298.286494,4293.194464,6365.771101
4081.489788,153.219100,2960.823768,8216.285956
4081.490103,-612.876398,1184.329507,9696.697840
4081.490418,-1302.362347,-592.164754,11029.068536
4081.490733,-1685.410096,-2294.638420,12287.418637
4081.491048,-1532.190996,-3182.885551,12879.583391
4081.491363,-919.314598,-2738.761985,13619.789333
4081.491679,383.047749,-1702.473667,11991.336260
4081.491994,1532.190996,666.185348,9252.574275
4081.492309,2987.772442,2220.617826,7254.018232
4081.492624,2911.162892,3256.906145,6735.874072
4081.492939,2298.286494,3923.091493,6587.832884
4081.493254,1149.143247,3404.947333,8512.368333
4081.493570,153.219100,2072.576638,8216.285956
4081.493885,-1225.752797,-592.164754,10214.842000
4081.494200,-1532.190996,-2368.659014,11917.315666
4081.494515,-1838.629195,-3182.885551,12805.562797
4081.494830,-1149.143247,-2812.782580,11917.315666
4081.495145,0.000000,-1554.432478,10807.006753
4081.495461,1685.410096,148.041188,10066.800811
4081.495776,2374.896044,1480.411884,8438.347739
4081.496091,1915.238745,2368.659014,7328.038826
4081.496406,1072.533697,3330.926739,6439.791695
4081.496721,306.438199,2738.761985,6883.915261
4081.497036,-459.657299,1702.473667,8438.347739
4081.497352,-1608.800546,-888.247130,10214.842000
4081.497667,-2221.676944,-1776.494261,10584.944971
4081.497982,-2834.553343,-3108.864956,12361.439231
4081.498297,-2221.676944,-2664.741391,13693.809927
4081.498612,-689.485948,-2220.617826,11325.150913
4081.498927,459.657299,-148.041188,8808.450710
4081.499243,1302.362347,740.205942,8142.265362
4081.499558,1302.362347,2146.597232,7772.162391
4081.499873,766.095498,3034.844362,7476.080014
4081.500188,0.000000,2664.741391,6291.750507
4081.500503,-919.314598,1702.473667,7994.224174
4081.500818,-1838.629195,148.041188,10214.842000
4081.501134,-2374.896044,-1258.350101,9918.759623
4081.501449,-2757.943793,-3404.947333,11251.130318
4081.501764,-1685.410096,-3182.885551,13915.871710
4081.502079,-689.485948,-2072.576638,12139.377449
4081.502394,612.876398,-296.082377,9252.574275
4081.502709,1991.848295,1110.308913,7994.224174
4081.503025,2451.505594,2072.576638,7994.224174
4081.503340,1762.019645,3701.029710,7698.141797
4081.503655,1302.362347,3478.967927,6883.915261
4081.503970,76.609550,2442.679609,8216.285956
4081.504285,-1072.533697,1258.350101,9252.574275
4081.504600,-1685.410096,-1258.350101,11325.150913
4081.504916,-2068.457845,-3108.864956,12287.418637
4081.505231,-1378.971896,-3108.864956,12805.562797
4081.505546,-459.657299,-2590.720797,12139.377449
4081.505861,842.705048,-1406.391290,11325.150913
4081.506176,2298.286494,1406.391290,9252.574275
4081.506491,2681.334243,2294.638420,8364.327145
4081.506807,3064.381992,2960.823768,6217.729913
4081.507122,2221.676944,3701.029710,6957.935855
4081.507437,1225.752797,3256.906145,8068.244768
4081.507752,-459.657299,1036.288319,9474.636058
4081.508067,-1685.410096,-888.247130,11843.295072
4081.508382,-1225.752797,-2590.720797,12509.480420
4081.508698,-1302.362347,-2960.823768,12805.562797
4081.509013,-459.657299,-2516.700203,11251.130318
4081.509328,1149.143247,-2516.700203,10436.903782
4081.509643,1762.019645,-148.041188,10288.862594
4081.509958,2221.676944,1702.473667,9030.512492
4081.510273,2298.286494,2590.720797,7698.141797
4081.510589,2068.457845,3034.844362,5847.626942
4081.510904,1302.362347,2368.659014,7624.121203
4081.511219,153.219100,1332.370696,8882.471304
4081.511534,-1302.362347,-962.267725,10140.821405
4081.511849,-1838.629195,-2220.617826,11251.130318
4081.512164,-1455.581446,-2442.679609,12879.583391
4081.512480,-1072.533697,-2516.700203,11177.109724
4081.512795,306.438199,-2442.679609,10066.800811
4081.513110,1302.362347,-740.205942,10140.821405
4081.513425,2068.457845,814.226536,8438.347739
4081.513740,1915.238745,1924.535449,7772.162391
4081.514055,1072.533697,2960.823768,5995.668130
4081.514371,459.657299,2368.659014,6217.729913
4081.514686,-459.657299,1480.411884,8068.244768
4081.515001,-1225.752797,-296.082377,9548.656652
4081.515316,-2145.067394,-1776.494261,9992.780217
4081.515631,-2604.724693,-3034.844362,11917.315666
4081.515946,-1991.848295,-2960.823768,12879.583391
4081.516262,-459.657299,-2294.638420,11769.274478
4081.516577,612.876398,-444.123565,9548.656652
4081.516892,1608.800546,1406.391290,7550.100608
4081.517207,1915.238745,2368.659014,7550.100608
4081.517522,612.876398,3330.926739,6883.915261
4081.517837,76.609550,3108.864956,7031.956449
4081.518153,-459.657299,2368.659014,7994.224174
4081.518468,-1149.143247,740.205942,10214.842000
4081.518783,-1762.019645,-888.247130,10881.027347
4081.519098,-2451.505594,-2664.741391,11917.315666
4081.519413,-2068.457845,-2738.761985,12805.562797
4081.519728,-536.266849,-2812.782580,12879.583391
4081.520044,459.657299,-592.164754,11029.068536
4081.520359,919.314598,1332.370696,7994.224174
4081.520674,2068.457845,2664.741391,7179.997637
4081.520989,1685.410096,3552.988522,6735.874072
4081.521304,1072.533697,3108.864956,7179.997637
4081.521619,153.219100,2368.659014,8512.368333
4081.521935,-1302.362347,1036.288319,9918.759623
4081.522250,-1762.019645,-666.185348,11695.253884
4081.522565,-1915.238745,-2368.659014,11991.336260
4081.522880,-1225.752797,-2738.761985,13101.645173
4081.523195,-229.828649,-2812.782580,13767.830521
4081.523510,689.485948,-962.267725,11473.192101
4081.523826,1532.190996,1480.411884,8364.327145
4081.524141,2604.724693,2220.617826,7402.059420
4081.524456,2528.115143,2664.741391,6661.853478
4081.524771,2145.067394,3108.864956,6587.832884
4081.525086,766.095498,2590.720797,8438.347739
4081.525401,-229.828649,1036.288319,9252.574275
4081.525717,-1302.362347,-740.205942,10955.047942
4081.526032,-1455.581446,-2368.659014,12139.377449
4081.526347,-1072.533697,-3182.885551,12953.603985
4081.526662,-383.047749,-2442.679609,11843.295072
4081.526977,1608.800546,-1480.411884,10288.862594
4081.527292,1991.848295,666.185348,9178.553681
4081.527608,2604.724693,1924.535449,8882.471304
4081.527923,2757.943793,3108.864956,7550.100608
4081.528238,1915.238745,3108.864956,6217.729913
4081.528553,1072.533697,2738.761985,7105.977043
4081.528868,76.609550,1110.308913,8660.409521
4081.529183,-1455.581446,-962.267725,10214.842000
4081.529499,-1455.581446,-2442.679609,11251.130318
4081.529814,-1991.848295,-3330.926739,12879.583391
4081.530129,-1302.362347,-2886.803174,13101.645173
4081.530444,229.828649,-2220.617826,10066.800811
4081.530759,1608.800546,-518.144159,9696.697840
4081.531074,1532.190996,740.205942,8142.265362
4081.531390,1838.629195,2294.638420,7402.059420
4081.531705,1225.752797,3256.906145,6365.771101
4081.532020,229.828649,2072.576638,6217.729913
4081.532335,-459.657299,1628.453072,8216.285956
4081.532650,-1455.581446,-444.123565,10510.924376
4081.532965,-2298.286494,-1702.473667,9918.759623
4081.533281,-2604.724693,-3404.947333,12139.377449
4081.533596,-2221.676944,-2442.679609,13545.768739
4081.533911,-766.095498,-2220.617826,10658.965565
4081.534226,459.657299,-370.102971,9178.553681
4081.534541,1685.410096,666.185348,8660.409521
4081.534856,1532.190996,1776.494261,7772.162391
4081.535172,1149.143247,2664.741391,7179.997637
4081.535487,0.000000,2664.741391,6587.832884
4081.535802,-1225.752797,2368.659014,7698.141797
4081.536117,-1149.143247,1036.288319,9474.636058
4081.536432,-1991.848295,-962.267725,10658.965565
4081.536747,-2451.505594,-3108.864956,11917.315666
4081.537063,-1685.410096,-3256.906145,13619.789333
4081.537378,-383.047749,-2294.638420,12879.583391
4081.537693,0.000000,-888.247130,10436.903782
4081.538008,1532.190996,1776.494261,7994.224174
4081.538323,2298.286494,2368.659014,7846.182985
4081.538638,1608.800546,3627.009116,6735.874072
4081.538954,1149.143247,3627.009116,7179.997637
4081.539269,0.000000,3404.947333,8068.244768
4081.539584,-1072.533697,1406.391290,9696.697840
4081.539899,-1532.190996,-444.123565,11843.295072
4081.540214,-1838.629195,-2368.659014,12065.356855
4081.540529,-1685.410096,-2590.720797,12953.603985
4081.540845,-306.438199,-2886.803174,12879.583391
4081.541160,689.485948,-1406.391290,12213.398043
4081.541475,1915.238745,1776.494261,9326.594869
4081.541790,2911.162892,2738.761985,7698.141797
4081.542105,2757.943793,3701.029710,6439.791695
4081.542420,2451.505594,3997.112087,6513.812290
4081.542736,1455.581446,3108.864956,8142.265362
4081.543051,0.000000,1332.370696,9400.615463
4081.543366,-1225.752797,-666.185348,11103.089130
4081.543681,-1608.800546,-2294.638420,12361.439231
4081.543996,-1455.581446,-3182.885551,12361.439231
4081.544311,-842.705048,-3330.926739,12509.480420
4081.544627,306.438199,-2516.700203,12509.480420
4081.544942,1532.190996,-148.041188,9474.636058
4081.545257,2528.115143,1480.411884,7846.182985
4081.545572,3064.381992,2812.782580,6587.832884
4081.545887,2221.676944,3627.009116,5921.647536
4081.546202,1225.752797,2886.803174,7698.141797
4081.546518,229.828649,1554.432478,8438.347739
4081.546833,-842.705048,-518.144159,10214.842000
4081.547148,-1685.410096,-2146.597232,10881.027347
4081.547463,-1838.629195,-3330.926739,12657.521608
4081.547778,-1378.971896,-2886.803174,11917.315666
4081.548093,0.000000,-2220.617826,10288.862594
4081.548409,1378.971896,-814.226536,10140.821405
4081.548724,1915.238745,666.185348,8142.265362
4081.549039,2298.286494,2072.576638,7624.121203
4081.549354,1378.971896,3182.885551,5625.565159
4081.549669,383.047749,2664.741391,6365.771101
4081.549984,0.000000,2146.597232,7846.182985
4081.550300,-1302.362347,-0.000000,9474.636058
4081.550615,-1915.238745,-1554.432478,10140.821405
4081.550930,-2604.724693,-3330.926739,12287.418637
4081.551245,-2068.457845,-3108.864956,14285.974681
4081.551560,-612.876398,-1998.556043,11473.192101
4081.551875,459.657299,-296.082377,9326.594869
4081.552191,1378.971896,740.205942,8290.306550
4081.552506,1838.629195,1998.556043,7920.203579
4081.552821,1225.752797,3108.864956,7254.018232
4081.553136,229.828649,3108.864956,6513.812290
4081.553451,-459.657299,2220.617826,7476.080014
4081.553766,-1149.143247,222.061783,9474.636058
4081.554082,-2298.286494,-962.267725,10510.924376
4081.554397,-2604.724693,-2960.823768,11029.068536
4081.554712,-2145.067394,-3330.926739,13767.830521
4081.555027,-689.485948,-2664.741391,13915.871710
4081.555342,-383.047749,-962.267725,10584.944971
4081.555657,1378.971896,814.226536,7846.182985
4081.555973,2298.286494,1702.473667,7624.121203
4081.556288,1838.629195,2664.741391,7105.977043
4081.556603,1608.800546,3330.926739,7254.018232
4081.556918,306.438199,2886.803174,8068.244768
4081.557233,-689.485948,1776.494261,9104.533087
4081.557548,-1072.533697,-0.000000,11547.212695
4081.557864,-1302.362347,-2146.597232,11621.233289
4081.558179,-1302.362347,-3552.988522,12213.398043
4081.558494,-766.095498,-2886.803174,11843.295072
4081.558809,612.876398,-1998.556043,11695.253884
4081.559124,1762.019645,370.102971,9622.677246
4081.559439,2451.505594,2146.597232,8882.471304
4081.559755,2451.505594,3108.864956,7402.059420
4081.560070,1685.410096,3108.864956,6217.729913
4081.560385,766.095498,3034.844362,8142.265362
4081.560700,-306.438199,1628.453072,9474.636058
4081.561015,-1455.581446,-370.102971,11029.068536
4081.561330,-1149.143247,-1628.453072,12287.418637
4081.561646,-1149.143247,-2960.823768,13545.768739
4081.561961,-536.266849,-2146.597232,11917.315666
4081.562276,995.924147,-1628.453072,9918.759623
4081.562591,1915.238745,-0.000000,10140.821405
4081.562906,2757.943793,1554.432478,8956.491898
4081.563221,2911.162892,2516.700203,8438.347739
4081.563537,2145.067394,3404.947333,5847.626942
4081.563852,1149.143247,2738.761985,6735.874072
4081.564167,612.876398,1702.473667,8068.244768
4081.564482,-1149.143247,-888.247130,9992.780217
4081.564797,-2145.067394,-2368.659014,11029.068536
4081.565112,-2451.505594,-3256.906145,12509.480420
4081.565428,-2145.067394,-2960.823768,13027.624579
4081.565743,-153.219100,-2072.576638,10288.862594
4081.566058,919.314598,-370.102971,8586.388927
4081.566373,1991.848295,740.205942,7920.203579
4081.566688,2221.676944,1924.535449,7476.080014
4081.567003,1149.143247,2812.782580,7031.956449
4081.567319,689.485948,2664.741391,5921.647536
4081.567634,-306.438199,1998.556043,7994.224174
4081.567949,-1072.533697,222.061783,10066.800811
4081.568264,-1762.019645,-1258.350101,9918.759623
4081.568579,-2528.115143,-2886.803174,11251.130318
4081.568894,-2528.115143,-3256.906145,13249.686362
4081.569210,-1225.752797,-2812.782580,13027.624579
4081.569525,76.609550,-814.226536,10362.883188
4081.569840,1532.190996,666.185348,8068.244768
4081.570155,2145.067394,1554.432478,7105.977043
4081.570470,1302.362347,2738.761985,6883.915261
4081.570785,689.485948,3552.988522,6883.915261
4081.571101,-536.266849,2664.741391,7698.141797
4081.571416,-1378.971896,1554.432478,9178.553681
4081.571731,-1762.019645,-592.164754,11695.253884
4081.572046,-1915.238745,-2442.679609,11843.295072
4081.572361,-1915.238745,-2590.720797,13175.665768
4081.572676,-919.314598,-2442.679609,11177.109724
4081.572992,306.438199,-1702.473667,10881.027347
4081.573307,1762.019645,814.226536,10066.800811
4081.573622,2068.457845,2220.617826,8586.388927
4081.573937,1302.362347,3404.947333,6735.874072
4081.574252,1225.752797,3775.050304,6291.750507
4081.574567,306.438199,3478.967927,7920.203579
4081.574883,-919.314598,1554.432478,9474.636058
4081.575198,-1991.848295,-370.102971,11547.212695
4081.575513,-2298.286494,-2072.576638,12213.398043
4081.575828,-1991.848295,-2960.823768,13693.809927
4081.576143,-919.314598,-3034.844362,11843.295072
4081.576458,536.266849,-2294.638420,11473.192101
4081.576773,2145.067394,444.123565,10362.883188
4081.577089,2298.286494,1850.514855,8512.368333
4081.577404,2451.505594,3330.926739,7328.038826
4081.577719,2145.067394,3256.906145,5625.565159
4081.578034,1532.190996,2738.761985,7105.977043
4081.578349,306.438199,1480.411884,8734.430116
4081.578664,-689.485948,-518.144159,10288.862594
4081.578980,-1608.800546,-2220.617826,11621.233289
4081.579295,-1225.752797,-3478.967927,12879.583391
4081.579610,-766.095498,-3034.844362,11843.295072
4081.579925,919.314598,-2220.617826,10362.883188
4081.580240,1685.410096,-370.102971,9548.656652
4081.580555,2911.162892,666.185348,9696.697840
4081.580871,3600.648841,2368.659014,7994.224174
4081.581186,2374.896044,3256.906145,5847.626942
4081.581501,1225.752797,3330.926739,6069.688724
4081.581816,383.047749,2294.638420,7772.162391
4081.582131,-919.314598,-148.041188,10140.821405
4081.582446,-1378.971896,-1998.556043,10584.944971
4081.582762,-1378.971896,-3627.009116,12435.459826
4081.583077,-1378.971896,-3034.844362,13989.892304
4081.583392,-383.047749,-1776.494261,11029.068536
4081.583707,995.924147,-740.205942,9178.553681
4081.584022,2145.067394,666.185348,8364.327145
4081.584337,2451.505594,1628.453072,8290.306550
4081.584653,1838.629195,3034.844362,6809.894666
4081.584968,1149.143247,2812.782580,5921.647536
4081.585283,229.828649,2516.700203,7476.080014
4081.585598,-1149.143247,888.247130,8882.471304
4081.585913,-2068.457845,-1406.391290,10140.821405
4081.586228,-2298.286494,-2590.720797,11177.109724
4081.586544,-2374.896044,-3404.947333,13619.789333
4081.586859,-1072.533697,-3404.947333,13619.789333
4081.587174,-229.828649,-1628.453072,11177.109724
4081.587489,612.876398,666.185348,7994.224174
4081.587804,1455.581446,1480.411884,7105.977043
4081.588119,1762.019645,2590.720797,7105.977043
4081.588434,612.876398,3775.050304,7031.956449
4081.588750,0.000000,2368.659014,7994.224174
4081.589065,-995.924147,962.267725,8956.491898
4081.589380,-1991.848295,148.041188,10214.842000
4081.589695,-2451.505594,-2294.638420,11251.130318
4081.590010,-1838.629195,-2960.823768,12065.356855
4081.590325,-842.705048,-2960.823768,12065.356855
4081.590641,76.609550,-2146.597232,11621.233289
4081.590956,1455.581446,-0.000000,9770.718434
4081.591271,2298.286494,1406.391290,8882.471304
4081.591586,2068.457845,2812.782580,7179.997637
4081.591901,1378.971896,3404.947333,6439.791695
4081.592216,76.609550,2960.823768,7846.182985
4081.592532,-612.876398,1924.535449,8660.409521
4081.592847,-1762.019645,-370.102971,11029.068536
4081.593162,-1608.800546,-2146.597232,12213.398043
4081.593477,-1532.190996,-2590.720797,13619.789333
4081.593792,-766.095498,-2220.617826,11547.212695
4081.594107,612.876398,-1480.411884,9992.780217
4081.594423,2528.115143,-0.000000,10362.883188
4081.594738,2681.334243,1998.556043,9252.574275
4081.595053,2451.505594,2738.761985,7994.224174
4081.595368,1532.190996,3404.947333,5921.647536
4081.595683,1149.143247,3478.967927,7031.956449
4081.595998,76.609550,1776.494261,9030.512492
4081.596314,-1302.362347,-370.102971,10362.883188
4081.596629,-1762.019645,-1998.556043,11399.171507
4081.596944,-1915.238745,-3404.947333,13323.706956
4081.597259,-612.876398,-2664.741391,12953.603985
4081.597574,766.095498,-1776.494261,10584.944971
4081.597889,1991.848295,-222.061783,9622.677246
4081.598205,2834.553343,1406.391290,8660.409521
4081.598520,3064.381992,2146.597232,8216.285956
4081.598835,2604.724693,3034.844362,6217.729913
4081.599150,1532.190996,2664.741391,6069.688724
4081.599465,306.438199,2368.659014,7254.018232
4081.599780,-766.095498,-0.000000,9474.636058
4081.600095,-1608.800546,-1628.453072,10584.944971
4081.600411,-1685.410096,-3701.029710,11843.295072
4081.600726,-1838.629195,-3552.988522,13767.830521
4081.601041,-459.657299,-2442.679609,12361.439231
4081.601356,689.485948,-888.247130,9474.636058
4081.601671,1149.143247,444.123565,7846.182985
4081.601986,1915.238745,1554.432478,7179.997637
4081.602302,1455.581446,3034.844362,7476.080014
4081.602617,306.438199,2960.823768,6217.729913
4081.602932,-766.095498,2220.617826,7179.997637
4081.603247,-995.924147,592.164754,9696.697840
4081.603562,-1225.752797,-888.247130,10066.800811
4081.603877,-2911.162892,-2590.720797,11177.109724
4081.604193,-2757.943793,-2886.803174,13027.624579
4081.604508,-1685.410096,-3182.885551,13175.665768
4081.604823,-229.828649,-1628.453072,11473.192101
4081.605138,1455.581446,592.164754,8956.491898
4081.605453,1455.581446,1998.556043,7476.080014
4081.605768,689.485948,2664.741391,6809.894666
4081.606084,229.828649,4071.132681,6809.894666
4081.606399,-842.705048,2516.700203,7994.224174
4081.606714,-1302.362347,1110.308913,9622.677246
4081.607029,-1991.848295,-444.123565,10807.006753
4081.607344,-2528.115143,-2220.617826,11621.233289
4081.607659,-2374.896044,-2664.741391,12953.603985
4081.607975,-1072.533697,-3034.844362,11473.192101
4081.608290,153.219100,-2146.597232,11177.109724
4081.608605,1838.629195,888.247130,9474.636058
4081.608920,1915.238745,2072.576638,8734.430116
4081.609235,2298.286494,3256.906145,6661.853478
4081.609550,1685.410096,3330.926739,6365.771101
4081.609866,153.219100,3330.926739,7846.182985
4081.610181,-842.705048,1776.494261,9400.615463
4081.610496,-1455.581446,-370.102971,10881.027347
4081.610811,-1149.143247,-1998.556043,12287.418637
4081.611126,-1302.362347,-2664.741391,13471.748144
4081.611441,0.000000,-2516.700203,11029.068536
4081.611756,995.924147,-1998.556043,10510.924376
4081.612072,1685.410096,740.205942,9918.759623
4081.612387,2604.724693,2220.617826,8956.491898
4081.612702,3217.601092,3108.864956,7254.018232
4081.613017,2528.115143,3256.906145,5699.585753
4081.613332,1532.190996,3034.844362,6883.915261
4081.613647,306.438199,1258.350101,9252.574275
4081.613963,-842.705048,-518.144159,10288.862594
4081.614278,-1762.019645,-2294.638420,11769.274478
4081.614593,-1225.752797,-3478.967927,13323.706956
4081.614908,-766.095498,-3108.864956,13693.809927
4081.615223,536.266849,-1850.514855,11325.150913
4081.615538,2221.676944,-370.102971,9030.512492
4081.615854,2374.896044,1036.288319,8068.244768
4081.616169,3140.991542,2738.761985,7920.203579
4081.616484,2298.286494,3552.988522,6957.935855
4081.616799,1225.752797,3182.885551,6365.771101
4081.617114,459.657299,2146.597232,8290.306550
4081.617429,-842.705048,-0.000000,9696.697840
4081.617745,-1685.410096,-1998.556043,10584.944971
4081.618060,-2374.896044,-3478.967927,11843.295072
4081.618375,-2068.457845,-4145.153275,13915.871710
4081.618690,-766.095498,-2146.597232,12361.439231
4081.619005,459.657299,-1258.350101,9400.615463
4081.619320,1302.362347,296.082377,7994.224174
4081.619636,2221.676944,1332.370696,7179.997637
4081.619951,995.924147,2886.803174,6735.874072
4081.620266,306.438199,3182.885551,6069.688724
4081.620581,-612.876398,2220.617826,7624.121203
4081.620896,-995.924147,444.123565,9030.512492
4081.621211,-1915.238745,-1258.350101,9770.718434
4081.621526,-2834.553343,-3034.844362,11029.068536
4081.621842,-2757.943793,-3552.988522,12953.603985
4081.622157,-1532.190996,-3330.926739,13175.665768
4081.622472,-842.705048,-1702.473667,10955.047942
4081.622787,306.438199,222.061783,8512.368333
4081.623102,1455.581446,1480.411884,7402.059420
4081.623417,995.924147,2516.700203,6513.812290
4081.623733,383.047749,3627.009116,7105.977043
4081.624048,-459.657299,2516.700203,7920.203579
4081.624363,-1302.362347,1332.370696,8660.409521
4081.624678,-1685.410096,-0.000000,10510.924376
4081.624993,-1915.238745,-1850.514855,11473.192101
4081.625308,-1532.190996,-2812.782580,12879.583391
4081.625624,-689.485948,-2072.576638,11103.089130
4081.625939,689.485948,-2072.576638,9770.718434
4081.626254,1532.190996,888.247130,9474.636058
4081.626569,2068.457845,1776.494261,9178.553681
4081.626884,2298.286494,3034.844362,7254.018232
4081.627199,1532.190996,2812.782580,6217.729913
4081.627515,229.828649,3108.864956,7254.018232
4081.627830,-536.266849,1332.370696,9622.677246
4081.628145,-1302.362347,-148.041188,11029.068536
4081.628460,-1532.190996,-1850.514855,12213.398043
4081.628775,-1532.190996,-2516.700203,13767.830521
4081.629090,-229.828649,-2738.761985,12213.398043
4081.629406,1149.143247,-1406.391290,10436.903782
4081.629721,2451.505594,518.144159,10362.883188
4081.630036,3064.381992,2220.617826,8660.409521
4081.630351,2987.772442,3330.926739,8068.244768
4081.630666,2681.334243,3775.050304,5699.585753
4081.630981,1302.362347,3182.885551,7105.977043
4081.631297,0.000000,1924.535449,8808.450710
4081.631612,-919.314598,-74.020594,10436.903782
4081.631927,-1532.190996,-2146.597232,11769.274478
4081.632242,-1838.629195,-3404.947333,13767.830521
4081.632557,-1302.362347,-2664.741391,13693.809927
4081.632872,306.438199,-2294.638420,10658.965565
4081.633187,1838.629195,-592.164754,9622.677246
4081.633503,2987.772442,888.247130,8734.430116
4081.633818,3140.991542,2368.659014,8068.244768
4081.634133,2911.162892,3182.885551,6513.812290
4081.634448,1762.019645,3478.967927,5773.606348
4081.634763,1302.362347,2738.761985,7031.956449
4081.635078,-459.657299,148.041188,8956.491898
4081.635394,-1225.752797,-1850.514855,10510.924376
4081.635709,-1378.971896,-3330.926739,11695.253884
4081.636024,-1915.238745,-3478.967927,12657.521608
4081.636339,-1072.533697,-3034.844362,12657.521608
4081.636654,0.000000,-1998.556043,11029.068536
4081.636969,1072.533697,-0.000000,8364.327145
4081.637285,1991.848295,962.267725,7105.977043
4081.637600,1149.143247,2294.638420,6809.894666
4081.637915,459.657299,2960.823768,6735.874072
4081.638230,-306.438199,2368.659014,7550.100608
4081.638545,-766.095498,1036.288319,9474.636058
4081.638860,-1225.752797,-296.082377,9992.780217
4081.639176,-2298.286494,-2368.659014,10955.047942
4081.639491,-2528.115143,-2812.782580,11991.336260
4081.639806,-1532.190996,-3330.926739,12139.377449
4081.640121,-689.485948,-2072.576638,11843.295072
4081.640436,995.924147,-0.000000,8808.450710
4081.640751,1455.581446,1702.473667,7698.141797
4081.641067,766.095498,2516.700203,6809.894666
4081.641382,0.000000,3256.906145,6735.874072
4081.641697,-766.095498,2442.679609,7846.182985
4081.642012,-1532.190996,1110.308913,9178.553681
4081.642327,-1838.629195,-74.020594,10288.862594
4081.642642,-2298.286494,-1850.514855,11177.109724
4081.642958,-2374.896044,-2220.617826,12731.542202
4081.643273,-1378.971896,-2664.741391,10807.006753
4081.643588,229.828649,-2368.659014,10732.986159
4081.643903,1685.410096,666.185348,10140.821405
4081.644218,2298.286494,2368.659014,8882.471304
4081.644533,2068.457845,3182.885551,7254.018232
4081.644848,1915.238745,3552.988522,6365.771101
4081.645164,0.000000,2960.823768,7846.182985
4081.645479,-689.485948,2072.576638,9474.636058
4081.645794,-1762.019645,-74.020594,11251.130318
4081.646109,-2374.896044,-2146.597232,11843.295072
4081.646424,-1915.238745,-3256.906145,13989.892304
4081.646739,-689.485948,-2664.741391,13175.665768
4081.647055,306.438199,-1628.453072,11325.150913
4081.647370,1378.971896,518.144159,8734.430116
4081.647685,2911.162892,1850.514855,8956.491898
4081.648000,3600.648841,3034.844362,8438.347739
4081.648315,2757.943793,4145.153275,6809.894666
4081.648630,1915.238745,4293.194464,6291.750507
4081.648946,536.266849,2442.679609,8512.368333
4081.649261,-766.095498,222.061783,10362.883188
4081.649576,-1302.362347,-2368.659014,11399.171507
4081.649891,-1378.971896,-3478.967927,12509.480420
4081.650206,-1072.533697,-3182.885551,13545.768739
4081.650521,76.609550,-2146.597232,10955.047942
4081.650837,1378.971896,-1184.329507,10732.986159
4081.651152,2298.286494,444.123565,9252.574275
4081.651467,3064.381992,1628.453072,8882.471304
4081.651782,2757.943793,3182.885551,6513.812290
4081.652097,1915.238745,3256.906145,6069.688724
4081.652412,1302.362347,3034.844362,7476.080014
4081.652728,76.609550,740.205942,9474.636058
4081.653043,-1072.533697,-1184.329507,10140.821405
4081.653358,-919.314598,-2812.782580,11695.253884
4081.653673,-1072.533697,-3182.885551,13915.871710
4081.653988,0.000000,-2442.679609,12583.501014
4081.654303,536.266849,-1332.370696,8882.471304
4081.654619,1302.362347,-370.102971,7994.224174
4081.654934,1762.019645,444.123565,7772.162391
4081.655249,1149.143247,1850.514855,7772.162391
4081.655564,229.828649,2368.659014,5255.462188
4081.655879,229.828649,1924.535449,7550.100608
4081.656194,-766.095498,666.185348,8068.244768
4081.656509,-1838.629195,-1258.350101,10288.862594
4081.656825,-2298.286494,-2146.597232,10362.883188
4081.657140,-2528.115143,-3182.885551,12657.521608
4081.657455,-1378.971896,-2738.761985,11991.336260
4081.657770,0.000000,-1998.556043,10288.862594
4081.658085,1072.533697,-0.000000,9474.636058
4081.658400,1608.800546,1110.308913,8364.327145
4081.658716,842.705048,2220.617826,7772.162391
4081.659031,0.000000,2886.803174,7254.018232
4081.659346,-842.705048,2368.659014,7698.141797
4081.659661,-995.924147,1184.329507,9400.615463
4081.659976,-1838.629195,-0.000000,9844.739029
4081.660291,-2374.896044,-2368.659014,10510.924376
4081.660607,-2451.505594,-2590.720797,12731.542202
4081.660922,-1762.019645,-2516.700203,11843.295072
4081.661237,-459.657299,-2146.597232,10214.842000
4081.661552,1532.190996,222.061783,9918.759623
4081.661867,2451.505594,1628.453072,8660.409521
4081.662182,1915.238745,2812.782580,8142.265362
4081.662498,1608.800546,3552.988522,6735.874072
4081.662813,153.219100,3182.885551,7105.977043
4081.663128,-766.095498,2664.741391,8882.471304
4081.663443,-1838.629195,370.102971,11029.068536
4081.663758,-2221.676944,-1702.473667,11177.109724
4081.664074,-1685.410096,-2590.720797,13693.809927
4081.664389,-995.924147,-2442.679609,13027.624579
4081.664704,766.095498,-1998.556043,10807.006753
4081.665019,1762.019645,-0.000000,10288.862594
4081.665334,3064.381992,2220.617826,9252.574275
4081.665650,2911.162892,2886.803174,8586.388927
4081.665965,2528.115143,3478.967927,6809.894666
4081.666280,1915.238745,3997.112087,5995.668130
4081.666595,842.705048,2886.803174,7846.182985
4081.666911,-459.657299,740.205942,9992.780217
4081.667226,-1225.752797,-1406.391290,11399.171507
4081.667541,-842.705048,-3182.885551,12435.459826
4081.667856,-766.095498,-3034.844362,13027.624579
4081.668172,229.828649,-2812.782580,12361.439231
4081.668487,1302.362347,-1480.411884,10807.006753
4081.668802,2145.067394,888.247130,8882.471304
4081.669117,3217.601092,2590.720797,7624.121203
4081.669433,2604.724693,3330.926739,5699.585753
4081.669748,1915.238745,3997.112087,6143.709319
4081.670063,842.705048,2516.700203,8586.388927
4081.670378,-612.876398,962.267725,9400.615463
4081.670694,-1149.143247,-962.267725,10732.986159
4081.671009,-1378.971896,-2738.761985,12139.377449
4081.671324,-1685.410096,-3701.029710,12583.501014
4081.671639,-459.657299,-2886.803174,13693.809927
4081.671955,229.828649,-2072.576638,11473.192101
4081.672270,919.314598,-148.041188,8068.244768
4081.672585,1991.848295,1332.370696,6883.915261
4081.672900,1302.362347,2368.659014,6365.771101
4081.673216,995.924147,3182.885551,6217.729913
4081.673531,229.828649,2294.638420,7624.121203
4081.673846,-766.095498,814.226536,8216.285956
4081.674161,-1762.019645,-1332.370696,10510.924376
4081.674476,-1991.848295,-1850.514855,10955.047942
4081.674792,-2374.896044,-2590.720797,11103.089130
4081.675107,-1532.190996,-3034.844362,12361.439231
4081.675422,-229.828649,-2738.761985,12139.377449
4081.675737,689.485948,-0.000000,9252.574275
4081.676053,1838.629195,1036.288319,7179.997637
4081.676368,1149.143247,2294.638420,6365.771101
4081.676683,459.657299,3330.926739,6809.894666
4081.676998,-459.657299,2516.700203,7550.100608
4081.677314,-919.314598,1110.308913,8882.471304
4081.677629,-1608.800546,296.082377,9992.780217
4081.677944,-2221.676944,-1776.494261,10658.965565
4081.678259,-2145.067394,-3182.885551,12731.542202
4081.678575,-1455.581446,-2960.823768,12583.501014
4081.678890,0.000000,-1776.494261,11177.109724
4081.679205,919.314598,-0.000000,8586.388927
4081.679520,1915.238745,1406.391290,8290.306550
4081.679836,2221.676944,2738.761985,7994.224174
4081.680151,1455.581446,3034.844362,6957.935855
4081.680466,0.000000,2960.823768,7105.977043
4081.680781,-766.095498,2442.679609,9400.615463
4081.681097,-1991.848295,666.185348,10436.903782
4081.681412,-2068.457845,-1332.370696,10881.027347
4081.681727,-2068.457845,-2960.823768,12953.603985
4081.682042,-1302.362347,-3627.009116,14063.912898
4081.682357,0.000000,-1776.494261,12361.439231
4081.682673,1225.752797,518.144159,9770.718434
4081.682988,2221.676944,1776.494261,8290.306550
4081.683303,2374.896044,2368.659014,7994.224174
4081.683618,2298.286494,3552.988522,7328.038826
4081.683934,1455.581446,3552.988522,7105.977043
4081.684249,153.219100,2442.679609,8364.327145
4081.684564,-689.485948,962.267725,9918.759623
4081.684879,-1685.410096,-1184.329507,11547.212695
4081.685195,-1302.362347,-3034.844362,12287.418637
4081.685510,-1225.752797,-2960.823768,14211.954086
4081.685825,0.000000,-2072.576638,11621.233289
4081.686140,1685.410096,-666.185348,10362.883188
4081.686456,2681.334243,962.267725,8512.368333
4081.686771,2681.334243,1406.391290,8882.471304
4081.687086,2604.724693,3034.844362,7550.100608
4081.687401,1685.410096,3108.864956,5995.668130
4081.687717,842.705048,3108.864956,7179.997637
4081.688032,536.266849,518.144159,8956.491898
4081.688347,-995.924147,-1036.288319,10436.903782
4081.688662,-1225.752797,-2738.761985,11621.233289
4081.688978,-1149.143247,-3108.864956,12361.439231
4081.689293,-536.266849,-2886.803174,12065.356855
4081.689608,919.314598,-2442.679609,11621.233289
4081.689923,1915.238745,-222.061783,9030.512492
4081.690238,2298.286494,1036.288319,7624.121203
4081.690554,2068.457845,2442.679609,6957.935855
4081.690869,1225.752797,2886.803174,5255.462188
4081.691184,153.219100,2664.741391,7328.038826
4081.691499,-383.047749,1258.350101,8364.327145
4081.691815,-1608.800546,-1036.288319,10214.842000
4081.692130,-2145.067394,-2072.576638,10732.986159
4081.692445,-2145.067394,-3034.844362,11991.336260
4081.692760,-2068.457845,-2886.803174,10807.006753
4081.693076,-459.657299,-2738.761985,10881.027347
4081.693391,612.876398,-740.205942,10584.944971
4081.693706,1455.581446,518.144159,8438.347739
4081.694021,1072.533697,2146.597232,7550.100608
4081.694337,306.438199,3034.844362,6143.709319
4081.694652,-612.876398,2738.761985,7031.956449
4081.694967,-995.924147,1850.514855,8808.450710
4081.695282,-1685.410096,-0.000000,9622.677246
4081.695598,-2298.286494,-1628.453072,10584.944971
4081.695913,-2068.457845,-2368.659014,12509.480420
4081.696228,-1455.581446,-2516.700203,11251.130318
4081.696543,-306.438199,-2590.720797,10436.903782
4081.696859,1378.971896,-518.144159,10436.903782
4081.697174,2068.457845,1184.329507,9474.636058
4081.697489,1608.800546,2294.638420,8512.368333
4081.697804,919.314598,3034.844362,6883.915261
4081.698120,0.000000,2960.823768,6883.915261
4081.698435,-536.266849,1924.535449,8660.409521
4081.698750,-1532.190996,814.226536,10362.883188
4081.699065,-1991.848295,-1480.411884,11547.212695
4081.699380,-2145.067394,-2738.761985,12509.480420
4081.699696,-919.314598,-2516.700203,13323.706956
4081.700011,536.266849,-2368.659014,12879.583391
4081.700326,1378.971896,-296.082377,9992.780217
4081.700641,2451.505594,2368.659014,7698.141797
4081.700957,2987.772442,2738.761985,7920.203579
4081.701272,2374.896044,3256.906145,6439.791695
4081.701587,1685.410096,3775.050304,7328.038826
4081.701902,153.219100,2664.741391,8364.327145
4081.702218,-1149.143247,592.164754,10510.924376
4081.702533,-1608.800546,-888.247130,11325.150913
4081.702848,-1532.190996,-2664.741391,11843.295072
4081.703163,-1378.971896,-3627.009116,13101.645173
4081.703479,-536.266849,-3034.844362,14063.912898
4081.703794,842.705048,-1184.329507,11547.212695
4081.704109,1532.190996,1036.288319,7994.224174
4081.704424,2834.553343,2146.597232,7105.977043
4081.704740,2681.334243,3404.947333,6809.894666
4081.705055,2145.067394,3478.967927,6513.812290
4081.705370,919.314598,2590.720797,7994.224174
4081.705685,-306.438199,814.226536,8956.491898
4081.706001,-1302.362347,-814.226536,11177.109724
4081.706316,-2068.457845,-2442.679609,11177.109724
4081.706631,-1225.752797,-3478.967927,12361.439231
4081.706946,-842.705048,-3478.967927,13249.686362
4081.707261,383.047749,-2368.659014,11769.274478
4081.707577,1302.362347,-296.082377,8882.471304
4081.707892,2145.067394,888.247130,6661.853478
4081.708207,1991.848295,2368.659014,6809.894666
4081.708522,1302.362347,3478.967927,5773.606348
4081.708838,306.438199,2220.617826,7772.162391
4081.709153,-383.047749,1258.350101,8068.244768
4081.709468,-1685.410096,-962.267725,10436.903782
4081.709783,-1838.629195,-1776.494261,11177.109724
4081.710099,-2221.676944,-2960.823768,12509.480420
4081.710414,-1532.190996,-2368.659014,11991.336260
4081.710729,0.000000,-1850.514855,10214.842000
4081.711044,842.705048,-222.061783,9992.780217
4081.711360,1685.410096,1036.288319,8660.409521
4081.711675,1608.800546,2072.576638,7624.121203
4081.711990,459.657299,2886.803174,6735.874072
4081.712305,-612.876398,2738.761985,6809.894666
4081.712621,-1225.752797,2220.617826,8956.491898
4081.712936,-1838.629195,-296.082377,10362.883188
4081.713251,-2298.286494,-1628.453072,10140.821405
4081.713566,-2681.334243,-3182.885551,12657.521608
4081.713882,-2528.115143,-2738.761985,13915.871710
4081.714197,-612.876398,-1924.535449,10214.842000
4081.714512,1149.143247,222.061783,9178.553681
4081.714827,2145.067394,1110.308913,8512.368333
4081.715143,1838.629195,2294.638420,8216.285956
4081.715458,1225.752797,3701.029710,7105.977043
4081.715773,306.438199,3404.947333,6365.771101
4081.716088,-612.876398,2590.720797,8290.306550
4081.716403,-1762.019645,814.226536,10288.862594
4081.716719,-2221.676944,-1332.370696,11399.171507
4081.717034,-2298.286494,-2960.823768,12879.583391
4081.717349,-1378.971896,-2960.823768,14211.954086
4081.717664,0.000000,-2146.597232,11029.068536
4081.717980,1149.143247,-444.123565,9918.759623
4081.718295,2145.067394,2220.617826,8734.430116
4081.718610,2298.286494,2368.659014,9104.533087
4081.718925,2834.553343,3627.009116,7179.997637
4081.719241,1915.238745,3478.967927,5995.668130
4081.719556,689.485948,3034.844362,7772.162391
4081.719871,0.000000,1184.329507,9548.656652
4081.720186,-1302.362347,-666.185348,11029.068536
4081.720502,-1608.800546,-2886.803174,12139.377449
4081.720817,-1378.971896,-3552.988522,13323.706956
4081.721132,-306.438199,-3034.844362,13767.830521
4081.721447,459.657299,-1554.432478,11473.192101
4081.721763,1838.629195,740.205942,8512.368333
4081.722078,3064.381992,2220.617826,7476.080014
4081.722393,2528.115143,3330.926739,6439.791695
4081.722708,2145.067394,3775.050304,6365.771101
4081.723024,766.095498,3256.906145,7624.121203
4081.723339,76.609550,1332.370696,8808.450710
4081.723654,-995.924147,-666.185348,11251.130318
4081.723969,-1225.752797,-1850.514855,11325.150913
4081.724284,-1455.581446,-2960.823768,11621.233289
4081.724600,-766.095498,-3330.926739,12731.542202
4081.724915,229.828649,-2812.782580,11917.315666
4081.725230,1072.533697,-518.144159,9326.594869
4081.725545,2145.067394,1036.288319,7328.038826
4081.725861,1915.238745,2072.576638,6365.771101
4081.726176,1378.971896,3182.885551,5995.668130
4081.726491,536.266849,2442.679609,7179.997637
4081.726806,-306.438199,1332.370696,7994.224174
4081.727122,-1532.190996,-518.144159,9548.656652
4081.727437,-2221.676944,-1850.514855,11177.109724
4081.727752,-1762.019645,-2590.720797,11843.295072
4081.728067,-1762.019645,-2664.741391,10732.986159
4081.728383,-383.047749,-2590.720797,11103.089130
4081.728698,1149.143247,-814.226536,10436.903782
4081.729013,2145.067394,888.247130,8660.409521
4081.729328,2298.286494,2368.659014,7328.038826
4081.729644,995.924147,2812.782580,6439.791695
4081.729959,229.828649,2960.823768,6439.791695
4081.730274,-459.657299,1628.453072,8586.388927
4081.730589,-1608.800546,-0.000000,9696.697840
4081.730905,-2451.505594,-1628.453072,10881.027347
4081.731220,-2298.286494,-3034.844362,12657.521608
4081.731535,-1762.019645,-3034.844362,14063.912898
4081.731850,-229.828649,-2072.576638,12731.542202
4081.732166,306.438199,-518.144159,9622.677246
4081.732481,1991.848295,962.267725,8512.368333
4081.732796,2528.115143,2220.617826,7624.121203
4081.733111,1685.410096,3330.926739,7550.100608
4081.733426,1149.143247,3627.009116,6883.915261
4081.733742,76.609550,2738.761985,8290.306550
4081.734057,-919.314598,1332.370696,9622.677246
4081.734372,-1685.410096,-592.164754,11473.192101
4081.734687,-1838.629195,-2812.782580,11695.253884
4081.735003,-1225.752797,-3997.112087,13249.686362
4081.735318,-536.266849,-3108.864956,14063.912898
4081.735633,459.657299,-1036.288319,11177.109724
4081.735948,1378.971896,1110.308913,7920.203579
4081.736264,2221.676944,1702.473667,7105.977043
4081.736579,1991.848295,2738.761985,6809.894666
4081.736894,1455.581446,3478.967927,6809.894666
4081.737209,919.314598,2664.741391,7994.224174
4081.737525,-306.438199,888.247130,8956.491898
4081.737840,-1302.362347,-814.226536,10732.986159
4081.738155,-1608.800546,-1998.556043,11695.253884
4081.738470,-1149.143247,-2960.823768,11991.336260
4081.738786,-229.828649,-2960.823768,13619.789333
4081.739101,766.095498,-1554.432478,11399.171507
4081.739416,1072.533697,444.123565,8216.285956
4081.739731,2604.724693,1258.350101,6883.915261
4081.740047,2451.505594,2368.659014,6587.832884
4081.740362,1762.019645,3330.926739,6365.771101
4081.740677,536.266849,2590.720797,7994.224174
4081.740992,-229.828649,1258.350101,8438.347739
4081.741307,-1455.581446,-592.164754,10955.047942
4081.741623,-2145.067394,-2294.638420,11769.274478
4081.741938,-1378.971896,-3182.885551,12583.501014
4081.742253,-842.705048,-2812.782580,11843.295072
4081.742568,1302.362347,-1332.370696,10140.821405
4081.742884,1991.848295,-0.000000,10288.862594
4081.743199,2681.334243,1332.370696,8586.388927
4081.743514,2528.115143,2516.700203,7476.080014
4081.743829,1838.629195,3627.009116,5921.647536
4081.744145,1149.143247,2886.803174,6661.853478
4081.744460,-229.828649,1850.514855,8512.368333
4081.744775,-1608.800546,-148.041188,9992.780217
4081.745090,-2298.286494,-2146.597232,11177.109724
4081.745406,-2298.286494,-3330.926739,13323.706956
4081.745721,-1685.410096,-2812.782580,12879.583391
4081.746036,-383.047749,-1924.535449,9918.759623
4081.746351,919.314598,-0.000000,9696.697840
4081.746667,1608.800546,1110.308913,8882.471304
4081.746982,1838.629195,1776.494261,8142.265362
4081.747297,766.095498,3478.967927,6291.750507
4081.747612,0.000000,2886.803174,5699.585753
4081.747928,-842.705048,2220.617826,7624.121203
4081.748243,-1608.800546,592.164754,9992.780217
4081.748558,-2221.676944,-1554.432478,11177.109724
4081.748873,-2451.505594,-3182.885551,12435.459826
4081.749189,-1838.629195,-2960.823768,14582.057057
4081.749504,-536.266849,-1998.556043,11473.192101
4081.749819,536.266849,-444.123565,9622.677246
4081.750134,1991.848295,1184.329507,8438.347739
4081.750449,2451.505594,1406.391290,8216.285956
4081.750765,1762.019645,3478.967927,7105.977043
4081.751080,766.095498,3478.967927,6439.791695
4081.751395,0.000000,2812.782580,7846.182985
4081.751710,-919.314598,1110.308913,9548.656652
4081.752026,-1991.848295,-518.144159,11251.130318
4081.752341,-2068.457845,-2812.782580,11843.295072
4081.752656,-1532.190996,-3182.885551,13175.665768
4081.752971,-153.219100,-3108.864956,13989.892304
4081.753287,459.657299,-1554.432478,11621.233289
4081.753602,1685.410096,888.247130,8734.430116
4081.753917,2834.553343,2146.597232,7402.059420
4081.754232,2834.553343,3552.988522,6439.791695
4081.754548,1838.629195,4145.153275,6291.750507
4081.754863,459.657299,3404.947333,8142.265362
4081.755178,-383.047749,1110.308913,9030.512492
4081.755493,-1225.752797,-888.247130,11399.171507
4081.755809,-1225.752797,-2072.576638,11917.315666
4081.756124,-1072.533697,-3627.009116,12065.356855
4081.756439,-383.047749,-3775.050304,13471.748144
4081.756754,383.047749,-2442.679609,12657.521608
4081.757070,1915.238745,222.061783,9030.512492
4081.757385,2757.943793,1702.473667,7254.018232
4081.757700,2604.724693,2368.659014,6069.688724
4081.758015,2298.286494,3552.988522,5995.668130
4081.758330,1149.143247,2960.823768,7624.121203
4081.758646,0.000000,1480.411884,8438.347739
4081.758961,-995.924147,-518.144159,9992.780217
4081.759276,-1455.581446,-1998.556043,11325.150913
4081.759591,-1455.581446,-3256.906145,11843.295072
4081.759907,-842.705048,-3256.906145,11251.130318
4081.760222,306.438199,-3182.885551,12139.377449
4081.760537,1072.533697,-888.247130,10436.903782
4081.760852,1915.238745,814.226536,8364.327145
4081.761168,1915.238745,1924.535449,6809.894666
4081.761483,1072.533697,2590.720797,5847.626942
4081.761798,153.219100,2516.700203,6587.832884
4081.762113,-536.266849,1628.453072,8512.368333
4081.762429,-1532.190996,-518.144159,9844.739029
4081.762744,-2221.676944,-1628.453072,10732.986159
4081.763059,-2374.896044,-3182.885551,12509.480420
4081.763374,-1915.238745,-3256.906145,13915.871710
4081.763690,-153.219100,-2072.576638,12213.398043
4081.764005,842.705048,-222.061783,9178.553681
4081.764320,1608.800546,962.267725,7328.038826
4081.764635,2374.896044,1998.556043,7476.080014
4081.764950,1072.533697,3256.906145,7105.977043
4081.765266,0.000000,3478.967927,6735.874072
4081.765581,-842.705048,2294.638420,8068.244768
4081.765896,-1685.410096,444.123565,9548.656652
4081.766211,-1991.848295,-1406.391290,10955.047942
4081.766526,-2451.505594,-3404.947333,11325.150913
4081.766841,-2451.505594,-3478.967927,14211.954086
4081.767157,-689.485948,-2812.782580,13841.851115
4081.767472,0.000000,-814.226536,10214.842000
4081.767787,1685.410096,1702.473667,7846.182985
4081.768102,2451.505594,1998.556043,6587.832884
4081.768417,1608.800546,3182.885551,6883.915261
4081.768732,1149.143247,3997.112087,7031.956449
4081.769048,0.000000,2886.803174,7846.182985
4081.769363,-919.314598,2072.576638,9326.594869
4081.769678,-1762.019645,-444.123565,11547.212695
4081.769993,-1685.410096,-2220.617826,11473.192101
4081.770308,-1685.410096,-3034.844362,12879.583391
4081.770623,-459.657299,-2960.823768,14211.954086
4081.770939,689.485948,-1776.494261,11917.315666
4081.771254,1532.190996,1480.411884,8438.347739
4081.771569,2681.334243,2146.597232,7179.997637
4081.771884,2911.162892,2960.823768,6957.935855
4081.772199,2451.505594,3627.009116,6587.832884
4081.772514,1072.533697,2886.803174,7550.100608
4081.772830,0.000000,1184.329507,9326.594869
4081.773145,-1072.533697,-74.020594,11473.192101
4081.773460,-1225.752797,-1628.453072,11917.315666
4081.773775,-995.924147,-2738.761985,12953.603985
4081.774090,0.000000,-2738.761985,12287.418637
4081.774406,1685.410096,-1480.411884,10362.883188
4081.774721,2298.286494,370.102971,9474.636058
4081.775036,2834.553343,1480.411884,8882.471304
4081.775351,3064.381992,2738.761985,7994.224174
4081.775666,1991.848295,3404.947333,6365.771101
4081.775981,919.314598,3256.906145,7105.977043
4081.776297,0.000000,1406.391290,8956.491898
4081.776612,-1378.971896,-666.185348,10584.944971
4081.776927,-1762.019645,-2146.597232,11473.192101
4081.777242,-1838.629195,-3182.885551,13101.645173
4081.777557,-1378.971896,-2664.741391,13175.665768
4081.777872,0.000000,-1554.432478,10288.862594
4081.778188,1685.410096,-148.041188,9252.574275
4081.778503,2604.724693,1184.329507,7920.203579
4081.778818,2068.457845,1850.514855,7920.203579
4081.779133,1149.143247,3108.864956,6291.750507
4081.779448,153.219100,3256.906145,5921.647536
4081.779763,-383.047749,2146.597232,7920.203579
4081.780079,-1378.971896,-74.020594,10214.842000
4081.780394,-2374.896044,-1702.473667,10436.903782
4081.780709,-2834.553343,-3849.070898,12065.356855
4081.781024,-2451.505594,-3182.885551,14063.912898
4081.781339,-612.876398,-2368.659014,11399.171507
4081.781654,689.485948,-518.144159,8586.388927
4081.781970,1378.971896,592.164754,8068.244768
4081.782285,1762.019645,1554.432478,7772.162391
4081.782600,1149.143247,3182.885551,7328.038826
4081.782915,76.609550,3330.926739,6217.729913
4081.783230,-536.266849,2146.597232,7179.997637
4081.783545,-1378.971896,814.226536,9474.636058
4081.783861,-2145.067394,-962.267725,11029.068536
4081.784176,-2451.505594,-2738.761985,11251.130318
4081.784491,-1762.019645,-3478.967927,13397.727550
4081.784806,-612.876398,-2590.720797,12213.398043
4081.785121,459.657299,-1554.432478,11103.089130
4081.785436,1532.190996,1184.329507,8290.306550
4081.785752,2068.457845,1924.535449,7402.059420
4081.786067,1838.629195,2664.741391,6291.750507
4081.786382,919.314598,3627.009116,6587.832884
4081.786697,-229.828649,2960.823768,8290.306550
4081.787012,-1149.143247,888.247130,9622.677246
4081.787328,-1378.971896,-814.226536,11695.253884
4081.787643,-2221.676944,-2442.679609,12139.377449
4081.787958,-1991.848295,-2368.659014,12879.583391
4081.788273,-766.095498,-2368.659014,11917.315666
4081.788588,306.438199,-1702.473667,11843.295072
4081.788903,1991.848295,888.247130,9844.739029
4081.789219,2834.553343,2368.659014,7698.141797
4081.789534,2757.943793,3478.967927,6587.832884
4081.789849,2145.067394,3849.070898,5773.606348
4081.790164,842.705048,3108.864956,7624.121203
4081.790479,0.000000,1702.473667,9178.553681
4081.790794,-612.876398,-0.000000,10436.903782
4081.791110,-1455.581446,-1776.494261,12139.377449
4081.791425,-1608.800546,-2960.823768,12879.583391
4081.791740,-1072.533697,-2960.823768,11621.233289
4081.792055,459.657299,-2368.659014,11399.171507
4081.792370,1608.800546,-296.082377,10288.862594
4081.792685,2528.115143,1628.453072,8438.347739
4081.793001,2528.115143,2886.803174,7772.162391
4081.793316,2911.162892,3552.988522,6217.729913
4081.793631,1302.362347,3330.926739,6661.853478
4081.793946,766.095498,2072.576638,8290.306550
4081.794261,-612.876398,-74.020594,10066.800811
4081.794576,-995.924147,-1480.411884,11399.171507
4081.794892,-1225.752797,-3182.885551,13027.624579
4081.795207,-1072.533697,-3330.926739,13101.645173
4081.795522,76.609550,-2072.576638,12435.459826
4081.795837,919.314598,-740.205942,9696.697840
4081.796152,1378.971896,740.205942,7772.162391
4081.796467,2068.457845,1258.350101,7328.038826
4081.796783,1455.581446,2664.741391,6291.750507
4081.797098,919.314598,2664.741391,6365.771101
4081.797413,0.000000,1924.535449,8512.368333
4081.797728,-1302.362347,-0.000000,9474.636058
4081.798043,-2145.067394,-1850.514855,11399.171507
4081.798358,-2221.676944,-2886.803174,11695.253884
4081.798674,-1915.238745,-3849.070898,13175.665768
4081.798989,-612.876398,-3330.926739,12953.603985
4081.799304,536.266849,-1332.370696,11029.068536
4081.799619,995.924147,592.164754,7920.203579
4081.799934,2068.457845,1258.350101,6513.812290
4081.800250,1455.581446,2516.700203,6661.853478
4081.800565,229.828649,2886.803174,6735.874072
4081.800880,-383.047749,1998.556043,8068.244768
4081.801195,-1685.410096,296.082377,9400.615463
4081.801510,-2068.457845,-1258.350101,10732.986159
4081.801825,-2221.676944,-2516.700203,11325.150913
4081.802141,-2528.115143,-3701.029710,12065.356855
4081.802456,-1225.752797,-3404.947333,12657.521608
4081.802771,76.609550,-2294.638420,11621.233289
4081.803086,1302.362347,814.226536,8438.347739
4081.803401,2451.505594,1332.370696,7105.977043
4081.803716,2145.067394,2664.741391,6365.771101
4081.804032,1302.362347,3256.906145,6957.935855
4081.804347,153.219100,2664.741391,7920.203579
4081.804662,-689.485948,1554.432478,8586.388927
4081.804977,-1455.581446,-370.102971,10436.903782
4081.805292,-1838.629195,-1924.535449,11843.295072
4081.805607,-1455.581446,-2664.741391,12435.459826
4081.805923,-612.876398,-2886.803174,12657.521608
4081.806238,766.095498,-1406.391290,10732.986159
4081.806553,1762.019645,518.144159,9400.615463
4081.806868,2451.505594,1850.514855,8290.306550
4081.807183,2604.724693,2664.741391,7994.224174
4081.807498,1838.629195,3330.926739,6587.832884
4081.807814,1149.143247,3034.844362,7179.997637
4081.808129,76.609550,2072.576638,9030.512492
4081.808444,-1302.362347,-0.000000,10881.027347
4081.808759,-995.924147,-1628.453072,11843.295072
4081.809074,-1302.362347,-3034.844362,13323.706956
4081.809389,-766.095498,-2812.782580,13619.789333
4081.809705,459.657299,-1776.494261,10881.027347
4081.810020,1991.848295,-0.000000,9474.636058
4081.810335,2834.553343,1480.411884,8512.368333
4081.810650,2987.772442,2368.659014,8586.388927
4081.810965,2451.505594,3775.050304,7105.977043
4081.811280,1302.362347,3034.844362,6513.812290
4081.811596,229.828649,2516.700203,8216.285956
4081.811911,-842.705048,-74.020594,9844.739029
4081.812226,-1608.800546,-1332.370696,11029.068536
4081.812541,-1762.019645,-2664.741391,12657.521608
4081.812856,-1532.190996,-2368.659014,12879.583391
4081.813172,-229.828649,-1628.453072,10584.944971
4081.813487,1072.533697,-148.041188,9992.780217
4081.813802,2298.286494,888.247130,8586.388927
4081.814117,2145.067394,2146.597232,7846.182985
4081.814432,1149.143247,3330.926739,6809.894666
4081.814747,229.828649,3108.864956,6143.709319
4081.815063,-536.266849,2146.597232,7105.977043
4081.815378,-1455.581446,444.123565,9474.636058
4081.815693,-2528.115143,-1332.370696,10362.883188
4081.816008,-2987.772442,-2738.761985,11843.295072
4081.816323,-2145.067394,-3034.844362,12583.501014
4081.816638,-842.705048,-2812.782580,11991.336260
4081.816954,76.609550,-1332.370696,10881.027347
4081.817269,1838.629195,962.267725,8216.285956
4081.817584,1838.629195,1850.514855,7105.977043
4081.817899,1532.190996,3256.906145,5995.668130
4081.818214,536.266849,3775.050304,5995.668130
4081.818529,-536.266849,2590.720797,7550.100608
4081.818845,-1455.581446,1110.308913,9252.574275
4081.819160,-2298.286494,-518.144159,11547.212695
4081.819475,-2834.553343,-2146.597232,11473.192101
4081.819790,-2298.286494,-3034.844362,12583.501014
4081.820105,-1378.971896,-3034.844362,11991.336260
4081.820420,0.000000,-2442.679609,11473.192101
4081.820736,1378.971896,740.205942,9400.615463
4081.821051,2757.943793,2442.679609,7698.141797
4081.821366,1838.629195,3330.926739,6291.750507
4081.821681,1302.362347,3775.050304,5847.626942
4081.821996,76.609550,2960.823768,7698.141797
4081.822311,-1302.362347,1554.432478,9178.553681
4081.822627,-1455.581446,-592.164754,11103.089130
4081.822942,-1685.410096,-1776.494261,12139.377449
4081.823257,-1302.362347,-3034.844362,13101.645173
4081.823572,-612.876398,-3478.967927,11917.315666
4081.823887,459.657299,-2738.761985,11843.295072
4081.824202,1608.800546,148.041188,10807.006753
4081.824518,2757.943793,1776.494261,8216.285956
4081.824833,2834.553343,3034.844362,7105.977043
4081.825148,2528.115143,3701.029710,5477.523971
4081.825463,842.705048,2812.782580,7179.997637
4081.825778,76.609550,1776.494261,8586.388927
4081.826094,-689.485948,-740.205942,10214.842000
4081.826409,-1608.800546,-2072.576638,11473.192101
4081.826724,-1608.800546,-3478.967927,12953.603985
4081.827039,-1149.143247,-3182.885551,13545.768739
4081.827354,459.657299,-2442.679609,12139.377449
4081.827669,2068.457845,-296.082377,9400.615463
4081.827985,2528.115143,1036.288319,8216.285956
4081.828300,2834.553343,2146.597232,7846.182985
4081.828615,2145.067394,3330.926739,7031.956449
4081.828930,1685.410096,3404.947333,6661.853478
4081.829245,689.485948,2368.659014,8290.306550
4081.829560,-383.047749,-0.000000,10140.821405
4081.829876,-1072.533697,-1184.329507,11177.109724
4081.830191,-1302.362347,-3330.926739,11917.315666
4081.830506,-995.924147,-3701.029710,13915.871710
4081.830821,76.609550,-2590.720797,12953.603985
4081.831136,995.924147,-888.247130,9548.656652
4081.831451,995.924147,370.102971,7105.977043
4081.831767,2068.457845,1110.308913,7772.162391
4081.832082,2221.676944,2590.720797,7402.059420
4081.832397,1149.143247,2516.700203,5625.565159
4081.832712,-306.438199,2368.659014,7402.059420
4081.833027,-919.314598,666.185348,8808.450710
4081.833342,-2145.067394,-1554.432478,10584.944971
4081.833658,-1915.238745,-2590.720797,10510.924376
4081.833973,-2451.505594,-3627.009116,13101.645173
4081.834288,-1302.362347,-2960.823768,13841.851115
4081.834603,153.219100,-1554.432478,11251.130318
4081.834918,1149.143247,888.247130,7920.203579
4081.835233,1762.019645,1628.453072,7031.956449
4081.835549,1225.752797,3182.885551,7031.956449
4081.835864,229.828649,3775.050304,7105.977043
4081.836179,-995.924147,2442.679609,8290.306550
4081.836494,-1455.581446,1036.288319,8882.471304
4081.836809,-2221.676944,-740.205942,10362.883188
4081.837124,-2604.724693,-2590.720797,11177.109724
4081.837440,-2298.286494,-2664.741391,12657.521608
4081.837755,-1149.143247,-2590.720797,11103.089130
4081.838070,383.047749,-1998.556043,10214.842000
4081.838385,2374.896044,740.205942,9400.615463
4081.838700,2757.943793,2294.638420,8660.409521
4081.839016,1838.629195,3552.988522,7105.977043
4081.839331,1378.971896,3701.029710,6217.729913
4081.839646,153.219100,3404.947333,6957.935855
4081.839961,-459.657299,1850.514855,9104.533087
4081.840276,-1838.629195,-0.000000,11769.274478
4081.840591,-2298.286494,-1924.535449,11917.315666
4081.840907,-2221.676944,-2590.720797,13915.871710
4081.841222,-1225.752797,-1998.556043,13175.665768
4081.841537,76.609550,-2072.576638,10584.944971
4081.841852,2068.457845,814.226536,10140.821405
4081.842167,3600.648841,2072.576638,8290.306550
4081.842482,2911.162892,3182.885551,8660.409521
4081.842798,2298.286494,3997.112087,6661.853478
4081.843113,1455.581446,3034.844362,6735.874072
4081.843428,76.609550,2368.659014,8660.409521
4081.843743,-1302.362347,444.123565,10510.924376
4081.844058,-1915.238745,-1406.391290,11695.253884
4081.844373,-1762.019645,-3330.926739,12879.583391
4081.844689,-1225.752797,-2960.823768,14211.954086
4081.845004,153.219100,-1998.556043,11251.130318
4081.845319,1608.800546,-666.185348,9844.739029
4081.845634,2604.724693,1406.391290,8068.244768
4081.845949,2681.334243,1850.514855,8660.409521
4081.846264,2451.505594,3701.029710,7105.977043
4081.846580,1608.800546,3034.844362,6291.750507
4081.846895,689.485948,2664.741391,7920.203579
4081.847210,-153.219100,444.123565,9326.594869
4081.847525,-1455.581446,-1406.391290,11029.068536
4081.847840,-1532.190996,-2738.761985,11991.336260
4081.848155,-1149.143247,-3108.864956,12879.583391
4081.848471,-229.828649,-3034.844362,11843.295072
4081.848786,1149.143247,-1480.411884,10955.047942
4081.849101,1991.848295,222.061783,8364.327145
4081.849416,2145.067394,1406.391290,6809.894666
4081.849731,2374.896044,2368.659014,5995.668130
4081.850046,842.705048,3108.864956,5773.606348
4081.850362,-153.219100,1924.535449,7698.141797
4081.850677,-919.314598,740.205942,8956.491898
4081.850992,-2221.676944,-1554.432478,11399.171507
4081.851307,-2451.505594,-2590.720797,11325.150913
4081.851622,-2604.724693,-2960.823768,12657.521608
4081.851938,-1302.362347,-2368.659014,10658.965565
4081.852253,-153.219100,-2590.720797,10510.924376
4081.852568,1378.971896,370.102971,9918.759623
4081.852883,1608.800546,1406.391290,8290.306550
4081.853198,1149.143247,2960.823768,7179.997637
4081.853513,459.657299,3182.885551,6291.750507
4081.853829,-536.266849,2516.700203,7402.059420
4081.854144,-1378.971896,740.205942,9474.636058
4081.854459,-1915.238745,-814.226536,10807.006753
4081.854774,-2374.896044,-2220.617826,11029.068536
4081.855089,-2298.286494,-2664.741391,12879.583391
4081.855404,-1455.581446,-3256.906145,11029.068536
4081.855720,153.219100,-2886.803174,10807.006753
4081.856035,1685.410096,-0.000000,9770.718434
4081.856350,2374.896044,1554.432478,8290.306550
4081.856665,2145.067394,2886.803174,7254.018232
4081.856980,1455.581446,3478.967927,5699.585753
4081.857295,459.657299,3034.844362,7476.080014
4081.857611,-536.266849,1924.535449,9030.512492
4081.857926,-1608.800546,-148.041188,10807.006753
4081.858241,-1608.800546,-1998.556043,11917.315666
4081.858556,-1838.629195,-3034.844362,13397.727550
4081.858871,-306.438199,-2664.741391,13915.871710
4081.859186,1149.143247,-1628.453072,10955.047942
4081.859502,1762.019645,-0.000000,9104.533087
4081.859817,2911.162892,2368.659014,8438.347739
4081.860132,2757.943793,2886.803174,8142.265362
4081.860447,2145.067394,3552.988522,6217.729913
4081.860762,766.095498,3108.864956,6883.915261
4081.861077,383.047749,2220.617826,8808.450710
4081.861393,-995.924147,-74.020594,10732.986159
4081.861708,-1915.238745,-1406.391290,11769.274478
4081.862023,-1608.800546,-3182.885551,12435.459826
4081.862338,-1225.752797,-3330.926739,14211.954086
4081.862653,536.266849,-2294.638420,13323.706956
4081.862968,1378.971896,-444.123565,9992.780217
4081.863284,1991.848295,1554.432478,7698.141797
4081.863599,2911.162892,2146.597232,6809.894666
4081.863914,2604.724693,3849.070898,6661.853478
4081.864229,1838.629195,3627.009116,6365.771101
4081.864544,919.314598,2664.741391,7994.224174
4081.864860,-536.266849,814.226536,9178.553681
4081.865175,-1378.971896,-1628.453072,11473.192101
4081.865490,-1915.238745,-2590.720797,11769.274478
4081.865805,-1991.848295,-3552.988522,13249.686362
4081.866120,-689.485948,-3108.864956,13841.851115
4081.866436,766.095498,-1702.473667,10436.903782
4081.866751,1302.362347,296.082377,7846.182985
4081.867066,2528.115143,1184.329507,6661.853478
4081.867381,1838.629195,2442.679609,6439.791695
4081.867697,1149.143247,3256.906145,6661.853478
4081.868012,76.609550,2664.741391,7328.038826
4081.868327,-919.314598,1258.350101,8512.368333
4081.868643,-1685.410096,-592.164754,10510.924376
4081.868958,-2451.505594,-2072.576638,11029.068536
4081.869273,-2145.067394,-3108.864956,12435.459826
4081.869588,-1225.752797,-3182.885551,11843.295072
4081.869904,153.219100,-1924.535449,10436.903782
4081.870219,1378.971896,222.061783,9844.739029
4081.870534,1685.410096,1184.329507,8216.285956
4081.870849,1072.533697,2368.659014,7328.038826
4081.871165,76.609550,3256.906145,5995.668130
4081.871480,-689.485948,2812.782580,7476.080014
4081.871795,-1608.800546,1554.432478,8956.491898
4081.872110,-1915.238745,-296.082377,11103.089130
4081.872426,-2528.115143,-1850.514855,11177.109724
4081.872741,-2604.724693,-3108.864956,13767.830521
4081.873056,-1378.971896,-2294.638420,12879.583391
4081.873371,0.000000,-1776.494261,10362.883188
4081.873687,1991.848295,444.123565,9178.553681
4081.874002,2298.286494,1924.535449,8586.388927
4081.874317,2068.457845,3182.885551,8142.265362
4081.874632,1685.410096,4219.173869,6661.853478
4081.874948,536.266849,3034.844362,6661.853478
4081.875263,-459.657299,2146.597232,8512.368333
4081.875578,-1838.629195,148.041188,10881.027347
4081.875894,-2451.505594,-1850.514855,11991.336260
4081.876209,-2221.676944,-3404.947333,13397.727550
4081.876524,-1608.800546,-3034.844362,13989.892304
4081.876839,0.000000,-2220.617826,10881.027347
4081.877155,1608.800546,-74.020594,10288.862594
4081.877470,2757.943793,1924.535449,8956.491898
4081.877785,2987.772442,2590.720797,8142.265362
4081.878100,2834.553343,3923.091493,6661.853478
4081.878416,2145.067394,3330.926739,5847.626942
4081.878731,842.705048,2294.638420,8364.327145
4081.879046,0.000000,370.102971,9696.697840
4081.879361,-1149.143247,-1924.535449,11325.150913
4081.879677,-1378.971896,-3330.926739,12361.439231
4081.879992,-1455.581446,-3627.009116,14211.954086
4081.880307,0.000000,-2368.659014,12657.521608
4081.880622,1149.143247,-1184.329507,9548.656652
4081.880938,1838.629195,814.226536,7254.018232
4081.881253,2757.943793,1702.473667,8216.285956
4081.881568,2451.505594,3108.864956,6587.832884
4081.881883,1455.581446,2960.823768,6513.812290
4081.882199,536.266849,2738.761985,7476.080014
4081.882514,-229.828649,444.123565,9178.553681
4081.882829,-1072.533697,-592.164754,11103.089130
4081.883145,-919.314598,-2368.659014,11547.212695
4081.883460,-1532.190996,-3182.885551,12065.356855
4081.883775,-383.047749,-2886.803174,11917.315666
4081.884090,766.095498,-1924.535449,11251.130318
4081.884406,1685.410096,-0.000000,9252.574275
4081.884721,1838.629195,1702.473667,7105.977043
4081.885036,1378.971896,2368.659014,5995.668130
4081.885351,612.876398,2960.823768,5847.626942
4081.885667,-306.438199,1850.514855,7846.182985
4081.885982,-1532.190996,296.082377,8882.471304
4081.886297,-2374.896044,-1332.370696,11473.192101
4081.886612,-2451.505594,-2072.576638,11325.150913
4081.886928,-2834.553343,-2664.741391,13027.624579
4081.887243,-1915.238745,-2442.679609,11251.130318
4081.887558,0.000000,-2812.782580,10436.903782
4081.887873,1225.752797,222.061783,9696.697840
4081.888189,2145.067394,1554.432478,8364.327145
4081.888504,1149.143247,2886.803174,7179.997637
4081.888819,459.657299,3330.926739,6439.791695
4081.889134,-383.047749,2812.782580,7105.977043
4081.889450,-919.314598,1258.350101,9104.533087
4081.889765,-2145.067394,-444.123565,11547.212695
4081.890080,-2604.724693,-1998.556043,11473.192101
4081.890396,-2987.772442,-3256.906145,13175.665768
4081.890711,-1608.800546,-2886.803174,13249.686362
4081.891026,-229.828649,-2368.659014,10584.944971
4081.891341,1532.190996,-148.041188,8734.430116
4081.891657,2221.676944,1554.432478,8290.306550
4081.891972,2298.286494,2664.741391,7994.224174
4081.892287,1608.800546,3997.112087,6291.750507
4081.892602,689.485948,3627.009116,6143.709319
4081.892918,0.000000,2664.741391,7698.141797
4081.893233,-1149.143247,-0.000000,11029.068536
4081.893548,-1532.190996,-1110.308913,11843.295072
4081.893863,-1915.238745,-3108.864956,12879.583391
4081.894179,-842.705048,-2960.823768,14359.995275
4081.894494,306.438199,-1258.350101,12583.501014
4081.894809,1455.581446,518.144159,9178.553681
4081.895124,2528.115143,2146.597232,7254.018232
4081.895440,3217.601092,2664.741391,7772.162391
4081.895755,2604.724693,3923.091493,7402.059420
4081.896070,1762.019645,3552.988522,6883.915261
4081.896385,383.047749,2442.679609,8290.306550
4081.896701,-842.705048,222.061783,10140.821405
4081.897016,-1532.190996,-1628.453072,11843.295072
4081.897331,-1378.971896,-3182.885551,12509.480420
4081.897646,-995.924147,-3256.906145,14063.912898
4081.897962,536.266849,-2072.576638,13175.665768
4081.898277,1532.190996,-222.061783,9696.697840
4081.898592,2145.067394,1258.350101,6883.915261
4081.898908,3217.601092,1850.514855,7105.977043
4081.899223,2834.553343,2886.803174,6883.915261
4081.899538,1608.800546,3108.864956,6513.812290
4081.899853,612.876398,3256.906145,7476.080014
4081.900169,-766.095498,592.164754,8956.491898
4081.900484,-1685.410096,-1036.288319,11325.150913
4081.900799,-1608.800546,-2812.782580,11843.295072
4081.901114,-1762.019645,-3701.029710,12065.356855
4081.901430,-1072.533697,-3478.967927,13471.748144
4081.901745,459.657299,-1776.494261,11103.089130
4081.902060,1608.800546,370.102971,8364.327145
4081.902375,2374.896044,1776.494261,6957.935855
4081.902691,1762.019645,2886.803174,6291.750507
4081.903006,995.924147,3404.947333,5699.585753
4081.903321,153.219100,2664.741391,7476.080014
4081.903636,-842.705048,1258.350101,8364.327145
4081.903952,-1532.190996,-962.267725,11251.130318
4081.904267,-2221.676944,-1776.494261,11325.150913
4081.904582,-2757.943793,-2442.679609,12805.562797
4081.904897,-2145.067394,-2886.803174,11769.274478
4081.905213,-229.828649,-2442.679609,11103.089130
4081.905528,1149.143247,-0.000000,10140.821405
4081.905843,1685.410096,1110.308913,8660.409521
4081.906159,1455.581446,2368.659014,7846.182985
4081.906474,306.438199,3478.967927,6439.791695
4081.906789,-383.047749,3182.885551,6957.935855
4081.907104,-1225.752797,1776.494261,8808.450710
4081.907420,-1915.238745,-222.061783,10584.944971
4081.907735,-2221.676944,-1776.494261,10881.027347
4081.908050,-2221.676944,-3256.906145,12879.583391
4081.908365,-1302.362347,-2886.803174,12361.439231
4081.908681,0.000000,-2590.720797,10510.924376
