#time,accel_x,accel_y,accel_z
3686.393607,2374.896044,1924.535449,9696.697840
3686.393921,2145.067394,1628.453072,9400.615463
3686.394236,1915.238745,1332.370696,9548.656652
3686.394550,1608.800546,1184.329507,9474.636058
3686.394864,1608.800546,962.267725,8882.471304
3686.395179,1455.581446,888.247130,9326.594869
3686.395493,1149.143247,592.164754,9178.553681
3686.395808,1149.143247,148.041188,8956.491898
3686.396122,689.485948,-0.000000,9400.615463
3686.396436,612.876398,-148.041188,9178.553681
3686.396751,459.657299,-148.041188,9400.615463
3686.397065,0.000000,-0.000000,9252.574275
3686.397380,229.828649,518.144159,9326.594869
3686.397694,0.000000,-0.000000,8956.491898
3686.398008,383.047749,296.082377,8660.409521
3686.398323,306.438199,-0.000000,8734.430116
3686.398637,459.657299,-222.061783,9030.512492
3686.398952,76.609550,-222.061783,9474.636058
3686.399266,0.000000,-370.102971,9252.574275
3686.399581,0.000000,-592.164754,9696.697840
3686.399895,-306.438199,-370.102971,9696.697840
3686.400209,-536.266849,-592.164754,9474.636058
3686.400524,0.000000,-370.102971,9548.656652
3686.400838,-306.438199,-518.144159,9548.656652
3686.401153,-229.828649,-518.144159,9474.636058
3686.401467,-229.828649,-518.144159,9548.656652
3686.401781,-229.828649,-592.164754,9474.636058
3686.402096,-153.219100,-592.164754,9770.718434
3686.402410,0.000000,-370.102971,9252.574275
3686.402725,306.438199,-148.041188,9252.574275
3686.403039,153.219100,-222.061783,9104.533087
3686.403353,229.828649,-518.144159,9104.533087
3686.403668,842.705048,-666.185348,9548.656652
3686.403982,536.266849,-518.144159,9326.594869
3686.404297,153.219100,-592.164754,9548.656652
3686.404611,0.000000,-592.164754,9696.697840
3686.404925,-229.828649,-962.267725,9622.677246
3686.405240,-153.219100,-370.102971,10214.842000
3686.405554,-229.828649,-296.082377,9474.636058
3686.405869,-153.219100,-592.164754,9400.615463
3686.406183,153.219100,-222.061783,9474.636058
3686.406498,229.828649,-148.041188,9474.636058
3686.406812,229.828649,-592.164754,9030.512492
3686.407126,-306.438199,-148.041188,9474.636058
3686.407441,229.828649,-0.000000,9474.636058
3686.407755,76.609550,-0.000000,9696.697840
3686.408070,229.828649,-0.000000,9622.677246
3686.408384,229.828649,222.061783,9474.636058
3686.408698,306.438199,518.144159,9474.636058
3686.409013,383.047749,740.205942,9104.533087
3686.409327,459.657299,444.123565,9400.615463
3686.409642,383.047749,666.185348,9844.739029
3686.409956,612.876398,1258.350101,9770.718434
3686.410270,612.876398,666.185348,9326.594869
3686.410585,306.438199,666.185348,9474.636058
3686.410899,612.876398,814.226536,9548.656652
3686.411214,689.485948,814.226536,9622.677246
3686.411528,766.095498,740.205942,9400.615463
3686.411843,153.219100,888.247130,9474.636058
3686.412157,459.657299,1184.329507,9474.636058
3686.412471,306.438199,1184.329507,9548.656652
3686.412786,306.438199,814.226536,9622.677246
3686.413100,612.876398,592.164754,9622.677246
3686.413415,383.047749,888.247130,9770.718434
3686.413729,459.657299,888.247130,10066.800811
3686.414043,459.657299,666.185348,10140.821405
3686.414358,0.000000,888.247130,9918.759623
3686.414672,0.000000,814.226536,10214.842000
3686.414987,0.000000,592.164754,10584.944971
3686.415301,-76.609550,592.164754,10362.883188
3686.415615,-153.219100,518.144159,9992.780217
3686.415930,-229.828649,148.041188,10140.821405
3686.416244,-459.657299,370.102971,10288.862594
3686.416559,-306.438199,222.061783,9770.718434
3686.416873,0.000000,370.102971,10140.821405
3686.417188,0.000000,-0.000000,10584.944971
3686.417502,0.000000,444.123565,10066.800811
3686.417816,76.609550,-0.000000,9770.718434
3686.418131,76.609550,148.041188,10066.800811
3686.418445,306.438199,148.041188,9844.739029
3686.418760,229.828649,-0.000000,9548.656652
3686.419074,153.219100,-0.000000,9696.697840
3686.419388,459.657299,-0.000000,10214.842000
3686.419703,229.828649,-0.000000,9474.636058
3686.420017,76.609550,-0.000000,9474.636058
3686.420332,153.219100,-0.000000,9770.718434
3686.420646,0.000000,-0.000000,9622.677246
3686.420960,0.000000,-74.020594,9548.656652
3686.421275,76.609550,-0.000000,9474.636058
3686.421589,229.828649,-0.000000,9400.615463
3686.421904,76.609550,-148.041188,9104.533087
3686.422218,153.219100,-74.020594,9252.574275
3686.422532,306.438199,-148.041188,9104.533087
3686.422847,0.000000,-222.061783,9178.553681
3686.423161,153.219100,-74.020594,9400.615463
3686.423476,153.219100,-0.000000,9178.553681
3686.423790,0.000000,-222.061783,9178.553681
3686.424105,-153.219100,-592.164754,9178.553681
3686.424419,0.000000,-444.123565,9104.533087
3686.424733,153.219100,-444.123565,9622.677246
3686.425048,0.000000,-222.061783,9030.512492
3686.425362,-306.438199,-444.123565,8660.409521
3686.425677,0.000000,-666.185348,9474.636058
3686.425991,0.000000,-444.123565,9030.512492
3686.426305,0.000000,-370.102971,9326.594869
3686.426620,76.609550,-592.164754,9474.636058
3686.426934,76.609550,-666.185348,9326.594869
3686.427249,76.609550,-740.205942,9474.636058
3686.427563,153.219100,-148.041188,9030.512492
3686.427877,0.000000,-592.164754,9918.759623
3686.428192,0.000000,-370.102971,9918.759623
3686.428506,0.000000,-444.123565,9622.677246
3686.428821,0.000000,-148.041188,9548.656652
3686.429135,383.047749,-148.041188,9844.739029
3686.429450,0.000000,-370.102971,9844.739029
3686.429764,0.000000,-222.061783,9918.759623
3686.430078,0.000000,-222.061783,9992.780217
3686.430393,0.000000,-370.102971,9770.718434
3686.430707,0.000000,74.020594,9548.656652
3686.431022,0.000000,-0.000000,9770.718434
3686.431336,-229.828649,370.102971,10066.800811
3686.431650,-76.609550,222.061783,9548.656652
3686.431965,0.000000,296.082377,9474.636058
3686.432279,0.000000,370.102971,9474.636058
3686.432594,0.000000,518.144159,9474.636058
3686.432908,0.000000,740.205942,9696.697840
3686.433222,0.000000,370.102971,9474.636058
3686.433537,306.438199,444.123565,9474.636058
3686.433851,76.609550,666.185348,9622.677246
3686.434166,76.609550,740.205942,9548.656652
3686.434480,0.000000,518.144159,9696.697840
3686.434794,0.000000,740.205942,9474.636058
3686.435109,76.609550,962.267725,9474.636058
3686.435423,153.219100,-0.000000,9252.574275
3686.435738,229.828649,592.164754,9696.697840
3686.436052,76.609550,740.205942,9400.615463
3686.436366,0.000000,666.185348,9178.553681
3686.436681,0.000000,518.144159,9474.636058
3686.436995,459.657299,740.205942,9474.636058
3686.437309,153.219100,518.144159,9548.656652
3686.437623,153.219100,444.123565,9548.656652
3686.437938,306.438199,888.247130,9474.636058
3686.438252,459.657299,962.267725,9548.656652
3686.438566,383.047749,296.082377,9770.718434
3686.438880,459.657299,222.061783,10066.800811
3686.439195,76.609550,296.082377,9696.697840
3686.439509,459.657299,-0.000000,9696.697840
3686.439823,76.609550,444.123565,9992.780217
3686.440137,76.609550,444.123565,10066.800811
3686.440452,0.000000,370.102971,10066.800811
3686.440766,76.609550,-0.000000,9844.739029
3686.441080,0.000000,-0.000000,9696.697840
3686.441394,459.657299,444.123565,9474.636058
3686.441709,0.000000,-0.000000,9622.677246
3686.442023,0.000000,-0.000000,9918.759623
3686.442337,0.000000,-0.000000,9696.697840
3686.442651,0.000000,-296.082377,9696.697840
3686.442966,229.828649,148.041188,9844.739029
3686.443280,0.000000,-0.000000,9622.677246
3686.443594,76.609550,-0.000000,9918.759623
3686.443908,0.000000,-0.000000,9622.677246
3686.444223,536.266849,222.061783,9844.739029
3686.444537,229.828649,-0.000000,9696.697840
3686.444851,0.000000,296.082377,9030.512492
3686.445165,76.609550,-0.000000,9622.677246
3686.445480,0.000000,-148.041188,9326.594869
3686.445794,-229.828649,-222.061783,9178.553681
3686.446108,0.000000,-148.041188,9178.553681
3686.446422,0.000000,-0.000000,9252.574275
3686.446737,0.000000,-0.000000,9474.636058
3686.447051,0.000000,-0.000000,8808.450710
3686.447365,76.609550,-148.041188,9252.574275
3686.447679,229.828649,-74.020594,9252.574275
3686.447994,0.000000,-148.041188,9252.574275
3686.448308,229.828649,-0.000000,9178.553681
3686.448622,76.609550,-0.000000,9104.533087
3686.448936,536.266849,-0.000000,9030.512492
3686.449251,306.438199,-148.041188,8882.471304
3686.449565,229.828649,-74.020594,9474.636058
3686.449879,153.219100,-0.000000,9696.697840
3686.450193,229.828649,-0.000000,9252.574275
3686.450508,536.266849,-0.000000,9622.677246
3686.450822,153.219100,-74.020594,9844.739029
3686.451136,0.000000,-222.061783,9548.656652
3686.451450,76.609550,-74.020594,9400.615463
3686.451765,0.000000,-0.000000,9548.656652
3686.452079,76.609550,296.082377,9918.759623
3686.452393,383.047749,222.061783,9918.759623
3686.452707,76.609550,-0.000000,9844.739029
3686.453021,0.000000,222.061783,9770.718434
3686.453336,306.438199,-74.020594,9918.759623
3686.453650,0.000000,296.082377,9918.759623
3686.453964,306.438199,370.102971,9918.759623
3686.454278,153.219100,444.123565,10214.842000
3686.454593,0.000000,370.102971,9844.739029
3686.454907,0.000000,296.082377,9918.759623
3686.455221,306.438199,-0.000000,10214.842000
3686.455535,0.000000,444.123565,9918.759623
3686.455850,0.000000,444.123565,10214.842000
3686.456164,0.000000,370.102971,9918.759623
3686.456478,76.609550,222.061783,9696.697840
3686.456792,229.828649,518.144159,9548.656652
3686.457107,0.000000,740.205942,9770.718434
3686.457421,153.219100,740.205942,9696.697840
3686.457735,76.609550,518.144159,9474.636058
3686.458049,76.609550,814.226536,9548.656652
3686.458364,306.438199,518.144159,9548.656652
3686.458678,459.657299,666.185348,9548.656652
3686.458992,153.219100,666.185348,9622.677246
3686.459306,0.000000,222.061783,9474.636058
3686.459621,536.266849,666.185348,9918.759623
3686.459935,612.876398,444.123565,9400.615463
3686.460249,459.657299,370.102971,9400.615463
3686.460563,76.609550,592.164754,10066.800811
3686.460878,459.657299,444.123565,9548.656652
3686.461192,536.266849,370.102971,9474.636058
3686.461506,383.047749,370.102971,9474.636058
3686.461820,153.219100,370.102971,9622.677246
3686.462135,153.219100,296.082377,9400.615463
3686.462449,612.876398,222.061783,9474.636058
3686.462763,306.438199,148.041188,9622.677246
3686.463077,306.438199,370.102971,9696.697840
3686.463392,76.609550,222.061783,9622.677246
3686.463706,0.000000,-0.000000,9622.677246
3686.464020,0.000000,-0.000000,9696.697840
3686.464334,76.609550,-0.000000,9400.615463
3686.464649,153.219100,-0.000000,9696.697840
3686.464963,76.609550,-74.020594,10436.903782
3686.465277,153.219100,-0.000000,9770.718434
3686.465591,76.609550,-74.020594,9252.574275
3686.465906,0.000000,-0.000000,9622.677246
3686.466220,306.438199,-74.020594,9548.656652
3686.466534,0.000000,-0.000000,9548.656652
3686.466848,0.000000,-222.061783,9252.574275
3686.467163,0.000000,-444.123565,9400.615463
3686.467477,0.000000,-148.041188,9252.574275
3686.467791,0.000000,-0.000000,9252.574275
3686.468105,0.000000,-0.000000,9696.697840
3686.468420,0.000000,-74.020594,9770.718434
3686.468734,76.609550,-148.041188,9474.636058
3686.469048,306.438199,-222.061783,9474.636058
3686.469362,153.219100,-148.041188,9844.739029
3686.469677,306.438199,-0.000000,9474.636058
3686.469991,76.609550,-148.041188,9030.512492
3686.470305,229.828649,-222.061783,9548.656652
3686.470619,229.828649,-0.000000,9104.533087
3686.470934,0.000000,-74.020594,9252.574275
3686.471248,0.000000,-296.082377,9400.615463
3686.471562,76.609550,-222.061783,9326.594869
3686.471876,0.000000,-0.000000,9178.553681
3686.472191,459.657299,-74.020594,9474.636058
3686.472505,766.095498,-444.123565,9696.697840
3686.472819,76.609550,296.082377,9548.656652
3686.473133,153.219100,-0.000000,9178.553681
3686.473448,306.438199,-0.000000,9548.656652
3686.473762,459.657299,-0.000000,9474.636058
3686.474076,383.047749,-0.000000,9622.677246
3686.474390,76.609550,222.061783,9326.594869
3686.474705,0.000000,222.061783,9622.677246
3686.475019,76.609550,148.041188,9474.636058
3686.475333,0.000000,222.061783,9622.677246
3686.475647,0.000000,-0.000000,10288.862594
3686.475962,0.000000,222.061783,9622.677246
3686.476276,76.609550,370.102971,9548.656652
3686.476590,76.609550,370.102971,9474.636058
3686.476904,153.219100,148.041188,10140.821405
3686.477219,0.000000,-0.000000,9992.780217
3686.477533,0.000000,-0.000000,9622.677246
3686.477847,0.000000,-0.000000,9622.677246
3686.478161,0.000000,222.061783,9622.677246
3686.478476,76.609550,592.164754,9474.636058
3686.478790,0.000000,-0.000000,9548.656652
3686.479104,-229.828649,148.041188,9918.759623
3686.479418,0.000000,370.102971,9992.780217
3686.479733,153.219100,370.102971,9622.677246
3686.480047,536.266849,-0.000000,9770.718434
3686.480361,76.609550,296.082377,9992.780217
3686.480675,0.000000,296.082377,9622.677246
3686.480990,306.438199,-0.000000,9770.718434
3686.481304,229.828649,222.061783,9696.697840
3686.481618,76.609550,370.102971,9992.780217
3686.481932,0.000000,-148.041188,9400.615463
3686.482247,0.000000,296.082377,9844.739029
3686.482561,0.000000,-0.000000,9696.697840
3686.482875,0.000000,148.041188,9474.636058
3686.483189,306.438199,-0.000000,9696.697840
3686.483504,76.609550,222.061783,9696.697840
3686.483818,0.000000,-0.000000,9474.636058
3686.484132,306.438199,222.061783,9548.656652
3686.484446,306.438199,222.061783,9696.697840
3686.484760,459.657299,592.164754,10066.800811
3686.485075,76.609550,518.144159,9474.636058
3686.485389,0.000000,-0.000000,9696.697840
3686.485703,76.609550,296.082377,9474.636058
3686.486017,229.828649,222.061783,9548.656652
3686.486332,-153.219100,-74.020594,9326.594869
3686.486646,0.000000,222.061783,9474.636058
3686.486960,76.609550,222.061783,9770.718434
3686.487274,0.000000,222.061783,9326.594869
3686.487589,153.219100,74.020594,9844.739029
3686.487903,0.000000,-0.000000,9548.656652
3686.488217,0.000000,-0.000000,9474.636058
3686.488531,0.000000,-0.000000,9178.553681
3686.488846,76.609550,-0.000000,9474.636058
3686.489160,0.000000,-74.020594,9992.780217
3686.489474,0.000000,-0.000000,9400.615463
3686.489788,76.609550,-0.000000,9400.615463
3686.490103,76.609550,-0.000000,9622.677246
3686.490417,153.219100,-0.000000,9770.718434
3686.490731,229.828649,-0.000000,9696.697840
3686.491045,0.000000,-74.020594,9548.656652
3686.491360,0.000000,-296.082377,9178.553681
3686.491674,0.000000,-0.000000,9326.594869
3686.491988,76.609550,-0.000000,9474.636058
3686.492302,383.047749,-148.041188,9326.594869
3686.492617,0.000000,-74.020594,9548.656652
3686.492931,306.438199,-74.020594,9474.636058
3686.493245,0.000000,-0.000000,9400.615463
3686.493559,0.000000,-0.000000,9622.677246
3686.493874,459.657299,-0.000000,9696.697840
3686.494188,0.000000,148.041188,9992.780217
3686.494502,0.000000,-0.000000,9992.780217
3686.494816,0.000000,-0.000000,9252.574275
3686.495131,306.438199,444.123565,9548.656652
3686.495445,0.000000,74.020594,9992.780217
3686.495759,0.000000,444.123565,9474.636058
3686.496073,229.828649,-0.000000,9548.656652
3686.496388,0.000000,148.041188,9622.677246
3686.496702,0.000000,296.082377,9844.739029
3686.497016,76.609550,370.102971,9474.636058
3686.497330,0.000000,222.061783,9474.636058
3686.497645,76.609550,444.123565,10066.800811
3686.497959,229.828649,222.061783,9474.636058
3686.498273,76.609550,518.144159,9474.636058
3686.498587,0.000000,370.102971,9622.677246
3686.498902,0.000000,296.082377,9474.636058
3686.499216,0.000000,296.082377,9474.636058
3686.499530,0.000000,-0.000000,9696.697840
3686.499844,0.000000,518.144159,9918.759623
3686.500159,0.000000,370.102971,9474.636058
3686.500473,0.000000,444.123565,9400.615463
3686.500787,0.000000,222.061783,9548.656652
3686.501101,536.266849,370.102971,9548.656652
3686.501416,229.828649,370.102971,9696.697840
3686.501730,0.000000,444.123565,9474.636058
3686.502044,229.828649,296.082377,9474.636058
3686.502358,536.266849,444.123565,9400.615463
3686.502673,612.876398,370.102971,9622.677246
3686.502987,306.438199,148.041188,9696.697840
3686.503301,153.219100,-0.000000,9622.677246
3686.503615,0.000000,222.061783,9548.656652
3686.503930,153.219100,-0.000000,9622.677246
3686.504244,-229.828649,296.082377,9844.739029
3686.504558,0.000000,222.061783,9622.677246
3686.504872,153.219100,-0.000000,9474.636058
3686.505187,0.000000,222.061783,10066.800811
3686.505501,153.219100,-0.000000,9696.697840
3686.505815,76.609550,-0.000000,9474.636058
3686.506129,76.609550,370.102971,9992.780217
3686.506444,0.000000,222.061783,9770.718434
3686.506758,0.000000,-0.000000,9548.656652
3686.507072,383.047749,222.061783,9622.677246
3686.507386,0.000000,666.185348,10066.800811
3686.507701,153.219100,-0.000000,9770.718434
3686.508015,153.219100,370.102971,9474.636058
3686.508329,0.000000,-0.000000,9548.656652
3686.508643,0.000000,-0.000000,9844.739029
3686.508958,229.828649,-148.041188,9770.718434
3686.509272,306.438199,-0.000000,9548.656652
3686.509586,0.000000,-0.000000,9474.636058
3686.509900,0.000000,148.041188,9474.636058
3686.510215,0.000000,-0.000000,9400.615463
3686.510529,306.438199,-0.000000,9474.636058
3686.510843,76.609550,-0.000000,9474.636058
3686.511157,0.000000,222.061783,9252.574275
3686.511472,76.609550,-0.000000,9474.636058
3686.511786,459.657299,-0.000000,9696.697840
3686.512100,0.000000,-0.000000,9622.677246
3686.512414,153.219100,-0.000000,9400.615463
3686.512729,76.609550,222.061783,9326.594869
3686.513043,153.219100,-0.000000,9474.636058
3686.513357,383.047749,-0.000000,9400.615463
3686.513671,0.000000,-74.020594,9474.636058
3686.513986,306.438199,-148.041188,9326.594869
3686.514300,0.000000,-0.000000,9104.533087
3686.514614,229.828649,-0.000000,9474.636058
3686.514928,612.876398,-74.020594,9696.697840
3686.515242,229.828649,-222.061783,9770.718434
3686.515557,306.438199,-74.020594,9548.656652
3686.515871,76.609550,-0.000000,9622.677246
3686.516185,76.609550,222.061783,9696.697840
3686.516499,229.828649,-222.061783,9548.656652
3686.516814,0.000000,-0.000000,9474.636058
3686.517128,0.000000,-0.000000,9548.656652
3686.517442,76.609550,-0.000000,9548.656652
3686.517756,0.000000,-0.000000,9474.636058
3686.518071,306.438199,148.041188,9696.697840
3686.518385,76.609550,-0.000000,9844.739029
3686.518699,153.219100,370.102971,9918.759623
3686.519013,0.000000,74.020594,9696.697840
3686.519328,0.000000,-0.000000,9844.739029
3686.519642,153.219100,222.061783,9844.739029
3686.519956,0.000000,-0.000000,9400.615463
3686.520270,153.219100,-0.000000,9770.718434
3686.520585,0.000000,444.123565,9770.718434
3686.520899,0.000000,-0.000000,9548.656652
3686.521213,153.219100,296.082377,9400.615463
3686.521527,0.000000,-148.041188,9548.656652
3686.521842,0.000000,296.082377,9474.636058
3686.522156,0.000000,222.061783,9474.636058
3686.522470,0.000000,296.082377,9474.636058
3686.522784,0.000000,222.061783,9474.636058
3686.523099,0.000000,222.061783,9474.636058
3686.523413,383.047749,370.102971,9548.656652
3686.523727,76.609550,222.061783,9548.656652
3686.524041,306.438199,222.061783,9400.615463
3686.524356,0.000000,-0.000000,9474.636058
3686.524670,0.000000,-370.102971,9548.656652
3686.524984,0.000000,222.061783,9696.697840
3686.525298,76.609550,-0.000000,9178.553681
3686.525613,153.219100,-0.000000,9622.677246
3686.525927,0.000000,222.061783,9770.718434
3686.526241,306.438199,370.102971,9622.677246
3686.526555,153.219100,-0.000000,9474.636058
3686.526870,153.219100,-148.041188,9622.677246
3686.527184,153.219100,-0.000000,9844.739029
3686.527498,229.828649,-0.000000,9326.594869
3686.527812,383.047749,-0.000000,9770.718434
3686.528127,306.438199,-0.000000,9474.636058
3686.528441,306.438199,-0.000000,9548.656652
3686.528755,76.609550,-0.000000,9474.636058
3686.529069,0.000000,-0.000000,9696.697840
3686.529384,0.000000,-0.000000,9770.718434
3686.529698,153.219100,-0.000000,9548.656652
3686.530012,153.219100,-0.000000,9548.656652
3686.530326,76.609550,-0.000000,9918.759623
3686.530641,-306.438199,-0.000000,9474.636058
3686.530955,-229.828649,148.041188,9696.697840
3686.531269,153.219100,-0.000000,9474.636058
3686.531583,0.000000,-0.000000,9474.636058
3686.531898,0.000000,-0.000000,9400.615463
3686.532212,76.609550,-0.000000,9474.636058
3686.532526,0.000000,-0.000000,9474.636058
3686.532840,0.000000,-148.041188,9252.574275
3686.533155,229.828649,-0.000000,9548.656652
3686.533469,-229.828649,-0.000000,9474.636058
3686.533783,229.828649,-148.041188,9474.636058
3686.534097,229.828649,-0.000000,9548.656652
3686.534412,306.438199,-0.000000,9474.636058
3686.534726,306.438199,-0.000000,9474.636058
3686.535040,229.828649,148.041188,9104.533087
3686.535354,0.000000,-222.061783,9400.615463
3686.535669,76.609550,222.061783,9992.780217
3686.535983,229.828649,-0.000000,9474.636058
3686.536297,153.219100,-74.020594,9326.594869
3686.536611,229.828649,-0.000000,9548.656652
3686.536926,0.000000,-0.000000,9696.697840
3686.537240,0.000000,222.061783,9252.574275
3686.537555,153.219100,148.041188,9030.512492
3686.537869,0.000000,370.102971,9770.718434
3686.538184,229.828649,-0.000000,9622.677246
3686.538498,153.219100,296.082377,9844.739029
3686.538812,229.828649,222.061783,9696.697840
3686.539127,153.219100,222.061783,9474.636058
3686.539441,306.438199,296.082377,9548.656652
3686.539756,153.219100,-0.000000,9622.677246
3686.540070,229.828649,-0.000000,10362.883188
3686.540385,0.000000,296.082377,9770.718434
3686.540699,76.609550,296.082377,9622.677246
3686.541014,153.219100,296.082377,9918.759623
3686.541328,383.047749,296.082377,9992.780217
3686.541643,-383.047749,222.061783,9696.697840
3686.541957,-76.609550,-0.000000,9770.718434
3686.542271,229.828649,370.102971,9474.636058
3686.542586,76.609550,148.041188,9548.656652
3686.542900,229.828649,222.061783,9622.677246
3686.543215,383.047749,-0.000000,9548.656652
3686.543529,153.219100,-0.000000,9622.677246
3686.543844,459.657299,-0.000000,9770.718434
3686.544158,383.047749,148.041188,9918.759623
3686.544473,76.609550,444.123565,10066.800811
3686.544787,536.266849,592.164754,9400.615463
3686.545102,153.219100,296.082377,9474.636058
3686.545416,536.266849,370.102971,9696.697840
3686.545730,689.485948,592.164754,9178.553681
3686.546045,689.485948,444.123565,8882.471304
3686.546359,842.705048,370.102971,9474.636058
3686.546674,842.705048,296.082377,9400.615463
3686.546988,536.266849,518.144159,9622.677246
3686.547303,612.876398,370.102971,9844.739029
3686.547617,919.314598,518.144159,10066.800811
3686.547932,842.705048,666.185348,9992.780217
3686.548246,1302.362347,1036.288319,9326.594869
3686.548560,1532.190996,888.247130,9548.656652
3686.548875,1915.238745,1332.370696,10140.821405
3686.549189,1991.848295,1332.370696,9474.636058
3686.549504,2451.505594,1406.391290,9474.636058
3686.549818,2987.772442,1628.453072,9326.594869
3686.550133,2911.162892,1998.556043,9252.574275
3686.550447,3217.601092,2368.659014,9400.615463
3686.550762,3217.601092,2220.617826,9252.574275
3686.551076,3294.210641,2294.638420,9030.512492
3686.551391,3217.601092,2516.700203,9104.533087
3686.551705,3064.381992,2368.659014,9400.615463
3686.552019,3140.991542,2590.720797,9474.636058
3686.552334,3064.381992,2664.741391,9474.636058
3686.552648,2834.553343,3034.844362,9400.615463
3686.552963,3140.991542,3256.906145,8660.409521
3686.553277,2987.772442,3330.926739,8512.368333
3686.553592,3294.210641,3330.926739,8660.409521
3686.553906,2987.772442,3108.864956,8956.491898
3686.554221,2298.286494,3108.864956,9104.533087
3686.554535,2145.067394,2812.782580,9104.533087
3686.554850,1991.848295,2812.782580,9992.780217
3686.555164,2145.067394,2886.803174,10955.047942
3686.555478,2451.505594,3256.906145,10881.027347
3686.555793,2145.067394,4071.132681,10584.944971
3686.556107,2451.505594,4145.153275,10807.006753
3686.556422,2911.162892,4737.318029,10436.903782
3686.556736,3064.381992,4885.359217,9474.636058
3686.557051,3753.867940,4959.379811,9104.533087
3686.557365,3217.601092,5181.441594,9178.553681
3686.557680,3370.820191,4737.318029,9178.553681
3686.557994,2987.772442,4219.173869,9400.615463
3686.558308,2451.505594,3627.009116,9548.656652
3686.558623,1455.581446,2960.823768,10362.883188
3686.558937,1072.533697,2664.741391,11029.068536
3686.559252,0.000000,2294.638420,11325.150913
3686.559566,76.609550,1924.535449,11917.315666
3686.559881,306.438199,2072.576638,12287.418637
3686.560195,766.095498,2812.782580,11843.295072
3686.560510,995.924147,3330.926739,10881.027347
3686.560824,1532.190996,4071.132681,10140.821405
3686.561139,2681.334243,4367.215058,9474.636058
3686.561453,3370.820191,4367.215058,8734.430116
3686.561767,3600.648841,4145.153275,8364.327145
3686.562082,2987.772442,3701.029710,8660.409521
3686.562396,2528.115143,2516.700203,9252.574275
3686.562711,2145.067394,1628.453072,9992.780217
3686.563025,766.095498,962.267725,10436.903782
3686.563340,229.828649,518.144159,10732.986159
3686.563654,0.000000,222.061783,10881.027347
3686.563969,0.000000,666.185348,10881.027347
3686.564283,612.876398,1184.329507,10362.883188
3686.564598,995.924147,1776.494261,9030.512492
3686.564912,1762.019645,2072.576638,7920.203579
3686.565226,2528.115143,2146.597232,7550.100608
3686.565541,3294.210641,2072.576638,7698.141797
3686.565855,3294.210641,2072.576638,7846.182985
3686.566170,3140.991542,1480.411884,7994.224174
3686.566484,3140.991542,1110.308913,8734.430116
3686.566799,1838.629195,444.123565,9844.739029
3686.567113,1302.362347,814.226536,10584.944971
3686.567428,459.657299,296.082377,10584.944971
3686.567742,0.000000,-0.000000,10362.883188
3686.568056,0.000000,-74.020594,9770.718434
3686.568371,536.266849,222.061783,9326.594869
3686.568685,1378.971896,518.144159,8660.409521
3686.569000,1838.629195,888.247130,7772.162391
3686.569314,1991.848295,962.267725,7624.121203
3686.569629,2451.505594,444.123565,7994.224174
3686.569943,2221.676944,444.123565,8216.285956
3686.570258,1608.800546,-0.000000,9178.553681
3686.570572,842.705048,-0.000000,9992.780217
3686.570887,306.438199,-592.164754,10881.027347
3686.571201,0.000000,-1036.288319,11843.295072
3686.571515,-306.438199,-814.226536,11843.295072
3686.571830,-306.438199,-74.020594,11547.212695
3686.572144,0.000000,444.123565,10732.986159
3686.572459,995.924147,1554.432478,10288.862594
3686.572773,1378.971896,1702.473667,8956.491898
3686.573088,2298.286494,1776.494261,7328.038826
3686.573402,2604.724693,1480.411884,7402.059420
3686.573717,2221.676944,592.164754,7476.080014
3686.574031,1378.971896,-888.247130,8808.450710
3686.574345,612.876398,-1406.391290,9474.636058
3686.574660,-689.485948,-1850.514855,10881.027347
3686.574974,-1685.410096,-2294.638420,12065.356855
3686.575289,-2604.724693,-2146.597232,12287.418637
3686.575603,-2298.286494,-1554.432478,12657.521608
3686.575918,-2451.505594,-370.102971,11843.295072
3686.576232,-995.924147,666.185348,10658.965565
3686.576547,0.000000,1332.370696,9548.656652
3686.576861,1762.019645,1406.391290,8586.388927
3686.577176,2987.772442,2220.617826,7476.080014
3686.577490,3294.210641,2220.617826,6143.709319
3686.577804,3447.429741,2220.617826,6809.894666
3686.578119,2834.553343,1406.391290,8216.285956
3686.578433,1991.848295,-148.041188,9178.553681
3686.578748,0.000000,-592.164754,9770.718434
3686.579062,-1608.800546,-1628.453072,11029.068536
3686.579377,-2221.676944,-1850.514855,11991.336260
3686.579691,-3217.601092,-1480.411884,12139.377449
3686.580006,-2451.505594,-740.205942,11843.295072
3686.580320,-1532.190996,-0.000000,10510.924376
3686.580635,0.000000,1258.350101,8734.430116
3686.580949,1915.238745,2146.597232,7476.080014
3686.581263,2987.772442,3182.885551,6661.853478
3686.581578,3677.258390,2590.720797,6217.729913
3686.581892,3753.867940,2516.700203,6957.935855
3686.582207,3140.991542,1702.473667,7698.141797
3686.582521,1685.410096,814.226536,9400.615463
3686.582836,76.609550,222.061783,10807.006753
3686.583150,-1685.410096,-814.226536,12213.398043
3686.583465,-2528.115143,-1036.288319,13101.645173
3686.583779,-3064.381992,-666.185348,12435.459826
3686.584093,-2757.943793,-222.061783,12213.398043
3686.584408,-1225.752797,370.102971,11325.150913
3686.584722,-153.219100,1184.329507,9326.594869
3686.585037,1608.800546,1850.514855,7550.100608
3686.585351,2834.553343,2220.617826,6735.874072
3686.585666,2834.553343,1554.432478,7254.018232
3686.585980,2911.162892,1258.350101,7772.162391
3686.586295,1991.848295,592.164754,8586.388927
3686.586609,612.876398,222.061783,9770.718434
3686.586924,-612.876398,-148.041188,11029.068536
3686.587238,-1915.238745,-1110.308913,12435.459826
3686.587552,-2911.162892,-1110.308913,12731.542202
3686.587867,-2681.334243,-1332.370696,12509.480420
3686.588181,-2298.286494,-592.164754,11695.253884
3686.588496,-842.705048,296.082377,9770.718434
3686.588810,383.047749,370.102971,9030.512492
3686.589125,1838.629195,1406.391290,7550.100608
3686.589439,2681.334243,1332.370696,6957.935855
3686.589754,2528.115143,592.164754,7254.018232
3686.590068,2374.896044,296.082377,8216.285956
3686.590383,1302.362347,-74.020594,9474.636058
3686.590697,-383.047749,-740.205942,10510.924376
3686.591011,-1225.752797,-1924.535449,12213.398043
3686.591326,-2528.115143,-1480.411884,12583.501014
3686.591640,-2604.724693,-1258.350101,12361.439231
3686.591955,-2528.115143,-962.267725,11473.192101
3686.592269,-1838.629195,-0.000000,10584.944971
3686.592584,383.047749,814.226536,8882.471304
3686.592898,1608.800546,1258.350101,7105.977043
3686.593213,2451.505594,1776.494261,6069.688724
3686.593527,2987.772442,1036.288319,6513.812290
3686.593841,3064.381992,-0.000000,6957.935855
3686.594156,2068.457845,-1036.288319,8586.388927
3686.594470,306.438199,-1110.308913,9400.615463
3686.594785,-842.705048,-1998.556043,10658.965565
3686.595099,-2451.505594,-2368.659014,12361.439231
3686.595414,-3140.991542,-2220.617826,13101.645173
3686.595728,-2987.772442,-962.267725,11473.192101
3686.596043,-2374.896044,-592.164754,10881.027347
3686.596357,-383.047749,-222.061783,9474.636058
3686.596672,1378.971896,444.123565,7698.141797
3686.596986,2374.896044,1776.494261,5773.606348
3686.597300,2987.772442,1628.453072,5329.482782
3686.597615,3217.601092,814.226536,6513.812290
3686.597929,2757.943793,-148.041188,7698.141797
3686.598244,1072.533697,-740.205942,8956.491898
3686.598558,-1149.143247,-1406.391290,10658.965565
3686.598873,-2145.067394,-2146.597232,12583.501014
3686.599187,-2757.943793,-2368.659014,13175.665768
3686.599502,-3447.429741,-2072.576638,12435.459826
3686.599816,-3447.429741,-1184.329507,11843.295072
3686.600131,-1915.238745,-74.020594,10510.924376
3686.600445,76.609550,962.267725,8290.306550
3686.600759,2145.067394,2072.576638,6513.812290
3686.601074,3294.210641,2886.803174,5551.544565
3686.601388,3677.258390,2146.597232,6735.874072
3686.601703,3447.429741,666.185348,6661.853478
3686.602017,2068.457845,444.123565,8438.347739
3686.602332,0.000000,296.082377,10214.842000
3686.602646,-2145.067394,-1332.370696,12287.418637
3686.602961,-2757.943793,-1998.556043,14211.954086
3686.603275,-3600.648841,-1036.288319,13249.686362
3686.603589,-3983.696590,-222.061783,11917.315666
3686.603904,-2987.772442,444.123565,11695.253884
3686.604218,-1302.362347,1184.329507,9770.718434
3686.604533,766.095498,2294.638420,7624.121203
3686.604847,2451.505594,3034.844362,6365.771101
3686.605162,2987.772442,2886.803174,6143.709319
3686.605476,3677.258390,2146.597232,7772.162391
3686.605791,2911.162892,962.267725,8290.306550
3686.606105,1378.971896,888.247130,10510.924376
3686.606420,-689.485948,444.123565,11473.192101
3686.606734,-2221.676944,-962.267725,13471.748144
3686.607048,-2528.115143,-962.267725,13249.686362
3686.607363,-3447.429741,-296.082377,12657.521608
3686.607677,-2834.553343,-0.000000,11917.315666
3686.607992,-1608.800546,666.185348,10362.883188
3686.608306,459.657299,1628.453072,8216.285956
3686.608621,2374.896044,2960.823768,5699.585753
3686.608935,3217.601092,2886.803174,5329.482782
3686.609250,4136.915689,2146.597232,7031.956449
3686.609564,3983.696590,222.061783,7179.997637
3686.609879,2604.724693,222.061783,8734.430116
3686.610193,536.266849,-74.020594,10066.800811
3686.610507,-1685.410096,-1258.350101,12139.377449
3686.610822,-2451.505594,-2146.597232,13175.665768
3686.611136,-3140.991542,-1554.432478,12953.603985
3686.611451,-2681.334243,-592.164754,11695.253884
3686.611765,-1991.848295,-0.000000,10955.047942
3686.612080,-229.828649,962.267725,9252.574275
3686.612394,1455.581446,1776.494261,7254.018232
3686.612709,2911.162892,3034.844362,4811.338623
3686.613023,3600.648841,1998.556043,5995.668130
3686.613337,4213.525239,666.185348,7105.977043
3686.613652,4290.134789,-296.082377,8882.471304
3686.613966,1225.752797,-444.123565,9770.718434
3686.614281,-459.657299,-1406.391290,11325.150913
3686.614595,-1915.238745,-1776.494261,13027.624579
3686.614910,-2298.286494,-1554.432478,13989.892304
3686.615224,-3217.601092,-740.205942,12435.459826
3686.615539,-2604.724693,-0.000000,11103.089130
3686.615853,-1072.533697,296.082377,9252.574275
3686.616168,1225.752797,1036.288319,7624.121203
3686.616482,2528.115143,2368.659014,5477.523971
3686.616796,3447.429741,1776.494261,5329.482782
3686.617111,3600.648841,888.247130,6291.750507
3686.617425,3370.820191,-370.102971,7550.100608
3686.617740,1838.629195,-814.226536,9178.553681
3686.618054,-459.657299,-1036.288319,10584.944971
3686.618369,-2374.896044,-2368.659014,13175.665768
3686.618683,-2834.553343,-2738.761985,14063.912898
3686.618998,-3524.039291,-1406.391290,12065.356855
3686.619312,-4060.306139,-296.082377,11547.212695
3686.619627,-2604.724693,-518.144159,10807.006753
3686.619941,-383.047749,296.082377,8882.471304
3686.620255,1915.238745,2294.638420,6661.853478
3686.620570,3294.210641,2812.782580,5255.462188
3686.620884,3753.867940,2220.617826,6069.688724
3686.621199,3830.477490,444.123565,7550.100608
3686.621513,2451.505594,-740.205942,9400.615463
3686.621828,383.047749,-814.226536,10584.944971
3686.622142,-1378.971896,-1628.453072,12065.356855
3686.622457,-2451.505594,-3034.844362,13989.892304
3686.622771,-3217.601092,-2146.597232,13323.706956
3686.623085,-4213.525239,-1332.370696,11917.315666
3686.623400,-3753.867940,-222.061783,11029.068536
3686.623714,-1915.238745,148.041188,10066.800811
3686.624029,536.266849,1184.329507,7550.100608
3686.624343,2298.286494,2664.741391,5329.482782
3686.624658,3524.039291,2368.659014,6143.709319
3686.624972,4136.915689,1036.288319,7254.018232
3686.625287,3907.087040,-518.144159,7994.224174
3686.625601,2068.457845,-0.000000,9474.636058
3686.625916,-536.266849,-666.185348,11103.089130
3686.626230,-2068.457845,-1332.370696,12879.583391
3686.626544,-2604.724693,-1628.453072,13471.748144
3686.626859,-3294.210641,-814.226536,11843.295072
3686.627173,-3830.477490,-222.061783,11325.150913
3686.627488,-3677.258390,296.082377,11029.068536
3686.627802,-766.095498,-0.000000,8660.409521
3686.628117,1991.848295,1702.473667,7105.977043
3686.628431,2834.553343,2960.823768,4885.359217
3686.628746,3600.648841,1776.494261,6365.771101
3686.629060,4290.134789,444.123565,7624.121203
3686.629375,3217.601092,-74.020594,9474.636058
3686.629689,842.705048,370.102971,9992.780217
3686.630003,-1225.752797,-740.205942,11843.295072
3686.630318,-2221.676944,-1628.453072,13545.768739
3686.630632,-2374.896044,-962.267725,13175.665768
3686.630947,-2911.162892,-74.020594,11843.295072
3686.631261,-2221.676944,370.102971,10955.047942
3686.631576,-766.095498,814.226536,9178.553681
3686.631890,1072.533697,1924.535449,7105.977043
3686.632205,2757.943793,3552.988522,5033.400406
3686.632519,3907.087040,2220.617826,6291.750507
3686.632833,4290.134789,1406.391290,6809.894666
3686.633148,3907.087040,-74.020594,8216.285956
3686.633462,2298.286494,222.061783,9326.594869
3686.633777,-306.438199,-666.185348,11399.171507
3686.634091,-2145.067394,-1480.411884,12657.521608
3686.634406,-2757.943793,-1998.556043,14211.954086
3686.634720,-2987.772442,-370.102971,12361.439231
3686.635035,-3140.991542,666.185348,11917.315666
3686.635349,-1991.848295,1036.288319,10140.821405
3686.635664,-76.609550,1406.391290,9326.594869
3686.635978,2374.896044,2812.782580,6883.915261
3686.636292,3447.429741,3034.844362,5181.441594
3686.636607,4213.525239,1998.556043,6513.812290
3686.636921,4290.134789,444.123565,7772.162391
3686.637236,2528.115143,-444.123565,9548.656652
3686.637561,536.266849,-0.000000,10510.924376
3686.637876,-1762.019645,-1406.391290,12657.521608
3686.638190,-2757.943793,-1998.556043,14508.036463
3686.638504,-3294.210641,-1184.329507,13471.748144
3686.638819,-3600.648841,-444.123565,11843.295072
3686.639133,-3370.820191,-0.000000,11399.171507
3686.639448,-1378.971896,444.123565,9696.697840
3686.639762,1149.143247,1406.391290,7698.141797
3686.640076,2834.553343,3108.864956,5625.565159
3686.640391,4213.525239,2442.679609,5921.647536
3686.640705,4290.134789,1258.350101,7105.977043
3686.641019,4213.525239,-74.020594,8142.265362
3686.641334,1991.848295,-74.020594,9400.615463
3686.641648,-612.876398,-444.123565,10881.027347
3686.641963,-2374.896044,-2664.741391,12953.603985
3686.642277,-2681.334243,-2442.679609,13545.768739
3686.642591,-3830.477490,-1628.453072,12139.377449
3686.642906,-3983.696590,-666.185348,11103.089130
3686.643220,-3064.381992,-518.144159,10288.862594
3686.643534,-689.485948,-0.000000,8512.368333
3686.643849,1378.971896,1628.453072,6069.688724
3686.644163,3064.381992,2442.679609,5107.421000
3686.644478,3677.258390,1258.350101,6439.791695
3686.644792,4136.915689,-148.041188,6809.894666
3686.645106,2681.334243,-1036.288319,8660.409521
3686.645421,383.047749,-296.082377,10288.862594
3686.645735,-1302.362347,-1332.370696,12953.603985
3686.646049,-2528.115143,-2072.576638,13545.768739
3686.646364,-3064.381992,-1850.514855,12509.480420
3686.646678,-3524.039291,-666.185348,11103.089130
3686.646993,-3294.210641,-296.082377,11029.068536
3686.647307,-1455.581446,-740.205942,9030.512492
3686.647621,689.485948,740.205942,7254.018232
3686.647936,2221.676944,2516.700203,5403.503377
3686.648250,3140.991542,1702.473667,5625.565159
3686.648564,3983.696590,592.164754,7031.956449
3686.648879,3370.820191,-814.226536,8364.327145
3686.649193,1455.581446,-814.226536,9326.594869
3686.649508,-995.924147,-1258.350101,11251.130318
3686.649822,-2145.067394,-2368.659014,13249.686362
3686.650136,-2451.505594,-2146.597232,13767.830521
3686.650451,-3064.381992,-814.226536,11843.295072
3686.650765,-3217.601092,-0.000000,11103.089130
3686.651079,-2374.896044,-0.000000,10066.800811
3686.651394,-229.828649,666.185348,8216.285956
3686.651708,2068.457845,2368.659014,6143.709319
3686.652023,3753.867940,2516.700203,5403.503377
3686.652337,4213.525239,1184.329507,6513.812290
3686.652651,4213.525239,-296.082377,7698.141797
3686.652966,2451.505594,-592.164754,9326.594869
3686.653280,-229.828649,-370.102971,11177.109724
3686.653594,-2145.067394,-2368.659014,13101.645173
3686.653909,-2604.724693,-2072.576638,13397.727550
3686.654223,-2911.162892,-740.205942,12583.501014
3686.654537,-3217.601092,-0.000000,11473.192101
3686.654852,-2451.505594,740.205942,11251.130318
3686.655166,-229.828649,962.267725,9474.636058
3686.655481,1149.143247,2146.597232,7328.038826
3686.655795,2987.772442,3701.029710,4737.318029
3686.656109,3983.696590,2294.638420,6217.729913
3686.656424,4749.792088,1184.329507,7254.018232
3686.656738,3677.258390,-370.102971,9104.533087
3686.657052,1608.800546,296.082377,9844.739029
3686.657367,-1455.581446,-1036.288319,11843.295072
3686.657681,-2681.334243,-1406.391290,13249.686362
3686.657996,-3064.381992,-1702.473667,14063.912898
3686.658310,-3524.039291,-222.061783,12213.398043
3686.658624,-3830.477490,-0.000000,11695.253884
3686.658939,-2451.505594,296.082377,10288.862594
3686.659253,0.000000,1036.288319,8216.285956
3686.659567,2145.067394,2738.761985,6513.812290
3686.659882,3753.867940,3108.864956,5107.421000
3686.660196,4136.915689,1998.556043,6809.894666
3686.660511,4060.306139,814.226536,7550.100608
3686.660825,2604.724693,148.041188,9474.636058
3686.661139,306.438199,-0.000000,11029.068536
3686.661454,-1532.190996,-1110.308913,12879.583391
3686.661768,-2757.943793,-1850.514855,14063.912898
3686.662082,-2987.772442,-1036.288319,12953.603985
3686.662397,-3753.867940,-370.102971,11399.171507
3686.662711,-3217.601092,-0.000000,11325.150913
3686.663026,-1455.581446,444.123565,9400.615463
3686.663340,995.924147,1554.432478,7254.018232
3686.663654,2757.943793,2960.823768,4885.359217
3686.663969,3907.087040,1924.535449,6587.832884
3686.664283,4366.744339,888.247130,6735.874072
3686.664597,4060.306139,-370.102971,8068.244768
3686.664912,1838.629195,-0.000000,9622.677246
3686.665226,-919.314598,-592.164754,10881.027347
3686.665541,-2451.505594,-1998.556043,12953.603985
3686.665855,-2834.553343,-1702.473667,13471.748144
3686.666169,-3600.648841,-592.164754,11843.295072
3686.666484,-3677.258390,-74.020594,11399.171507
3686.666798,-2451.505594,-296.082377,9992.780217
3686.667112,-229.828649,-0.000000,8438.347739
3686.667427,2221.676944,2220.617826,6735.874072
3686.667741,3370.820191,2516.700203,5847.626942
3686.668056,3677.258390,962.267725,6513.812290
3686.668370,3907.087040,-0.000000,6957.935855
3686.668684,2451.505594,-518.144159,9030.512492
3686.668999,383.047749,-222.061783,10362.883188
3686.669313,-1685.410096,-1628.453072,12657.521608
3686.669627,-2604.724693,-1702.473667,13397.727550
3686.669942,-2834.553343,-888.247130,12361.439231
3686.670256,-3447.429741,-592.164754,11251.130318
3686.670571,-3064.381992,-148.041188,10955.047942
3686.670885,-1455.581446,-0.000000,9474.636058
3686.671199,842.705048,1110.308913,7254.018232
3686.671514,2834.553343,2590.720797,5255.462188
3686.671828,3524.039291,1702.473667,6069.688724
3686.672142,4213.525239,740.205942,7402.059420
3686.672457,3294.210641,-888.247130,8290.306550
3686.672771,1532.190996,-444.123565,9696.697840
3686.673086,-766.095498,-1110.308913,10881.027347
3686.673400,-2374.896044,-1924.535449,13323.706956
3686.673714,-2374.896044,-1776.494261,13767.830521
3686.674029,-3064.381992,-444.123565,11991.336260
3686.674343,-2911.162892,-0.000000,11473.192101
3686.674657,-2068.457845,-74.020594,10214.842000
3686.674972,383.047749,222.061783,8882.471304
3686.675286,2068.457845,2368.659014,6957.935855
3686.675601,3524.039291,2516.700203,5477.523971
3686.675915,4136.915689,1702.473667,6587.832884
3686.676229,4136.915689,-0.000000,7624.121203
3686.676544,2911.162892,-592.164754,8882.471304
3686.676858,536.266849,-444.123565,10584.944971
3686.677172,-1762.019645,-1628.453072,12435.459826
3686.677487,-2834.553343,-1924.535449,13545.768739
3686.677801,-3447.429741,-888.247130,13101.645173
3686.678116,-3600.648841,-222.061783,11325.150913
3686.678430,-2757.943793,-74.020594,11325.150913
3686.678744,-1072.533697,296.082377,9400.615463
3686.679059,842.705048,1628.453072,7550.100608
3686.679373,2987.772442,2886.803174,5847.626942
3686.679687,3830.477490,2368.659014,6069.688724
3686.680002,4366.744339,1702.473667,7105.977043
3686.680316,3370.820191,-74.020594,8068.244768
3686.680631,1072.533697,-296.082377,10066.800811
3686.680945,-919.314598,-962.267725,11325.150913
3686.681259,-2451.505594,-2072.576638,13397.727550
3686.681574,-2987.772442,-1480.411884,13471.748144
3686.681888,-3524.039291,-666.185348,11843.295072
3686.682202,-3217.601092,-148.041188,11473.192101
3686.682517,-2221.676944,518.144159,10658.965565
3686.682831,383.047749,814.226536,8586.388927
3686.683146,2298.286494,1998.556043,6439.791695
3686.683460,3370.820191,3034.844362,5107.421000
3686.683774,3753.867940,1702.473667,6587.832884
3686.684089,3907.087040,296.082377,7031.956449
3686.684403,2528.115143,-370.102971,8956.491898
3686.684717,612.876398,-0.000000,10214.842000
3686.685032,-1532.190996,-1332.370696,12139.377449
3686.685346,-2834.553343,-1776.494261,13101.645173
3686.685661,-3294.210641,-1332.370696,12953.603985
3686.685975,-3830.477490,-666.185348,11843.295072
3686.686289,-3677.258390,-74.020594,11177.109724
3686.686604,-1225.752797,-0.000000,9844.739029
3686.686918,995.924147,1036.288319,8068.244768
3686.687232,3064.381992,2664.741391,5699.585753
3686.687547,3983.696590,2220.617826,5921.647536
3686.687861,4136.915689,1258.350101,6883.915261
3686.688176,3983.696590,-222.061783,8512.368333
3686.688490,1838.629195,-370.102971,9474.636058
3686.688804,-229.828649,-740.205942,11029.068536
3686.689119,-2221.676944,-1628.453072,12435.459826
3686.689433,-2834.553343,-1554.432478,13101.645173
3686.689747,-3370.820191,-962.267725,12361.439231
3686.690062,-3064.381992,-296.082377,11621.233289
3686.690376,-1991.848295,-0.000000,10584.944971
3686.690691,842.705048,444.123565,8290.306550
3686.691005,2145.067394,2368.659014,6069.688724
3686.691319,3677.258390,2442.679609,5255.462188
3686.691634,3907.087040,1628.453072,6143.709319
3686.691948,3907.087040,-0.000000,7179.997637
3686.692262,2221.676944,-814.226536,8734.430116
3686.692577,536.266849,-592.164754,10436.903782
3686.692891,-1685.410096,-1554.432478,12213.398043
3686.693206,-2757.943793,-1776.494261,13471.748144
3686.693520,-3294.210641,-1258.350101,13101.645173
3686.693834,-3600.648841,-740.205942,11547.212695
3686.694149,-2834.553343,-148.041188,11473.192101
3686.694463,-1149.143247,370.102971,9696.697840
3686.694777,1149.143247,1332.370696,7328.038826
3686.695092,2681.334243,3034.844362,6143.709319
3686.695406,3753.867940,2368.659014,5625.565159
3686.695721,3830.477490,1258.350101,7328.038826
3686.696035,3447.429741,-296.082377,7846.182985
3686.696349,1532.190996,-888.247130,9400.615463
3686.696664,-536.266849,-666.185348,11177.109724
3686.696978,-2298.286494,-1850.514855,12805.562797
3686.697292,-2834.553343,-1332.370696,13323.706956
3686.697607,-3370.820191,-814.226536,12435.459826
3686.697921,-3064.381992,-0.000000,11843.295072
3686.698236,-2068.457845,444.123565,10140.821405
3686.698550,0.000000,592.164754,8216.285956
3686.698864,2145.067394,2368.659014,6735.874072
3686.699179,3447.429741,2368.659014,5477.523971
3686.699493,4060.306139,1702.473667,6365.771101
3686.699807,3677.258390,-0.000000,7254.018232
3686.700122,2451.505594,-296.082377,9030.512492
3686.700436,612.876398,-0.000000,10214.842000
3686.700751,-1762.019645,-1258.350101,12287.418637
3686.701065,-2911.162892,-1702.473667,13841.851115
3686.701379,-3140.991542,-888.247130,13101.645173
3686.701694,-3677.258390,-370.102971,11547.212695
3686.702008,-2911.162892,-148.041188,11547.212695
3686.702322,-1302.362347,222.061783,9992.780217
3686.702637,919.314598,1036.288319,7550.100608
3686.702951,2681.334243,2516.700203,5699.585753
3686.703266,3753.867940,2368.659014,5625.565159
3686.703580,3907.087040,1036.288319,6883.915261
3686.703894,3524.039291,-222.061783,7994.224174
3686.704209,1532.190996,-370.102971,9474.636058
3686.704523,-1072.533697,-814.226536,10658.965565
3686.704837,-2604.724693,-1776.494261,12731.542202
3686.705152,-3217.601092,-1332.370696,13619.789333
3686.705466,-3447.429741,-1184.329507,11917.315666
3686.705781,-3524.039291,-518.144159,11621.233289
3686.706095,-2221.676944,-0.000000,10658.965565
3686.706409,-306.438199,296.082377,8808.450710
3686.706724,2221.676944,2368.659014,6291.750507
3686.707038,4213.525239,2368.659014,4737.318029
3686.707352,3753.867940,1628.453072,6365.771101
3686.707667,3677.258390,-0.000000,7031.956449
3686.707981,2528.115143,-518.144159,8808.450710
3686.708296,459.657299,-370.102971,10214.842000
3686.708610,-1455.581446,-1480.411884,12435.459826
3686.708924,-2604.724693,-1406.391290,13101.645173
3686.709239,-3217.601092,-888.247130,12879.583391
3686.709553,-3447.429741,-518.144159,11843.295072
3686.709867,-2528.115143,222.061783,11695.253884
3686.710182,-995.924147,814.226536,9474.636058
3686.710496,1225.752797,1850.514855,7402.059420
3686.710811,2987.772442,3256.906145,5403.503377
3686.711125,4060.306139,2294.638420,5773.606348
3686.711439,4136.915689,1258.350101,6883.915261
3686.711754,3140.991542,-444.123565,8438.347739
3686.712068,995.924147,-0.000000,9770.718434
3686.712382,-1302.362347,-888.247130,11325.150913
3686.712697,-2221.676944,-1776.494261,12953.603985
3686.713011,-2911.162892,-1924.535449,14211.954086
3686.713326,-3600.648841,-666.185348,12361.439231
3686.713640,-3600.648841,-296.082377,11547.212695
3686.713954,-2145.067394,296.082377,10362.883188
3686.714269,0.000000,814.226536,8142.265362
3686.714583,2528.115143,2664.741391,6439.791695
3686.714897,3677.258390,2738.761985,5551.544565
3686.715212,3907.087040,1480.411884,6735.874072
3686.715526,3983.696590,-0.000000,7328.038826
3686.715841,2374.896044,-592.164754,8956.491898
3686.716155,459.657299,-518.144159,10584.944971
3686.716469,-1991.848295,-1480.411884,12805.562797
3686.716784,-2757.943793,-1628.453072,13249.686362
3686.717098,-3064.381992,-1776.494261,13027.624579
3686.717412,-3753.867940,-518.144159,11843.295072
3686.717727,-2911.162892,-0.000000,11621.233289
3686.718041,-1072.533697,296.082377,8808.450710
3686.718356,1225.752797,1628.453072,7550.100608
3686.718670,2757.943793,2442.679609,5551.544565
3686.718984,3830.477490,2294.638420,5773.606348
3686.719299,3907.087040,814.226536,7031.956449
3686.719613,3447.429741,-444.123565,8364.327145
3686.719927,1225.752797,-0.000000,9622.677246
3686.720242,-1225.752797,-518.144159,10881.027347
3686.720556,-2374.896044,-1332.370696,13249.686362
3686.720871,-3447.429741,-1776.494261,13841.851115
3686.721185,-3983.696590,-1036.288319,12805.562797
3686.721499,-4060.306139,-74.020594,11547.212695
3686.721814,-2681.334243,-148.041188,10807.006753
3686.722128,-459.657299,592.164754,8734.430116
3686.722442,2068.457845,2072.576638,6735.874072
3686.722757,3140.991542,2812.782580,4737.318029
3686.723071,3830.477490,1406.391290,6439.791695
3686.723386,3983.696590,-0.000000,7179.997637
3686.723700,2451.505594,-666.185348,8808.450710
3686.724014,76.609550,-74.020594,10807.006753
3686.724329,-1915.238745,-1702.473667,11991.336260
3686.724643,-2604.724693,-1628.453072,13027.624579
3686.724957,-3064.381992,-1480.411884,12731.542202
3686.725272,-3677.258390,-518.144159,11621.233289
3686.725586,-3064.381992,-296.082377,11177.109724
3686.725901,-1302.362347,-0.000000,8956.491898
3686.726215,1072.533697,1184.329507,7254.018232
3686.726529,2604.724693,2516.700203,4885.359217
3686.726844,3600.648841,1332.370696,5921.647536
3686.727158,3907.087040,-0.000000,7031.956449
3686.727472,3524.039291,-1184.329507,8586.388927
3686.727787,1455.581446,-666.185348,9252.574275
3686.728101,-919.314598,-1184.329507,11177.109724
3686.728416,-2298.286494,-1628.453072,12953.603985
3686.728730,-2681.334243,-1628.453072,13841.851115
3686.729044,-2834.553343,-444.123565,11991.336260
3686.729359,-3064.381992,-74.020594,11473.192101
3686.729673,-1762.019645,-148.041188,9770.718434
3686.729987,536.266849,518.144159,8364.327145
3686.730302,2374.896044,2590.720797,6513.812290
3686.730616,3600.648841,2368.659014,5107.421000
3686.730931,4290.134789,1406.391290,6069.688724
3686.731245,4366.744339,-0.000000,7105.977043
3686.731559,2681.334243,-370.102971,9178.553681
3686.731874,689.485948,-444.123565,10881.027347
3686.732188,-1455.581446,-1628.453072,12435.459826
3686.732502,-2757.943793,-1554.432478,13175.665768
3686.732817,-2911.162892,-1258.350101,13249.686362
3686.733131,-3447.429741,-0.000000,11621.233289
3686.733446,-2221.676944,296.082377,11103.089130
3686.733760,-306.438199,888.247130,8438.347739
3686.734074,1608.800546,2146.597232,6883.915261
3686.734389,3294.210641,2886.803174,5181.441594
3686.734703,3907.087040,2368.659014,5773.606348
3686.735017,4060.306139,444.123565,7105.977043
3686.735332,2528.115143,-592.164754,8438.347739
3686.735646,612.876398,-592.164754,10066.800811
3686.735961,-1225.752797,-1110.308913,11843.295072
3686.736275,-2604.724693,-1702.473667,13471.748144
3686.736589,-2834.553343,-1332.370696,14063.912898
3686.736904,-3830.477490,-296.082377,12361.439231
3686.737218,-3677.258390,592.164754,11473.192101
3686.737532,-2145.067394,666.185348,10510.924376
3686.737847,229.828649,1110.308913,8290.306550
3686.738161,2834.553343,2516.700203,6661.853478
3686.738475,3753.867940,2960.823768,5107.421000
3686.738790,3830.477490,1406.391290,6587.832884
3686.739104,3830.477490,222.061783,7920.203579
3686.739419,2298.286494,-592.164754,9252.574275
3686.739733,0.000000,-0.000000,10584.944971
3686.740047,-1762.019645,-1258.350101,12065.356855
3686.740362,-2911.162892,-1628.453072,13249.686362
3686.740676,-3140.991542,-1110.308913,13471.748144
3686.740990,-3600.648841,-222.061783,11917.315666
3686.741305,-3217.601092,-0.000000,11547.212695
3686.741619,-1225.752797,518.144159,9326.594869
3686.741933,1149.143247,1924.535449,7328.038826
3686.742248,3064.381992,2960.823768,5699.585753
3686.742562,4903.011187,1628.453072,6143.709319
3686.742876,4366.744339,666.185348,7179.997637
3686.743191,2987.772442,-592.164754,8512.368333
3686.743505,995.924147,-222.061783,9844.739029
3686.743819,-995.924147,-666.185348,11325.150913
3686.744134,-1915.238745,-1702.473667,13323.706956
3686.744448,-3064.381992,-1554.432478,13693.809927
3686.744763,-3370.820191,-592.164754,11843.295072
3686.745077,-3064.381992,-74.020594,11399.171507
3686.745391,-1991.848295,296.082377,10510.924376
3686.745706,0.000000,814.226536,8216.285956
3686.746020,2298.286494,2220.617826,6365.771101
3686.746334,3294.210641,2368.659014,5181.441594
3686.746649,3677.258390,592.164754,6513.812290
3686.746963,3600.648841,-222.061783,7328.038826
3686.747277,2221.676944,-1258.350101,9178.553681
3686.747592,0.000000,-666.185348,10658.965565
3686.747906,-1532.190996,-1702.473667,12139.377449
3686.748220,-2451.505594,-1406.391290,13027.624579
3686.748535,-2757.943793,-962.267725,12879.583391
3686.748849,-3140.991542,-0.000000,11917.315666
3686.749163,-2298.286494,-74.020594,10881.027347
3686.749478,-229.828649,592.164754,8438.347739
3686.749792,2145.067394,1554.432478,7179.997637
3686.750107,3140.991542,2590.720797,5403.503377
3686.750421,4213.525239,1036.288319,5847.626942
3686.750735,4060.306139,370.102971,6957.935855
3686.751050,3447.429741,-888.247130,8438.347739
3686.751364,1455.581446,-740.205942,9696.697840
3686.751678,-383.047749,-1406.391290,11251.130318
3686.751993,-2528.115143,-1924.535449,12879.583391
3686.752307,-2834.553343,-1406.391290,13397.727550
3686.752621,-3447.429741,-370.102971,11843.295072
3686.752936,-3140.991542,-222.061783,11473.192101
3686.753250,-1608.800546,518.144159,10510.924376
3686.753564,842.705048,962.267725,8660.409521
3686.753879,2604.724693,2590.720797,6217.729913
3686.754193,3753.867940,2738.761985,5477.523971
3686.754507,3830.477490,1480.411884,6587.832884
3686.754822,4136.915689,296.082377,7624.121203
3686.755136,2451.505594,-74.020594,9548.656652
3686.755451,-306.438199,-814.226536,10955.047942
3686.755765,-1991.848295,-1702.473667,12509.480420
3686.756079,-2757.943793,-1850.514855,13767.830521
3686.756394,-3447.429741,-1406.391290,13323.706956
3686.756708,-3753.867940,-74.020594,11917.315666
3686.757022,-2757.943793,444.123565,10807.006753
3686.757337,-689.485948,666.185348,9400.615463
3686.757651,1685.410096,2072.576638,7254.018232
3686.757965,3064.381992,2960.823768,5329.482782
3686.758280,3830.477490,1924.535449,5773.606348
3686.758594,4443.353888,592.164754,7105.977043
3686.758908,2528.115143,-666.185348,8586.388927
3686.759223,536.266849,-740.205942,9696.697840
3686.759537,-1149.143247,-740.205942,11029.068536
3686.759851,-2834.553343,-1554.432478,12731.542202
3686.760166,-3294.210641,-1480.411884,13471.748144
3686.760480,-3753.867940,-740.205942,12139.377449
3686.760795,-3830.477490,-148.041188,11473.192101
3686.761109,-2681.334243,-0.000000,10510.924376
3686.761423,0.000000,740.205942,8512.368333
3686.761738,2451.505594,2294.638420,7105.977043
3686.762052,3524.039291,2738.761985,5551.544565
3686.762366,3907.087040,1184.329507,7031.956449
3686.762681,3677.258390,296.082377,7476.080014
3686.762995,2298.286494,-518.144159,9696.697840
3686.763309,-153.219100,-0.000000,10510.924376
3686.763624,-1762.019645,-1110.308913,12065.356855
3686.763938,-2834.553343,-1480.411884,13249.686362
3686.764252,-3140.991542,-1258.350101,12953.603985
3686.764567,-3447.429741,-444.123565,11917.315666
3686.764881,-2757.943793,-148.041188,11251.130318
3686.765195,-766.095498,592.164754,9030.512492
3686.765510,1302.362347,1850.514855,7105.977043
3686.765824,2834.553343,2738.761985,4959.379811
3686.766139,4213.525239,1628.453072,6143.709319
3686.766453,4213.525239,518.144159,7031.956449
3686.766767,2987.772442,-888.247130,8364.327145
3686.767082,995.924147,-296.082377,9548.656652
3686.767396,-1302.362347,-1036.288319,11103.089130
3686.767710,-2221.676944,-1184.329507,12657.521608
3686.768025,-2451.505594,-1850.514855,13249.686362
3686.768339,-3370.820191,-518.144159,11991.336260
3686.768653,-3064.381992,-74.020594,11547.212695
3686.768968,-1915.238745,-0.000000,9770.718434
3686.769282,0.000000,592.164754,8438.347739
3686.769596,2298.286494,2072.576638,6439.791695
3686.769911,3600.648841,2220.617826,4959.379811
3686.770225,3907.087040,1110.308913,6735.874072
3686.770539,3753.867940,-444.123565,7328.038826
3686.770854,2834.553343,-1036.288319,9030.512492
3686.771168,689.485948,-518.144159,10140.821405
3686.771483,-1378.971896,-1406.391290,11991.336260
3686.771797,-2834.553343,-1258.350101,12879.583391
3686.772111,-2604.724693,-1628.453072,12879.583391
3686.772426,-3064.381992,-444.123565,11843.295072
3686.772740,-2298.286494,-74.020594,11103.089130
3686.773054,-459.657299,444.123565,9252.574275
3686.773369,1455.581446,1702.473667,7031.956449
3686.773683,3370.820191,2590.720797,5255.462188
3686.773997,4060.306139,2146.597232,5921.647536
3686.774312,3983.696590,592.164754,6661.853478
3686.774626,2987.772442,-222.061783,8882.471304
3686.774940,766.095498,-222.061783,9918.759623
3686.775255,-1455.581446,-518.144159,11251.130318
3686.775569,-2451.505594,-1332.370696,12953.603985
3686.775883,-2987.772442,-1258.350101,13915.871710
3686.776198,-3830.477490,-296.082377,12435.459826
3686.776512,-3677.258390,444.123565,11843.295072
3686.776827,-2298.286494,740.205942,10510.924376
3686.777141,0.000000,1036.288319,8660.409521
3686.777455,2374.896044,2368.659014,6809.894666
3686.777770,3294.210641,2590.720797,5625.565159
3686.778084,3600.648841,1036.288319,6957.935855
3686.778398,3294.210641,296.082377,7772.162391
3686.778713,1838.629195,-518.144159,9104.533087
3686.779027,-383.047749,-0.000000,10214.842000
3686.779341,-1991.848295,-1258.350101,12065.356855
3686.779656,-3140.991542,-1628.453072,13175.665768
3686.779970,-3524.039291,-1110.308913,12731.542202
3686.780284,-3600.648841,-370.102971,11917.315666
3686.780599,-2757.943793,-0.000000,10807.006753
3686.780913,-536.266849,666.185348,9326.594869
3686.781227,1608.800546,2072.576638,7476.080014
3686.781542,2911.162892,2664.741391,5181.441594
3686.781856,3524.039291,1628.453072,6069.688724
3686.782171,3447.429741,814.226536,7179.997637
3686.782485,2681.334243,-666.185348,8586.388927
3686.782799,536.266849,-74.020594,9474.636058
3686.783114,-1072.533697,-888.247130,11029.068536
3686.783428,-2528.115143,-1554.432478,12953.603985
3686.783742,-2757.943793,-1702.473667,13841.851115
3686.784057,-3753.867940,-444.123565,12435.459826
3686.784371,-3294.210641,-148.041188,11991.336260
3686.784685,-1685.410096,444.123565,10510.924376
3686.785000,459.657299,592.164754,8586.388927
3686.785314,2451.505594,2442.679609,6661.853478
3686.785628,3447.429741,2368.659014,5773.606348
3686.785943,3830.477490,1184.329507,6587.832884
3686.786257,3983.696590,-0.000000,7328.038826
3686.786571,2528.115143,-296.082377,9104.533087
3686.786886,459.657299,-74.020594,11177.109724
3686.787200,-1149.143247,-1406.391290,12065.356855
3686.787515,-2221.676944,-1480.411884,12657.521608
3686.787829,-2528.115143,-1554.432478,12879.583391
3686.788143,-3064.381992,-592.164754,11695.253884
3686.788458,-2068.457845,-0.000000,11177.109724
3686.788772,-153.219100,592.164754,8882.471304
3686.789086,1915.238745,1406.391290,6587.832884
3686.789401,2911.162892,2664.741391,5033.400406
3686.789715,3983.696590,1258.350101,5995.668130
3686.790029,3907.087040,370.102971,6957.935855
3686.790344,3140.991542,-666.185348,7994.224174
3686.790658,919.314598,-666.185348,9622.677246
3686.790972,-995.924147,-1332.370696,11103.089130
3686.791287,-2451.505594,-1776.494261,12805.562797
3686.791601,-2451.505594,-1850.514855,13471.748144
3686.791915,-3370.820191,-518.144159,12213.398043
3686.792230,-3217.601092,-0.000000,11399.171507
3686.792544,-1762.019645,518.144159,9918.759623
3686.792859,383.047749,1036.288319,7920.203579
3686.793173,2528.115143,2368.659014,6291.750507
3686.793487,3217.601092,2368.659014,5107.421000
3686.793802,3907.087040,1332.370696,6513.812290
3686.794116,3677.258390,-0.000000,7772.162391
3686.794430,2068.457845,-740.205942,9474.636058
3686.794745,0.000000,-518.144159,10584.944971
3686.795059,-2068.457845,-1554.432478,11843.295072
3686.795373,-3294.210641,-1406.391290,13471.748144
3686.795688,-3064.381992,-1036.288319,13249.686362
3686.796002,-3294.210641,-0.000000,12583.501014
3686.796316,-2604.724693,-0.000000,10881.027347
3686.796631,-306.438199,814.226536,9252.574275
3686.796945,1762.019645,2072.576638,7105.977043
3686.797259,3140.991542,3108.864956,5107.421000
3686.797574,4060.306139,1702.473667,6217.729913
3686.797888,3677.258390,1110.308913,7105.977043
3686.798203,2604.724693,-0.000000,8586.388927
3686.798517,612.876398,-74.020594,9548.656652
3686.798831,-1532.190996,-1036.288319,11695.253884
3686.799146,-2834.553343,-1850.514855,13249.686362
3686.799460,-2911.162892,-1554.432478,13545.768739
3686.799774,-3677.258390,-518.144159,12361.439231
3686.800089,-3830.477490,-0.000000,11695.253884
3686.800403,-2221.676944,148.041188,10584.944971
3686.800717,0.000000,888.247130,8364.327145
3686.801032,2145.067394,2664.741391,6439.791695
3686.801346,3830.477490,2738.761985,5403.503377
3686.801660,3753.867940,1110.308913,6439.791695
3686.801975,3830.477490,-74.020594,7624.121203
3686.802289,1838.629195,-740.205942,9326.594869
3686.802603,-229.828649,-814.226536,10436.903782
3686.802918,-1915.238745,-1702.473667,12287.418637
3686.803232,-2987.772442,-1554.432478,13175.665768
3686.803547,-3524.039291,-1184.329507,13175.665768
3686.803861,-3217.601092,-518.144159,11843.295072
3686.804175,-1915.238745,222.061783,11029.068536
3686.804490,0.000000,666.185348,8586.388927
3686.804804,1838.629195,1998.556043,6735.874072
3686.805118,3370.820191,2368.659014,5329.482782
3686.805433,3907.087040,1776.494261,6291.750507
3686.805747,4136.915689,370.102971,6957.935855
3686.806061,3370.820191,-222.061783,8142.265362
3686.806376,1378.971896,-0.000000,9918.759623
3686.806690,-1149.143247,-1406.391290,12065.356855
3686.807004,-2451.505594,-1850.514855,13101.645173
3686.807319,-2834.553343,-2072.576638,13989.892304
3686.807633,-3294.210641,-814.226536,11991.336260
3686.807947,-2911.162892,-148.041188,11991.336260
3686.808262,-1762.019645,740.205942,9548.656652
3686.808576,766.095498,814.226536,7772.162391
3686.808891,2451.505594,2664.741391,6143.709319
3686.809205,3600.648841,2960.823768,4885.359217
3686.809519,3983.696590,1184.329507,6143.709319
3686.809834,3677.258390,-148.041188,7624.121203
3686.810148,1762.019645,-1036.288319,9326.594869
3686.810462,-229.828649,-962.267725,10732.986159
3686.810777,-2221.676944,-2072.576638,12361.439231
3686.811091,-2911.162892,-1776.494261,13989.892304
3686.811405,-3600.648841,-1036.288319,12953.603985
3686.811720,-3447.429741,-296.082377,11399.171507
3686.812034,-2374.896044,296.082377,10658.965565
3686.812348,-306.438199,1184.329507,9030.512492
3686.812663,2068.457845,2294.638420,7031.956449
3686.812977,3677.258390,2368.659014,4737.318029
3686.813291,4136.915689,1406.391290,5921.647536
3686.813606,4213.525239,592.164754,7105.977043
3686.813920,2987.772442,-666.185348,8438.347739
3686.814235,766.095498,-296.082377,9770.718434
3686.814549,-1378.971896,-1332.370696,11621.233289
3686.814863,-3064.381992,-1776.494261,13471.748144
3686.815178,-3294.210641,-1850.514855,13841.851115
3686.815492,-3600.648841,-666.185348,12065.356855
3686.815806,-3447.429741,-0.000000,11695.253884
3686.816121,-1378.971896,296.082377,9918.759623
3686.816435,766.095498,962.267725,8438.347739
3686.816749,2757.943793,2738.761985,5625.565159
3686.817064,3830.477490,2590.720797,5255.462188
3686.817378,3907.087040,1332.370696,7105.977043
3686.817692,3524.039291,-296.082377,7920.203579
3686.818007,1991.848295,-148.041188,9844.739029
3686.818321,-459.657299,-222.061783,10955.047942
3686.818635,-2068.457845,-1554.432478,12805.562797
3686.818950,-3064.381992,-1480.411884,14211.954086
3686.819264,-3677.258390,-740.205942,12805.562797
3686.819579,-3830.477490,-0.000000,12287.418637
3686.819893,-2451.505594,-0.000000,10881.027347
3686.820207,0.000000,888.247130,8808.450710
3686.820522,1685.410096,2368.659014,7328.038826
3686.820836,3217.601092,2960.823768,5033.400406
3686.821150,3907.087040,1628.453072,6143.709319
3686.821465,3830.477490,-0.000000,7402.059420
3686.821779,3370.820191,-740.205942,8586.388927
3686.822093,842.705048,-518.144159,9770.718434
3686.822408,-1302.362347,-1036.288319,11325.150913
3686.822722,-2681.334243,-1702.473667,12953.603985
3686.823036,-2911.162892,-1480.411884,13397.727550
3686.823351,-3447.429741,-740.205942,12287.418637
3686.823665,-3753.867940,-0.000000,11325.150913
3686.823979,-1838.629195,518.144159,9770.718434
3686.824294,612.876398,888.247130,7476.080014
3686.824608,2757.943793,2516.700203,6291.750507
3686.824923,3907.087040,2294.638420,5773.606348
3686.825237,3677.258390,444.123565,6143.709319
3686.825551,3600.648841,-518.144159,7476.080014
3686.825866,1838.629195,-518.144159,9474.636058
3686.826180,0.000000,-592.164754,10362.883188
3686.826494,-2145.067394,-1480.411884,12287.418637
3686.826809,-2451.505594,-1406.391290,13323.706956
3686.827123,-3064.381992,-1110.308913,12953.603985
3686.827437,-3370.820191,74.020594,11473.192101
3686.827752,-1991.848295,592.164754,10510.924376
3686.828066,306.438199,1110.308913,8438.347739
3686.828380,2528.115143,2368.659014,6661.853478
3686.828695,3677.258390,2664.741391,4811.338623
3686.829009,4060.306139,1554.432478,6143.709319
3686.829323,3983.696590,370.102971,7179.997637
3686.829638,2604.724693,-370.102971,8882.471304
3686.829952,766.095498,-0.000000,9992.780217
3686.830267,-1532.190996,-1184.329507,11917.315666
3686.830581,-2757.943793,-1998.556043,13101.645173
3686.830895,-2911.162892,-1406.391290,13693.809927
3686.831210,-3524.039291,-740.205942,12361.439231
3686.831524,-3294.210641,370.102971,11843.295072
3686.831838,-1838.629195,888.247130,9622.677246
3686.832153,689.485948,1258.350101,7920.203579
3686.832467,3140.991542,2738.761985,6217.729913
3686.832781,3983.696590,2368.659014,5773.606348
3686.833096,3753.867940,1036.288319,6957.935855
3686.833410,3370.820191,-0.000000,7920.203579
3686.833724,1608.800546,-296.082377,9474.636058
3686.834039,-383.047749,-444.123565,11251.130318
3686.834353,-2451.505594,-1850.514855,12805.562797
3686.834667,-2757.943793,-1628.453072,13841.851115
3686.834982,-3447.429741,-962.267725,12731.542202
3686.835296,-3600.648841,-74.020594,11547.212695
3686.835611,-2145.067394,518.144159,10584.944971
3686.835925,0.000000,-148.041188,9622.677246
3686.836239,1915.238745,2368.659014,6661.853478
3686.836554,3064.381992,2590.720797,4885.359217
3686.836868,3907.087040,1480.411884,6513.812290
3686.837182,4366.744339,962.267725,7179.997637
3686.837497,2604.724693,-222.061783,8734.430116
3686.837811,842.705048,-222.061783,9696.697840
3686.838125,-1378.971896,-962.267725,11399.171507
3686.838440,-2528.115143,-1554.432478,12731.542202
3686.838754,-2911.162892,-2220.617826,13915.871710
3686.839068,-3983.696590,-814.226536,12065.356855
3686.839383,-3600.648841,-296.082377,11695.253884
3686.839697,-1991.848295,222.061783,10214.842000
3686.840011,306.438199,888.247130,8290.306550
3686.840326,2681.334243,2294.638420,6661.853478
3686.840640,3217.601092,2220.617826,5699.585753
3686.840955,3524.039291,666.185348,7031.956449
3686.841269,3370.820191,-296.082377,7846.182985
3686.841583,2298.286494,-370.102971,9474.636058
3686.841898,-995.924147,-592.164754,10881.027347
3686.842212,-2298.286494,-1406.391290,12065.356855
3686.842527,-2298.286494,-1480.411884,13471.748144
3686.842841,-2987.772442,-1184.329507,12287.418637
3686.843156,-3370.820191,-444.123565,11621.233289
3686.843470,-2604.724693,-148.041188,10807.006753
3686.843785,0.000000,518.144159,9104.533087
3686.844099,1762.019645,1628.453072,7179.997637
3686.844414,2911.162892,2220.617826,5181.441594
3686.844728,3830.477490,1332.370696,5699.585753
3686.845043,3677.258390,296.082377,6957.935855
3686.845357,2451.505594,-1036.288319,8290.306550
3686.845672,919.314598,-444.123565,9400.615463
3686.845986,-995.924147,-962.267725,10807.006753
3686.846301,-2451.505594,-1554.432478,12731.542202
3686.846615,-2757.943793,-1332.370696,13545.768739
3686.846930,-2911.162892,-666.185348,11991.336260
3686.847244,-2604.724693,-222.061783,11325.150913
3686.847559,-766.095498,666.185348,9844.739029
3686.847873,1302.362347,1406.391290,7994.224174
3686.848188,3140.991542,2368.659014,6365.771101
3686.848502,3983.696590,2220.617826,5477.523971
3686.848816,3983.696590,1036.288319,6661.853478
3686.849131,3600.648841,-0.000000,7698.141797
3686.849445,1991.848295,-518.144159,9548.656652
3686.849760,-383.047749,-666.185348,11251.130318
3686.850074,-2145.067394,-1480.411884,12879.583391
3686.850389,-3064.381992,-962.267725,13397.727550
3686.850703,-3294.210641,-814.226536,13101.645173
3686.851018,-3447.429741,-0.000000,12213.398043
3686.851332,-1991.848295,592.164754,11103.089130
3686.851647,0.000000,1110.308913,9252.574275
3686.851961,1762.019645,2368.659014,7179.997637
3686.852276,3677.258390,2960.823768,6069.688724
3686.852590,3983.696590,1998.556043,6143.709319
3686.852905,3907.087040,518.144159,7105.977043
3686.853219,3064.381992,-0.000000,8216.285956
3686.853534,612.876398,-370.102971,9844.739029
3686.853848,-1302.362347,-740.205942,11251.130318
3686.854163,-2757.943793,-1628.453072,13323.706956
3686.854477,-3907.087040,-1924.535449,13323.706956
3686.854792,-3907.087040,-962.267725,12139.377449
3686.855106,-3600.648841,222.061783,11621.233289
3686.855421,-1532.190996,222.061783,9844.739029
3686.855735,1225.752797,1554.432478,7994.224174
3686.856050,2681.334243,2368.659014,6365.771101
3686.856364,3600.648841,2220.617826,5477.523971
3686.856679,4213.525239,1110.308913,6143.709319
3686.856993,3370.820191,-0.000000,7254.018232
3686.857308,1608.800546,-148.041188,9696.697840
3686.857622,-536.266849,-222.061783,11103.089130
3686.857937,-2451.505594,-1184.329507,11991.336260
3686.858251,-2681.334243,-1554.432478,13323.706956
3686.858566,-3140.991542,-1258.350101,13249.686362
3686.858880,-3217.601092,-518.144159,12361.439231
3686.859195,-2451.505594,-296.082377,11103.089130
3686.859509,0.000000,962.267725,9474.636058
3686.859824,1685.410096,2220.617826,7105.977043
3686.860138,3370.820191,2368.659014,4959.379811
3686.860453,4366.744339,1702.473667,6217.729913
3686.860767,3753.867940,222.061783,7031.956449
3686.861082,2834.553343,-666.185348,7920.203579
3686.861396,842.705048,-666.185348,9474.636058
3686.861711,-1225.752797,-1184.329507,11325.150913
3686.862025,-2834.553343,-1480.411884,12805.562797
3686.862340,-3064.381992,-1924.535449,13323.706956
3686.862654,-3753.867940,-962.267725,12509.480420
3686.862969,-2987.772442,-148.041188,11695.253884
3686.863283,-1072.533697,296.082377,9622.677246
3686.863598,995.924147,1110.308913,7624.121203
3686.863912,2681.334243,2590.720797,6143.709319
3686.864226,3907.087040,2294.638420,4811.338623
3686.864541,4060.306139,592.164754,6217.729913
3686.864855,3447.429741,-148.041188,7920.203579
3686.865170,2145.067394,-370.102971,9622.677246
3686.865484,-536.266849,-740.205942,10658.965565
3686.865799,-1915.238745,-1998.556043,12287.418637
3686.866113,-2681.334243,-1332.370696,13323.706956
3686.866428,-3370.820191,-666.185348,12879.583391
3686.866742,-3447.429741,-444.123565,11843.295072
3686.867057,-1991.848295,-0.000000,10881.027347
3686.867371,153.219100,962.267725,8882.471304
3686.867686,1915.238745,2146.597232,6809.894666
3686.868000,3447.429741,2442.679609,5107.421000
3686.868315,3677.258390,1628.453072,5921.647536
3686.868629,3294.210641,296.082377,7179.997637
3686.868944,2681.334243,-370.102971,8512.368333
3686.869258,612.876398,-444.123565,10140.821405
3686.869573,-995.924147,-666.185348,11917.315666
3686.869887,-2604.724693,-1036.288319,12805.562797
3686.870202,-3217.601092,-1036.288319,13841.851115
3686.870516,-3600.648841,-0.000000,12583.501014
3686.870831,-2987.772442,222.061783,11695.253884
3686.871145,-1302.362347,1110.308913,9844.739029
3686.871460,842.705048,1998.556043,7846.182985
3686.871774,2834.553343,3256.906145,5921.647536
3686.872089,3600.648841,2220.617826,5329.482782
3686.872403,3370.820191,814.226536,6883.915261
3686.872718,2987.772442,-444.123565,8142.265362
3686.873032,1225.752797,-222.061783,9548.656652
3686.873347,-536.266849,-148.041188,10955.047942
3686.873661,-2451.505594,-1332.370696,12657.521608
3686.873976,-2834.553343,-1036.288319,14137.933492
3686.874290,-3447.429741,-814.226536,13027.624579
3686.874605,-3370.820191,-296.082377,12213.398043
3686.874919,-1838.629195,518.144159,10881.027347
3686.875234,0.000000,1332.370696,8882.471304
3686.875548,2451.505594,2368.659014,7105.977043
3686.875863,3217.601092,2442.679609,5847.626942
3686.876177,3753.867940,1406.391290,6069.688724
3686.876492,3677.258390,222.061783,7031.956449
3686.876806,2757.943793,-296.082377,8364.327145
3686.877121,842.705048,-666.185348,10140.821405
3686.877435,-1378.971896,-1110.308913,11843.295072
3686.877750,-2681.334243,-1554.432478,12879.583391
3686.878064,-3370.820191,-1628.453072,13767.830521
3686.878379,-3524.039291,-962.267725,12509.480420
3686.878693,-3064.381992,-444.123565,11547.212695
3686.879008,-1378.971896,592.164754,9918.759623
3686.879322,1149.143247,1184.329507,7698.141797
3686.879636,2757.943793,2368.659014,5995.668130
3686.879951,3447.429741,1924.535449,5773.606348
3686.880265,3753.867940,592.164754,6587.832884
3686.880580,3217.601092,-0.000000,7105.977043
3686.880894,1685.410096,-666.185348,9104.533087
3686.881209,153.219100,-1036.288319,11029.068536
3686.881523,-1762.019645,-1850.514855,12065.356855
3686.881838,-3294.210641,-1554.432478,13545.768739
3686.882152,-3447.429741,-1110.308913,13249.686362
3686.882467,-3217.601092,-888.247130,11843.295072
3686.882781,-1991.848295,-0.000000,10955.047942
3686.883096,-229.828649,814.226536,9030.512492
3686.883410,1915.238745,2072.576638,6809.894666
3686.883725,3447.429741,2442.679609,5107.421000
3686.884039,3983.696590,1184.329507,6069.688724
3686.884354,4136.915689,-74.020594,7105.977043
3686.884668,2604.724693,-592.164754,8290.306550
3686.884983,689.485948,-518.144159,9622.677246
3686.885297,-995.924147,-1110.308913,11621.233289
3686.885612,-2451.505594,-1702.473667,13249.686362
3686.885926,-2911.162892,-1332.370696,13175.665768
3686.886241,-3753.867940,-592.164754,11917.315666
3686.886555,-2681.334243,-0.000000,11843.295072
3686.886870,-1302.362347,518.144159,9696.697840
3686.887184,919.314598,1554.432478,7550.100608
3686.887499,2681.334243,2738.761985,5773.606348
3686.887813,4060.306139,2072.576638,5403.503377
3686.888128,4213.525239,962.267725,6587.832884
3686.888442,3217.601092,-518.144159,7772.162391
3686.888757,1762.019645,-814.226536,9992.780217
3686.889071,-919.314598,-740.205942,11251.130318
3686.889386,-2221.676944,-1406.391290,12583.501014
3686.889700,-2911.162892,-1258.350101,13915.871710
3686.890015,-3370.820191,-296.082377,12953.603985
3686.890329,-3294.210641,-0.000000,11695.253884
3686.890644,-1762.019645,666.185348,10807.006753
3686.890958,306.438199,1036.288319,8882.471304
3686.891273,2221.676944,2368.659014,6661.853478
3686.891587,3447.429741,2442.679609,4885.359217
3686.891902,3907.087040,1332.370696,6291.750507
3686.892216,4290.134789,-0.000000,7179.997637
3686.892531,2451.505594,-592.164754,9030.512492
3686.892845,0.000000,-592.164754,10362.883188
3686.893160,-1838.629195,-1702.473667,12213.398043
3686.893474,-3140.991542,-1480.411884,13545.768739
3686.893789,-3294.210641,-1258.350101,13841.851115
3686.894103,-3983.696590,-222.061783,12139.377449
3686.894418,-3370.820191,296.082377,11695.253884
3686.894732,-1072.533697,1110.308913,9622.677246
3686.895046,1302.362347,1924.535449,7328.038826
3686.895361,3447.429741,3182.885551,5477.523971
3686.895675,3983.696590,2368.659014,5329.482782
3686.895990,3677.258390,814.226536,6587.832884
3686.896304,2987.772442,-296.082377,7624.121203
3686.896619,1072.533697,-666.185348,9474.636058
3686.896933,-766.095498,-814.226536,11029.068536
3686.897248,-2987.772442,-1850.514855,12731.542202
3686.897562,-3447.429741,-1998.556043,14137.933492
3686.897877,-3907.087040,-1184.329507,12657.521608
3686.898191,-3907.087040,-222.061783,11547.212695
3686.898506,-2298.286494,370.102971,10510.924376
3686.898820,-306.438199,1184.329507,8882.471304
3686.899135,2451.505594,2590.720797,6365.771101
3686.899449,3600.648841,2590.720797,4737.318029
3686.899764,4136.915689,1628.453072,6439.791695
3686.900078,4213.525239,222.061783,7476.080014
3686.900393,2834.553343,-148.041188,8438.347739
3686.900707,612.876398,-74.020594,9992.780217
3686.901022,-1302.362347,-962.267725,11621.233289
3686.901336,-2298.286494,-1332.370696,13101.645173
3686.901651,-3140.991542,-1480.411884,13619.789333
3686.901965,-3447.429741,-518.144159,12361.439231
3686.902280,-3217.601092,-74.020594,11547.212695
3686.902594,-1072.533697,148.041188,9474.636058
3686.902909,1455.581446,1110.308913,7476.080014
3686.903223,2834.553343,3034.844362,5625.565159
3686.903538,3600.648841,2072.576638,6069.688724
3686.903852,4213.525239,740.205942,6735.874072
3686.904167,3600.648841,-148.041188,7994.224174
3686.904481,2145.067394,-296.082377,9770.718434
3686.904796,-459.657299,-666.185348,11399.171507
3686.905110,-2451.505594,-1406.391290,13249.686362
3686.905425,-2681.334243,-1258.350101,13471.748144
3686.905739,-3217.601092,-666.185348,12287.418637
3686.906054,-2834.553343,-0.000000,11917.315666
3686.906368,-1762.019645,370.102971,11103.089130
3686.906683,0.000000,1258.350101,8734.430116
3686.906997,2298.286494,2664.741391,6291.750507
3686.907312,3217.601092,2516.700203,4737.318029
3686.907626,4213.525239,1406.391290,6513.812290
3686.907941,3907.087040,-444.123565,7031.956449
3686.908255,2604.724693,-814.226536,9104.533087
3686.908570,229.828649,-666.185348,10584.944971
3686.908884,-1455.581446,-1702.473667,12065.356855
3686.909199,-2911.162892,-1258.350101,13323.706956
3686.909513,-2834.553343,-1258.350101,13693.809927
3686.909828,-3600.648841,-0.000000,11991.336260
3686.910142,-2681.334243,370.102971,11547.212695
3686.910456,-919.314598,1036.288319,9770.718434
3686.910771,1608.800546,1480.411884,7772.162391
3686.911085,3140.991542,2368.659014,5847.626942
3686.911400,4060.306139,1998.556043,5551.544565
3686.911714,3524.039291,592.164754,6809.894666
3686.912029,3524.039291,-370.102971,8068.244768
3686.912343,1915.238745,-666.185348,9770.718434
3686.912658,-766.095498,-592.164754,11177.109724
3686.912972,-2451.505594,-1406.391290,12287.418637
3686.913287,-3064.381992,-1332.370696,13027.624579
3686.913601,-3370.820191,-888.247130,12879.583391
3686.913916,-3140.991542,-74.020594,11991.336260
3686.914230,-1762.019645,370.102971,9918.759623
3686.914545,306.438199,1332.370696,7994.224174
3686.914859,3064.381992,2812.782580,6439.791695
3686.915174,3830.477490,2442.679609,5477.523971
3686.915488,3524.039291,1406.391290,6143.709319
3686.915803,3064.381992,-74.020594,7328.038826
3686.916117,2068.457845,-444.123565,9474.636058
3686.916432,-383.047749,-1258.350101,10584.944971
3686.916746,-2221.676944,-1702.473667,11843.295072
3686.917061,-3217.601092,-1480.411884,13841.851115
3686.917375,-3677.258390,-1258.350101,13471.748144
3686.917690,-4290.134789,-518.144159,12065.356855
3686.918004,-2987.772442,-0.000000,11473.192101
3686.918319,-919.314598,888.247130,9844.739029
3686.918633,995.924147,1480.411884,7254.018232
3686.918948,2987.772442,2664.741391,6069.688724
3686.919262,3907.087040,2146.597232,6217.729913
3686.919577,3753.867940,666.185348,7105.977043
3686.919891,3217.601092,-296.082377,7772.162391
3686.920206,1455.581446,-444.123565,9770.718434
3686.920520,-689.485948,-444.123565,10881.027347
3686.920835,-2145.067394,-1702.473667,12213.398043
3686.921149,-3140.991542,-1702.473667,13471.748144
3686.921464,-3753.867940,-962.267725,13101.645173
3686.921778,-3140.991542,-296.082377,12065.356855
3686.922093,-2145.067394,-0.000000,10288.862594
3686.922407,383.047749,1110.308913,8290.306550
3686.922722,2298.286494,2886.803174,6513.812290
3686.923036,3600.648841,2294.638420,5403.503377
3686.923351,3830.477490,1480.411884,6217.729913
3686.923665,3753.867940,-0.000000,7031.956449
3686.923980,2528.115143,-296.082377,8586.388927
3686.924294,689.485948,-222.061783,9918.759623
3686.924609,-1378.971896,-1184.329507,12139.377449
3686.924923,-2528.115143,-1184.329507,13841.851115
3686.925238,-3294.210641,-1036.288319,13471.748144
3686.925552,-3447.429741,-222.061783,12213.398043
3686.925867,-2528.115143,222.061783,12065.356855
3686.926181,-689.485948,888.247130,9400.615463
3686.926495,1608.800546,1628.453072,7179.997637
3686.926810,3217.601092,2812.782580,5921.647536
3686.927124,3907.087040,1406.391290,6143.709319
3686.927439,3830.477490,518.144159,6587.832884
3686.927753,3370.820191,-296.082377,7772.162391
3686.928068,1225.752797,-444.123565,9326.594869
3686.928382,-689.485948,-592.164754,10584.944971
3686.928697,-1915.238745,-1850.514855,12287.418637
3686.929011,-2987.772442,-1554.432478,13249.686362
3686.929326,-3677.258390,-1036.288319,12953.603985
3686.929640,-3370.820191,-222.061783,11473.192101
3686.929955,-1915.238745,-74.020594,10288.862594
3686.930269,612.876398,1332.370696,8660.409521
3686.930584,2298.286494,2368.659014,6661.853478
3686.930898,3447.429741,2294.638420,5033.400406
3686.931213,3983.696590,1406.391290,5995.668130
3686.931527,3677.258390,296.082377,7254.018232
3686.931842,2604.724693,-666.185348,9104.533087
3686.932156,153.219100,-814.226536,10140.821405
3686.932471,-1838.629195,-1702.473667,11843.295072
3686.932785,-3294.210641,-1036.288319,13175.665768
3686.933100,-3217.601092,-1628.453072,13249.686362
3686.933414,-3983.696590,-518.144159,12065.356855
3686.933729,-3140.991542,-0.000000,11843.295072
3686.934043,-689.485948,592.164754,9622.677246
3686.934358,1149.143247,1480.411884,7772.162391
3686.934672,2681.334243,2368.659014,5477.523971
3686.934987,3753.867940,1554.432478,5255.462188
3686.935301,3677.258390,740.205942,7105.977043
3686.935616,3294.210641,-74.020594,8290.306550
3686.935930,1225.752797,-148.041188,9474.636058
3686.936245,-842.705048,-296.082377,10807.006753
3686.936559,-2528.115143,-1332.370696,12509.480420
3686.936874,-3217.601092,-1036.288319,13323.706956
3686.937188,-3753.867940,-666.185348,12435.459826
3686.937503,-3447.429741,-518.144159,12213.398043
3686.937817,-1685.410096,518.144159,10881.027347
3686.938132,-229.828649,1258.350101,8956.491898
3686.938446,2145.067394,2590.720797,7328.038826
3686.938761,3447.429741,2368.659014,5625.565159
3686.939075,3830.477490,1258.350101,6365.771101
3686.939390,3524.039291,-74.020594,7105.977043
3686.939704,2374.896044,-518.144159,8882.471304
3686.940019,0.000000,-444.123565,10436.903782
3686.940333,-1608.800546,-740.205942,11843.295072
3686.940648,-3064.381992,-1480.411884,13027.624579
3686.940962,-3370.820191,-1258.350101,13323.706956
3686.941277,-3064.381992,-592.164754,12287.418637
3686.941591,-2604.724693,-0.000000,11695.253884
3686.941906,-536.266849,592.164754,9548.656652
3686.942220,1378.971896,1480.411884,7328.038826
3686.942535,3217.601092,2590.720797,6291.750507
3686.942850,3907.087040,1332.370696,5625.565159
3686.943164,4136.915689,518.144159,6587.832884
3686.943479,3370.820191,-296.082377,7698.141797
3686.943793,1532.190996,-666.185348,9400.615463
3686.944108,-689.485948,-1036.288319,10732.986159
3686.944422,-2221.676944,-1776.494261,12509.480420
3686.944737,-2911.162892,-1480.411884,13693.809927
3686.945051,-3447.429741,-1184.329507,13619.789333
3686.945366,-3140.991542,-296.082377,11991.336260
3686.945680,-1455.581446,296.082377,10362.883188
3686.945995,842.705048,962.267725,7846.182985
3686.946309,2451.505594,2368.659014,6439.791695
3686.946624,3677.258390,2368.659014,5255.462188
3686.946939,3983.696590,1406.391290,5773.606348
3686.947253,3524.039291,-74.020594,7254.018232
3686.947568,2451.505594,-222.061783,9104.533087
3686.947882,383.047749,-666.185348,9696.697840
3686.948197,-1762.019645,-1184.329507,11843.295072
3686.948511,-3064.381992,-1184.329507,13249.686362
3686.948826,-3447.429741,-1110.308913,13249.686362
3686.949140,-3753.867940,-222.061783,12361.439231
3686.949455,-2834.553343,-0.000000,11917.315666
3686.949769,-919.314598,740.205942,9622.677246
3686.950084,1455.581446,1702.473667,7105.977043
3686.950398,3447.429741,2442.679609,5699.585753
3686.950713,2987.772442,2368.659014,5699.585753
3686.951027,3447.429741,592.164754,6809.894666
3686.951342,3064.381992,-148.041188,7772.162391
3686.951657,1149.143247,-592.164754,9326.594869
3686.951971,-689.485948,-444.123565,10658.965565
3686.952286,-2681.334243,-1776.494261,12435.459826
3686.952600,-2987.772442,-1850.514855,13471.748144
3686.952915,-3983.696590,-1110.308913,12879.583391
3686.953229,-3217.601092,-444.123565,11917.315666
3686.953544,-1762.019645,-0.000000,10732.986159
3686.953858,76.609550,1480.411884,8438.347739
3686.954173,2298.286494,2960.823768,6291.750507
3686.954487,3370.820191,2590.720797,4959.379811
3686.954802,4290.134789,1480.411884,6365.771101
3686.955116,3677.258390,-0.000000,7550.100608
3686.955431,2068.457845,-666.185348,8882.471304
3686.955746,0.000000,-444.123565,10658.965565
3686.956060,-1915.238745,-962.267725,12139.377449
3686.956375,-3294.210641,-1036.288319,13249.686362
3686.956689,-4443.353888,-1554.432478,13249.686362
3686.957004,-3677.258390,-518.144159,12583.501014
3686.957318,-3064.381992,370.102971,11991.336260
3686.957633,-1072.533697,1258.350101,9622.677246
3686.957947,1149.143247,1850.514855,7402.059420
3686.958262,2528.115143,3034.844362,6587.832884
3686.958576,3524.039291,1776.494261,5625.565159
3686.958891,3524.039291,592.164754,6661.853478
3686.959205,2757.943793,-222.061783,8216.285956
3686.959520,1149.143247,-74.020594,9474.636058
3686.959835,-766.095498,-74.020594,10732.986159
3686.960149,-2451.505594,-1184.329507,12583.501014
3686.960464,-2987.772442,-1258.350101,13323.706956
3686.960778,-3600.648841,-962.267725,13027.624579
3686.961093,-2834.553343,-666.185348,11843.295072
3686.961407,-1991.848295,444.123565,10584.944971
3686.961722,76.609550,1406.391290,8808.450710
3686.962036,2068.457845,2294.638420,6513.812290
3686.962351,3370.820191,2220.617826,5033.400406
3686.962665,4290.134789,888.247130,6143.709319
3686.962980,3294.210641,-74.020594,7105.977043
3686.963294,2451.505594,-666.185348,8512.368333
3686.963609,0.000000,-666.185348,10288.862594
3686.963924,-1378.971896,-1554.432478,11917.315666
3686.964238,-2528.115143,-1702.473667,13249.686362
3686.964553,-2911.162892,-1480.411884,13323.706956
3686.964867,-3217.601092,-370.102971,12731.542202
3686.965182,-2145.067394,-0.000000,11029.068536
3686.965496,76.609550,814.226536,9178.553681
3686.965811,2145.067394,1924.535449,7328.038826
3686.966125,3294.210641,2664.741391,6365.771101
3686.966440,3907.087040,1480.411884,5329.482782
3686.966754,3907.087040,-0.000000,6217.729913
3686.967069,3217.601092,-740.205942,8216.285956
3686.967383,1302.362347,-814.226536,9474.636058
3686.967698,-766.095498,-962.267725,10807.006753
3686.968013,-2298.286494,-1850.514855,12435.459826
3686.968327,-3064.381992,-1628.453072,13545.768739
3686.968642,-3447.429741,-814.226536,12805.562797
3686.968956,-3370.820191,-296.082377,11695.253884
3686.969271,-1685.410096,518.144159,11029.068536
3686.969585,766.095498,1480.411884,8290.306550
3686.969900,2451.505594,2368.659014,6439.791695
3686.970214,4060.306139,2368.659014,5181.441594
3686.970529,4213.525239,888.247130,6069.688724
3686.970843,3294.210641,-222.061783,7031.956449
3686.971158,2451.505594,-740.205942,8808.450710
3686.971472,229.828649,-666.185348,10288.862594
3686.971787,-1762.019645,-1554.432478,11547.212695
3686.972102,-3294.210641,-1628.453072,12879.583391
3686.972416,-3830.477490,-1332.370696,13175.665768
3686.972731,-3983.696590,-370.102971,12287.418637
3686.973045,-2987.772442,-296.082377,11177.109724
3686.973360,-919.314598,444.123565,9252.574275
3686.973674,1225.752797,1110.308913,7402.059420
3686.973989,3064.381992,2442.679609,5995.668130
3686.974303,3524.039291,1850.514855,5329.482782
3686.974618,3600.648841,592.164754,6809.894666
3686.974932,3140.991542,-518.144159,7920.203579
3686.975247,1378.971896,-962.267725,9622.677246
3686.975561,-459.657299,-518.144159,11547.212695
3686.975876,-2528.115143,-1184.329507,12065.356855
3686.976190,-2834.553343,-1184.329507,13619.789333
3686.976505,-3447.429741,-666.185348,13101.645173
3686.976820,-3064.381992,-296.082377,12287.418637
3686.977134,-1455.581446,518.144159,10436.903782
3686.977449,229.828649,1554.432478,8438.347739
3686.977763,2298.286494,2886.803174,6735.874072
3686.978078,3524.039291,2442.679609,5255.462188
3686.978392,3907.087040,1036.288319,6661.853478
3686.978707,3600.648841,-296.082377,7254.018232
3686.979021,2298.286494,-592.164754,8882.471304
3686.979336,229.828649,-518.144159,10140.821405
3686.979650,-1378.971896,-888.247130,11917.315666
3686.979965,-2987.772442,-814.226536,13619.789333
3686.980279,-3600.648841,-1110.308913,13619.789333
3686.980594,-3600.648841,-0.000000,11991.336260
3686.980909,-2374.896044,370.102971,11843.295072
3686.981223,-536.266849,814.226536,9622.677246
3686.981538,1685.410096,1628.453072,7624.121203
3686.981852,3140.991542,2664.741391,5847.626942
3686.982167,3983.696590,1850.514855,5625.565159
3686.982481,3907.087040,444.123565,6809.894666
3686.982796,3294.210641,-148.041188,8142.265362
3686.983110,1302.362347,-370.102971,9326.594869
3686.983425,-766.095498,-740.205942,10362.883188
3686.983739,-2451.505594,-1406.391290,12139.377449
3686.984054,-2987.772442,-1702.473667,13471.748144
3686.984368,-3753.867940,-1036.288319,13175.665768
3686.984683,-2528.115143,-814.226536,12065.356855
3686.984998,-1302.362347,74.020594,9992.780217
3686.985312,612.876398,1924.535449,8142.265362
3686.985627,2451.505594,2664.741391,5551.544565
3686.985941,3753.867940,2368.659014,4959.379811
3686.986256,3983.696590,1406.391290,5921.647536
3686.986570,3753.867940,-296.082377,7031.956449
3686.986885,2451.505594,-962.267725,9030.512492
3686.987199,76.609550,-740.205942,10732.986159
3686.987514,-1991.848295,-1258.350101,12139.377449
3686.987828,-3064.381992,-1258.350101,13249.686362
3686.988143,-3600.648841,-1406.391290,13619.789333
3686.988457,-2987.772442,-370.102971,12731.542202
3686.988772,-2834.553343,296.082377,11843.295072
3686.989087,-536.266849,1184.329507,9474.636058
3686.989401,1149.143247,2220.617826,7624.121203
3686.989716,3140.991542,2738.761985,5847.626942
3686.990030,3983.696590,1850.514855,6069.688724
3686.990345,3677.258390,814.226536,6883.915261
3686.990659,3064.381992,-296.082377,8142.265362
3686.990974,995.924147,-222.061783,9474.636058
3686.991288,-1072.533697,-740.205942,10807.006753
3686.991603,-2451.505594,-1776.494261,12805.562797
3686.991917,-3447.429741,-1184.329507,13471.748144
3686.992232,-3830.477490,-962.267725,12879.583391
3686.992546,-3217.601092,-444.123565,11843.295072
3686.992861,-1608.800546,370.102971,10288.862594
3686.993176,689.485948,1480.411884,8068.244768
3686.993490,2528.115143,2812.782580,6143.709319
3686.993805,3370.820191,2516.700203,5107.421000
3686.994119,3983.696590,1332.370696,6291.750507
3686.994434,3370.820191,-0.000000,7105.977043
3686.994748,2221.676944,-370.102971,8734.430116
3686.995063,-153.219100,-666.185348,10066.800811
3686.995377,-2298.286494,-1406.391290,12213.398043
3686.995692,-3294.210641,-1554.432478,13397.727550
3686.996006,-3600.648841,-1406.391290,13693.809927
3686.996321,-4060.306139,-740.205942,12509.480420
3686.996635,-2987.772442,-0.000000,11843.295072
3686.996950,-612.876398,888.247130,9918.759623
3686.997264,1225.752797,1924.535449,7105.977043
3686.997579,2911.162892,2960.823768,5921.647536
3686.997894,3983.696590,1998.556043,5699.585753
3686.998208,4213.525239,444.123565,6957.935855
3686.998523,3370.820191,-592.164754,7698.141797
3686.998837,842.705048,-296.082377,9400.615463
3686.999152,-919.314598,-592.164754,11029.068536
3686.999466,-2298.286494,-1554.432478,12953.603985
3686.999781,-3217.601092,-1332.370696,13841.851115
3687.000095,-3677.258390,-1184.329507,13323.706956
3687.000410,-3294.210641,-740.205942,11843.295072
3687.000724,-1455.581446,296.082377,10584.944971
3687.001039,689.485948,1628.453072,8512.368333
3687.001353,2681.334243,2442.679609,6217.729913
3687.001668,3907.087040,2220.617826,5107.421000
3687.001983,4060.306139,888.247130,6143.709319
3687.002297,4290.134789,-74.020594,7254.018232
3687.002612,2451.505594,-888.247130,9030.512492
3687.002926,76.609550,-666.185348,10436.903782
3687.003241,-1838.629195,-1406.391290,11917.315666
3687.003555,-2604.724693,-1480.411884,13101.645173
3687.003870,-2757.943793,-1776.494261,13249.686362
3687.004184,-2911.162892,-592.164754,12583.501014
3687.004499,-2604.724693,-74.020594,11621.233289
3687.004813,-306.438199,592.164754,8956.491898
3687.005128,1838.629195,1998.556043,6957.935855
3687.005442,3064.381992,2368.659014,5625.565159
3687.005757,3753.867940,1332.370696,4959.379811
3687.006072,3830.477490,-0.000000,6439.791695
3687.006386,2757.943793,-814.226536,7846.182985
3687.006701,1072.533697,-1110.308913,9844.739029
3687.007015,-1149.143247,-1480.411884,10732.986159
3687.007330,-2528.115143,-2220.617826,12065.356855
3687.007644,-3140.991542,-2072.576638,13915.871710
3687.007959,-3983.696590,-888.247130,12805.562797
3687.008273,-3447.429741,-444.123565,11547.212695
3687.008588,-1225.752797,518.144159,10584.944971
3687.008902,766.095498,1776.494261,8290.306550
3687.009217,2987.772442,2960.823768,6143.709319
3687.009531,3983.696590,2664.741391,4737.318029
3687.009846,3524.039291,1480.411884,6217.729913
3687.010161,3677.258390,-518.144159,7476.080014
3687.010475,2374.896044,-518.144159,9400.615463
3687.010790,-383.047749,-222.061783,10732.986159
3687.011104,-1915.238745,-1184.329507,12361.439231
3687.011419,-2298.286494,-1332.370696,13397.727550
3687.011733,-3370.820191,-1184.329507,13693.809927
3687.012048,-3524.039291,-444.123565,12657.521608
3687.012362,-2987.772442,370.102971,11547.212695
3687.012677,-689.485948,1184.329507,8882.471304
3687.012991,1915.238745,2072.576638,7105.977043
3687.013306,3370.820191,2960.823768,5773.606348
3687.013620,3983.696590,1850.514855,5477.523971
3687.013935,3677.258390,370.102971,6883.915261
3687.014250,3064.381992,-0.000000,8142.265362
3687.014564,842.705048,-0.000000,9474.636058
3687.014879,-1225.752797,-0.000000,11399.171507
3687.015193,-2757.943793,-1554.432478,12805.562797
3687.015508,-3294.210641,-1480.411884,14211.954086
3687.015822,-3907.087040,-518.144159,13027.624579
3687.016137,-3370.820191,-296.082377,11843.295072
3687.016451,-2068.457845,592.164754,10584.944971
3687.016766,383.047749,1480.411884,8734.430116
3687.017080,2681.334243,2442.679609,6143.709319
3687.017395,3907.087040,2294.638420,5255.462188
3687.017709,3907.087040,814.226536,6365.771101
3687.018024,3907.087040,-296.082377,7105.977043
3687.018339,2145.067394,-666.185348,8882.471304
3687.018653,153.219100,-370.102971,10066.800811
3687.018968,-1762.019645,-888.247130,11621.233289
3687.019282,-2911.162892,-1480.411884,13175.665768
3687.019597,-2987.772442,-1406.391290,13841.851115
3687.019911,-3447.429741,-592.164754,12361.439231
3687.020226,-2298.286494,-0.000000,11103.089130
3687.020540,-153.219100,888.247130,9104.533087
3687.020855,2068.457845,1924.535449,7179.997637
3687.021169,3217.601092,2738.761985,5921.647536
3687.021484,3753.867940,1554.432478,5921.647536
3687.021798,3753.867940,-0.000000,6883.915261
3687.022113,2604.724693,-666.185348,8512.368333
3687.022427,842.705048,-296.082377,9992.780217
3687.022742,-919.314598,-814.226536,11399.171507
3687.023057,-2451.505594,-1480.411884,12731.542202
3687.023371,-2834.553343,-1184.329507,13841.851115
3687.023686,-3370.820191,-518.144159,12731.542202
3687.024000,-2604.724693,-0.000000,11547.212695
3687.024315,-1225.752797,666.185348,9918.759623
3687.024629,766.095498,2146.597232,8512.368333
3687.024944,2681.334243,2886.803174,5625.565159
3687.025258,3600.648841,1924.535449,4367.215058
3687.025573,4290.134789,444.123565,6143.709319
3687.025887,3600.648841,-444.123565,7476.080014
3687.026202,2298.286494,-814.226536,8956.491898
3687.026516,-459.657299,-814.226536,10288.862594
3687.026831,-2145.067394,-1036.288319,11695.253884
3687.027146,-3294.210641,-1332.370696,13323.706956
3687.027460,-3447.429741,-962.267725,13249.686362
3687.027775,-3677.258390,-0.000000,12139.377449
3687.028089,-2681.334243,296.082377,11473.192101
3687.028404,-383.047749,1110.308913,9030.512492
3687.028718,1991.848295,2146.597232,6809.894666
3687.029033,2834.553343,2442.679609,5329.482782
3687.029347,3524.039291,1258.350101,5995.668130
3687.029662,3217.601092,148.041188,7254.018232
3687.029976,2834.553343,-666.185348,8364.327145
3687.030291,153.219100,-962.267725,9770.718434
3687.030605,-1532.190996,-814.226536,11547.212695
3687.030920,-2911.162892,-1036.288319,12805.562797
3687.031235,-3370.820191,-1184.329507,13767.830521
3687.031549,-3830.477490,-444.123565,12879.583391
3687.031864,-2911.162892,-370.102971,12287.418637
3687.032178,-1149.143247,666.185348,9918.759623
3687.032493,1072.533697,1554.432478,8364.327145
3687.032807,2987.772442,2738.761985,6069.688724
3687.033122,4060.306139,2294.638420,5329.482782
3687.033436,4060.306139,1406.391290,6439.791695
3687.033751,3600.648841,-74.020594,7476.080014
3687.034065,2068.457845,-74.020594,9030.512492
3687.034380,-153.219100,-740.205942,10658.965565
3687.034694,-1991.848295,-1110.308913,12435.459826
3687.035009,-3064.381992,-1554.432478,13027.624579
3687.035324,-3370.820191,-1554.432478,13175.665768
3687.035638,-3677.258390,-592.164754,12657.521608
3687.035953,-2757.943793,296.082377,11695.253884
3687.036267,0.000000,1258.350101,9326.594869
3687.036582,1455.581446,2442.679609,7254.018232
3687.036896,3217.601092,2960.823768,6069.688724
3687.037211,3983.696590,1850.514855,5921.647536
3687.037525,3907.087040,-0.000000,6735.874072
3687.037840,2834.553343,-962.267725,8438.347739
3687.038154,842.705048,-518.144159,10066.800811
3687.038469,-1302.362347,-962.267725,10955.047942
3687.038783,-2528.115143,-1776.494261,12731.542202
3687.039098,-3064.381992,-1184.329507,13545.768739
3687.039413,-3524.039291,-666.185348,12583.501014
3687.039727,-2681.334243,-518.144159,11103.089130
3687.040042,-995.924147,222.061783,9696.697840
3687.040356,1149.143247,1110.308913,7920.203579
3687.040670,2374.896044,2072.576638,5921.647536
3687.040985,3830.477490,1850.514855,5329.482782
3687.041299,3983.696590,666.185348,6439.791695
3687.041614,4136.915689,-592.164754,7179.997637
3687.041928,2221.676944,-592.164754,8586.388927
3687.042243,0.000000,-370.102971,10288.862594
3687.042557,-1685.410096,-962.267725,12213.398043
3687.042872,-3140.991542,-1184.329507,13027.624579
3687.043186,-3447.429741,-1184.329507,13249.686362
3687.043501,-3370.820191,-592.164754,12065.356855
3687.043815,-2145.067394,-0.000000,11473.192101
3687.044130,-459.657299,740.205942,9474.636058
3687.044444,1685.410096,1924.535449,7476.080014
3687.044759,3217.601092,2886.803174,5995.668130
3687.045073,4060.306139,1480.411884,6143.709319
3687.045388,3370.820191,370.102971,7105.977043
3687.045702,2451.505594,-370.102971,8734.430116
3687.046017,153.219100,-666.185348,10066.800811
3687.046331,-1762.019645,-740.205942,10955.047942
3687.046645,-2604.724693,-1628.453072,13175.665768
3687.046960,-3140.991542,-888.247130,13767.830521
3687.047274,-3524.039291,-296.082377,12509.480420
3687.047589,-2911.162892,-296.082377,11547.212695
3687.047903,-1072.533697,1110.308913,10140.821405
3687.048218,1072.533697,2146.597232,8142.265362
3687.048532,2911.162892,2738.761985,5847.626942
3687.048847,3753.867940,2220.617826,5255.462188
3687.049161,3600.648841,740.205942,6365.771101
3687.049476,3294.210641,-666.185348,7402.059420
3687.049790,1915.238745,-370.102971,9178.553681
3687.050105,-383.047749,-740.205942,10732.986159
3687.050419,-2221.676944,-1036.288319,12139.377449
3687.050734,-3064.381992,-1480.411884,13249.686362
3687.051048,-3370.820191,-1406.391290,13101.645173
3687.051363,-3217.601092,-0.000000,12657.521608
3687.051677,-2145.067394,296.082377,11251.130318
3687.051992,153.219100,1406.391290,9326.594869
3687.052306,2145.067394,2516.700203,7179.997637
3687.052620,3677.258390,2664.741391,5255.462188
3687.052935,4213.525239,1554.432478,5699.585753
3687.053249,4213.525239,296.082377,7179.997637
3687.053564,2757.943793,-370.102971,8438.347739
3687.053878,689.485948,-370.102971,9992.780217
3687.054193,-766.095498,-592.164754,11103.089130
3687.054507,-2987.772442,-1258.350101,12731.542202
3687.054822,-3753.867940,-1850.514855,13249.686362
3687.055136,-3677.258390,-740.205942,13175.665768
3687.055451,-2681.334243,-740.205942,11843.295072
3687.055765,-1149.143247,222.061783,9918.759623
3687.056080,842.705048,1628.453072,8364.327145
3687.056394,2451.505594,1998.556043,6439.791695
3687.056709,3140.991542,2146.597232,6069.688724
3687.057023,3677.258390,814.226536,6143.709319
3687.057338,2911.162892,-666.185348,7402.059420
3687.057652,1685.410096,-888.247130,9548.656652
3687.057967,-383.047749,-592.164754,10732.986159
3687.058281,-2145.067394,-1036.288319,11621.233289
3687.058595,-3064.381992,-1332.370696,13323.706956
3687.058910,-3524.039291,-1110.308913,13027.624579
3687.059224,-3217.601092,-444.123565,12213.398043
3687.059539,-1915.238745,-0.000000,11399.171507
3687.059853,0.000000,1036.288319,9104.533087
3687.060168,1915.238745,1850.514855,6957.935855
3687.060482,2834.553343,2368.659014,5181.441594
3687.060797,3294.210641,888.247130,5921.647536
3687.061111,3524.039291,-148.041188,6883.915261
3687.061426,2987.772442,-888.247130,7994.224174
3687.061740,842.705048,-666.185348,9548.656652
3687.062055,-995.924147,-666.185348,10807.006753
3687.062369,-2451.505594,-1554.432478,12509.480420
3687.062684,-3140.991542,-1258.350101,12879.583391
3687.062998,-3217.601092,-592.164754,12657.521608
3687.063313,-2528.115143,-0.000000,11473.192101
3687.063627,-995.924147,296.082377,10140.821405
3687.063942,842.705048,1258.350101,8068.244768
3687.064256,2451.505594,2368.659014,6217.729913
3687.064570,3370.820191,2220.617826,5847.626942
3687.064885,3447.429741,814.226536,6587.832884
3687.065199,3447.429741,-0.000000,8142.265362
3687.065514,1455.581446,-370.102971,9400.615463
3687.065828,-459.657299,-444.123565,10955.047942
3687.066143,-2145.067394,-1036.288319,12731.542202
3687.066457,-2604.724693,-962.267725,13323.706956
3687.066772,-3217.601092,-444.123565,13545.768739
3687.067086,-3447.429741,-222.061783,12509.480420
3687.067401,-2298.286494,444.123565,11399.171507
3687.067715,76.609550,1406.391290,9030.512492
3687.068030,2451.505594,2072.576638,7105.977043
3687.068344,3753.867940,2294.638420,5551.544565
3687.068659,3907.087040,1554.432478,5255.462188
3687.068973,3677.258390,370.102971,6735.874072
3687.069288,2604.724693,-296.082377,8364.327145
3687.069602,612.876398,-444.123565,9474.636058
3687.069917,-1302.362347,-888.247130,10807.006753
3687.070231,-2757.943793,-1480.411884,12805.562797
3687.070545,-2987.772442,-1628.453072,13397.727550
3687.070860,-3677.258390,-740.205942,12435.459826
3687.071174,-2374.896044,-148.041188,11547.212695
3687.071489,-919.314598,518.144159,10510.924376
3687.071803,1072.533697,1850.514855,7994.224174
3687.072118,2604.724693,2738.761985,6069.688724
3687.072432,3830.477490,2368.659014,5551.544565
3687.072747,4366.744339,1184.329507,6217.729913
3687.073061,3447.429741,-0.000000,7476.080014
3687.073376,2068.457845,-370.102971,9104.533087
3687.073690,0.000000,-888.247130,10436.903782
3687.074005,-2068.457845,-1406.391290,11917.315666
3687.074319,-2911.162892,-1258.350101,12953.603985
3687.074634,-3983.696590,-666.185348,13915.871710
3687.074948,-3524.039291,-296.082377,12287.418637
3687.075263,-2451.505594,-0.000000,10881.027347
3687.075577,-689.485948,740.205942,9326.594869
3687.075892,1915.238745,2072.576638,7402.059420
3687.076206,2987.772442,2368.659014,5847.626942
3687.076520,3677.258390,1702.473667,5551.544565
3687.076835,4060.306139,518.144159,7105.977043
3687.077149,2987.772442,-148.041188,8364.327145
3687.077464,689.485948,-666.185348,9770.718434
3687.077778,-1072.533697,-888.247130,11103.089130
3687.078093,-2681.334243,-1258.350101,12805.562797
3687.078407,-3370.820191,-1628.453072,13545.768739
3687.078722,-3983.696590,-592.164754,13027.624579
3687.079036,-2911.162892,-888.247130,12435.459826
3687.079351,-1378.971896,-74.020594,10362.883188
3687.079665,612.876398,1480.411884,7994.224174
3687.079980,2451.505594,2146.597232,6291.750507
3687.080294,3524.039291,1628.453072,5699.585753
3687.080609,3983.696590,1184.329507,6143.709319
3687.080923,3294.210641,-0.000000,7328.038826
3687.081238,2068.457845,-814.226536,8956.491898
3687.081552,-306.438199,-666.185348,10362.883188
3687.081867,-1915.238745,-1184.329507,12139.377449
3687.082181,-2834.553343,-1480.411884,13175.665768
3687.082495,-3600.648841,-1184.329507,13619.789333
3687.082810,-3370.820191,-444.123565,12435.459826
3687.083124,-2145.067394,-74.020594,10732.986159
3687.083439,0.000000,666.185348,9178.553681
3687.083753,1838.629195,2368.659014,7105.977043
3687.084068,3370.820191,2664.741391,5625.565159
3687.084382,3600.648841,1332.370696,5551.544565
3687.084697,3983.696590,148.041188,6957.935855
3687.085011,2681.334243,-296.082377,7624.121203
3687.085326,536.266849,-888.247130,9770.718434
3687.085640,-1149.143247,-1110.308913,11325.150913
3687.085955,-2681.334243,-1850.514855,13027.624579
3687.086269,-3447.429741,-1184.329507,13915.871710
3687.086584,-3907.087040,-74.020594,13101.645173
3687.086898,-3217.601092,222.061783,12139.377449
3687.087213,-1149.143247,666.185348,10288.862594
3687.087527,689.485948,1258.350101,8142.265362
3687.087842,2604.724693,2368.659014,6439.791695
3687.088156,3753.867940,2590.720797,5403.503377
3687.088470,3983.696590,1036.288319,6365.771101
3687.088785,3217.601092,-444.123565,7476.080014
3687.089099,1991.848295,-370.102971,9696.697840
3687.089414,-153.219100,-444.123565,10658.965565
3687.089728,-1915.238745,-1480.411884,12361.439231
3687.090043,-2911.162892,-1184.329507,13619.789333
3687.090357,-3447.429741,-1036.288319,13693.809927
3687.090672,-3600.648841,-296.082377,12139.377449
3687.090986,-2374.896044,444.123565,11103.089130
3687.091301,153.219100,1110.308913,8882.471304
3687.091615,2298.286494,2368.659014,6809.894666
3687.091930,3447.429741,2738.761985,6143.709319
3687.092244,4060.306139,1628.453072,5403.503377
3687.092559,3907.087040,296.082377,6957.935855
3687.092873,2911.162892,-740.205942,8512.368333
3687.093188,306.438199,-666.185348,10140.821405
3687.093502,-1455.581446,-814.226536,11103.089130
3687.093817,-2834.553343,-1998.556043,12953.603985
3687.094131,-3140.991542,-1258.350101,14063.912898
3687.094445,-3447.429741,-666.185348,13027.624579
3687.094760,-3140.991542,-0.000000,11547.212695
3687.095074,-1378.971896,518.144159,10436.903782
3687.095389,766.095498,1480.411884,7920.203579
3687.095703,2757.943793,2516.700203,5995.668130
3687.096018,4060.306139,2516.700203,5181.441594
3687.096332,4136.915689,1036.288319,6513.812290
3687.096647,3524.039291,-74.020594,7624.121203
3687.096961,2145.067394,-518.144159,8734.430116
3687.097276,76.609550,-666.185348,10436.903782
3687.097590,-1685.410096,-1258.350101,11917.315666
3687.097905,-2987.772442,-1258.350101,12953.603985
3687.098219,-3600.648841,-962.267725,13027.624579
3687.098534,-3677.258390,-518.144159,12805.562797
3687.098848,-2451.505594,370.102971,11251.130318
3687.099163,-459.657299,740.205942,9104.533087
3687.099477,1915.238745,2072.576638,7254.018232
3687.099792,3677.258390,2516.700203,5847.626942
3687.100106,3753.867940,1406.391290,5181.441594
3687.100420,3753.867940,296.082377,6661.853478
3687.100735,2834.553343,-592.164754,8512.368333
3687.101049,689.485948,-370.102971,9622.677246
3687.101364,-766.095498,-1110.308913,11251.130318
3687.101678,-2604.724693,-1258.350101,12657.521608
3687.101993,-3140.991542,-1258.350101,13915.871710
3687.102307,-3677.258390,-296.082377,12361.439231
3687.102622,-2834.553343,-0.000000,11843.295072
3687.102936,-689.485948,888.247130,9992.780217
3687.103251,1225.752797,1554.432478,8142.265362
3687.103565,2911.162892,2220.617826,5847.626942
3687.103880,3524.039291,1998.556043,5329.482782
3687.104194,3753.867940,666.185348,6513.812290
3687.104509,3140.991542,-444.123565,7179.997637
3687.104823,1991.848295,-518.144159,9252.574275
3687.105138,-459.657299,-592.164754,10881.027347
3687.105452,-2068.457845,-1406.391290,11991.336260
3687.105766,-3140.991542,-1184.329507,13249.686362
3687.106081,-3447.429741,-1036.288319,13545.768739
3687.106395,-3600.648841,-0.000000,12361.439231
3687.106710,-2145.067394,370.102971,11177.109724
3687.107024,0.000000,1406.391290,9326.594869
3687.107339,1915.238745,2146.597232,7846.182985
3687.107653,3217.601092,2368.659014,5551.544565
3687.107968,3753.867940,1480.411884,5699.585753
3687.108282,3600.648841,370.102971,6957.935855
3687.108597,2681.334243,-222.061783,8660.409521
3687.108911,536.266849,-296.082377,9474.636058
3687.109226,-995.924147,-962.267725,11325.150913
3687.109540,-2604.724693,-1258.350101,13101.645173
3687.109855,-3447.429741,-1480.411884,13841.851115
3687.110169,-3600.648841,-592.164754,13027.624579
3687.110484,-2681.334243,-148.041188,12065.356855
3687.110798,-842.705048,666.185348,9844.739029
3687.111113,1072.533697,1406.391290,7920.203579
3687.111427,2911.162892,2368.659014,5403.503377
3687.111741,3983.696590,2368.659014,5181.441594
3687.112056,3753.867940,740.205942,6217.729913
3687.112370,3217.601092,-518.144159,7105.977043
3687.112685,1915.238745,-74.020594,8956.491898
3687.112999,-229.828649,-518.144159,10732.986159
3687.113314,-1991.848295,-1184.329507,12287.418637
3687.113628,-2757.943793,-1332.370696,13619.789333
3687.113943,-2911.162892,-888.247130,13619.789333
3687.114257,-3830.477490,-0.000000,11695.253884
3687.114572,-2451.505594,-370.102971,11843.295072
3687.114886,-383.047749,1036.288319,9104.533087
3687.115201,1225.752797,1850.514855,7179.997637
3687.115515,3524.039291,2368.659014,5995.668130
3687.115830,3524.039291,1480.411884,5921.647536
3687.116144,3677.258390,296.082377,7105.977043
3687.116459,2681.334243,-592.164754,8438.347739
3687.116773,995.924147,-740.205942,9474.636058
3687.117088,-1838.629195,-592.164754,11695.253884
3687.117402,-2757.943793,-1480.411884,12657.521608
3687.117716,-2911.162892,-1110.308913,13323.706956
3687.118031,-3753.867940,-592.164754,12657.521608
3687.118345,-2834.553343,-74.020594,11547.212695
3687.118660,-1149.143247,814.226536,9474.636058
3687.118974,919.314598,1702.473667,7920.203579
3687.119289,2681.334243,2368.659014,6143.709319
3687.119603,3447.429741,1850.514855,5033.400406
3687.119918,3753.867940,444.123565,6291.750507
3687.120232,3524.039291,-666.185348,7698.141797
3687.120547,1378.971896,-666.185348,9178.553681
3687.120861,-536.266849,-666.185348,10584.944971
3687.121176,-2298.286494,-1258.350101,12065.356855
3687.121490,-2604.724693,-1554.432478,13397.727550
3687.121805,-3370.820191,-740.205942,13545.768739
3687.122119,-3753.867940,-148.041188,11843.295072
3687.122434,-2068.457845,296.082377,11251.130318
3687.122748,-383.047749,1110.308913,9178.553681
3687.123063,1685.410096,2146.597232,7402.059420
3687.123377,3524.039291,2590.720797,5329.482782
3687.123691,3524.039291,1554.432478,5699.585753
3687.124006,3600.648841,-0.000000,7031.956449
3687.124320,2528.115143,-740.205942,7994.224174
3687.124635,766.095498,-296.082377,10288.862594
3687.124949,-1762.019645,-1036.288319,11177.109724
3687.125264,-3217.601092,-1554.432478,12953.603985
3687.125578,-3447.429741,-1110.308913,14137.933492
3687.125893,-4213.525239,-962.267725,12435.459826
3687.126207,-2528.115143,-518.144159,11399.171507
3687.126522,-689.485948,592.164754,9844.739029
3687.126836,1455.581446,1702.473667,8290.306550
3687.127151,2987.772442,2368.659014,5995.668130
3687.127465,3753.867940,2146.597232,4885.359217
3687.127780,4060.306139,592.164754,6439.791695
3687.128094,3677.258390,-444.123565,7476.080014
3687.128409,2145.067394,-740.205942,9474.636058
3687.128723,-459.657299,-740.205942,10881.027347
3687.129038,-1838.629195,-1332.370696,12361.439231
3687.129352,-3294.210641,-1480.411884,13175.665768
3687.129666,-3907.087040,-592.164754,13323.706956
3687.129981,-3217.601092,-148.041188,12657.521608
3687.130295,-1991.848295,-148.041188,11177.109724
3687.130610,0.000000,518.144159,8808.450710
3687.130924,2298.286494,1776.494261,7179.997637
3687.131239,3524.039291,2368.659014,5625.565159
3687.131553,3753.867940,1480.411884,5847.626942
3687.131868,3600.648841,222.061783,6883.915261
3687.132182,2757.943793,-444.123565,8290.306550
3687.132497,689.485948,-888.247130,9696.697840
3687.132811,-1378.971896,-1036.288319,11251.130318
3687.133126,-2528.115143,-1628.453072,12805.562797
3687.133440,-3217.601092,-1332.370696,13397.727550
3687.133755,-3983.696590,-370.102971,12805.562797
3687.134069,-2681.334243,-148.041188,11843.295072
3687.134384,-995.924147,222.061783,10140.821405
3687.134698,995.924147,1406.391290,7994.224174
3687.135013,2604.724693,2368.659014,5181.441594
3687.135327,3447.429741,1998.556043,5477.523971
3687.135641,3830.477490,814.226536,5995.668130
3687.135956,2757.943793,-666.185348,7550.100608
3687.136270,1532.190996,-518.144159,9252.574275
3687.136585,-306.438199,-888.247130,10510.924376
3687.136899,-1838.629195,-814.226536,11843.295072
3687.137214,-2834.553343,-666.185348,13027.624579
3687.137528,-3370.820191,-148.041188,13323.706956
3687.137843,-3294.210641,-0.000000,11399.171507
3687.138157,-1762.019645,444.123565,10658.965565
3687.138472,76.609550,1406.391290,9400.615463
3687.138786,1915.238745,2294.638420,7328.038826
3687.139101,3064.381992,2442.679609,5773.606348
3687.139415,3677.258390,1332.370696,5773.606348
3687.139730,3524.039291,-0.000000,7402.059420
3687.140044,2298.286494,-370.102971,8586.388927
3687.140359,459.657299,-444.123565,10288.862594
3687.140673,-995.924147,-740.205942,11547.212695
3687.140987,-2528.115143,-1332.370696,13101.645173
3687.141302,-3140.991542,-296.082377,13471.748144
3687.141616,-3677.258390,-148.041188,12583.501014
3687.141931,-2451.505594,444.123565,11843.295072
3687.142245,-612.876398,1110.308913,9918.759623
3687.142559,1685.410096,2368.659014,7476.080014
3687.142874,2987.772442,2294.638420,5921.647536
3687.143188,3447.429741,1998.556043,5329.482782
3687.143503,3600.648841,296.082377,6661.853478
3687.143817,2757.943793,-518.144159,7846.182985
3687.144131,1838.629195,-814.226536,9992.780217
3687.144446,-612.876398,-962.267725,11103.089130
3687.144760,-2298.286494,-1332.370696,11917.315666
3687.145075,-2757.943793,-1184.329507,13175.665768
3687.145389,-3524.039291,-962.267725,13841.851115
3687.145703,-3370.820191,-444.123565,12213.398043
3687.146018,-1608.800546,148.041188,11399.171507
3687.146332,76.609550,1258.350101,9178.553681
3687.146647,2221.676944,2072.576638,7105.977043
3687.146961,3524.039291,2368.659014,5625.565159
3687.147275,3447.429741,1332.370696,5625.565159
3687.147590,3600.648841,370.102971,6883.915261
3687.147904,2451.505594,-814.226536,8142.265362
3687.148219,919.314598,-1110.308913,9622.677246
3687.148533,-536.266849,-1184.329507,11177.109724
3687.148847,-2911.162892,-1924.535449,12805.562797
3687.149162,-3217.601092,-1258.350101,13471.748144
3687.149476,-3600.648841,-444.123565,12953.603985
3687.149791,-2374.896044,444.123565,11695.253884
3687.150105,-919.314598,666.185348,9770.718434
3687.150420,1455.581446,962.267725,7772.162391
3687.150734,2987.772442,2294.638420,5921.647536
3687.151048,3907.087040,2072.576638,5403.503377
3687.151363,3830.477490,370.102971,6069.688724
3687.151677,2834.553343,-74.020594,7476.080014
3687.151992,1532.190996,-888.247130,9030.512492
3687.152306,-306.438199,-666.185348,10584.944971
3687.152620,-2068.457845,-1332.370696,11991.336260
3687.152935,-3140.991542,-1332.370696,13397.727550
3687.153249,-3753.867940,-666.185348,13249.686362
3687.153564,-3983.696590,-222.061783,11843.295072
3687.153878,-2374.896044,-0.000000,11177.109724
3687.154192,-306.438199,888.247130,9474.636058
3687.154507,1608.800546,1628.453072,7254.018232
3687.154821,2834.553343,2146.597232,5921.647536
3687.155136,3294.210641,962.267725,5847.626942
3687.155450,3370.820191,222.061783,6809.894666
3687.155764,2681.334243,-666.185348,8586.388927
3687.156079,689.485948,-888.247130,9918.759623
3687.156393,-1149.143247,-1406.391290,11621.233289
3687.156708,-2298.286494,-1850.514855,13101.645173
3687.157022,-3294.210641,-1184.329507,13619.789333
3687.157336,-3600.648841,-0.000000,12583.501014
3687.157651,-2528.115143,-74.020594,11917.315666
3687.157965,-536.266849,666.185348,9696.697840
3687.158280,1225.752797,1184.329507,8364.327145
3687.158594,3217.601092,2368.659014,6217.729913
3687.158908,3600.648841,1702.473667,5403.503377
3687.159223,3677.258390,222.061783,6439.791695
3687.159537,3600.648841,-740.205942,7624.121203
3687.159852,1838.629195,-740.205942,9252.574275
3687.160166,0.000000,-740.205942,10658.965565
3687.160480,-1838.629195,-1332.370696,12435.459826
3687.160795,-2757.943793,-962.267725,13471.748144
3687.161109,-3370.820191,-148.041188,13101.645173
3687.161424,-3600.648841,-0.000000,11769.274478
3687.161738,-1685.410096,592.164754,11029.068536
3687.162052,306.438199,1184.329507,9030.512492
3687.162367,1915.238745,2368.659014,6883.915261
3687.162681,3907.087040,2516.700203,5699.585753
3687.162996,3370.820191,1406.391290,5403.503377
3687.163310,3217.601092,370.102971,6661.853478
3687.163624,2451.505594,-518.144159,8808.450710
3687.163939,153.219100,-962.267725,9770.718434
3687.164253,-2145.067394,-1110.308913,11177.109724
3687.164568,-2834.553343,-1628.453072,12953.603985
3687.164882,-3294.210641,-962.267725,13619.789333
3687.165196,-3830.477490,-148.041188,12435.459826
3687.165511,-2604.724693,518.144159,11695.253884
3687.165825,-766.095498,1036.288319,10066.800811
3687.166140,1302.362347,1776.494261,7105.977043
3687.166454,3064.381992,2368.659014,5847.626942
3687.166768,3830.477490,1850.514855,5033.400406
3687.167083,3677.258390,444.123565,6143.709319
3687.167397,3524.039291,-888.247130,7920.203579
3687.167712,1685.410096,-1036.288319,9104.533087
3687.168026,-612.876398,-888.247130,10807.006753
3687.168341,-2374.896044,-1776.494261,11917.315666
3687.168655,-3600.648841,-1702.473667,13471.748144
3687.168969,-3830.477490,-814.226536,13175.665768
3687.169284,-3600.648841,-222.061783,12361.439231
3687.169598,-1838.629195,296.082377,11251.130318
3687.169913,0.000000,1480.411884,9104.533087
3687.170227,1838.629195,2516.700203,7328.038826
3687.170541,4136.915689,2516.700203,5107.421000
3687.170856,3907.087040,1850.514855,5773.606348
3687.171170,3753.867940,370.102971,7105.977043
3687.171485,2911.162892,-222.061783,8956.491898
3687.171799,536.266849,-666.185348,9992.780217
3687.172113,-1532.190996,-1332.370696,11843.295072
3687.172428,-2911.162892,-1332.370696,13471.748144
3687.172742,-3753.867940,-1036.288319,14137.933492
3687.173057,-3983.696590,-296.082377,12583.501014
3687.173371,-2987.772442,-0.000000,11843.295072
3687.173685,-1072.533697,518.144159,9622.677246
3687.174000,1455.581446,1628.453072,7846.182985
3687.174314,2987.772442,2220.617826,5551.544565
3687.174629,3677.258390,2146.597232,5403.503377
3687.174943,4060.306139,370.102971,6439.791695
3687.175257,3370.820191,-222.061783,7031.956449
3687.175572,2068.457845,-592.164754,9252.574275
3687.175886,-383.047749,-814.226536,10955.047942
3687.176201,-1991.848295,-1628.453072,12435.459826
3687.176515,-2834.553343,-1554.432478,13471.748144
3687.176829,-3600.648841,-962.267725,13397.727550
3687.177144,-3217.601092,-370.102971,12065.356855
3687.177458,-1915.238745,-0.000000,11103.089130
3687.177773,153.219100,888.247130,9030.512492
3687.178087,3140.991542,1998.556043,6661.853478
3687.178401,3983.696590,2368.659014,5181.441594
3687.178716,4290.134789,1332.370696,5699.585753
3687.179030,3753.867940,-74.020594,6513.812290
3687.179345,2911.162892,-666.185348,8142.265362
3687.179659,919.314598,-666.185348,9844.739029
3687.179973,-1225.752797,-962.267725,11177.109724
