#time,accel_x,accel_y,accel_z
3702.849053,2221.676944,740.205942,8734.430116
3702.849368,1991.848295,1036.288319,8956.491898
3702.849683,2145.067394,1110.308913,8512.368333
3702.849997,1991.848295,1036.288319,8512.368333
3702.850312,1838.629195,888.247130,9104.533087
3702.850626,1915.238745,962.267725,9400.615463
3702.850941,1225.752797,740.205942,9696.697840
3702.851255,919.314598,518.144159,9548.656652
3702.851570,612.876398,148.041188,9474.636058
3702.851885,612.876398,666.185348,9400.615463
3702.852199,842.705048,592.164754,9104.533087
3702.852514,229.828649,444.123565,9326.594869
3702.852828,0.000000,148.041188,8882.471304
3702.853143,306.438199,-0.000000,9030.512492
3702.853457,383.047749,-666.185348,9622.677246
3702.853772,0.000000,-814.226536,9474.636058
3702.854086,0.000000,-962.267725,9770.718434
3702.854401,-229.828649,-814.226536,9548.656652
3702.854716,-383.047749,-814.226536,10214.842000
3702.855030,-689.485948,-962.267725,10066.800811
3702.855345,-459.657299,-444.123565,9030.512492
3702.855659,-612.876398,-222.061783,9400.615463
3702.855974,-306.438199,-74.020594,9104.533087
3702.856288,76.609550,-222.061783,9030.512492
3702.856603,153.219100,-0.000000,9474.636058
3702.856918,153.219100,-592.164754,9400.615463
3702.857232,0.000000,-370.102971,9622.677246
3702.857547,-306.438199,-518.144159,9696.697840
3702.857861,-153.219100,-888.247130,10140.821405
3702.858176,0.000000,-1110.308913,10140.821405
3702.858490,-229.828649,-370.102971,9474.636058
3702.858805,-766.095498,-370.102971,9474.636058
3702.859120,-919.314598,-666.185348,9474.636058
3702.859434,-766.095498,-814.226536,9548.656652
3702.859749,-153.219100,-592.164754,9548.656652
3702.860063,-306.438199,-888.247130,9548.656652
3702.860378,-229.828649,-444.123565,9622.677246
3702.860692,0.000000,-592.164754,9696.697840
3702.861007,0.000000,-444.123565,10214.842000
3702.861322,229.828649,-444.123565,10066.800811
3702.861636,0.000000,-296.082377,9918.759623
3702.861951,229.828649,-74.020594,9696.697840
3702.862265,536.266849,296.082377,9030.512492
3702.862580,766.095498,148.041188,9104.533087
3702.862894,919.314598,222.061783,8734.430116
3702.863209,842.705048,370.102971,8808.450710
3702.863523,689.485948,370.102971,8734.430116
3702.863838,919.314598,222.061783,8512.368333
3702.864153,995.924147,370.102971,8586.388927
3702.864467,842.705048,-0.000000,9030.512492
3702.864782,536.266849,370.102971,9548.656652
3702.865096,612.876398,444.123565,9178.553681
3702.865411,536.266849,-0.000000,9548.656652
3702.865725,612.876398,814.226536,9178.553681
3702.866040,995.924147,962.267725,9030.512492
3702.866355,459.657299,1332.370696,8808.450710
3702.866669,689.485948,1184.329507,8808.450710
3702.866984,689.485948,1110.308913,9326.594869
3702.867298,153.219100,1036.288319,9474.636058
3702.867613,459.657299,592.164754,10140.821405
3702.867927,383.047749,962.267725,10436.903782
3702.868242,459.657299,962.267725,10436.903782
3702.868557,0.000000,888.247130,10510.924376
3702.868871,76.609550,740.205942,10584.944971
3702.869186,0.000000,814.226536,10881.027347
3702.869500,0.000000,814.226536,10066.800811
3702.869815,-306.438199,1036.288319,10436.903782
3702.870129,0.000000,740.205942,10436.903782
3702.870444,0.000000,518.144159,10658.965565
3702.870759,0.000000,-0.000000,10584.944971
3702.871073,-383.047749,222.061783,10658.965565
3702.871388,0.000000,740.205942,11029.068536
3702.871702,229.828649,370.102971,10658.965565
3702.872017,0.000000,740.205942,10510.924376
3702.872331,0.000000,444.123565,10362.883188
3702.872646,0.000000,592.164754,9918.759623
3702.872960,153.219100,444.123565,9696.697840
3702.873275,383.047749,592.164754,9622.677246
3702.873590,76.609550,222.061783,9548.656652
3702.873904,383.047749,296.082377,9622.677246
3702.874219,0.000000,222.061783,9770.718434
3702.874533,0.000000,-148.041188,9992.780217
3702.874848,153.219100,-74.020594,9622.677246
3702.875162,153.219100,-222.061783,9548.656652
3702.875477,76.609550,-74.020594,9400.615463
3702.875792,76.609550,-74.020594,9326.594869
3702.876106,0.000000,-0.000000,8734.430116
3702.876421,229.828649,-0.000000,8956.491898
3702.876735,76.609550,-0.000000,9252.574275
3702.877050,229.828649,-74.020594,8882.471304
3702.877364,0.000000,-74.020594,8808.450710
3702.877679,76.609550,-370.102971,9104.533087
3702.877994,0.000000,-444.123565,9474.636058
3702.878308,229.828649,-74.020594,9474.636058
3702.878623,0.000000,-296.082377,9622.677246
3702.878937,306.438199,-296.082377,9474.636058
3702.879252,0.000000,-518.144159,8956.491898
3702.879566,229.828649,-74.020594,8660.409521
3702.879881,383.047749,-222.061783,9104.533087
3702.880196,459.657299,-296.082377,8956.491898
3702.880510,306.438199,-222.061783,8882.471304
3702.880825,76.609550,-444.123565,9326.594869
3702.881139,0.000000,-592.164754,9474.636058
3702.881454,0.000000,-814.226536,9548.656652
3702.881768,-229.828649,-296.082377,9696.697840
3702.882083,0.000000,-444.123565,9696.697840
3702.882397,76.609550,-222.061783,9696.697840
3702.882712,306.438199,-444.123565,9400.615463
3702.883027,0.000000,-296.082377,9474.636058
3702.883341,-153.219100,-0.000000,9400.615463
3702.883656,-229.828649,-148.041188,9474.636058
3702.883970,0.000000,-222.061783,9770.718434
3702.884285,-229.828649,-444.123565,10140.821405
3702.884599,-153.219100,-370.102971,9548.656652
3702.884914,-229.828649,-592.164754,9622.677246
3702.885229,-306.438199,-296.082377,10140.821405
3702.885543,-383.047749,-296.082377,9918.759623
3702.885858,0.000000,-222.061783,9918.759623
3702.886172,-229.828649,-296.082377,9696.697840
3702.886487,0.000000,-148.041188,9844.739029
3702.886801,-536.266849,-0.000000,9622.677246
3702.887116,0.000000,444.123565,9326.594869
3702.887431,153.219100,-0.000000,9918.759623
3702.887745,0.000000,222.061783,9696.697840
3702.888060,0.000000,-0.000000,9474.636058
3702.888374,0.000000,296.082377,9400.615463
3702.888689,0.000000,444.123565,9622.677246
3702.889003,229.828649,518.144159,9548.656652
3702.889318,153.219100,666.185348,9400.615463
3702.889633,229.828649,518.144159,9474.636058
3702.889947,383.047749,740.205942,9252.574275
3702.890262,306.438199,814.226536,9178.553681
3702.890576,229.828649,962.267725,9474.636058
3702.890891,0.000000,666.185348,9474.636058
3702.891205,459.657299,888.247130,9548.656652
3702.891520,229.828649,888.247130,9178.553681
3702.891834,536.266849,888.247130,9400.615463
3702.892149,536.266849,962.267725,9548.656652
3702.892463,766.095498,814.226536,9918.759623
3702.892778,0.000000,518.144159,9548.656652
3702.893092,0.000000,666.185348,9918.759623
3702.893407,76.609550,444.123565,10140.821405
3702.893721,0.000000,592.164754,9696.697840
3702.894036,0.000000,370.102971,9770.718434
3702.894350,0.000000,518.144159,9992.780217
3702.894665,76.609550,296.082377,9548.656652
3702.894980,306.438199,222.061783,10214.842000
3702.895294,0.000000,296.082377,10140.821405
3702.895609,-689.485948,666.185348,10066.800811
3702.895923,76.609550,296.082377,9696.697840
3702.896238,153.219100,-0.000000,9992.780217
3702.896552,229.828649,-74.020594,9844.739029
3702.896867,0.000000,-0.000000,9770.718434
3702.897181,-383.047749,-444.123565,9474.636058
3702.897496,153.219100,-0.000000,9992.780217
3702.897810,76.609550,-0.000000,9696.697840
3702.898125,153.219100,-148.041188,9622.677246
3702.898439,0.000000,-0.000000,9696.697840
3702.898754,306.438199,-0.000000,9918.759623
3702.899068,76.609550,-222.061783,9474.636058
3702.899383,0.000000,-296.082377,9622.677246
3702.899697,229.828649,222.061783,9622.677246
3702.900012,76.609550,-0.000000,9474.636058
3702.900326,-766.095498,-0.000000,9326.594869
3702.900641,76.609550,-74.020594,9326.594869
3702.900955,0.000000,-0.000000,9326.594869
3702.901270,76.609550,148.041188,9252.574275
3702.901584,76.609550,-74.020594,9474.636058
3702.901899,383.047749,-222.061783,9474.636058
3702.902213,153.219100,-0.000000,8956.491898
3702.902528,383.047749,-0.000000,9030.512492
3702.902843,153.219100,-148.041188,9400.615463
3702.903157,306.438199,-0.000000,9326.594869
3702.903472,153.219100,-0.000000,9030.512492
3702.903786,459.657299,-74.020594,8956.491898
3702.904101,153.219100,148.041188,9178.553681
3702.904415,0.000000,148.041188,9326.594869
3702.904730,-153.219100,-296.082377,9622.677246
3702.905044,459.657299,-296.082377,9548.656652
3702.905359,0.000000,-0.000000,9400.615463
3702.905673,229.828649,-222.061783,9400.615463
3702.905988,153.219100,-0.000000,9474.636058
3702.906302,306.438199,-222.061783,10140.821405
3702.906617,0.000000,-0.000000,9326.594869
3702.906931,229.828649,-0.000000,9474.636058
3702.907246,153.219100,-0.000000,9696.697840
3702.907560,229.828649,-0.000000,9770.718434
3702.907875,76.609550,148.041188,9622.677246
3702.908189,153.219100,-0.000000,9770.718434
3702.908504,76.609550,-0.000000,10140.821405
3702.908818,229.828649,-0.000000,9548.656652
3702.909133,0.000000,-0.000000,9548.656652
3702.909447,306.438199,-74.020594,10214.842000
3702.909762,0.000000,370.102971,9770.718434
3702.910076,0.000000,296.082377,10066.800811
3702.910391,229.828649,296.082377,10214.842000
3702.910706,153.219100,592.164754,9992.780217
3702.911020,0.000000,370.102971,9918.759623
3702.911335,153.219100,666.185348,9622.677246
3702.911649,0.000000,370.102971,9844.739029
3702.911964,229.828649,592.164754,9844.739029
3702.912278,459.657299,666.185348,9844.739029
3702.912593,0.000000,370.102971,9474.636058
3702.912907,76.609550,518.144159,9844.739029
3702.913222,0.000000,814.226536,9844.739029
3702.913536,383.047749,740.205942,9992.780217
3702.913851,76.609550,518.144159,10066.800811
3702.914165,76.609550,666.185348,9474.636058
3702.914480,76.609550,814.226536,9696.697840
3702.914794,76.609550,592.164754,9474.636058
3702.915109,76.609550,666.185348,9696.697840
3702.915423,153.219100,370.102971,9474.636058
3702.915738,153.219100,592.164754,9622.677246
3702.916052,76.609550,444.123565,9474.636058
3702.916367,229.828649,370.102971,9252.574275
3702.916681,306.438199,370.102971,9178.553681
3702.916996,153.219100,222.061783,9918.759623
3702.917310,76.609550,-0.000000,9548.656652
3702.917625,0.000000,296.082377,9400.615463
3702.917939,229.828649,148.041188,9548.656652
3702.918254,153.219100,-0.000000,9548.656652
3702.918569,459.657299,-148.041188,9844.739029
3702.918883,383.047749,222.061783,9548.656652
3702.919198,306.438199,-0.000000,9696.697840
3702.919512,306.438199,-0.000000,9474.636058
3702.919827,612.876398,-74.020594,9474.636058
3702.920141,0.000000,-222.061783,9696.697840
3702.920456,0.000000,-74.020594,9548.656652
3702.920770,306.438199,-370.102971,9622.677246
3702.921085,229.828649,-148.041188,9844.739029
3702.921399,153.219100,-296.082377,9474.636058
3702.921714,76.609550,-370.102971,9474.636058
3702.922028,-153.219100,-296.082377,9474.636058
3702.922343,76.609550,-222.061783,9622.677246
3702.922657,153.219100,-0.000000,9696.697840
3702.922972,76.609550,-222.061783,9622.677246
3702.923286,0.000000,-74.020594,9474.636058
3702.923601,76.609550,-370.102971,9474.636058
3702.923915,229.828649,-74.020594,9548.656652
3702.924230,0.000000,-222.061783,9400.615463
3702.924544,0.000000,-296.082377,9622.677246
3702.924859,0.000000,-0.000000,9474.636058
3702.925173,76.609550,222.061783,9178.553681
3702.925488,0.000000,-0.000000,9252.574275
3702.925802,0.000000,-0.000000,9252.574275
3702.926117,153.219100,-74.020594,9474.636058
3702.926432,-383.047749,-0.000000,9474.636058
3702.926746,0.000000,-0.000000,9326.594869
3702.927061,0.000000,74.020594,9548.656652
3702.927375,0.000000,148.041188,9548.656652
3702.927690,0.000000,-74.020594,9104.533087
3702.928004,76.609550,-0.000000,9548.656652
3702.928319,306.438199,-74.020594,9400.615463
3702.928633,0.000000,-0.000000,9400.615463
3702.928948,0.000000,-0.000000,9548.656652
3702.929262,229.828649,-0.000000,9548.656652
3702.929577,383.047749,222.061783,9400.615463
3702.929891,306.438199,-148.041188,9474.636058
3702.930206,76.609550,222.061783,9622.677246
3702.930520,306.438199,370.102971,9474.636058
3702.930835,306.438199,-0.000000,9474.636058
3702.931149,0.000000,-0.000000,9548.656652
3702.931464,459.657299,-0.000000,9548.656652
3702.931778,306.438199,222.061783,9770.718434
3702.932093,153.219100,370.102971,9992.780217
3702.932407,153.219100,370.102971,9770.718434
3702.932722,383.047749,-0.000000,9622.677246
3702.933036,0.000000,-0.000000,9622.677246
3702.933351,229.828649,296.082377,9696.697840
3702.933665,229.828649,518.144159,10066.800811
3702.933980,76.609550,296.082377,10066.800811
3702.934295,383.047749,296.082377,10066.800811
3702.934609,0.000000,518.144159,9696.697840
3702.934924,76.609550,592.164754,9844.739029
3702.935238,0.000000,370.102971,9844.739029
3702.935553,153.219100,518.144159,9770.718434
3702.935867,0.000000,296.082377,10288.862594
3702.936182,0.000000,296.082377,9474.636058
3702.936496,229.828649,666.185348,9844.739029
3702.936811,0.000000,444.123565,9770.718434
3702.937125,0.000000,296.082377,9696.697840
3702.937440,306.438199,-0.000000,9918.759623
3702.937754,0.000000,370.102971,9622.677246
3702.938069,0.000000,148.041188,9844.739029
3702.938383,0.000000,296.082377,9474.636058
3702.938698,0.000000,-0.000000,9178.553681
3702.939012,0.000000,222.061783,9622.677246
3702.939327,153.219100,-0.000000,9474.636058
3702.939641,0.000000,-74.020594,9548.656652
3702.939956,0.000000,370.102971,9622.677246
3702.940270,229.828649,-0.000000,9474.636058
3702.940585,76.609550,222.061783,9104.533087
3702.940899,0.000000,370.102971,9400.615463
3702.941214,76.609550,-0.000000,9696.697840
3702.941528,0.000000,-74.020594,9252.574275
3702.941843,306.438199,-74.020594,9400.615463
3702.942158,459.657299,-222.061783,9326.594869
3702.942472,153.219100,-0.000000,9474.636058
3702.942787,383.047749,-0.000000,9622.677246
3702.943101,229.828649,-0.000000,9474.636058
3702.943416,459.657299,-370.102971,9548.656652
3702.943730,153.219100,-148.041188,9400.615463
3702.944045,306.438199,-0.000000,9474.636058
3702.944359,383.047749,-74.020594,9918.759623
3702.944674,229.828649,-0.000000,9474.636058
3702.944988,0.000000,-370.102971,9696.697840
3702.945303,0.000000,-0.000000,9474.636058
3702.945617,153.219100,-0.000000,9548.656652
3702.945932,153.219100,-222.061783,9696.697840
3702.946246,0.000000,-296.082377,9474.636058
3702.946561,0.000000,-0.000000,9844.739029
3702.946875,76.609550,-74.020594,9622.677246
3702.947190,0.000000,-0.000000,9474.636058
3702.947504,-229.828649,-0.000000,9696.697840
3702.947819,-153.219100,-0.000000,9770.718434
3702.948133,-153.219100,-0.000000,9474.636058
3702.948448,-306.438199,-0.000000,9474.636058
3702.948762,76.609550,-0.000000,9844.739029
3702.949077,153.219100,-74.020594,9696.697840
3702.949391,459.657299,-148.041188,9252.574275
3702.949706,76.609550,-0.000000,9474.636058
3702.950021,76.609550,296.082377,9326.594869
3702.950335,459.657299,-0.000000,9474.636058
3702.950650,76.609550,148.041188,9622.677246
3702.950964,0.000000,-0.000000,9548.656652
3702.951279,0.000000,296.082377,9474.636058
3702.951593,153.219100,222.061783,9548.656652
3702.951908,153.219100,222.061783,9696.697840
3702.952222,229.828649,-0.000000,9474.636058
3702.952537,383.047749,-0.000000,9474.636058
3702.952851,0.000000,-0.000000,9622.677246
3702.953166,153.219100,148.041188,9622.677246
3702.953480,76.609550,444.123565,9696.697840
3702.953795,229.828649,444.123565,9622.677246
3702.954109,153.219100,148.041188,9548.656652
3702.954424,76.609550,592.164754,9474.636058
3702.954738,459.657299,296.082377,9548.656652
3702.955053,383.047749,592.164754,9548.656652
3702.955367,459.657299,370.102971,9770.718434
3702.955682,383.047749,370.102971,9844.739029
3702.955996,-306.438199,296.082377,9696.697840
3702.956311,0.000000,296.082377,9918.759623
3702.956625,0.000000,370.102971,9992.780217
3702.956940,0.000000,518.144159,9770.718434
3702.957255,-383.047749,-0.000000,9918.759623
3702.957569,383.047749,518.144159,9770.718434
3702.957884,383.047749,592.164754,9918.759623
3702.958198,229.828649,592.164754,9696.697840
3702.958513,153.219100,518.144159,9696.697840
3702.958827,76.609550,222.061783,10140.821405
3702.959142,153.219100,296.082377,9918.759623
3702.959456,76.609550,-0.000000,9622.677246
3702.959771,229.828649,222.061783,9474.636058
3702.960085,306.438199,222.061783,9548.656652
3702.960400,229.828649,370.102971,9548.656652
3702.960714,153.219100,-0.000000,9474.636058
3702.961029,153.219100,222.061783,9622.677246
3702.961343,0.000000,74.020594,9474.636058
3702.961658,306.438199,296.082377,9918.759623
3702.961972,153.219100,-0.000000,9400.615463
3702.962287,76.609550,148.041188,9622.677246
3702.962601,76.609550,-0.000000,9326.594869
3702.962916,0.000000,-0.000000,9474.636058
3702.963230,0.000000,-0.000000,9696.697840
3702.963545,0.000000,-0.000000,9474.636058
3702.963859,76.609550,-74.020594,9474.636058
3702.964174,306.438199,-0.000000,9548.656652
3702.964488,612.876398,-0.000000,9918.759623
3702.964803,76.609550,-74.020594,9474.636058
3702.965118,0.000000,-0.000000,9178.553681
3702.965432,536.266849,370.102971,9548.656652
3702.965747,0.000000,-0.000000,9474.636058
3702.966061,153.219100,444.123565,9548.656652
3702.966376,306.438199,-74.020594,9400.615463
3702.966690,0.000000,-222.061783,9548.656652
3702.967005,76.609550,-0.000000,9696.697840
3702.967319,0.000000,-0.000000,9696.697840
3702.967634,-153.219100,-0.000000,10214.842000
3702.967948,0.000000,-0.000000,9696.697840
3702.968263,76.609550,-74.020594,8956.491898
3702.968577,76.609550,-74.020594,9696.697840
3702.968892,0.000000,-0.000000,9696.697840
3702.969206,153.219100,-74.020594,9548.656652
3702.969521,0.000000,148.041188,9400.615463
3702.969835,153.219100,-0.000000,9326.594869
3702.970150,229.828649,-0.000000,9474.636058
3702.970464,459.657299,-0.000000,9474.636058
3702.970779,459.657299,-0.000000,9696.697840
3702.971093,76.609550,-0.000000,9622.677246
3702.971408,0.000000,-0.000000,9400.615463
3702.971722,612.876398,-0.000000,9548.656652
3702.972037,229.828649,-222.061783,9474.636058
3702.972351,229.828649,-0.000000,9474.636058
3702.972666,536.266849,-0.000000,9474.636058
3702.972981,0.000000,-0.000000,9548.656652
3702.973295,383.047749,-0.000000,9400.615463
3702.973610,76.609550,222.061783,9622.677246
3702.973924,0.000000,-148.041188,9770.718434
3702.974239,153.219100,-0.000000,9696.697840
3702.974553,459.657299,-0.000000,9622.677246
3702.974868,0.000000,222.061783,9548.656652
3702.975182,0.000000,74.020594,9622.677246
3702.975497,153.219100,-0.000000,9474.636058
3702.975811,153.219100,148.041188,9326.594869
3702.976126,153.219100,-0.000000,9918.759623
3702.976440,0.000000,296.082377,10066.800811
3702.976755,0.000000,518.144159,10066.800811
3702.977069,0.000000,296.082377,9770.718434
3702.977384,76.609550,296.082377,9696.697840
3702.977698,229.828649,148.041188,9770.718434
3702.978013,153.219100,296.082377,9622.677246
3702.978327,0.000000,222.061783,9918.759623
3702.978642,76.609550,518.144159,9696.697840
3702.978956,0.000000,518.144159,9178.553681
3702.979271,306.438199,148.041188,9844.739029
3702.979585,0.000000,444.123565,9548.656652
3702.979900,153.219100,296.082377,9548.656652
3702.980214,0.000000,370.102971,9474.636058
3702.980529,0.000000,222.061783,9400.615463
3702.980844,153.219100,444.123565,9474.636058
3702.981158,0.000000,296.082377,9474.636058
3702.981473,229.828649,-0.000000,9548.656652
3702.981787,0.000000,148.041188,9252.574275
3702.982102,612.876398,370.102971,9696.697840
3702.982416,153.219100,222.061783,9474.636058
3702.982731,229.828649,222.061783,9548.656652
3702.983045,0.000000,222.061783,9474.636058
3702.983360,153.219100,-0.000000,9474.636058
3702.983674,153.219100,-74.020594,9696.697840
3702.983989,153.219100,148.041188,9474.636058
3702.984303,0.000000,-0.000000,9622.677246
3702.984618,229.828649,-0.000000,9400.615463
3702.984932,153.219100,148.041188,9474.636058
3702.985247,0.000000,-296.082377,9474.636058
3702.985561,459.657299,-0.000000,9696.697840
3702.985876,383.047749,-0.000000,9770.718434
3702.986190,153.219100,-0.000000,9474.636058
3702.986505,153.219100,148.041188,9622.677246
3702.986819,0.000000,-0.000000,9770.718434
3702.987134,153.219100,-0.000000,9696.697840
3702.987448,0.000000,-74.020594,9918.759623
3702.987763,0.000000,-0.000000,9474.636058
3702.988077,0.000000,-0.000000,9770.718434
3702.988392,229.828649,148.041188,9696.697840
3702.988707,229.828649,-0.000000,9770.718434
3702.989021,0.000000,-0.000000,9548.656652
3702.989336,0.000000,-0.000000,9696.697840
3702.989650,0.000000,296.082377,9326.594869
3702.989965,229.828649,222.061783,9178.553681
3702.990279,0.000000,222.061783,9326.594869
3702.990594,0.000000,-0.000000,9400.615463
3702.990908,0.000000,-0.000000,9474.636058
3702.991223,0.000000,148.041188,9474.636058
3702.991537,229.828649,-74.020594,9622.677246
3702.991852,0.000000,148.041188,9696.697840
3702.992166,0.000000,-0.000000,9548.656652
3702.992481,0.000000,-0.000000,9474.636058
3702.992795,0.000000,-0.000000,9474.636058
3702.993110,536.266849,296.082377,9474.636058
3702.993424,229.828649,-0.000000,9770.718434
3702.993739,0.000000,518.144159,9548.656652
3702.994053,153.219100,222.061783,9548.656652
3702.994368,76.609550,-0.000000,9548.656652
3702.994682,536.266849,-0.000000,9326.594869
3702.994997,76.609550,-0.000000,9770.718434
3702.995311,76.609550,-0.000000,9400.615463
3702.995626,153.219100,296.082377,9474.636058
3702.995940,306.438199,-0.000000,9770.718434
3702.996254,229.828649,-0.000000,9992.780217
3702.996569,383.047749,148.041188,9918.759623
3702.996883,0.000000,-0.000000,9696.697840
3702.997198,229.828649,-0.000000,10066.800811
3702.997512,536.266849,-0.000000,10066.800811
3702.997826,766.095498,296.082377,9622.677246
3702.998141,306.438199,222.061783,10066.800811
3702.998455,612.876398,444.123565,9844.739029
3702.998770,766.095498,518.144159,9696.697840
3702.999084,612.876398,592.164754,9622.677246
3702.999399,842.705048,962.267725,9326.594869
3702.999713,689.485948,592.164754,9326.594869
3703.000027,919.314598,888.247130,9104.533087
3703.000342,612.876398,666.185348,9326.594869
3703.000656,459.657299,296.082377,9474.636058
3703.000971,612.876398,148.041188,9696.697840
3703.001285,459.657299,-0.000000,10066.800811
3703.001599,229.828649,222.061783,10140.821405
3703.001914,459.657299,666.185348,10140.821405
3703.002228,919.314598,888.247130,9844.739029
3703.002543,1225.752797,1332.370696,9918.759623
3703.002857,1378.971896,1332.370696,9252.574275
3703.003172,1838.629195,1110.308913,9326.594869
3703.003486,2068.457845,1406.391290,9178.553681
3703.003800,2451.505594,1480.411884,9030.512492
3703.004115,2451.505594,1480.411884,9104.533087
3703.004429,2451.505594,1554.432478,9104.533087
3703.004744,2374.896044,1554.432478,9326.594869
3703.005058,2528.115143,1702.473667,9104.533087
3703.005372,2528.115143,2072.576638,9252.574275
3703.005687,2451.505594,1702.473667,9474.636058
3703.006001,2451.505594,1924.535449,9252.574275
3703.006316,2374.896044,2072.576638,9326.594869
3703.006630,2757.943793,2146.597232,9178.553681
3703.006945,3064.381992,2294.638420,9178.553681
3703.007259,2987.772442,2664.741391,9548.656652
3703.007573,3217.601092,3034.844362,9548.656652
3703.007888,3370.820191,3182.885551,9548.656652
3703.008202,3524.039291,3256.906145,9104.533087
3703.008517,3600.648841,3701.029710,8882.471304
3703.008831,3064.381992,3478.967927,9400.615463
3703.009146,2911.162892,3849.070898,9326.594869
3703.009460,2604.724693,3552.988522,9400.615463
3703.009774,2911.162892,3108.864956,9622.677246
3703.010089,2528.115143,2960.823768,9992.780217
3703.010403,2528.115143,3182.885551,10510.924376
3703.010718,1838.629195,2886.803174,10436.903782
3703.011032,1915.238745,3182.885551,10658.965565
3703.011346,2221.676944,3627.009116,10881.027347
3703.011661,2298.286494,4293.194464,10584.944971
3703.011975,2221.676944,4663.297435,10510.924376
3703.012290,2757.943793,4663.297435,10362.883188
3703.012604,2911.162892,4885.359217,9696.697840
3703.012919,3140.991542,4959.379811,9548.656652
3703.013233,3217.601092,4663.297435,9178.553681
3703.013547,2528.115143,4589.276840,9030.512492
3703.013862,2604.724693,3923.091493,9326.594869
3703.014176,2221.676944,3256.906145,9548.656652
3703.014491,1455.581446,3108.864956,10140.821405
3703.014805,612.876398,2368.659014,10807.006753
3703.015119,76.609550,1776.494261,11029.068536
3703.015434,76.609550,2146.597232,11177.109724
3703.015748,383.047749,2516.700203,10955.047942
3703.016063,459.657299,2812.782580,10288.862594
3703.016377,1072.533697,3108.864956,10807.006753
3703.016692,1608.800546,2738.761985,9918.759623
3703.017006,2221.676944,3404.947333,9474.636058
3703.017320,2528.115143,3478.967927,8808.450710
3703.017635,2987.772442,3330.926739,8660.409521
3703.017949,3064.381992,2738.761985,9400.615463
3703.018264,2451.505594,2368.659014,9992.780217
3703.018578,2451.505594,1184.329507,9622.677246
3703.018892,1532.190996,962.267725,9770.718434
3703.019207,1302.362347,1110.308913,9918.759623
3703.019521,1225.752797,1036.288319,9474.636058
3703.019836,1225.752797,1332.370696,9844.739029
3703.020150,1149.143247,1332.370696,9178.553681
3703.020465,1685.410096,1480.411884,8512.368333
3703.020779,2145.067394,1406.391290,8216.285956
3703.021093,2221.676944,1332.370696,8808.450710
3703.021408,2604.724693,1110.308913,8660.409521
3703.021722,2528.115143,814.226536,8956.491898
3703.022037,2757.943793,666.185348,9474.636058
3703.022351,2374.896044,740.205942,10140.821405
3703.022665,1915.238745,1110.308913,10214.842000
3703.022980,1838.629195,1332.370696,10510.924376
3703.023294,1915.238745,1776.494261,9770.718434
3703.023609,2374.896044,1628.453072,9326.594869
3703.023923,2834.553343,1406.391290,8808.450710
3703.024238,2681.334243,1776.494261,7920.203579
3703.024552,2221.676944,1406.391290,7550.100608
3703.024866,2757.943793,962.267725,7772.162391
3703.025181,2298.286494,370.102971,8290.306550
3703.025495,1915.238745,-0.000000,8882.471304
3703.025810,1455.581446,-666.185348,9548.656652
3703.026124,612.876398,-814.226536,10658.965565
3703.026438,229.828649,-888.247130,11325.150913
3703.026753,-229.828649,-296.082377,11473.192101
3703.027067,-383.047749,296.082377,11029.068536
3703.027382,153.219100,888.247130,11029.068536
3703.027696,612.876398,1702.473667,9918.759623
3703.028011,1455.581446,2146.597232,8290.306550
3703.028325,1838.629195,2294.638420,7846.182985
3703.028639,2221.676944,2368.659014,7920.203579
3703.028954,2451.505594,1332.370696,8216.285956
3703.029268,1455.581446,518.144159,8734.430116
3703.029583,536.266849,-518.144159,10066.800811
3703.029897,-459.657299,-888.247130,11843.295072
3703.030211,-1608.800546,-1332.370696,12657.521608
3703.030526,-2145.067394,-666.185348,13101.645173
3703.030840,-2374.896044,-296.082377,12657.521608
3703.031155,-1378.971896,592.164754,11695.253884
3703.031469,-306.438199,1924.535449,10510.924376
3703.031784,842.705048,2738.761985,8660.409521
3703.032098,1685.410096,2886.803174,7550.100608
3703.032412,2911.162892,2664.741391,6883.915261
3703.032727,3217.601092,1924.535449,6883.915261
3703.033041,2681.334243,888.247130,7846.182985
3703.033356,2145.067394,370.102971,8956.491898
3703.033670,306.438199,-740.205942,10807.006753
3703.033984,-1378.971896,-1110.308913,11991.336260
3703.034299,-2451.505594,-1110.308913,12435.459826
3703.034613,-2834.553343,-518.144159,11991.336260
3703.034928,-1991.848295,-74.020594,11547.212695
3703.035242,-1532.190996,962.267725,10510.924376
3703.035557,0.000000,1998.556043,8216.285956
3703.035871,1302.362347,2220.617826,7476.080014
3703.036185,2681.334243,2220.617826,6587.832884
3703.036500,3294.210641,1998.556043,6957.935855
3703.036814,3524.039291,1480.411884,7476.080014
3703.037129,2681.334243,444.123565,8956.491898
3703.037443,1532.190996,222.061783,10955.047942
3703.037757,229.828649,-222.061783,11325.150913
3703.038072,-1072.533697,-592.164754,11695.253884
3703.038386,-1455.581446,-222.061783,11843.295072
3703.038701,-1225.752797,222.061783,10510.924376
3703.039015,-689.485948,962.267725,8734.430116
3703.039330,612.876398,592.164754,7550.100608
3703.039644,1149.143247,1332.370696,6809.894666
3703.039958,2145.067394,1184.329507,6291.750507
3703.040273,2451.505594,444.123565,7772.162391
3703.040587,2451.505594,-222.061783,8808.450710
3703.040902,1455.581446,-1332.370696,10288.862594
3703.041216,536.266849,-888.247130,11991.336260
3703.041530,-383.047749,-1110.308913,12731.542202
3703.041845,-1072.533697,-296.082377,12657.521608
3703.042159,-1378.971896,888.247130,11843.295072
3703.042474,-1532.190996,1258.350101,10214.842000
3703.042788,-536.266849,1776.494261,9030.512492
3703.043103,766.095498,2220.617826,7328.038826
3703.043417,1225.752797,1406.391290,6735.874072
3703.043731,2145.067394,296.082377,7328.038826
3703.044046,1685.410096,-592.164754,8290.306550
3703.044360,842.705048,-1480.411884,9400.615463
3703.044675,-459.657299,-2442.679609,11029.068536
3703.044989,-1532.190996,-2442.679609,12139.377449
3703.045304,-2221.676944,-2886.803174,12879.583391
3703.045618,-2374.896044,-888.247130,12361.439231
3703.045932,-2834.553343,-74.020594,11547.212695
3703.046247,-2221.676944,1332.370696,9474.636058
3703.046561,-995.924147,1702.473667,7772.162391
3703.046876,-153.219100,1480.411884,6513.812290
3703.047190,1915.238745,814.226536,7105.977043
3703.047504,1685.410096,148.041188,7476.080014
3703.047819,1532.190996,-444.123565,8808.450710
3703.048133,995.924147,-1036.288319,10436.903782
3703.048448,0.000000,-1998.556043,11473.192101
3703.048762,-919.314598,-2146.597232,11991.336260
3703.049077,-1991.848295,-2516.700203,12805.562797
3703.049391,-2451.505594,-1258.350101,11621.233289
3703.049705,-2451.505594,-296.082377,9696.697840
3703.050020,-1225.752797,-74.020594,8068.244768
3703.050334,-536.266849,518.144159,7476.080014
3703.050649,536.266849,666.185348,6587.832884
3703.050963,1685.410096,-74.020594,6365.771101
3703.051277,1685.410096,-666.185348,7624.121203
3703.051592,2068.457845,-592.164754,9252.574275
3703.051906,1378.971896,-1036.288319,10214.842000
3703.052221,689.485948,-1184.329507,11103.089130
3703.052535,229.828649,-1480.411884,11695.253884
3703.052850,-766.095498,-518.144159,10732.986159
3703.053164,-1378.971896,296.082377,9992.780217
3703.053478,-1225.752797,444.123565,9326.594869
3703.053793,-842.705048,740.205942,8068.244768
3703.054107,0.000000,814.226536,7254.018232
3703.054422,383.047749,148.041188,7402.059420
3703.054736,536.266849,-740.205942,8734.430116
3703.055050,536.266849,-962.267725,9918.759623
3703.055365,383.047749,-888.247130,10362.883188
3703.055679,459.657299,-888.247130,11177.109724
3703.055994,383.047749,-1036.288319,11843.295072
3703.056308,153.219100,-148.041188,10881.027347
3703.056623,306.438199,666.185348,9178.553681
3703.056937,459.657299,1184.329507,8216.285956
3703.057251,766.095498,1850.514855,7476.080014
3703.057566,536.266849,1924.535449,7254.018232
3703.057880,459.657299,1554.432478,7402.059420
3703.058195,383.047749,592.164754,8438.347739
3703.058509,383.047749,-148.041188,9918.759623
3703.058823,0.000000,-592.164754,10584.944971
3703.059138,-229.828649,-592.164754,11473.192101
3703.059452,-689.485948,-444.123565,12213.398043
3703.059767,-842.705048,222.061783,11029.068536
3703.060081,-536.266849,814.226536,10362.883188
3703.060396,76.609550,1924.535449,9178.553681
3703.060710,766.095498,2368.659014,8660.409521
3703.061024,842.705048,2368.659014,8216.285956
3703.061339,766.095498,2516.700203,8808.450710
3703.061653,689.485948,1554.432478,9252.574275
3703.061968,383.047749,962.267725,9844.739029
3703.062282,76.609550,370.102971,10510.924376
3703.062596,229.828649,518.144159,11177.109724
3703.062911,0.000000,666.185348,11621.233289
3703.063225,-306.438199,666.185348,10955.047942
3703.063540,-306.438199,888.247130,9992.780217
3703.063854,0.000000,962.267725,9252.574275
3703.064169,153.219100,888.247130,8808.450710
3703.064483,536.266849,888.247130,9400.615463
3703.064797,0.000000,1184.329507,9400.615463
3703.065112,-306.438199,962.267725,9326.594869
3703.065426,-229.828649,1332.370696,10955.047942
3703.065741,-383.047749,740.205942,10955.047942
3703.066055,-689.485948,962.267725,10732.986159
3703.066369,0.000000,444.123565,10436.903782
3703.066684,0.000000,740.205942,9918.759623
3703.066998,766.095498,-0.000000,9770.718434
3703.067313,229.828649,592.164754,8216.285956
3703.067627,229.828649,222.061783,8290.306550
3703.067942,612.876398,-148.041188,8734.430116
3703.068256,0.000000,-296.082377,8882.471304
3703.068570,-229.828649,-740.205942,9474.636058
3703.068885,-536.266849,-444.123565,9696.697840
3703.069199,-612.876398,-370.102971,10510.924376
3703.069514,-1149.143247,-296.082377,10510.924376
3703.069828,-689.485948,-148.041188,10362.883188
3703.070142,-306.438199,-0.000000,9918.759623
3703.070457,689.485948,-74.020594,8808.450710
3703.070771,1455.581446,-0.000000,8290.306550
3703.071086,1608.800546,-0.000000,7994.224174
3703.071400,1685.410096,-0.000000,8216.285956
3703.071715,1455.581446,-74.020594,8660.409521
3703.072029,689.485948,-370.102971,9030.512492
3703.072343,306.438199,-518.144159,9696.697840
3703.072658,-689.485948,-666.185348,9992.780217
3703.072972,-842.705048,-518.144159,10510.924376
3703.073287,-1455.581446,-518.144159,10807.006753
3703.073601,-995.924147,-592.164754,10140.821405
3703.073915,0.000000,-666.185348,9696.697840
3703.074230,689.485948,-592.164754,8734.430116
3703.074544,1072.533697,-592.164754,8660.409521
3703.074859,995.924147,-370.102971,8438.347739
3703.075173,612.876398,-518.144159,8438.347739
3703.075488,536.266849,-370.102971,9770.718434
3703.075802,0.000000,-518.144159,10066.800811
3703.076116,0.000000,-370.102971,10732.986159
3703.076431,-612.876398,-74.020594,11399.171507
3703.076745,-842.705048,-444.123565,10955.047942
3703.077060,-1072.533697,-0.000000,10436.903782
3703.077374,-383.047749,-148.041188,9474.636058
3703.077688,766.095498,-0.000000,9178.553681
3703.078003,1072.533697,-148.041188,8808.450710
3703.078317,1455.581446,-444.123565,8216.285956
3703.078632,1302.362347,-148.041188,8142.265362
3703.078946,536.266849,-296.082377,8808.450710
3703.079261,306.438199,-740.205942,10362.883188
3703.079575,-153.219100,-888.247130,10584.944971
3703.079889,-459.657299,-666.185348,10881.027347
3703.080204,-919.314598,-444.123565,10658.965565
3703.080518,-612.876398,-0.000000,9770.718434
3703.080833,-306.438199,-0.000000,9548.656652
3703.081147,76.609550,740.205942,8882.471304
3703.081461,842.705048,814.226536,8290.306550
3703.081776,1302.362347,370.102971,7994.224174
3703.082090,1455.581446,-0.000000,8512.368333
3703.082405,919.314598,-222.061783,9326.594869
3703.082719,153.219100,-0.000000,10362.883188
3703.083034,-766.095498,-0.000000,10881.027347
3703.083348,-1225.752797,148.041188,11251.130318
3703.083662,-919.314598,-74.020594,11251.130318
3703.083977,-1149.143247,1036.288319,11029.068536
3703.084291,-766.095498,1184.329507,10584.944971
3703.084606,0.000000,1110.308913,8660.409521
3703.084920,612.876398,1332.370696,8438.347739
3703.085235,1915.238745,814.226536,8512.368333
3703.085549,1149.143247,518.144159,8808.450710
3703.085863,766.095498,814.226536,9178.553681
3703.086178,612.876398,222.061783,9696.697840
3703.086492,0.000000,-0.000000,10658.965565
3703.086807,-383.047749,-0.000000,11399.171507
3703.087121,-919.314598,740.205942,10955.047942
3703.087435,-842.705048,1332.370696,10066.800811
3703.087750,-766.095498,1036.288319,9622.677246
3703.088064,153.219100,1332.370696,8734.430116
3703.088379,0.000000,888.247130,8216.285956
3703.088693,1072.533697,1036.288319,8364.327145
3703.089008,766.095498,370.102971,8660.409521
3703.089322,612.876398,-222.061783,9252.574275
3703.089636,229.828649,-148.041188,10362.883188
3703.089951,153.219100,-222.061783,10955.047942
3703.090265,-306.438199,-74.020594,11473.192101
3703.090580,-536.266849,222.061783,10732.986159
3703.090894,-536.266849,1258.350101,10066.800811
3703.091208,0.000000,1184.329507,9474.636058
3703.091523,689.485948,962.267725,8512.368333
3703.091837,1072.533697,962.267725,8216.285956
3703.092152,1455.581446,518.144159,8290.306550
3703.092466,1378.971896,296.082377,8364.327145
3703.092780,1378.971896,-148.041188,9474.636058
3703.093095,1072.533697,-0.000000,9918.759623
3703.093409,306.438199,-148.041188,10584.944971
3703.093723,0.000000,-370.102971,10881.027347
3703.094038,-536.266849,-0.000000,10658.965565
3703.094352,-383.047749,518.144159,9622.677246
3703.094666,76.609550,666.185348,9178.553681
3703.094981,0.000000,1036.288319,8808.450710
3703.095295,383.047749,962.267725,8512.368333
3703.095609,1149.143247,518.144159,8512.368333
3703.095924,995.924147,518.144159,9178.553681
3703.096238,459.657299,-0.000000,9770.718434
3703.096552,383.047749,-148.041188,10436.903782
3703.096867,0.000000,-296.082377,10584.944971
3703.097181,-536.266849,-222.061783,11177.109724
3703.097495,-383.047749,-0.000000,10955.047942
3703.097810,-842.705048,222.061783,9696.697840
3703.098124,0.000000,222.061783,9252.574275
3703.098438,536.266849,370.102971,8216.285956
3703.098753,689.485948,444.123565,7994.224174
3703.099067,1072.533697,-0.000000,8142.265362
3703.099381,153.219100,-148.041188,8512.368333
3703.099696,0.000000,-740.205942,9400.615463
3703.100010,-612.876398,-1184.329507,9548.656652
3703.100324,-919.314598,-962.267725,10955.047942
3703.100639,-842.705048,-1110.308913,10881.027347
3703.100953,-995.924147,-222.061783,10732.986159
3703.101267,-995.924147,-0.000000,9918.759623
3703.101582,76.609550,148.041188,9548.656652
3703.101896,229.828649,222.061783,8512.368333
3703.102210,383.047749,-0.000000,8142.265362
3703.102525,306.438199,-444.123565,8882.471304
3703.102839,0.000000,-444.123565,9178.553681
3703.103153,0.000000,-1332.370696,10066.800811
3703.103468,-766.095498,-1110.308913,10214.842000
3703.103782,-1149.143247,-814.226536,11325.150913
3703.104096,-766.095498,-370.102971,10955.047942
3703.104411,-536.266849,-444.123565,10362.883188
3703.104725,0.000000,-222.061783,9770.718434
3703.105039,153.219100,148.041188,9178.553681
3703.105354,842.705048,666.185348,8142.265362
3703.105668,995.924147,740.205942,7994.224174
3703.105982,1302.362347,148.041188,8364.327145
3703.106297,689.485948,-0.000000,7994.224174
3703.106611,229.828649,-518.144159,9474.636058
3703.106925,0.000000,-148.041188,10362.883188
3703.107240,-766.095498,-444.123565,11473.192101
3703.107554,-1225.752797,-296.082377,11621.233289
3703.107868,-612.876398,-0.000000,11177.109724
3703.108183,-689.485948,370.102971,10214.842000
3703.108497,76.609550,518.144159,9326.594869
3703.108811,689.485948,666.185348,8734.430116
3703.109126,1225.752797,962.267725,8216.285956
3703.109440,1378.971896,740.205942,8142.265362
3703.109754,1455.581446,518.144159,8142.265362
3703.110069,689.485948,296.082377,9252.574275
3703.110383,306.438199,-0.000000,10140.821405
3703.110697,-153.219100,-444.123565,10658.965565
3703.111012,0.000000,-444.123565,10955.047942
3703.111326,-306.438199,-0.000000,10584.944971
3703.111640,-383.047749,370.102971,9696.697840
3703.111955,153.219100,444.123565,9252.574275
3703.112269,842.705048,370.102971,8586.388927
3703.112583,1532.190996,370.102971,8808.450710
3703.112898,1455.581446,592.164754,8142.265362
3703.113212,842.705048,592.164754,8734.430116
3703.113526,306.438199,-0.000000,9918.759623
3703.113841,229.828649,222.061783,10362.883188
3703.114155,0.000000,148.041188,11177.109724
3703.114470,-153.219100,370.102971,11547.212695
3703.114784,0.000000,740.205942,11251.130318
3703.115098,-229.828649,1036.288319,9696.697840
3703.115413,536.266849,1036.288319,8512.368333
3703.115727,842.705048,1628.453072,8808.450710
3703.116041,1302.362347,1036.288319,8438.347739
3703.116356,1225.752797,962.267725,8290.306550
3703.116670,612.876398,370.102971,8586.388927
3703.116984,-153.219100,-0.000000,9548.656652
3703.117299,-612.876398,-0.000000,10658.965565
3703.117613,-1149.143247,-148.041188,11325.150913
3703.117927,-1225.752797,-0.000000,11769.274478
3703.118242,-1685.410096,370.102971,11473.192101
3703.118556,-1685.410096,888.247130,10214.842000
3703.118870,-689.485948,888.247130,9474.636058
3703.119185,153.219100,1702.473667,9104.533087
3703.119499,306.438199,1110.308913,8364.327145
3703.119813,766.095498,814.226536,8586.388927
3703.120128,689.485948,296.082377,8808.450710
3703.120442,153.219100,-74.020594,9474.636058
3703.120756,0.000000,-0.000000,10584.944971
3703.121071,-612.876398,-370.102971,11177.109724
3703.121385,-689.485948,-666.185348,10732.986159
3703.121699,-536.266849,-296.082377,10658.965565
3703.122014,-842.705048,222.061783,9696.697840
3703.122328,0.000000,370.102971,8808.450710
3703.122642,153.219100,296.082377,7846.182985
3703.122957,995.924147,-74.020594,7772.162391
3703.123271,919.314598,-518.144159,7624.121203
3703.123585,919.314598,-370.102971,8438.347739
3703.123900,383.047749,-740.205942,9326.594869
3703.124214,0.000000,-444.123565,10214.842000
3703.124528,-536.266849,-740.205942,10658.965565
3703.124843,-383.047749,-296.082377,10955.047942
3703.125157,-536.266849,-0.000000,10584.944971
3703.125471,-536.266849,-0.000000,10288.862594
3703.125786,-76.609550,74.020594,9548.656652
3703.126100,536.266849,666.185348,9030.512492
3703.126414,1378.971896,-0.000000,8586.388927
3703.126729,1532.190996,-0.000000,8586.388927
3703.127043,1225.752797,-148.041188,9252.574275
3703.127357,995.924147,-518.144159,9474.636058
3703.127672,766.095498,-518.144159,9918.759623
3703.127986,306.438199,-814.226536,10584.944971
3703.128300,76.609550,-740.205942,11103.089130
3703.128615,0.000000,-444.123565,10140.821405
3703.128929,0.000000,-0.000000,9548.656652
3703.129243,306.438199,-0.000000,8882.471304
3703.129558,536.266849,222.061783,8068.244768
3703.129872,1225.752797,296.082377,8068.244768
3703.130186,1072.533697,-0.000000,8142.265362
3703.130501,612.876398,-74.020594,8808.450710
3703.130815,229.828649,-666.185348,9622.677246
3703.131129,0.000000,-1036.288319,10584.944971
3703.131444,-306.438199,-666.185348,11325.150913
3703.131758,-383.047749,-148.041188,11399.171507
3703.132072,-919.314598,-0.000000,10658.965565
3703.132387,-689.485948,888.247130,10288.862594
3703.132701,0.000000,888.247130,8956.491898
3703.133015,153.219100,666.185348,8586.388927
3703.133330,766.095498,444.123565,8290.306550
3703.133644,1149.143247,222.061783,8438.347739
3703.133958,536.266849,222.061783,8364.327145
3703.134273,306.438199,-296.082377,9400.615463
3703.134587,-306.438199,-74.020594,9992.780217
3703.134901,-383.047749,-296.082377,10658.965565
3703.135216,-689.485948,-296.082377,11103.089130
3703.135530,-919.314598,444.123565,10510.924376
3703.135844,-689.485948,666.185348,9548.656652
3703.136159,-153.219100,1036.288319,9104.533087
3703.136473,153.219100,814.226536,8956.491898
3703.136787,842.705048,666.185348,9104.533087
3703.137102,459.657299,444.123565,8660.409521
3703.137416,383.047749,592.164754,9252.574275
3703.137730,0.000000,666.185348,10510.924376
3703.138045,-383.047749,222.061783,10881.027347
3703.138359,-612.876398,370.102971,11547.212695
3703.138673,-689.485948,370.102971,11029.068536
3703.138988,-766.095498,740.205942,10584.944971
3703.139302,-612.876398,962.267725,9696.697840
3703.139616,76.609550,740.205942,9252.574275
3703.139931,383.047749,814.226536,8512.368333
3703.140245,766.095498,518.144159,8364.327145
3703.140559,766.095498,-0.000000,8882.471304
3703.140874,306.438199,-148.041188,9104.533087
3703.141188,-306.438199,-296.082377,9992.780217
3703.141502,-229.828649,-74.020594,10362.883188
3703.141817,-612.876398,-222.061783,10955.047942
3703.142131,-153.219100,-0.000000,11103.089130
3703.142445,-153.219100,-0.000000,9918.759623
3703.142760,76.609550,444.123565,9400.615463
3703.143074,536.266849,814.226536,8808.450710
3703.143388,1072.533697,814.226536,8068.244768
3703.143703,1608.800546,370.102971,7920.203579
3703.144017,1608.800546,370.102971,8586.388927
3703.144331,1072.533697,-370.102971,8956.491898
3703.144646,76.609550,-740.205942,9400.615463
3703.144960,0.000000,-518.144159,10584.944971
3703.145274,-306.438199,-592.164754,11325.150913
3703.145589,-383.047749,-518.144159,11251.130318
3703.145903,0.000000,-0.000000,10066.800811
3703.146217,0.000000,-0.000000,9474.636058
3703.146532,766.095498,444.123565,8290.306550
3703.146846,1532.190996,518.144159,7846.182985
3703.147161,1685.410096,-0.000000,8068.244768
3703.147475,1838.629195,-0.000000,8438.347739
3703.147789,1072.533697,-0.000000,8290.306550
3703.148104,612.876398,-370.102971,9326.594869
3703.148418,229.828649,-592.164754,10140.821405
3703.148732,0.000000,-370.102971,10658.965565
3703.149047,-383.047749,-814.226536,11177.109724
3703.149361,-306.438199,-0.000000,10881.027347
3703.149675,-459.657299,518.144159,9548.656652
3703.149990,306.438199,370.102971,9104.533087
3703.150304,459.657299,444.123565,8808.450710
3703.150618,689.485948,222.061783,8512.368333
3703.150933,766.095498,-148.041188,8512.368333
3703.151247,689.485948,-0.000000,9104.533087
3703.151561,0.000000,-148.041188,9770.718434
3703.151876,-536.266849,-814.226536,10510.924376
3703.152190,-842.705048,-444.123565,11103.089130
3703.152504,-689.485948,-222.061783,11251.130318
3703.152819,-766.095498,222.061783,10658.965565
3703.153133,-995.924147,296.082377,9918.759623
3703.153447,-459.657299,592.164754,9104.533087
3703.153762,76.609550,296.082377,8438.347739
3703.154076,459.657299,222.061783,8364.327145
3703.154390,306.438199,-0.000000,8364.327145
3703.154705,229.828649,-444.123565,9252.574275
3703.155019,-153.219100,-592.164754,10214.842000
3703.155333,-842.705048,-444.123565,10510.924376
3703.155648,-1072.533697,-148.041188,11177.109724
3703.155962,-1149.143247,-74.020594,11473.192101
3703.156276,-919.314598,296.082377,10881.027347
3703.156591,-536.266849,-0.000000,9696.697840
3703.156905,229.828649,592.164754,8808.450710
3703.157219,536.266849,962.267725,7846.182985
3703.157534,1072.533697,518.144159,8068.244768
3703.157848,1225.752797,-0.000000,8364.327145
3703.158162,612.876398,-74.020594,8882.471304
3703.158477,229.828649,-222.061783,9622.677246
3703.158791,-383.047749,-148.041188,10362.883188
3703.159105,-306.438199,-518.144159,11177.109724
3703.159420,-689.485948,-444.123565,11177.109724
3703.159734,-919.314598,-0.000000,10510.924376
3703.160048,-459.657299,518.144159,9696.697840
3703.160363,229.828649,592.164754,8956.491898
3703.160677,766.095498,814.226536,8586.388927
3703.160991,1072.533697,888.247130,8512.368333
3703.161306,1225.752797,888.247130,8438.347739
3703.161620,919.314598,444.123565,8734.430116
3703.161934,842.705048,370.102971,9696.697840
3703.162249,766.095498,-0.000000,10510.924376
3703.162563,0.000000,-370.102971,10584.944971
3703.162877,0.000000,148.041188,10881.027347
3703.163192,-306.438199,296.082377,10214.842000
3703.163506,0.000000,370.102971,9548.656652
3703.163820,153.219100,814.226536,8882.471304
3703.164135,306.438199,814.226536,7994.224174
3703.164449,919.314598,592.164754,8142.265362
3703.164763,995.924147,518.144159,8438.347739
3703.165078,842.705048,148.041188,8808.450710
3703.165392,612.876398,296.082377,9770.718434
3703.165706,0.000000,-0.000000,10436.903782
3703.166021,0.000000,-0.000000,11029.068536
3703.166335,0.000000,666.185348,11029.068536
3703.166649,-306.438199,814.226536,10214.842000
3703.166964,459.657299,962.267725,10214.842000
3703.167278,689.485948,1258.350101,8956.491898
3703.167592,1149.143247,1110.308913,8068.244768
3703.167907,1455.581446,888.247130,8290.306550
3703.168221,1149.143247,740.205942,8512.368333
3703.168535,612.876398,-0.000000,9474.636058
3703.168850,76.609550,-444.123565,9992.780217
3703.169164,-612.876398,-370.102971,10288.862594
3703.169478,-1072.533697,-222.061783,11547.212695
3703.169793,-1149.143247,-222.061783,11103.089130
3703.170107,-995.924147,370.102971,10510.924376
3703.170421,-612.876398,444.123565,9770.718434
3703.170736,0.000000,888.247130,9104.533087
3703.171050,459.657299,740.205942,8438.347739
3703.171364,536.266849,740.205942,8512.368333
3703.171679,612.876398,518.144159,9104.533087
3703.171993,153.219100,296.082377,9474.636058
3703.172307,-383.047749,222.061783,9844.739029
3703.172622,-459.657299,-0.000000,10584.944971
3703.172936,-842.705048,-222.061783,11473.192101
3703.173250,-1455.581446,-148.041188,11399.171507
3703.173565,-1915.238745,-0.000000,10658.965565
3703.173879,-1072.533697,-0.000000,9844.739029
3703.174193,-383.047749,-148.041188,9104.533087
3703.174508,0.000000,-74.020594,8586.388927
3703.174822,76.609550,-222.061783,8734.430116
3703.175136,612.876398,-222.061783,8068.244768
3703.175451,0.000000,-296.082377,8808.450710
3703.175765,0.000000,-666.185348,9548.656652
3703.176079,-306.438199,-814.226536,10288.862594
3703.176394,-536.266849,-518.144159,10881.027347
3703.176708,-459.657299,-666.185348,10658.965565
3703.177022,-459.657299,-222.061783,10288.862594
3703.177337,0.000000,-0.000000,9326.594869
3703.177651,229.828649,-0.000000,8734.430116
3703.177965,383.047749,-0.000000,8290.306550
3703.178280,1149.143247,-370.102971,7846.182985
3703.178594,1225.752797,-814.226536,8512.368333
3703.178908,459.657299,-1036.288319,9104.533087
3703.179223,612.876398,-740.205942,9770.718434
3703.179537,-689.485948,-1184.329507,10510.924376
3703.179851,-153.219100,-740.205942,10955.047942
3703.180166,-306.438199,-814.226536,10955.047942
3703.180480,0.000000,-74.020594,9844.739029
3703.180795,76.609550,296.082377,9474.636058
3703.181109,1149.143247,666.185348,8734.430116
3703.181423,1455.581446,518.144159,7402.059420
3703.181738,1838.629195,370.102971,7624.121203
3703.182052,1302.362347,222.061783,8512.368333
3703.182366,766.095498,-444.123565,9178.553681
3703.182681,459.657299,-74.020594,9622.677246
3703.182995,0.000000,-222.061783,10436.903782
3703.183309,-306.438199,-148.041188,11399.171507
3703.183624,-766.095498,-148.041188,10807.006753
3703.183938,-842.705048,222.061783,10584.944971
3703.184252,-459.657299,-0.000000,9696.697840
3703.184567,153.219100,370.102971,8364.327145
3703.184881,919.314598,962.267725,7772.162391
3703.185195,1072.533697,666.185348,8068.244768
3703.185510,1149.143247,814.226536,8956.491898
3703.185824,612.876398,592.164754,9252.574275
3703.186138,306.438199,592.164754,9844.739029
3703.186453,0.000000,370.102971,10510.924376
3703.186767,76.609550,518.144159,11103.089130
3703.187081,-536.266849,518.144159,11473.192101
3703.187396,-919.314598,1036.288319,10288.862594
3703.187710,-842.705048,740.205942,10214.842000
3703.188024,153.219100,1036.288319,9104.533087
3703.188339,306.438199,814.226536,8586.388927
3703.188653,612.876398,740.205942,8808.450710
3703.188967,383.047749,518.144159,9030.512492
3703.189282,153.219100,148.041188,9844.739029
3703.189596,0.000000,-0.000000,10658.965565
3703.189910,-536.266849,370.102971,11399.171507
3703.190225,-689.485948,222.061783,11325.150913
3703.190539,-612.876398,740.205942,10881.027347
3703.190853,-689.485948,814.226536,10288.862594
3703.191168,-459.657299,1406.391290,9622.677246
3703.191482,0.000000,1036.288319,9252.574275
3703.191796,383.047749,888.247130,8808.450710
3703.192111,842.705048,518.144159,8438.347739
3703.192425,459.657299,666.185348,8734.430116
3703.192739,306.438199,-296.082377,9992.780217
3703.193054,-689.485948,-518.144159,10436.903782
3703.193368,-995.924147,-444.123565,10807.006753
3703.193682,-1149.143247,-518.144159,11251.130318
3703.193997,-919.314598,-74.020594,11251.130318
3703.194311,-1225.752797,-0.000000,10510.924376
3703.194625,-153.219100,518.144159,9548.656652
3703.194940,536.266849,740.205942,8808.450710
3703.195254,995.924147,814.226536,7846.182985
3703.195568,1608.800546,740.205942,7846.182985
3703.195883,1532.190996,-0.000000,7772.162391
3703.196197,1225.752797,-148.041188,8808.450710
3703.196511,842.705048,-444.123565,9400.615463
3703.196826,0.000000,-370.102971,10066.800811
3703.197140,76.609550,-444.123565,10584.944971
3703.197454,-76.609550,-888.247130,10881.027347
3703.197769,-919.314598,-370.102971,9992.780217
3703.198083,0.000000,-148.041188,9326.594869
3703.198397,76.609550,-222.061783,8882.471304
3703.198712,842.705048,-0.000000,8216.285956
3703.199026,1225.752797,-370.102971,7772.162391
3703.199340,1072.533697,-222.061783,8512.368333
3703.199655,842.705048,-296.082377,8956.491898
3703.199969,689.485948,-370.102971,9326.594869
3703.200283,306.438199,-296.082377,10214.842000
3703.200598,153.219100,-370.102971,10732.986159
3703.200912,306.438199,-0.000000,10288.862594
3703.201226,0.000000,296.082377,9474.636058
3703.201541,229.828649,444.123565,9252.574275
3703.201855,919.314598,148.041188,8734.430116
3703.202169,689.485948,-0.000000,8660.409521
3703.202484,919.314598,-148.041188,8438.347739
3703.202798,536.266849,-222.061783,8882.471304
3703.203112,0.000000,-592.164754,9548.656652
3703.203427,76.609550,-592.164754,10288.862594
3703.203741,-842.705048,-592.164754,11251.130318
3703.204055,-1149.143247,-370.102971,11547.212695
3703.204370,-1532.190996,-0.000000,11177.109724
3703.204684,-1225.752797,444.123565,10436.903782
3703.204998,-995.924147,814.226536,10066.800811
3703.205313,0.000000,814.226536,9104.533087
3703.205627,229.828649,740.205942,8660.409521
3703.205941,766.095498,518.144159,8660.409521
3703.206256,689.485948,222.061783,9030.512492
3703.206570,0.000000,740.205942,10288.862594
3703.206884,-842.705048,222.061783,10584.944971
3703.207199,-1302.362347,-148.041188,11029.068536
3703.207513,-1378.971896,-0.000000,11473.192101
3703.207827,-1378.971896,-0.000000,11029.068536
3703.208142,-1149.143247,370.102971,10362.883188
3703.208456,-689.485948,-74.020594,9622.677246
3703.208770,0.000000,518.144159,8956.491898
3703.209085,766.095498,518.144159,8364.327145
3703.209399,766.095498,444.123565,8586.388927
3703.209713,766.095498,592.164754,8512.368333
3703.210028,383.047749,370.102971,9104.533087
3703.210342,76.609550,-0.000000,9622.677246
3703.210656,76.609550,-74.020594,10362.883188
3703.210971,-306.438199,-222.061783,11029.068536
3703.211285,0.000000,370.102971,10658.965565
3703.211600,-229.828649,592.164754,9918.759623
3703.211914,76.609550,666.185348,9400.615463
3703.212228,459.657299,592.164754,8660.409521
3703.212543,1072.533697,740.205942,8512.368333
3703.212857,1378.971896,-0.000000,8808.450710
3703.213171,689.485948,74.020594,8956.491898
3703.213486,536.266849,-370.102971,9400.615463
3703.213800,306.438199,-592.164754,10066.800811
3703.214114,229.828649,-666.185348,10807.006753
3703.214429,0.000000,-296.082377,11029.068536
3703.214743,153.219100,-0.000000,10732.986159
3703.215057,229.828649,740.205942,9696.697840
3703.215372,995.924147,888.247130,8808.450710
3703.215686,1455.581446,1184.329507,8364.327145
3703.216000,1685.410096,888.247130,8216.285956
3703.216315,1532.190996,148.041188,8142.265362
3703.216629,1532.190996,-0.000000,8068.244768
3703.216943,1455.581446,-518.144159,9474.636058
3703.217258,689.485948,-222.061783,10214.842000
3703.217572,0.000000,-222.061783,10732.986159
3703.217886,-459.657299,-370.102971,10807.006753
3703.218201,-842.705048,-0.000000,10732.986159
3703.218515,-459.657299,666.185348,9770.718434
3703.218829,383.047749,888.247130,9252.574275
3703.219144,612.876398,814.226536,8438.347739
3703.219458,766.095498,370.102971,8142.265362
3703.219772,1838.629195,444.123565,8512.368333
3703.220087,689.485948,296.082377,9178.553681
3703.220401,76.609550,-0.000000,9622.677246
3703.220715,0.000000,-0.000000,10436.903782
3703.221030,-842.705048,-0.000000,11103.089130
3703.221344,-919.314598,-222.061783,11399.171507
3703.221658,-1149.143247,296.082377,10732.986159
3703.221973,-1072.533697,592.164754,9992.780217
3703.222287,-306.438199,666.185348,9474.636058
3703.222601,536.266849,740.205942,8734.430116
3703.222916,689.485948,296.082377,7920.203579
3703.223230,689.485948,740.205942,8438.347739
3703.223544,306.438199,370.102971,9178.553681
3703.223859,0.000000,-148.041188,9696.697840
3703.224173,-766.095498,-370.102971,10362.883188
3703.224487,-842.705048,-666.185348,11177.109724
3703.224802,-1225.752797,-148.041188,11251.130318
3703.225116,-1608.800546,-0.000000,10658.965565
3703.225430,-1378.971896,518.144159,10288.862594
3703.225745,-612.876398,888.247130,9918.759623
3703.226059,383.047749,592.164754,8808.450710
3703.226373,229.828649,518.144159,8512.368333
3703.226688,383.047749,-0.000000,8882.471304
3703.227002,229.828649,-222.061783,9030.512492
3703.227316,-229.828649,-222.061783,9622.677246
3703.227631,-229.828649,-370.102971,10066.800811
3703.227945,-536.266849,-592.164754,11251.130318
3703.228259,-612.876398,-518.144159,11029.068536
3703.228574,-612.876398,-0.000000,10436.903782
3703.228888,-919.314598,222.061783,9548.656652
3703.229202,76.609550,-74.020594,8882.471304
3703.229517,995.924147,-0.000000,8216.285956
3703.229831,1302.362347,-74.020594,7994.224174
3703.230145,1532.190996,-0.000000,7994.224174
3703.230460,536.266849,-0.000000,8364.327145
3703.230774,842.705048,-592.164754,9252.574275
3703.231088,459.657299,-888.247130,10066.800811
3703.231403,0.000000,-592.164754,10732.986159
3703.231717,-306.438199,-592.164754,10807.006753
3703.232031,-459.657299,-222.061783,10510.924376
3703.232346,0.000000,296.082377,9844.739029
3703.232660,306.438199,444.123565,9400.615463
3703.232974,1072.533697,592.164754,8512.368333
3703.233289,1149.143247,296.082377,8290.306550
3703.233603,1302.362347,296.082377,7846.182985
3703.233917,1225.752797,-0.000000,8734.430116
3703.234232,766.095498,-296.082377,9696.697840
3703.234546,459.657299,-518.144159,10066.800811
3703.234860,76.609550,-370.102971,10955.047942
3703.235175,-459.657299,-296.082377,11029.068536
3703.235489,0.000000,592.164754,10288.862594
3703.235803,-689.485948,1184.329507,9178.553681
3703.236118,689.485948,666.185348,9104.533087
3703.236432,842.705048,888.247130,8216.285956
3703.236746,1455.581446,518.144159,8068.244768
3703.237061,1225.752797,-0.000000,8512.368333
3703.237375,612.876398,370.102971,8882.471304
3703.237689,0.000000,-148.041188,9696.697840
3703.238004,-229.828649,222.061783,10510.924376
3703.238318,-1225.752797,148.041188,10881.027347
3703.238632,-766.095498,-222.061783,11695.253884
3703.238947,-1302.362347,740.205942,11399.171507
3703.239261,-1302.362347,962.267725,10214.842000
3703.239575,-383.047749,1332.370696,9474.636058
3703.239890,153.219100,1036.288319,8660.409521
3703.240204,766.095498,1110.308913,8364.327145
3703.240519,536.266849,592.164754,8512.368333
3703.240833,306.438199,370.102971,9104.533087
3703.241147,-153.219100,222.061783,9844.739029
3703.241462,-459.657299,-370.102971,10510.924376
3703.241776,-842.705048,-74.020594,11251.130318
3703.242090,-1072.533697,-0.000000,11547.212695
3703.242405,-1455.581446,370.102971,10807.006753
3703.242719,-1225.752797,814.226536,10214.842000
3703.243033,0.000000,666.185348,9474.636058
3703.243348,0.000000,888.247130,8586.388927
3703.243662,689.485948,740.205942,8512.368333
3703.243976,919.314598,370.102971,8512.368333
3703.244291,919.314598,-0.000000,8808.450710
3703.244605,0.000000,-74.020594,9548.656652
3703.244919,-306.438199,-148.041188,10288.862594
3703.245234,-536.266849,-444.123565,11177.109724
3703.245548,-689.485948,-296.082377,11103.089130
3703.245862,-229.828649,222.061783,10214.842000
3703.246177,-459.657299,-0.000000,9844.739029
3703.246491,0.000000,370.102971,9400.615463
3703.246805,689.485948,370.102971,8734.430116
3703.247120,1072.533697,518.144159,8068.244768
3703.247434,919.314598,-296.082377,8216.285956
3703.247748,766.095498,-444.123565,9178.553681
3703.248063,383.047749,-666.185348,9696.697840
3703.248377,383.047749,-518.144159,10214.842000
3703.248691,-153.219100,-666.185348,10584.944971
3703.249006,0.000000,-814.226536,10955.047942
3703.249320,-383.047749,-148.041188,10362.883188
3703.249634,0.000000,-0.000000,9622.677246
3703.249949,459.657299,296.082377,8660.409521
3703.250263,1072.533697,444.123565,8068.244768
3703.250577,1991.848295,-0.000000,8068.244768
3703.250892,1608.800546,-0.000000,7772.162391
3703.251206,995.924147,-666.185348,8364.327145
3703.251520,995.924147,-666.185348,9474.636058
3703.251835,383.047749,-888.247130,10140.821405
3703.252149,0.000000,-814.226536,10732.986159
3703.252463,-306.438199,-962.267725,11177.109724
3703.252778,-459.657299,-222.061783,10436.903782
3703.253092,-229.828649,444.123565,9844.739029
3703.253406,306.438199,444.123565,8512.368333
3703.253721,1302.362347,-222.061783,8290.306550
3703.254035,1532.190996,666.185348,7920.203579
3703.254349,1378.971896,296.082377,8068.244768
3703.254664,689.485948,-0.000000,9178.553681
3703.254978,229.828649,-222.061783,9696.697840
3703.255292,0.000000,-74.020594,11103.089130
3703.255607,-689.485948,-296.082377,11325.150913
3703.255921,-536.266849,-148.041188,11917.315666
3703.256235,-1225.752797,222.061783,10881.027347
3703.256550,-459.657299,222.061783,9696.697840
3703.256864,0.000000,740.205942,8956.491898
3703.257178,229.828649,740.205942,8956.491898
3703.257493,766.095498,592.164754,8808.450710
3703.257807,536.266849,592.164754,8290.306550
3703.258121,0.000000,-0.000000,8586.388927
3703.258436,0.000000,-222.061783,9992.780217
3703.258750,-612.876398,-370.102971,10732.986159
3703.259064,-995.924147,-444.123565,11473.192101
3703.259379,-1378.971896,-148.041188,11251.130318
3703.259693,-1149.143247,592.164754,10510.924376
3703.260007,-842.705048,666.185348,9844.739029
3703.260322,-153.219100,888.247130,9104.533087
3703.260636,383.047749,814.226536,8734.430116
3703.260950,536.266849,518.144159,8216.285956
3703.261265,383.047749,444.123565,8364.327145
3703.261579,0.000000,-0.000000,9030.512492
3703.261893,0.000000,-0.000000,9992.780217
3703.262208,-766.095498,-222.061783,10732.986159
3703.262522,-842.705048,-222.061783,11473.192101
3703.262836,-689.485948,-518.144159,11103.089130
3703.263151,-689.485948,518.144159,10214.842000
3703.263465,-383.047749,592.164754,9696.697840
3703.263779,306.438199,592.164754,9030.512492
3703.264094,919.314598,888.247130,7772.162391
3703.264408,1762.019645,888.247130,7698.141797
3703.264722,1915.238745,666.185348,8068.244768
3703.265037,1378.971896,-0.000000,8512.368333
3703.265351,766.095498,-0.000000,9326.594869
3703.265665,459.657299,-148.041188,9918.759623
3703.265980,-229.828649,-74.020594,10807.006753
3703.266294,0.000000,-0.000000,10955.047942
3703.266608,0.000000,814.226536,10214.842000
3703.266923,0.000000,814.226536,9918.759623
3703.267237,536.266849,1036.288319,8956.491898
3703.267551,842.705048,1036.288319,8216.285956
3703.267866,1532.190996,1184.329507,8290.306550
3703.268180,1532.190996,518.144159,8586.388927
3703.268494,766.095498,518.144159,9178.553681
3703.268809,459.657299,444.123565,9696.697840
3703.269123,0.000000,-0.000000,10510.924376
3703.269437,-229.828649,-74.020594,11251.130318
3703.269752,-689.485948,296.082377,11325.150913
3703.270066,-536.266849,370.102971,10658.965565
3703.270381,-306.438199,518.144159,9326.594869
3703.270695,229.828649,814.226536,9030.512492
3703.271009,842.705048,888.247130,8512.368333
3703.271324,1072.533697,370.102971,8438.347739
3703.271638,306.438199,666.185348,8660.409521
3703.271952,383.047749,518.144159,9104.533087
3703.272267,0.000000,370.102971,9844.739029
3703.272581,-229.828649,-0.000000,10510.924376
3703.272895,-383.047749,-74.020594,11399.171507
3703.273210,-536.266849,-518.144159,11325.150913
3703.273524,-1149.143247,592.164754,10658.965565
3703.273838,-536.266849,1110.308913,9918.759623
3703.274153,-306.438199,1332.370696,9326.594869
3703.274467,459.657299,1036.288319,8808.450710
3703.274781,842.705048,962.267725,8364.327145
3703.275096,766.095498,296.082377,8882.471304
3703.275410,229.828649,-74.020594,9696.697840
3703.275724,-306.438199,-370.102971,10732.986159
3703.276039,-919.314598,-444.123565,10881.027347
3703.276353,-1302.362347,-444.123565,11769.274478
3703.276667,-1225.752797,-592.164754,11325.150913
3703.276982,-1149.143247,-0.000000,11103.089130
3703.277296,-766.095498,296.082377,9918.759623
3703.277610,-383.047749,666.185348,8808.450710
3703.277925,0.000000,592.164754,8216.285956
3703.278239,842.705048,222.061783,8142.265362
3703.278553,1072.533697,-0.000000,8364.327145
3703.278868,459.657299,-888.247130,8956.491898
3703.279182,76.609550,-962.267725,9918.759623
3703.279496,-383.047749,-814.226536,9696.697840
3703.279811,-229.828649,-444.123565,10362.883188
3703.280125,-842.705048,-370.102971,10732.986159
3703.280439,-919.314598,-0.000000,10214.842000
3703.280754,-612.876398,-518.144159,9252.574275
3703.281068,-153.219100,-0.000000,8660.409521
3703.281382,536.266849,-296.082377,8290.306550
3703.281697,995.924147,-814.226536,7994.224174
3703.282011,842.705048,-518.144159,8290.306550
3703.282325,612.876398,-666.185348,9030.512492
3703.282640,536.266849,-666.185348,9474.636058
3703.282954,383.047749,-962.267725,9992.780217
3703.283268,306.438199,-666.185348,10732.986159
3703.283583,0.000000,-370.102971,10732.986159
3703.283897,0.000000,-222.061783,9622.677246
3703.284211,76.609550,-296.082377,9326.594869
3703.284526,459.657299,-0.000000,8068.244768
3703.284840,995.924147,-148.041188,8290.306550
3703.285154,1225.752797,-444.123565,7846.182985
3703.285469,1378.971896,-296.082377,8216.285956
3703.285783,536.266849,-518.144159,9030.512492
3703.286097,459.657299,-296.082377,10214.842000
3703.286412,0.000000,-518.144159,10584.944971
3703.286726,153.219100,-444.123565,11251.130318
3703.287040,76.609550,-444.123565,10881.027347
3703.287355,0.000000,740.205942,9918.759623
3703.287669,383.047749,1110.308913,9252.574275
3703.287983,1149.143247,1110.308913,8956.491898
3703.288298,1302.362347,962.267725,8216.285956
3703.288612,1302.362347,444.123565,8142.265362
3703.288926,1149.143247,592.164754,8290.306550
3703.289241,612.876398,222.061783,9400.615463
3703.289555,0.000000,-74.020594,10288.862594
3703.289869,-842.705048,-222.061783,10881.027347
3703.290184,-842.705048,-0.000000,11695.253884
3703.290498,-1302.362347,-0.000000,11177.109724
3703.290812,-995.924147,1036.288319,10362.883188
3703.291127,-766.095498,1184.329507,9770.718434
3703.291441,0.000000,1480.411884,8956.491898
3703.291755,0.000000,1036.288319,8364.327145
3703.292070,536.266849,1184.329507,8438.347739
3703.292384,536.266849,740.205942,8956.491898
3703.292698,0.000000,370.102971,9474.636058
3703.293013,-306.438199,370.102971,9992.780217
3703.293327,-766.095498,-0.000000,11103.089130
3703.293642,-842.705048,222.061783,11103.089130
3703.293956,-612.876398,740.205942,10807.006753
3703.294270,-995.924147,962.267725,10214.842000
3703.294585,-612.876398,592.164754,9770.718434
3703.294899,153.219100,962.267725,8956.491898
3703.295214,383.047749,962.267725,8512.368333
3703.295528,995.924147,962.267725,8586.388927
3703.295843,689.485948,666.185348,8660.409521
3703.296157,153.219100,222.061783,9326.594869
3703.296472,-383.047749,-74.020594,10066.800811
3703.296786,-459.657299,222.061783,10807.006753
3703.297100,-229.828649,-74.020594,11251.130318
3703.297415,-459.657299,-0.000000,11325.150913
3703.297729,-689.485948,666.185348,10881.027347
3703.298044,76.609550,1258.350101,9696.697840
3703.298358,919.314598,1332.370696,8438.347739
3703.298673,995.924147,1332.370696,8586.388927
3703.298987,1302.362347,296.082377,8068.244768
3703.299301,1225.752797,444.123565,8216.285956
3703.299616,612.876398,-148.041188,9178.553681
3703.299930,76.609550,-296.082377,10288.862594
3703.300245,-383.047749,-592.164754,10881.027347
3703.300559,-536.266849,-518.144159,11103.089130
3703.300874,-536.266849,-666.185348,11029.068536
3703.301188,-919.314598,-0.000000,10140.821405
3703.301502,229.828649,222.061783,9326.594869
3703.301817,766.095498,1036.288319,8290.306550
3703.302131,1302.362347,592.164754,8068.244768
3703.302446,1762.019645,296.082377,7846.182985
3703.302760,1685.410096,148.041188,7920.203579
3703.303075,842.705048,-296.082377,9178.553681
3703.303389,459.657299,-518.144159,9696.697840
3703.303704,0.000000,-666.185348,10362.883188
3703.304018,-459.657299,-592.164754,11103.089130
3703.304332,-842.705048,-444.123565,11177.109724
3703.304647,-689.485948,-444.123565,10510.924376
3703.304961,-383.047749,-296.082377,9548.656652
3703.305276,306.438199,-0.000000,8734.430116
3703.305590,612.876398,-0.000000,7920.203579
3703.305905,1225.752797,-0.000000,7994.224174
3703.306219,1072.533697,-0.000000,8808.450710
3703.306533,689.485948,-444.123565,9030.512492
3703.306848,612.876398,-296.082377,9548.656652
3703.307162,0.000000,-666.185348,10362.883188
3703.307477,-153.219100,-740.205942,11029.068536
3703.307791,-536.266849,-0.000000,10732.986159
3703.308106,-842.705048,370.102971,9992.780217
3703.308420,-459.657299,-0.000000,9844.739029
3703.308734,0.000000,-0.000000,8660.409521
3703.309049,229.828649,-0.000000,8808.450710
3703.309363,459.657299,-444.123565,8290.306550
3703.309678,76.609550,-222.061783,9178.553681
3703.309992,-536.266849,-296.082377,9770.718434
3703.310307,-383.047749,-0.000000,10436.903782
3703.310621,-766.095498,-222.061783,11103.089130
3703.310936,-1225.752797,-370.102971,11325.150913
3703.311250,-1072.533697,-0.000000,11029.068536
3703.311564,-995.924147,444.123565,10436.903782
3703.311879,-612.876398,296.082377,9622.677246
3703.312193,0.000000,296.082377,8956.491898
3703.312508,0.000000,592.164754,8512.368333
3703.312822,536.266849,-0.000000,8142.265362
3703.313137,306.438199,-0.000000,8364.327145
3703.313451,383.047749,-296.082377,9252.574275
3703.313765,0.000000,-962.267725,9548.656652
3703.314080,-689.485948,-666.185348,10362.883188
3703.314394,-612.876398,-518.144159,10807.006753
3703.314709,-766.095498,-148.041188,10658.965565
3703.315023,-689.485948,444.123565,9918.759623
3703.315338,0.000000,814.226536,9030.512492
3703.315652,766.095498,814.226536,8290.306550
3703.315966,1302.362347,962.267725,7920.203579
3703.316281,1378.971896,740.205942,7772.162391
3703.316595,1072.533697,370.102971,8364.327145
3703.316910,919.314598,-0.000000,9474.636058
3703.317224,383.047749,-0.000000,10066.800811
3703.317539,0.000000,-74.020594,10807.006753
3703.317853,0.000000,-74.020594,11029.068536
3703.318168,0.000000,592.164754,11547.212695
3703.318482,0.000000,814.226536,10362.883188
3703.318796,306.438199,962.267725,9400.615463
3703.319111,919.314598,1184.329507,8734.430116
3703.319425,1991.848295,1258.350101,8290.306550
3703.319740,2221.676944,814.226536,8364.327145
3703.320054,1302.362347,814.226536,8808.450710
3703.320369,842.705048,148.041188,9696.697840
3703.320683,612.876398,-0.000000,10214.842000
3703.320997,0.000000,-0.000000,11029.068536
3703.321312,153.219100,592.164754,11251.130318
3703.321626,-229.828649,962.267725,10955.047942
3703.321941,-229.828649,1184.329507,10362.883188
3703.322255,306.438199,1110.308913,9400.615463
3703.322570,306.438199,1036.288319,8956.491898
3703.322884,1225.752797,1110.308913,8956.491898
3703.323198,1072.533697,518.144159,8586.388927
3703.323513,689.485948,148.041188,9104.533087
3703.323827,383.047749,-0.000000,9622.677246
3703.324142,0.000000,-0.000000,10140.821405
3703.324456,-229.828649,222.061783,10807.006753
3703.324771,-153.219100,222.061783,11029.068536
3703.325085,-766.095498,444.123565,10881.027347
3703.325400,-459.657299,592.164754,9548.656652
3703.325714,153.219100,814.226536,9104.533087
3703.326028,76.609550,962.267725,8512.368333
3703.326343,306.438199,666.185348,8068.244768
3703.326657,766.095498,296.082377,8512.368333
3703.326972,229.828649,-148.041188,9178.553681
3703.327286,0.000000,-148.041188,9696.697840
3703.327601,-536.266849,-222.061783,10214.842000
3703.327915,-919.314598,-370.102971,11251.130318
3703.328229,-1225.752797,-370.102971,11473.192101
3703.328544,-1378.971896,-0.000000,10732.986159
3703.328858,-1532.190996,-0.000000,9696.697840
3703.329173,-459.657299,296.082377,9548.656652
3703.329487,153.219100,592.164754,8660.409521
3703.329802,689.485948,444.123565,8216.285956
3703.330116,459.657299,-0.000000,8290.306550
3703.330430,383.047749,-0.000000,8660.409521
3703.330745,153.219100,-444.123565,9400.615463
3703.331059,-306.438199,-666.185348,9844.739029
3703.331374,-766.095498,-888.247130,10807.006753
3703.331688,-842.705048,-814.226536,11029.068536
3703.332003,-1072.533697,-518.144159,10658.965565
3703.332317,-1072.533697,-0.000000,10510.924376
3703.332632,-306.438199,-222.061783,9400.615463
3703.332946,-153.219100,-74.020594,8660.409521
3703.333260,689.485948,148.041188,8142.265362
3703.333575,766.095498,-296.082377,8586.388927
3703.333889,919.314598,-0.000000,8882.471304
3703.334204,536.266849,-666.185348,9622.677246
3703.334518,76.609550,-666.185348,9770.718434
3703.334833,0.000000,-666.185348,10955.047942
3703.335147,-229.828649,-740.205942,10807.006753
3703.335461,-229.828649,-148.041188,10362.883188
3703.335776,0.000000,-296.082377,10584.944971
3703.336090,76.609550,-0.000000,8956.491898
3703.336405,689.485948,-0.000000,8290.306550
3703.336719,995.924147,-0.000000,7920.203579
3703.337034,842.705048,-296.082377,8290.306550
3703.337348,919.314598,-370.102971,8660.409521
3703.337662,306.438199,-888.247130,9400.615463
3703.337977,229.828649,-740.205942,10214.842000
3703.338291,-306.438199,-740.205942,10807.006753
3703.338606,-383.047749,-592.164754,11029.068536
3703.338920,-459.657299,-0.000000,10732.986159
3703.339235,-766.095498,592.164754,9770.718434
3703.339549,459.657299,592.164754,9104.533087
3703.339864,1378.971896,888.247130,8290.306550
3703.340178,1915.238745,740.205942,8142.265362
3703.340492,1608.800546,148.041188,8068.244768
3703.340807,842.705048,370.102971,8512.368333
3703.341121,383.047749,296.082377,9696.697840
3703.341436,0.000000,-222.061783,10658.965565
3703.341750,-459.657299,-74.020594,11399.171507
3703.342065,-842.705048,-0.000000,11769.274478
3703.342379,-995.924147,518.144159,10955.047942
3703.342693,-995.924147,666.185348,10436.903782
3703.343008,76.609550,814.226536,9400.615463
3703.343322,536.266849,1406.391290,8734.430116
3703.343637,1608.800546,1036.288319,7920.203579
3703.343951,1149.143247,1110.308913,8216.285956
3703.344266,919.314598,1036.288319,8882.471304
3703.344580,0.000000,370.102971,9622.677246
3703.344894,-153.219100,-0.000000,10362.883188
3703.345209,-612.876398,-0.000000,10955.047942
3703.345523,-1149.143247,148.041188,11029.068536
3703.345838,-1225.752797,666.185348,10584.944971
3703.346152,-1072.533697,814.226536,10066.800811
3703.346467,-689.485948,1036.288319,9696.697840
3703.346781,0.000000,962.267725,8882.471304
3703.347096,459.657299,962.267725,8142.265362
3703.347410,459.657299,814.226536,8586.388927
3703.347724,383.047749,-0.000000,8882.471304
3703.348039,0.000000,-74.020594,9622.677246
3703.348353,-306.438199,-148.041188,10881.027347
3703.348668,-536.266849,-148.041188,11103.089130
3703.348982,-842.705048,-0.000000,11029.068536
3703.349297,-995.924147,592.164754,9844.739029
3703.349611,-459.657299,666.185348,9918.759623
3703.349925,229.828649,592.164754,9178.553681
3703.350240,689.485948,814.226536,8216.285956
3703.350554,1149.143247,592.164754,8068.244768
3703.350869,1532.190996,518.144159,8438.347739
3703.351183,1455.581446,444.123565,8808.450710
3703.351498,689.485948,148.041188,9326.594869
3703.351812,229.828649,-74.020594,10288.862594
3703.352126,229.828649,-222.061783,11029.068536
3703.352441,-153.219100,-0.000000,11251.130318
3703.352755,-383.047749,592.164754,10732.986159
3703.353070,0.000000,518.144159,9770.718434
3703.353384,383.047749,518.144159,9104.533087
3703.353699,766.095498,518.144159,8660.409521
3703.354013,1378.971896,-0.000000,8512.368333
3703.354328,1302.362347,-74.020594,8956.491898
3703.354642,766.095498,-74.020594,8956.491898
3703.354956,383.047749,-148.041188,9474.636058
3703.355271,306.438199,-296.082377,10584.944971
3703.355585,-229.828649,-666.185348,11029.068536
3703.355900,-995.924147,-518.144159,11325.150913
3703.356214,-153.219100,-0.000000,10436.903782
3703.356529,-306.438199,148.041188,9696.697840
3703.356843,459.657299,518.144159,8808.450710
3703.357157,612.876398,148.041188,7994.224174
3703.357472,766.095498,-0.000000,8216.285956
3703.357786,919.314598,-592.164754,8216.285956
3703.358101,536.266849,-666.185348,8882.471304
3703.358415,459.657299,-962.267725,9548.656652
3703.358730,-153.219100,-962.267725,10362.883188
3703.359044,-306.438199,-1258.350101,11103.089130
3703.359358,-383.047749,-1036.288319,10584.944971
3703.359673,-919.314598,-296.082377,9992.780217
3703.359987,-536.266849,-74.020594,9696.697840
3703.360302,0.000000,-0.000000,8882.471304
3703.360616,612.876398,296.082377,8438.347739
3703.360931,689.485948,-0.000000,8216.285956
3703.361245,689.485948,-148.041188,8364.327145
3703.361559,459.657299,-370.102971,9400.615463
3703.361874,0.000000,-666.185348,9992.780217
3703.362188,-536.266849,-962.267725,10510.924376
3703.362503,-1072.533697,-814.226536,10807.006753
3703.362817,-919.314598,-444.123565,11325.150913
3703.363132,-1072.533697,444.123565,10510.924376
3703.363446,-536.266849,444.123565,9474.636058
3703.363761,0.000000,592.164754,8882.471304
3703.364075,0.000000,666.185348,8142.265362
3703.364389,919.314598,592.164754,8438.347739
3703.364704,612.876398,-0.000000,8364.327145
3703.365018,76.609550,-296.082377,8882.471304
3703.365333,0.000000,-518.144159,10140.821405
3703.365647,-766.095498,-444.123565,10214.842000
3703.365962,-842.705048,-296.082377,11103.089130
3703.366276,-995.924147,-222.061783,10881.027347
3703.366590,-1149.143247,222.061783,10732.986159
3703.366905,-306.438199,666.185348,9844.739029
3703.367219,0.000000,592.164754,9030.512492
3703.367534,842.705048,962.267725,8512.368333
3703.367848,1455.581446,1110.308913,8290.306550
3703.368163,1302.362347,740.205942,8068.244768
3703.368477,766.095498,888.247130,9104.533087
3703.368791,536.266849,518.144159,9696.697840
3703.369106,459.657299,148.041188,10658.965565
3703.369420,306.438199,-222.061783,11251.130318
3703.369735,153.219100,-222.061783,11177.109724
3703.370049,76.609550,592.164754,10584.944971
3703.370364,76.609550,888.247130,9548.656652
3703.370678,536.266849,1036.288319,9474.636058
3703.370993,459.657299,962.267725,8142.265362
3703.371307,1685.410096,666.185348,8142.265362
3703.371621,1532.190996,370.102971,8068.244768
3703.371936,1455.581446,222.061783,9030.512492
3703.372250,1072.533697,-0.000000,9992.780217
3703.372565,612.876398,370.102971,10214.842000
3703.372879,0.000000,296.082377,11251.130318
3703.373194,76.609550,518.144159,11029.068536
3703.373508,0.000000,1258.350101,10288.862594
3703.373822,383.047749,1184.329507,9696.697840
3703.374137,842.705048,1480.411884,9030.512492
3703.374451,1455.581446,1406.391290,8216.285956
3703.374766,1532.190996,1110.308913,7920.203579
3703.375080,1149.143247,740.205942,8734.430116
3703.375395,229.828649,666.185348,9326.594869
3703.375709,0.000000,222.061783,9918.759623
3703.376023,-229.828649,-0.000000,11029.068536
3703.376338,-612.876398,-0.000000,11325.150913
3703.376652,-612.876398,444.123565,11251.130318
3703.376967,-766.095498,518.144159,10658.965565
3703.377281,-842.705048,962.267725,9770.718434
3703.377596,0.000000,1332.370696,8882.471304
3703.377910,459.657299,1036.288319,7920.203579
3703.378225,1072.533697,666.185348,8660.409521
3703.378539,919.314598,740.205942,8512.368333
3703.378853,153.219100,-0.000000,8512.368333
3703.379168,-229.828649,-74.020594,10140.821405
3703.379482,-995.924147,-222.061783,10658.965565
3703.379797,-919.314598,-0.000000,11325.150913
3703.380111,-842.705048,-0.000000,11621.233289
3703.380426,-1149.143247,222.061783,10140.821405
3703.380740,-995.924147,370.102971,9696.697840
3703.381054,-153.219100,518.144159,8512.368333
3703.381369,229.828649,370.102971,8586.388927
3703.381683,536.266849,222.061783,8216.285956
3703.381998,612.876398,-148.041188,8142.265362
3703.382312,459.657299,-296.082377,8586.388927
3703.382627,0.000000,-518.144159,9622.677246
3703.382941,-612.876398,-962.267725,10436.903782
3703.383255,-1149.143247,-1184.329507,10881.027347
3703.383570,-1225.752797,-666.185348,11029.068536
3703.383884,-1225.752797,-444.123565,10436.903782
3703.384199,-612.876398,-0.000000,9770.718434
3703.384513,0.000000,-74.020594,9104.533087
3703.384828,689.485948,-148.041188,8808.450710
3703.385142,612.876398,-74.020594,8068.244768
3703.385457,459.657299,-296.082377,8438.347739
3703.385771,612.876398,-666.185348,9326.594869
3703.386085,306.438199,-592.164754,10140.821405
3703.386400,0.000000,-814.226536,10436.903782
3703.386714,-153.219100,-666.185348,10955.047942
3703.387029,-383.047749,-444.123565,11251.130318
3703.387343,-153.219100,-0.000000,10066.800811
3703.387658,0.000000,148.041188,9400.615463
3703.387972,536.266849,-0.000000,8734.430116
3703.388286,1302.362347,-74.020594,7698.141797
3703.388601,1302.362347,-148.041188,7772.162391
3703.388915,919.314598,-444.123565,8438.347739
3703.389230,306.438199,-888.247130,9104.533087
3703.389544,536.266849,-1184.329507,9474.636058
3703.389859,-229.828649,-962.267725,10214.842000
3703.390173,-459.657299,-888.247130,10881.027347
3703.390487,-459.657299,-1036.288319,10807.006753
3703.390802,-459.657299,-148.041188,10362.883188
3703.391116,0.000000,-0.000000,9326.594869
3703.391431,536.266849,666.185348,8438.347739
3703.391745,919.314598,444.123565,8068.244768
3703.392060,1762.019645,-0.000000,8216.285956
3703.392374,1455.581446,-74.020594,8512.368333
3703.392689,919.314598,-370.102971,9178.553681
3703.393003,536.266849,-222.061783,9622.677246
3703.393317,76.609550,-518.144159,10510.924376
3703.393632,0.000000,-222.061783,11029.068536
3703.393946,0.000000,-148.041188,10881.027347
3703.394261,-766.095498,296.082377,10066.800811
3703.394575,0.000000,592.164754,9474.636058
3703.394890,383.047749,888.247130,8956.491898
3703.395204,766.095498,592.164754,8290.306550
3703.395518,1225.752797,666.185348,8438.347739
3703.395833,919.314598,222.061783,8586.388927
3703.396147,229.828649,-0.000000,9030.512492
3703.396462,-306.438199,-0.000000,10436.903782
3703.396776,-689.485948,-0.000000,10807.006753
3703.397090,-612.876398,444.123565,11325.150913
3703.397405,-766.095498,740.205942,11473.192101
3703.397719,-1072.533697,1036.288319,10436.903782
3703.398034,-459.657299,1036.288319,9622.677246
3703.398348,-383.047749,1110.308913,9030.512492
3703.398663,229.828649,1110.308913,8438.347739
3703.398977,306.438199,666.185348,8216.285956
3703.399291,306.438199,814.226536,8364.327145
3703.399606,0.000000,-0.000000,9178.553681
3703.399920,-229.828649,-0.000000,10066.800811
3703.400235,-689.485948,-0.000000,10732.986159
3703.400549,-919.314598,518.144159,11103.089130
3703.400864,-919.314598,518.144159,11251.130318
3703.401178,-612.876398,1036.288319,10362.883188
3703.401492,76.609550,1110.308913,9400.615463
3703.401807,689.485948,1258.350101,8512.368333
3703.402121,1072.533697,1406.391290,7994.224174
3703.402436,1455.581446,1110.308913,7698.141797
3703.402750,1378.971896,740.205942,8290.306550
3703.403064,612.876398,370.102971,9030.512492
3703.403379,306.438199,-0.000000,9918.759623
3703.403693,76.609550,-148.041188,10584.944971
3703.404008,0.000000,-222.061783,10807.006753
3703.404322,-842.705048,-0.000000,11547.212695
3703.404637,-766.095498,222.061783,10732.986159
3703.404951,0.000000,370.102971,9770.718434
3703.405265,612.876398,1036.288319,9104.533087
3703.405580,995.924147,1036.288319,8734.430116
3703.405894,1455.581446,592.164754,8290.306550
3703.406209,995.924147,592.164754,8660.409521
3703.406523,919.314598,-148.041188,9474.636058
3703.406838,842.705048,148.041188,10140.821405
3703.407152,306.438199,-148.041188,10658.965565
3703.407466,0.000000,-148.041188,11399.171507
3703.407781,-229.828649,-148.041188,11547.212695
3703.408095,-459.657299,-0.000000,10140.821405
3703.408410,-229.828649,222.061783,9622.677246
3703.408724,306.438199,370.102971,9030.512492
3703.409039,919.314598,370.102971,8586.388927
3703.409353,995.924147,-74.020594,8216.285956
3703.409667,459.657299,-222.061783,8586.388927
3703.409982,689.485948,-666.185348,9030.512492
3703.410296,229.828649,-444.123565,9474.636058
3703.410611,0.000000,-888.247130,10658.965565
3703.410925,-612.876398,-592.164754,11103.089130
3703.411239,-919.314598,-444.123565,10807.006753
3703.411554,-306.438199,-74.020594,10214.842000
3703.411868,-229.828649,-222.061783,9326.594869
3703.412183,383.047749,370.102971,8734.430116
3703.412497,919.314598,-0.000000,7994.224174
3703.412812,1455.581446,-222.061783,7920.203579
3703.413126,612.876398,-296.082377,8290.306550
3703.413440,0.000000,-1184.329507,8882.471304
3703.413755,-459.657299,-1110.308913,9770.718434
3703.414069,-919.314598,-1406.391290,10510.924376
3703.414384,-1072.533697,-1258.350101,10881.027347
3703.414698,-1378.971896,-666.185348,10732.986159
3703.415013,-1455.581446,-444.123565,9918.759623
3703.415327,-689.485948,-148.041188,9622.677246
3703.415641,-153.219100,370.102971,8512.368333
3703.415956,612.876398,370.102971,7772.162391
3703.416270,612.876398,222.061783,8216.285956
3703.416585,612.876398,-0.000000,8290.306550
3703.416899,76.609550,-222.061783,9252.574275
3703.417213,0.000000,-444.123565,9992.780217
3703.417528,-919.314598,-1110.308913,10658.965565
3703.417842,-842.705048,-444.123565,11325.150913
3703.418157,-919.314598,-222.061783,11251.130318
3703.418471,-1072.533697,-74.020594,10881.027347
3703.418786,-612.876398,444.123565,9474.636058
3703.419100,0.000000,962.267725,8808.450710
3703.419414,612.876398,370.102971,8142.265362
3703.419729,1149.143247,222.061783,8290.306550
3703.420043,919.314598,-0.000000,8882.471304
3703.420358,689.485948,-0.000000,9178.553681
3703.420672,536.266849,-0.000000,10066.800811
3703.420987,0.000000,296.082377,10658.965565
3703.421301,76.609550,370.102971,11177.109724
3703.421615,153.219100,888.247130,11177.109724
3703.421930,-383.047749,518.144159,9992.780217
3703.422244,689.485948,1184.329507,9548.656652
3703.422559,842.705048,888.247130,8512.368333
3703.422873,1302.362347,1036.288319,8290.306550
3703.423187,1378.971896,666.185348,8438.347739
3703.423502,1302.362347,592.164754,8808.450710
3703.423816,1225.752797,-74.020594,9844.739029
3703.424131,766.095498,296.082377,9992.780217
3703.424445,76.609550,148.041188,10658.965565
3703.424760,-229.828649,296.082377,11029.068536
3703.425074,-459.657299,888.247130,10510.924376
3703.425388,0.000000,1406.391290,9696.697840
3703.425703,459.657299,1480.411884,9030.512492
3703.426017,919.314598,1702.473667,8438.347739
3703.426332,1378.971896,1258.350101,8068.244768
3703.426646,1302.362347,962.267725,8290.306550
3703.426961,612.876398,666.185348,9326.594869
3703.427275,153.219100,444.123565,10066.800811
3703.427589,-306.438199,-74.020594,10881.027347
3703.427904,-842.705048,-0.000000,11621.233289
3703.428218,-383.047749,148.041188,11843.295072
3703.428533,-689.485948,962.267725,11029.068536
3703.428847,-612.876398,1332.370696,10066.800811
3703.429162,76.609550,1332.370696,9474.636058
3703.429476,689.485948,1480.411884,8808.450710
3703.429790,1072.533697,1036.288319,7920.203579
3703.430105,1532.190996,592.164754,8142.265362
3703.430419,1378.971896,518.144159,8512.368333
3703.430734,306.438199,-0.000000,9474.636058
3703.431048,0.000000,-148.041188,10140.821405
3703.431362,-689.485948,-74.020594,10807.006753
3703.431677,-766.095498,-0.000000,10881.027347
3703.431991,-1072.533697,222.061783,11029.068536
3703.432306,-1225.752797,222.061783,10362.883188
3703.432620,-919.314598,222.061783,9770.718434
3703.432935,-153.219100,148.041188,9326.594869
3703.433249,306.438199,74.020594,8734.430116
3703.433563,229.828649,-148.041188,8808.450710
3703.433878,306.438199,-444.123565,9400.615463
3703.434192,153.219100,-444.123565,9622.677246
3703.434507,-383.047749,-518.144159,10140.821405
3703.434821,-383.047749,-444.123565,10510.924376
3703.435136,-306.438199,-74.020594,10510.924376
3703.435450,-766.095498,-222.061783,10214.842000
3703.435764,-919.314598,-296.082377,9770.718434
3703.436079,-229.828649,-370.102971,9474.636058
3703.436393,306.438199,-0.000000,8438.347739
3703.436708,766.095498,-296.082377,8142.265362
3703.437022,995.924147,-444.123565,7920.203579
3703.437336,612.876398,-1036.288319,8290.306550
3703.437651,229.828649,-1332.370696,8808.450710
3703.437965,0.000000,-1110.308913,9844.739029
3703.438280,-306.438199,-888.247130,10658.965565
3703.438594,-229.828649,-888.247130,11177.109724
3703.438909,-383.047749,-518.144159,10214.842000
3703.439223,-306.438199,-0.000000,9622.677246
3703.439537,229.828649,222.061783,8882.471304
3703.439852,689.485948,-0.000000,8068.244768
3703.440166,1302.362347,222.061783,8142.265362
3703.440481,919.314598,-0.000000,8364.327145
3703.440795,766.095498,-444.123565,8586.388927
3703.441110,306.438199,-1184.329507,9770.718434
3703.441424,0.000000,-962.267725,10732.986159
3703.441738,-612.876398,-1406.391290,11251.130318
3703.442053,-459.657299,-740.205942,11473.192101
3703.442367,-383.047749,-0.000000,10732.986159
3703.442682,-229.828649,444.123565,9622.677246
3703.442996,229.828649,370.102971,9030.512492
3703.443310,1072.533697,518.144159,8142.265362
3703.443625,1378.971896,592.164754,7920.203579
3703.443939,1378.971896,814.226536,7698.141797
3703.444254,842.705048,296.082377,8586.388927
3703.444568,612.876398,-148.041188,9696.697840
3703.444883,0.000000,-296.082377,10732.986159
3703.445197,-306.438199,-666.185348,11251.130318
3703.445511,-766.095498,-444.123565,11621.233289
3703.445826,-1225.752797,74.020594,11325.150913
3703.446140,-1302.362347,444.123565,9992.780217
3703.446455,-229.828649,1110.308913,9178.553681
3703.446769,0.000000,962.267725,8438.347739
3703.447084,459.657299,962.267725,8364.327145
3703.447398,766.095498,962.267725,8660.409521
3703.447712,383.047749,222.061783,9178.553681
3703.448027,0.000000,296.082377,9770.718434
3703.448341,-306.438199,444.123565,10362.883188
3703.448656,-459.657299,370.102971,11029.068536
3703.448970,-766.095498,370.102971,11621.233289
3703.449285,-1685.410096,592.164754,11029.068536
3703.449599,-919.314598,1110.308913,9992.780217
3703.449913,0.000000,1184.329507,9252.574275
3703.450228,306.438199,1110.308913,8216.285956
3703.450542,842.705048,962.267725,8216.285956
3703.450857,689.485948,518.144159,8364.327145
3703.451171,306.438199,222.061783,8882.471304
3703.451485,0.000000,-0.000000,9548.656652
3703.451800,-459.657299,-0.000000,10362.883188
3703.452114,-689.485948,-222.061783,11029.068536
3703.452429,-1072.533697,-148.041188,10436.903782
3703.452743,-612.876398,-0.000000,10584.944971
3703.453058,0.000000,740.205942,10066.800811
3703.453372,229.828649,1406.391290,8882.471304
3703.453686,536.266849,1110.308913,8290.306550
3703.454001,766.095498,1110.308913,7624.121203
3703.454315,919.314598,814.226536,8290.306550
3703.454630,689.485948,296.082377,8882.471304
3703.454944,229.828649,-592.164754,9696.697840
3703.455259,-306.438199,-296.082377,10584.944971
3703.455573,-383.047749,-444.123565,11547.212695
3703.455887,-689.485948,-370.102971,11103.089130
3703.456202,-919.314598,-0.000000,10732.986159
3703.456516,-536.266849,296.082377,10362.883188
3703.456831,229.828649,592.164754,8882.471304
3703.457145,1225.752797,666.185348,8290.306550
3703.457459,1915.238745,666.185348,7698.141797
3703.457774,1762.019645,-0.000000,8068.244768
3703.458088,1302.362347,-0.000000,8438.347739
3703.458403,995.924147,-0.000000,9326.594869
3703.458717,842.705048,-222.061783,10436.903782
3703.459032,306.438199,-74.020594,10066.800811
3703.459346,76.609550,-296.082377,10436.903782
3703.459660,-383.047749,-0.000000,10807.006753
3703.459975,-229.828649,-148.041188,9992.780217
3703.460289,0.000000,-0.000000,9252.574275
3703.460604,383.047749,296.082377,8586.388927
3703.460918,1072.533697,-0.000000,8438.347739
3703.461233,919.314598,-222.061783,8438.347739
3703.461547,383.047749,-444.123565,8956.491898
3703.461861,76.609550,-740.205942,9992.780217
3703.462176,0.000000,-888.247130,10214.842000
3703.462490,-536.266849,-444.123565,10881.027347
3703.462805,-383.047749,-370.102971,11251.130318
3703.463119,-612.876398,-148.041188,10362.883188
3703.463433,-153.219100,222.061783,9844.739029
3703.463748,76.609550,-0.000000,9104.533087
3703.464062,306.438199,-74.020594,8882.471304
3703.464377,842.705048,222.061783,8438.347739
3703.464691,153.219100,-148.041188,8068.244768
3703.465006,0.000000,-888.247130,8882.471304
3703.465320,0.000000,-888.247130,9844.739029
3703.465634,-612.876398,-962.267725,10658.965565
3703.465949,-1149.143247,-1110.308913,11251.130318
3703.466263,-536.266849,-740.205942,11399.171507
3703.466578,-995.924147,-74.020594,10436.903782
3703.466892,-766.095498,814.226536,9474.636058
3703.467207,153.219100,666.185348,9400.615463
3703.467521,306.438199,370.102971,8364.327145
3703.467835,919.314598,-0.000000,8142.265362
3703.468150,689.485948,-0.000000,8216.285956
3703.468464,306.438199,-296.082377,8660.409521
3703.468779,0.000000,-370.102971,9844.739029
3703.469093,-536.266849,-666.185348,10436.903782
3703.469408,-766.095498,-1110.308913,10807.006753
3703.469722,-1225.752797,-518.144159,10955.047942
3703.470036,-1149.143247,222.061783,10066.800811
3703.470351,-766.095498,-0.000000,9770.718434
3703.470665,0.000000,592.164754,8956.491898
3703.470980,153.219100,444.123565,8438.347739
3703.471294,842.705048,518.144159,7994.224174
3703.471608,919.314598,-148.041188,7920.203579
3703.471923,536.266849,222.061783,8512.368333
3703.472237,536.266849,-0.000000,9622.677246
3703.472552,0.000000,-0.000000,10288.862594
3703.472866,-229.828649,222.061783,10955.047942
3703.473181,-229.828649,518.144159,10881.027347
3703.473495,-536.266849,962.267725,10510.924376
3703.473809,306.438199,1184.329507,9918.759623
3703.474124,689.485948,1184.329507,9030.512492
3703.474438,1072.533697,962.267725,7920.203579
3703.474753,1608.800546,444.123565,8290.306550
3703.475067,1302.362347,592.164754,8290.306550
3703.475382,919.314598,-0.000000,8734.430116
3703.475696,536.266849,-0.000000,9474.636058
3703.476010,-153.219100,-0.000000,10510.924376
3703.476325,0.000000,-0.000000,11399.171507
3703.476639,-383.047749,-0.000000,11399.171507
3703.476954,0.000000,740.205942,10881.027347
3703.477268,153.219100,1184.329507,9844.739029
3703.477582,536.266849,1406.391290,9326.594869
3703.477897,1225.752797,1406.391290,9030.512492
3703.478211,1455.581446,1184.329507,9104.533087
3703.478526,1532.190996,1332.370696,8956.491898
3703.478840,766.095498,370.102971,9252.574275
3703.479155,766.095498,444.123565,9770.718434
3703.479469,76.609550,222.061783,11251.130318
3703.479783,-306.438199,-0.000000,11399.171507
3703.480098,-689.485948,-0.000000,11547.212695
3703.480412,-995.924147,518.144159,10732.986159
3703.480727,-306.438199,1184.329507,10066.800811
3703.481041,76.609550,1036.288319,9104.533087
3703.481356,842.705048,962.267725,8512.368333
3703.481670,1302.362347,962.267725,8216.285956
3703.481984,1608.800546,592.164754,7994.224174
3703.482299,766.095498,148.041188,9104.533087
3703.482613,76.609550,222.061783,9918.759623
3703.482928,-459.657299,-0.000000,10584.944971
3703.483242,-766.095498,-74.020594,10955.047942
3703.483556,-612.876398,-740.205942,11251.130318
3703.483871,-689.485948,-0.000000,10510.924376
3703.484185,-689.485948,592.164754,9770.718434
3703.484500,-536.266849,518.144159,8882.471304
3703.484814,76.609550,222.061783,8586.388927
3703.485129,612.876398,444.123565,8068.244768
3703.485443,536.266849,-74.020594,8068.244768
3703.485757,153.219100,-222.061783,9326.594869
3703.486072,0.000000,-592.164754,9474.636058
3703.486386,-306.438199,-740.205942,10066.800811
3703.486701,0.000000,-370.102971,10584.944971
3703.487015,-919.314598,-296.082377,11029.068536
3703.487330,-995.924147,-370.102971,10362.883188
3703.487644,0.000000,-592.164754,9474.636058
3703.487958,0.000000,-0.000000,8512.368333
3703.488273,689.485948,-296.082377,8216.285956
3703.488587,919.314598,-296.082377,8142.265362
3703.488902,612.876398,-370.102971,8512.368333
3703.489216,153.219100,-666.185348,9400.615463
3703.489531,153.219100,-1184.329507,9548.656652
3703.489845,0.000000,-1036.288319,10584.944971
3703.490159,-536.266849,-1110.308913,11029.068536
3703.490474,-689.485948,-296.082377,11103.089130
3703.490788,-383.047749,222.061783,9770.718434
3703.491103,0.000000,370.102971,9252.574275
3703.491417,919.314598,148.041188,8512.368333
3703.491731,1225.752797,-0.000000,8068.244768
3703.492046,1225.752797,148.041188,8216.285956
3703.492360,689.485948,-0.000000,8290.306550
3703.492675,0.000000,-666.185348,8808.450710
3703.492989,0.000000,-814.226536,10140.821405
3703.493304,-766.095498,-962.267725,10955.047942
3703.493618,-1225.752797,-1036.288319,11473.192101
3703.493932,-995.924147,-666.185348,11103.089130
3703.494247,-612.876398,444.123565,10510.924376
3703.494561,0.000000,888.247130,9992.780217
3703.494876,306.438199,814.226536,8882.471304
3703.495190,1149.143247,1036.288319,8216.285956
3703.495505,1302.362347,666.185348,7994.224174
3703.495819,1378.971896,592.164754,8660.409521
3703.496133,995.924147,-0.000000,8956.491898
3703.496448,0.000000,-148.041188,9696.697840
3703.496762,-229.828649,-74.020594,11029.068536
3703.497077,-459.657299,-518.144159,11399.171507
3703.497391,-383.047749,-814.226536,11029.068536
3703.497706,-689.485948,-0.000000,10658.965565
3703.498020,-229.828649,296.082377,9918.759623
3703.498334,229.828649,666.185348,9030.512492
3703.498649,612.876398,666.185348,8512.368333
3703.498963,1378.971896,666.185348,8660.409521
3703.499278,1378.971896,370.102971,8068.244768
3703.499592,1225.752797,-0.000000,9252.574275
3703.499907,766.095498,-0.000000,9918.759623
3703.500221,76.609550,74.020594,10732.986159
3703.500536,306.438199,296.082377,11325.150913
3703.500850,-229.828649,666.185348,11473.192101
3703.501165,-229.828649,1110.308913,10510.924376
3703.501479,153.219100,740.205942,9474.636058
3703.501794,306.438199,666.185348,8660.409521
3703.502108,842.705048,222.061783,8068.244768
3703.502423,459.657299,-0.000000,8364.327145
3703.502737,153.219100,74.020594,8660.409521
3703.503052,-229.828649,-0.000000,9474.636058
3703.503366,-306.438199,-0.000000,10066.800811
3703.503680,-306.438199,-296.082377,10658.965565
3703.503995,-612.876398,-0.000000,11103.089130
3703.504309,-766.095498,518.144159,11843.295072
3703.504624,-995.924147,1110.308913,10214.842000
3703.504938,0.000000,1110.308913,8956.491898
3703.505253,229.828649,1554.432478,8734.430116
3703.505567,689.485948,1184.329507,8142.265362
3703.505882,995.924147,888.247130,7698.141797
3703.506196,689.485948,444.123565,7846.182985
3703.506511,0.000000,-148.041188,8882.471304
3703.506825,0.000000,-0.000000,9400.615463
3703.507140,-766.095498,-296.082377,10066.800811
3703.507454,-766.095498,-370.102971,11177.109724
3703.507769,-1149.143247,-370.102971,11251.130318
3703.508083,-995.924147,296.082377,10214.842000
3703.508398,-306.438199,1036.288319,9474.636058
3703.508712,153.219100,962.267725,8438.347739
3703.509027,919.314598,888.247130,8216.285956
3703.509341,1378.971896,444.123565,7920.203579
3703.509655,1302.362347,222.061783,8660.409521
3703.509970,766.095498,-0.000000,9326.594869
3703.510284,153.219100,-0.000000,9992.780217
3703.510599,76.609550,-222.061783,10658.965565
3703.510913,0.000000,-518.144159,11399.171507
3703.511228,-689.485948,-0.000000,11769.274478
3703.511542,-306.438199,666.185348,10288.862594
3703.511857,0.000000,370.102971,9770.718434
3703.512171,229.828649,666.185348,8956.491898
3703.512486,1149.143247,740.205942,8364.327145
3703.512800,995.924147,518.144159,8438.347739
3703.513115,919.314598,-74.020594,8734.430116
3703.513429,612.876398,-444.123565,9844.739029
3703.513744,229.828649,-222.061783,10436.903782
3703.514058,0.000000,-222.061783,10955.047942
3703.514373,-306.438199,-148.041188,11769.274478
3703.514687,-459.657299,74.020594,11325.150913
3703.515001,-536.266849,222.061783,10510.924376
3703.515316,0.000000,518.144159,9696.697840
3703.515630,306.438199,740.205942,8734.430116
3703.515945,689.485948,592.164754,7846.182985
3703.516259,612.876398,-0.000000,8216.285956
3703.516574,459.657299,-296.082377,8660.409521
3703.516888,0.000000,-444.123565,9622.677246
3703.517203,0.000000,-1110.308913,9992.780217
3703.517517,-536.266849,-888.247130,10510.924376
3703.517832,-919.314598,-962.267725,11251.130318
3703.518146,-919.314598,-518.144159,10807.006753
3703.518461,-689.485948,-0.000000,9918.759623
3703.518775,-229.828649,-74.020594,8956.491898
3703.519090,153.219100,148.041188,8142.265362
3703.519404,766.095498,-0.000000,8068.244768
3703.519719,919.314598,-222.061783,7920.203579
3703.520033,1302.362347,-296.082377,8290.306550
3703.520348,229.828649,-740.205942,9178.553681
3703.520662,0.000000,-888.247130,10288.862594
3703.520976,-229.828649,-1110.308913,11029.068536
3703.521291,-919.314598,-888.247130,11029.068536
3703.521605,-1225.752797,-814.226536,11029.068536
3703.521920,-1072.533697,-74.020594,9918.759623
3703.522234,0.000000,-0.000000,9178.553681
3703.522549,459.657299,148.041188,8290.306550
3703.522863,459.657299,296.082377,7920.203579
3703.523178,1149.143247,-74.020594,7550.100608
3703.523492,995.924147,-0.000000,8142.265362
3703.523807,459.657299,-222.061783,9474.636058
3703.524121,153.219100,-148.041188,10214.842000
3703.524436,-306.438199,-370.102971,10584.944971
3703.524750,-306.438199,-0.000000,10881.027347
3703.525065,-842.705048,370.102971,11399.171507
3703.525379,-842.705048,740.205942,10362.883188
3703.525694,0.000000,888.247130,9622.677246
3703.526008,229.828649,1554.432478,8660.409521
3703.526322,995.924147,814.226536,8142.265362
3703.526637,1302.362347,296.082377,7772.162391
3703.526951,995.924147,296.082377,8216.285956
3703.527266,459.657299,-0.000000,9474.636058
3703.527580,0.000000,222.061783,9918.759623
3703.527895,-383.047749,-0.000000,10807.006753
3703.528209,-153.219100,370.102971,10881.027347
3703.528524,-229.828649,518.144159,11103.089130
3703.528838,0.000000,814.226536,9844.739029
3703.529153,383.047749,962.267725,9400.615463
3703.529467,766.095498,1184.329507,8808.450710
3703.529782,995.924147,1332.370696,8068.244768
3703.530096,995.924147,888.247130,8290.306550
3703.530411,1072.533697,592.164754,8734.430116
3703.530725,689.485948,370.102971,9622.677246
3703.531040,-153.219100,-0.000000,10288.862594
3703.531354,-689.485948,148.041188,11177.109724
3703.531669,-689.485948,-0.000000,11843.295072
3703.531983,-919.314598,518.144159,11325.150913
3703.532297,-919.314598,888.247130,10584.944971
3703.532612,0.000000,1036.288319,9474.636058
3703.532926,459.657299,1258.350101,8586.388927
3703.533241,1302.362347,1406.391290,8512.368333
3703.533555,1225.752797,1036.288319,8660.409521
3703.533870,1072.533697,370.102971,8956.491898
3703.534184,306.438199,-74.020594,9400.615463
3703.534499,76.609550,-0.000000,10436.903782
3703.534813,-229.828649,-0.000000,11177.109724
3703.535128,-459.657299,-0.000000,11621.233289
3703.535442,-153.219100,370.102971,11251.130318
3703.535757,-766.095498,666.185348,10140.821405
3703.536071,-306.438199,814.226536,9474.636058
3703.536386,0.000000,666.185348,8364.327145
3703.536700,919.314598,444.123565,8142.265362
3703.537015,766.095498,222.061783,8512.368333
3703.537329,919.314598,296.082377,8290.306550
3703.537643,229.828649,-0.000000,9474.636058
3703.537958,0.000000,-74.020594,10066.800811
3703.538272,-306.438199,-222.061783,10807.006753
3703.538587,0.000000,-296.082377,11399.171507
3703.538901,-306.438199,74.020594,10362.883188
3703.539216,153.219100,222.061783,9622.677246
3703.539530,306.438199,814.226536,8882.471304
3703.539845,766.095498,370.102971,8068.244768
3703.540159,536.266849,-0.000000,7550.100608
3703.540474,919.314598,222.061783,7624.121203
3703.540788,842.705048,-370.102971,8068.244768
3703.541103,306.438199,-1184.329507,9252.574275
3703.541417,0.000000,-888.247130,10214.842000
3703.541732,-842.705048,-1110.308913,10881.027347
3703.542046,-995.924147,-962.267725,11547.212695
3703.542361,-919.314598,-370.102971,10955.047942
3703.542675,-766.095498,-0.000000,9770.718434
3703.542990,383.047749,222.061783,9326.594869
3703.543304,536.266849,888.247130,8290.306550
3703.543618,1302.362347,518.144159,7624.121203
3703.543933,1455.581446,592.164754,8068.244768
3703.544247,1455.581446,592.164754,8808.450710
3703.544562,383.047749,-74.020594,10214.842000
3703.544876,-229.828649,-666.185348,9992.780217
3703.545191,-306.438199,-592.164754,11103.089130
3703.545505,-383.047749,-666.185348,11769.274478
3703.545820,-383.047749,222.061783,11473.192101
3703.546134,-459.657299,592.164754,10436.903782
3703.546449,-153.219100,666.185348,9474.636058
3703.546763,306.438199,666.185348,8808.450710
3703.547078,459.657299,444.123565,7920.203579
3703.547392,689.485948,222.061783,8512.368333
3703.547707,306.438199,-74.020594,9178.553681
3703.548021,0.000000,-74.020594,9696.697840
3703.548336,-229.828649,-74.020594,10510.924376
3703.548650,-612.876398,-222.061783,11325.150913
3703.548964,-842.705048,-148.041188,11621.233289
3703.549279,-1225.752797,888.247130,10881.027347
3703.549593,-689.485948,962.267725,9696.697840
3703.549908,-306.438199,740.205942,9400.615463
3703.550222,306.438199,740.205942,7994.224174
3703.550537,689.485948,518.144159,8142.265362
3703.550851,306.438199,-74.020594,8142.265362
3703.551166,76.609550,-148.041188,8512.368333
3703.551480,-306.438199,-740.205942,9474.636058
3703.551795,-766.095498,-1184.329507,10140.821405
3703.552109,-383.047749,-1332.370696,10955.047942
3703.552424,-766.095498,-222.061783,11103.089130
3703.552738,-459.657299,296.082377,10807.006753
3703.553053,-459.657299,518.144159,9992.780217
3703.553367,153.219100,1258.350101,9104.533087
3703.553682,919.314598,962.267725,8142.265362
3703.553996,1378.971896,814.226536,7476.080014
3703.554310,1302.362347,518.144159,8438.347739
3703.554625,766.095498,148.041188,8882.471304
3703.554939,76.609550,-148.041188,9696.697840
3703.555254,-459.657299,-666.185348,10881.027347
3703.555568,-919.314598,-518.144159,10732.986159
3703.555883,-612.876398,-370.102971,11251.130318
3703.556197,-919.314598,222.061783,10584.944971
3703.556512,0.000000,-148.041188,10066.800811
3703.556826,306.438199,962.267725,9252.574275
3703.557141,153.219100,518.144159,8068.244768
3703.557455,1455.581446,518.144159,8068.244768
3703.557770,1225.752797,370.102971,8216.285956
3703.558084,766.095498,444.123565,8734.430116
3703.558399,919.314598,-74.020594,9548.656652
3703.558713,76.609550,-0.000000,10510.924376
3703.559028,0.000000,-148.041188,11473.192101
3703.559342,0.000000,370.102971,11547.212695
3703.559657,-229.828649,666.185348,10732.986159
3703.559971,-153.219100,962.267725,10066.800811
3703.560285,306.438199,1406.391290,8586.388927
3703.560600,842.705048,592.164754,7994.224174
3703.560914,995.924147,296.082377,8068.244768
3703.561229,1072.533697,370.102971,8438.347739
3703.561543,459.657299,-0.000000,8364.327145
3703.561858,306.438199,-296.082377,9548.656652
3703.562172,0.000000,-222.061783,10658.965565
3703.562487,0.000000,-592.164754,10955.047942
3703.562801,-536.266849,-370.102971,11325.150913
3703.563116,-995.924147,148.041188,10510.924376
3703.563430,0.000000,592.164754,9844.739029
3703.563745,536.266849,888.247130,9030.512492
3703.564059,229.828649,592.164754,8438.347739
3703.564374,1532.190996,592.164754,8216.285956
3703.564688,1149.143247,-0.000000,8142.265362
3703.565003,842.705048,-296.082377,9030.512492
3703.565317,76.609550,-370.102971,10362.883188
3703.565631,-842.705048,-962.267725,10807.006753
3703.565946,-306.438199,-518.144159,10955.047942
3703.566260,-612.876398,-518.144159,11547.212695
3703.566575,-612.876398,-0.000000,11029.068536
3703.566889,-689.485948,296.082377,10140.821405
3703.567204,383.047749,370.102971,9326.594869
3703.567518,536.266849,444.123565,8808.450710
3703.567833,1072.533697,592.164754,8364.327145
3703.568147,1149.143247,370.102971,8216.285956
3703.568462,689.485948,-74.020594,8734.430116
3703.568776,306.438199,370.102971,10140.821405
3703.569091,0.000000,-444.123565,10214.842000
3703.569405,-459.657299,-222.061783,11029.068536
3703.569720,-689.485948,-148.041188,11177.109724
3703.570034,-1149.143247,-0.000000,10658.965565
3703.570349,-1302.362347,-0.000000,10214.842000
3703.570663,-383.047749,74.020594,9104.533087
3703.570978,0.000000,222.061783,8364.327145
3703.571292,536.266849,-0.000000,8290.306550
3703.571606,459.657299,-0.000000,8216.285956
3703.571921,1072.533697,-296.082377,8586.388927
3703.572235,0.000000,-666.185348,9400.615463
3703.572550,-76.609550,-222.061783,9918.759623
3703.572864,-229.828649,-518.144159,10436.903782
3703.573179,-153.219100,-370.102971,10584.944971
3703.573493,-612.876398,-74.020594,10288.862594
3703.573808,0.000000,296.082377,9104.533087
3703.574122,229.828649,444.123565,8290.306550
3703.574437,842.705048,444.123565,7772.162391
3703.574751,1149.143247,-0.000000,8068.244768
3703.575066,919.314598,-74.020594,8438.347739
3703.575380,306.438199,-666.185348,8512.368333
3703.575695,76.609550,-518.144159,9622.677246
3703.576009,-229.828649,-666.185348,10658.965565
3703.576324,-153.219100,-370.102971,11325.150913
3703.576638,-919.314598,-222.061783,11695.253884
3703.576952,-459.657299,814.226536,10658.965565
3703.577267,0.000000,1184.329507,10436.903782
3703.577581,689.485948,1332.370696,9030.512492
3703.577896,1302.362347,1036.288319,8364.327145
3703.578210,1608.800546,592.164754,8512.368333
3703.578525,1225.752797,740.205942,8512.368333
3703.578839,842.705048,370.102971,9178.553681
3703.579154,0.000000,-0.000000,9918.759623
3703.579468,0.000000,-148.041188,11325.150913
3703.579783,-229.828649,-444.123565,11029.068536
3703.580097,-459.657299,-74.020594,11695.253884
3703.580412,-766.095498,444.123565,10955.047942
3703.580726,-459.657299,814.226536,10214.842000
3703.581041,153.219100,1184.329507,9104.533087
3703.581355,919.314598,1110.308913,8660.409521
3703.581670,1302.362347,1036.288319,8142.265362
3703.581984,919.314598,740.205942,8364.327145
3703.582299,459.657299,666.185348,9326.594869
3703.582613,383.047749,518.144159,10140.821405
3703.582927,-459.657299,222.061783,11029.068536
3703.583242,-689.485948,-0.000000,11325.150913
3703.583556,-842.705048,-0.000000,11325.150913
3703.583871,-689.485948,666.185348,10955.047942
3703.584185,-383.047749,888.247130,9770.718434
3703.584500,459.657299,888.247130,8660.409521
3703.584814,229.828649,962.267725,8364.327145
3703.585129,459.657299,592.164754,8068.244768
3703.585443,689.485948,-0.000000,8068.244768
3703.585758,76.609550,-222.061783,9178.553681
3703.586072,0.000000,-148.041188,9548.656652
3703.586387,-612.876398,-222.061783,10288.862594
3703.586701,-919.314598,-296.082377,10436.903782
3703.587016,-689.485948,-222.061783,11103.089130
3703.587330,-689.485948,518.144159,9622.677246
3703.587645,-306.438199,-0.000000,8808.450710
3703.587959,229.828649,740.205942,8586.388927
3703.588273,536.266849,888.247130,8586.388927
3703.588588,766.095498,518.144159,8734.430116
3703.588902,459.657299,-0.000000,8438.347739
3703.589217,0.000000,-592.164754,9252.574275
3703.589531,0.000000,-666.185348,10214.842000
3703.589846,-612.876398,-592.164754,10584.944971
3703.590160,-689.485948,-518.144159,11473.192101
3703.590475,-919.314598,-148.041188,11399.171507
3703.590789,-842.705048,370.102971,10214.842000
3703.591104,0.000000,592.164754,9474.636058
3703.591418,153.219100,444.123565,8956.491898
3703.591733,766.095498,518.144159,8068.244768
3703.592047,1455.581446,74.020594,7994.224174
3703.592362,1302.362347,-222.061783,8142.265362
3703.592676,995.924147,-296.082377,9030.512492
3703.592991,536.266849,-518.144159,9770.718434
3703.593305,153.219100,-592.164754,10362.883188
3703.593620,153.219100,-518.144159,10807.006753
3703.593934,-76.609550,-0.000000,10955.047942
3703.594248,-383.047749,592.164754,10214.842000
3703.594563,-229.828649,370.102971,9622.677246
3703.594877,383.047749,296.082377,8956.491898
3703.595192,1378.971896,370.102971,8216.285956
3703.595506,1532.190996,-222.061783,8364.327145
3703.595821,1225.752797,-148.041188,8438.347739
3703.596135,766.095498,-444.123565,8734.430116
3703.596450,612.876398,-74.020594,9992.780217
3703.596764,229.828649,-222.061783,10510.924376
3703.597079,-306.438199,-592.164754,10881.027347
3703.597393,-306.438199,-222.061783,11473.192101
3703.597708,0.000000,740.205942,10362.883188
3703.598022,0.000000,592.164754,9474.636058
3703.598337,383.047749,888.247130,8438.347739
3703.598651,766.095498,222.061783,8364.327145
3703.598966,919.314598,-0.000000,8660.409521
3703.599280,766.095498,-370.102971,9030.512492
3703.599594,383.047749,-370.102971,9474.636058
3703.599909,-153.219100,-592.164754,10584.944971
3703.600223,-612.876398,-370.102971,11473.192101
3703.600538,-1072.533697,-592.164754,12065.356855
3703.600852,-842.705048,-0.000000,11695.253884
3703.601167,-766.095498,740.205942,10658.965565
3703.601481,-306.438199,888.247130,9770.718434
3703.601796,0.000000,740.205942,8734.430116
3703.602110,612.876398,740.205942,8512.368333
3703.602425,919.314598,444.123565,8290.306550
3703.602739,689.485948,-148.041188,8586.388927
3703.603054,459.657299,-222.061783,9178.553681
3703.603368,0.000000,-370.102971,10288.862594
3703.603682,-536.266849,-592.164754,10732.986159
3703.603997,-919.314598,-518.144159,10955.047942
3703.604311,-1072.533697,-518.144159,11177.109724
3703.604626,-1532.190996,444.123565,10436.903782
3703.604940,-459.657299,518.144159,9104.533087
3703.605255,0.000000,962.267725,8216.285956
3703.605569,536.266849,740.205942,7846.182985
3703.605884,919.314598,518.144159,7698.141797
3703.606198,459.657299,74.020594,7994.224174
3703.606513,229.828649,-0.000000,9474.636058
3703.606827,0.000000,-0.000000,10066.800811
3703.607141,-459.657299,-592.164754,10436.903782
3703.607456,-536.266849,-148.041188,11325.150913
3703.607770,-459.657299,-0.000000,11473.192101
3703.608085,-612.876398,666.185348,9992.780217
3703.608399,153.219100,888.247130,9326.594869
3703.608714,689.485948,1110.308913,8512.368333
3703.609028,1225.752797,962.267725,7624.121203
3703.609343,1685.410096,888.247130,7846.182985
3703.609657,1072.533697,518.144159,8364.327145
3703.609972,842.705048,-222.061783,9178.553681
3703.610286,306.438199,-74.020594,9770.718434
3703.610600,0.000000,-222.061783,10881.027347
3703.610915,-153.219100,-518.144159,11473.192101
3703.611229,-229.828649,222.061783,11473.192101
3703.611544,-229.828649,592.164754,10658.965565
3703.611858,76.609550,888.247130,9696.697840
3703.612173,689.485948,1406.391290,8660.409521
3703.612487,1378.971896,666.185348,7772.162391
3703.612802,1532.190996,1036.288319,8142.265362
3703.613116,1072.533697,740.205942,8882.471304
3703.613431,153.219100,370.102971,9474.636058
3703.613745,153.219100,-222.061783,10362.883188
3703.614059,0.000000,-740.205942,11473.192101
3703.614374,-229.828649,-74.020594,11769.274478
3703.614688,-459.657299,296.082377,11029.068536
3703.615003,-766.095498,370.102971,10658.965565
3703.615317,-383.047749,814.226536,9770.718434
3703.615632,0.000000,1184.329507,8438.347739
3703.615946,1225.752797,740.205942,7920.203579
3703.616261,1225.752797,222.061783,7994.224174
3703.616575,1072.533697,222.061783,8512.368333
3703.616889,383.047749,-296.082377,9030.512492
3703.617204,76.609550,-222.061783,9844.739029
3703.617518,-459.657299,-74.020594,11325.150913
3703.617833,-612.876398,-148.041188,10807.006753
3703.618147,-1072.533697,-0.000000,10955.047942
3703.618462,-919.314598,296.082377,10288.862594
3703.618776,-842.705048,592.164754,9696.697840
3703.619091,383.047749,592.164754,8438.347739
3703.619405,766.095498,592.164754,8290.306550
3703.619720,612.876398,-0.000000,8512.368333
3703.620034,766.095498,-74.020594,8364.327145
3703.620348,0.000000,-370.102971,9474.636058
3703.620663,0.000000,-444.123565,10362.883188
3703.620977,-766.095498,-592.164754,11029.068536
3703.621292,-766.095498,-444.123565,11177.109724
3703.621606,-995.924147,-370.102971,10732.986159
3703.621921,-995.924147,-0.000000,9918.759623
3703.622235,-306.438199,-0.000000,9400.615463
3703.622550,459.657299,370.102971,8438.347739
3703.622864,612.876398,666.185348,7994.224174
3703.623179,995.924147,-74.020594,7698.141797
3703.623493,536.266849,-222.061783,8364.327145
3703.623807,0.000000,-592.164754,9474.636058
3703.624122,-306.438199,-740.205942,10214.842000
3703.624436,-612.876398,-962.267725,10510.924376
3703.624751,-612.876398,-666.185348,11473.192101
3703.625065,-766.095498,-296.082377,11177.109724
3703.625380,-383.047749,296.082377,9918.759623
3703.625694,153.219100,296.082377,9178.553681
3703.626009,842.705048,296.082377,8364.327145
3703.626323,1532.190996,222.061783,7476.080014
3703.626638,1455.581446,-0.000000,7994.224174
3703.626952,995.924147,-74.020594,8660.409521
3703.627266,459.657299,-222.061783,9326.594869
3703.627581,0.000000,-518.144159,9474.636058
3703.627895,0.000000,-962.267725,10584.944971
3703.628210,-306.438199,-888.247130,11325.150913
3703.628524,-766.095498,-518.144159,10881.027347
3703.628839,-612.876398,222.061783,9918.759623
3703.629153,0.000000,370.102971,9400.615463
3703.629468,536.266849,814.226536,8586.388927
3703.629782,1302.362347,740.205942,7994.224174
3703.630097,1455.581446,370.102971,8216.285956
3703.630411,1225.752797,148.041188,8364.327145
3703.630725,536.266849,-0.000000,9178.553681
3703.631040,76.609550,-0.000000,9770.718434
3703.631354,0.000000,-148.041188,11103.089130
3703.631669,-383.047749,222.061783,11695.253884
3703.631983,-306.438199,666.185348,11029.068536
3703.632298,-536.266849,814.226536,10658.965565
3703.632612,0.000000,740.205942,9474.636058
3703.632927,306.438199,814.226536,9178.553681
3703.633241,612.876398,666.185348,8438.347739
3703.633556,383.047749,222.061783,8956.491898
3703.633870,612.876398,296.082377,8808.450710
3703.634184,0.000000,-148.041188,9548.656652
3703.634499,-306.438199,-296.082377,10288.862594
3703.634813,-536.266849,-222.061783,11473.192101
3703.635128,-229.828649,-0.000000,11399.171507
3703.635442,-612.876398,666.185348,11177.109724
3703.635757,-383.047749,740.205942,10881.027347
3703.636071,0.000000,962.267725,9992.780217
3703.636386,459.657299,740.205942,8142.265362
3703.636700,1149.143247,518.144159,8068.244768
3703.637014,459.657299,370.102971,8364.327145
3703.637329,689.485948,370.102971,8586.388927
3703.637643,153.219100,-296.082377,9548.656652
3703.637958,0.000000,-222.061783,10288.862594
3703.638272,-306.438199,-370.102971,10732.986159
3703.638587,-612.876398,-148.041188,10881.027347
3703.638901,-689.485948,-0.000000,10732.986159
3703.639216,-766.095498,370.102971,10140.821405
3703.639530,-153.219100,666.185348,9104.533087
3703.639845,536.266849,666.185348,8290.306550
3703.640159,1455.581446,814.226536,7550.100608
3703.640473,1378.971896,740.205942,7846.182985
3703.640788,689.485948,444.123565,7994.224174
3703.641102,383.047749,-0.000000,9326.594869
3703.641417,0.000000,-148.041188,9770.718434
3703.641731,-612.876398,-518.144159,10807.006753
3703.642046,-842.705048,-518.144159,11325.150913
3703.642360,-612.876398,-74.020594,11547.212695
3703.642675,-1072.533697,296.082377,10955.047942
3703.642989,-459.657299,518.144159,9770.718434
3703.643304,383.047749,962.267725,8734.430116
3703.643618,1072.533697,888.247130,8142.265362
3703.643932,1608.800546,444.123565,8808.450710
3703.644247,1302.362347,296.082377,8586.388927
3703.644561,1072.533697,-0.000000,8808.450710
3703.644876,766.095498,-0.000000,9696.697840
3703.645190,76.609550,-444.123565,10584.944971
3703.645505,-383.047749,-222.061783,11251.130318
3703.645819,-383.047749,-296.082377,10955.047942
3703.646134,-536.266849,74.020594,9992.780217
3703.646448,76.609550,296.082377,9474.636058
3703.646763,306.438199,518.144159,8808.450710
3703.647077,919.314598,814.226536,8068.244768
3703.647391,842.705048,444.123565,8142.265362
3703.647706,459.657299,222.061783,8512.368333
3703.648020,229.828649,-74.020594,9104.533087
3703.648335,0.000000,-296.082377,10214.842000
3703.648649,-459.657299,-370.102971,11399.171507
3703.648964,-153.219100,-0.000000,11399.171507
3703.649278,-459.657299,370.102971,10732.986159
3703.649593,-459.657299,740.205942,10140.821405
3703.649907,76.609550,962.267725,9770.718434
3703.650222,612.876398,592.164754,8512.368333
3703.650536,919.314598,740.205942,7994.224174
3703.650850,995.924147,296.082377,8586.388927
3703.651165,229.828649,-222.061783,8808.450710
3703.651479,0.000000,-370.102971,9548.656652
3703.651794,-306.438199,-518.144159,10066.800811
3703.652108,-612.876398,-666.185348,10658.965565
3703.652423,-459.657299,-222.061783,11029.068536
3703.652737,-689.485948,370.102971,10510.924376
3703.653052,-612.876398,518.144159,10288.862594
3703.653366,0.000000,814.226536,9104.533087
3703.653681,229.828649,222.061783,8216.285956
3703.653995,766.095498,592.164754,7994.224174
3703.654309,1149.143247,518.144159,8660.409521
3703.654624,689.485948,222.061783,9104.533087
3703.654938,76.609550,-148.041188,9474.636058
3703.655253,-306.438199,-148.041188,10362.883188
3703.655567,-383.047749,-296.082377,11325.150913
3703.655882,-766.095498,-222.061783,11325.150913
3703.656196,-919.314598,-0.000000,10955.047942
3703.656511,-689.485948,444.123565,10807.006753
