#time,accel_x,accel_y,accel_z
4261.467703,0.000000,222.061783,9844.739029
4261.468018,0.000000,-0.000000,9844.739029
4261.468334,229.828649,-0.000000,9622.677246
4261.468649,76.609550,222.061783,9548.656652
4261.468965,153.219100,-0.000000,9178.553681
4261.469281,0.000000,222.061783,9548.656652
4261.469596,229.828649,296.082377,9548.656652
4261.469912,229.828649,-0.000000,9918.759623
4261.470228,229.828649,-0.000000,9622.677246
4261.470543,153.219100,-0.000000,9474.636058
4261.470859,0.000000,296.082377,9326.594869
4261.471175,-306.438199,-0.000000,9474.636058
4261.471490,0.000000,518.144159,9548.656652
4261.471806,153.219100,-74.020594,9252.574275
4261.472122,0.000000,-0.000000,9474.636058
4261.472437,0.000000,-0.000000,9474.636058
4261.472753,153.219100,370.102971,9400.615463
4261.473069,-306.438199,222.061783,9548.656652
4261.473384,76.609550,148.041188,9474.636058
4261.473700,229.828649,-0.000000,9474.636058
4261.474016,0.000000,-0.000000,9474.636058
4261.474331,0.000000,-0.000000,9474.636058
4261.474647,0.000000,-0.000000,9548.656652
4261.474963,76.609550,222.061783,9696.697840
4261.475278,229.828649,370.102971,9770.718434
4261.475594,76.609550,-0.000000,9696.697840
4261.475909,0.000000,-0.000000,9178.553681
4261.476225,383.047749,74.020594,9474.636058
4261.476541,153.219100,-0.000000,9844.739029
4261.476856,76.609550,370.102971,9992.780217
4261.477172,76.609550,296.082377,9918.759623
4261.477488,76.609550,296.082377,9400.615463
4261.477803,0.000000,-0.000000,9622.677246
4261.478119,0.000000,148.041188,9770.718434
4261.478435,229.828649,370.102971,9844.739029
4261.478750,229.828649,222.061783,9844.739029
4261.479066,0.000000,-0.000000,9918.759623
4261.479382,306.438199,-0.000000,9696.697840
4261.479697,76.609550,-0.000000,9622.677246
4261.480013,0.000000,-0.000000,9474.636058
4261.480329,0.000000,222.061783,9770.718434
4261.480644,536.266849,-0.000000,9696.697840
4261.480960,153.219100,-0.000000,9770.718434
4261.481276,229.828649,296.082377,9548.656652
4261.481591,76.609550,222.061783,9474.636058
4261.481907,76.609550,-74.020594,9178.553681
4261.482223,306.438199,-0.000000,9326.594869
4261.482538,229.828649,-0.000000,9474.636058
4261.482854,153.219100,-0.000000,9326.594869
4261.483170,306.438199,-0.000000,9474.636058
4261.483485,306.438199,-0.000000,9474.636058
4261.483801,0.000000,-0.000000,9030.512492
4261.484116,229.828649,-0.000000,9400.615463
4261.484432,76.609550,-0.000000,9252.574275
4261.484748,306.438199,-0.000000,9548.656652
4261.485063,229.828649,-222.061783,9474.636058
4261.485379,306.438199,-0.000000,9400.615463
4261.485695,153.219100,-0.000000,9548.656652
4261.486010,153.219100,-0.000000,9474.636058
4261.486326,306.438199,74.020594,9696.697840
4261.486642,153.219100,-0.000000,9474.636058
4261.486957,76.609550,-0.000000,9622.677246
4261.487273,306.438199,-0.000000,9474.636058
4261.487589,76.609550,-0.000000,9696.697840
4261.487904,153.219100,296.082377,9992.780217
4261.488220,-383.047749,-148.041188,9548.656652
4261.488536,229.828649,-0.000000,9474.636058
4261.488851,229.828649,370.102971,9770.718434
4261.489167,0.000000,148.041188,9696.697840
4261.489483,0.000000,296.082377,9474.636058
4261.489798,76.609550,-0.000000,9770.718434
4261.490114,0.000000,74.020594,9696.697840
4261.490430,0.000000,296.082377,9696.697840
4261.490745,-306.438199,-0.000000,9474.636058
4261.491061,0.000000,-0.000000,9622.677246
4261.491376,76.609550,296.082377,9548.656652
4261.491692,229.828649,-74.020594,9474.636058
4261.492008,153.219100,-0.000000,9548.656652
4261.492323,0.000000,444.123565,9622.677246
4261.492639,306.438199,-0.000000,9696.697840
4261.492955,153.219100,296.082377,9326.594869
4261.493270,306.438199,-0.000000,9474.636058
4261.493586,0.000000,-0.000000,9326.594869
4261.493902,76.609550,-0.000000,9474.636058
4261.494217,229.828649,-0.000000,9474.636058
4261.494533,306.438199,-0.000000,9474.636058
4261.494849,229.828649,-0.000000,9326.594869
4261.495164,0.000000,-222.061783,9400.615463
4261.495480,0.000000,222.061783,9844.739029
4261.495796,0.000000,-0.000000,9622.677246
4261.496111,153.219100,-0.000000,9844.739029
4261.496427,306.438199,296.082377,9844.739029
4261.496743,306.438199,-0.000000,9548.656652
4261.497058,-229.828649,-74.020594,9548.656652
4261.497374,0.000000,-0.000000,9474.636058
4261.497690,153.219100,-0.000000,9844.739029
4261.498005,306.438199,222.061783,9400.615463
4261.498321,0.000000,296.082377,9770.718434
4261.498637,383.047749,-222.061783,9770.718434
4261.498952,229.828649,296.082377,9548.656652
4261.499268,153.219100,-0.000000,9770.718434
4261.499583,229.828649,-0.000000,9548.656652
4261.499899,536.266849,444.123565,10140.821405
4261.500215,383.047749,-0.000000,9548.656652
4261.500530,-383.047749,-222.061783,9696.697840
4261.500846,229.828649,222.061783,10066.800811
4261.501162,229.828649,-0.000000,9474.636058
4261.501477,0.000000,-0.000000,9622.677246
4261.501793,383.047749,222.061783,9474.636058
4261.502109,229.828649,-0.000000,9474.636058
4261.502424,76.609550,-0.000000,9326.594869
4261.502740,0.000000,-148.041188,9400.615463
4261.503056,76.609550,148.041188,9548.656652
4261.503371,0.000000,-0.000000,9696.697840
4261.503687,306.438199,222.061783,9252.574275
4261.504003,153.219100,74.020594,9400.615463
4261.504318,153.219100,148.041188,9400.615463
4261.504634,153.219100,-0.000000,9400.615463
4261.504950,76.609550,-222.061783,9252.574275
4261.505265,153.219100,222.061783,9400.615463
4261.505581,76.609550,222.061783,9474.636058
4261.505897,153.219100,-0.000000,9474.636058
4261.506212,0.000000,222.061783,9770.718434
4261.506528,536.266849,296.082377,10066.800811
4261.506843,229.828649,-0.000000,9696.697840
4261.507159,383.047749,222.061783,9696.697840
4261.507475,383.047749,518.144159,9474.636058
4261.507790,306.438199,-0.000000,9474.636058
4261.508106,229.828649,-0.000000,9548.656652
4261.508422,229.828649,-0.000000,10140.821405
4261.508737,76.609550,-0.000000,9770.718434
4261.509053,383.047749,-0.000000,9548.656652
4261.509369,76.609550,296.082377,9844.739029
4261.509684,0.000000,-0.000000,9770.718434
4261.510000,0.000000,148.041188,9548.656652
4261.510316,0.000000,-0.000000,9696.697840
4261.510631,76.609550,148.041188,10066.800811
4261.510947,306.438199,148.041188,9844.739029
4261.511263,153.219100,-0.000000,9474.636058
4261.511578,229.828649,-0.000000,9622.677246
4261.511894,0.000000,296.082377,9548.656652
4261.512210,0.000000,222.061783,9622.677246
4261.512525,-76.609550,-0.000000,9622.677246
4261.512841,0.000000,222.061783,9474.636058
4261.513157,-229.828649,444.123565,9104.533087
4261.513472,-383.047749,444.123565,9474.636058
4261.513788,-612.876398,222.061783,9548.656652
4261.514104,-612.876398,-0.000000,9400.615463
4261.514419,-612.876398,518.144159,9400.615463
4261.514735,-766.095498,370.102971,9474.636058
4261.515050,-766.095498,370.102971,9548.656652
4261.515366,-383.047749,518.144159,9474.636058
4261.515682,-1149.143247,740.205942,9474.636058
4261.515997,-842.705048,888.247130,9400.615463
4261.516313,-689.485948,1036.288319,9252.574275
4261.516629,-842.705048,1184.329507,9474.636058
4261.516944,-1225.752797,1332.370696,9104.533087
4261.517260,-1378.971896,1184.329507,9252.574275
4261.517576,-1608.800546,1110.308913,8956.491898
4261.517891,-1991.848295,1184.329507,9400.615463
4261.518207,-2451.505594,1110.308913,9696.697840
4261.518523,-2451.505594,814.226536,9178.553681
4261.518838,-2604.724693,1036.288319,9474.636058
4261.519154,-2834.553343,1850.514855,9992.780217
4261.519470,-2834.553343,1850.514855,9622.677246
4261.519785,-2911.162892,1924.535449,9696.697840
4261.520101,-2451.505594,2146.597232,9770.718434
4261.520417,-2757.943793,2368.659014,9622.677246
4261.520732,-2604.724693,2738.761985,9400.615463
4261.521048,-2451.505594,2812.782580,9474.636058
4261.521364,-2374.896044,2812.782580,9770.718434
4261.521679,-2528.115143,2886.803174,9696.697840
4261.521995,-2451.505594,2516.700203,9622.677246
4261.522310,-1991.848295,2590.720797,10140.821405
4261.522626,-2221.676944,2516.700203,10362.883188
4261.522942,-2221.676944,2220.617826,10214.842000
4261.523257,-1608.800546,1998.556043,10140.821405
4261.523573,-1608.800546,2664.741391,9918.759623
4261.523889,-1072.533697,2886.803174,9252.574275
4261.524204,-842.705048,3182.885551,8808.450710
4261.524520,-842.705048,3849.070898,8882.471304
4261.524836,-1302.362347,3923.091493,8586.388927
4261.525151,-1302.362347,4219.173869,8586.388927
4261.525467,-1149.143247,3775.050304,8956.491898
4261.525783,-1915.238745,3182.885551,9844.739029
4261.526098,-2374.896044,3034.844362,10214.842000
4261.526414,-2681.334243,2516.700203,10881.027347
4261.526730,-2528.115143,2738.761985,11251.130318
4261.527045,-2681.334243,3034.844362,10955.047942
4261.527361,-2221.676944,3182.885551,10658.965565
4261.527677,-2145.067394,3627.009116,10436.903782
4261.527992,-1762.019645,4737.318029,9622.677246
4261.528308,-1378.971896,4811.338623,8956.491898
4261.528624,-1685.410096,4737.318029,8734.430116
4261.528939,-1608.800546,4293.194464,9326.594869
4261.529255,-2757.943793,3627.009116,9252.574275
4261.529571,-2604.724693,2960.823768,9622.677246
4261.529886,-2451.505594,2294.638420,10955.047942
4261.530202,-2451.505594,1998.556043,11325.150913
4261.530517,-2451.505594,1924.535449,11547.212695
4261.530833,-1532.190996,1998.556043,11177.109724
4261.531149,-1455.581446,2072.576638,10807.006753
4261.531464,-306.438199,2812.782580,10066.800811
4261.531780,0.000000,2960.823768,9252.574275
4261.532096,306.438199,3182.885551,9178.553681
4261.532411,153.219100,3701.029710,7920.203579
4261.532727,0.000000,3552.988522,7550.100608
4261.533043,-689.485948,3330.926739,7994.224174
4261.533358,-1838.629195,2664.741391,8364.327145
4261.533674,-2757.943793,1776.494261,9030.512492
4261.533990,-3753.867940,1258.350101,9770.718434
4261.534305,-4213.525239,444.123565,10807.006753
4261.534621,-4903.011187,-0.000000,10881.027347
4261.534937,-4673.182538,-148.041188,10732.986159
4261.535252,-4290.134789,-0.000000,11325.150913
4261.535568,-3447.429741,666.185348,10881.027347
4261.535884,-2528.115143,1258.350101,10066.800811
4261.536199,-1149.143247,1850.514855,9474.636058
4261.536515,0.000000,2664.741391,9326.594869
4261.536831,383.047749,3404.947333,8586.388927
4261.537146,536.266849,3108.864956,8068.244768
4261.537462,459.657299,2664.741391,7920.203579
4261.537777,-459.657299,2516.700203,7624.121203
4261.538093,-1225.752797,2146.597232,7402.059420
4261.538409,-2451.505594,888.247130,7994.224174
4261.538724,-3753.867940,-296.082377,8512.368333
4261.539040,-4826.401637,-592.164754,9400.615463
4261.539356,-5286.058936,-1480.411884,10658.965565
4261.539671,-5515.887586,-1110.308913,10955.047942
4261.539987,-4979.620737,-1184.329507,10807.006753
4261.540303,-3753.867940,-666.185348,11695.253884
4261.540618,-2221.676944,-296.082377,11991.336260
4261.540934,0.000000,666.185348,11029.068536
4261.541250,1608.800546,2072.576638,9474.636058
4261.541565,2298.286494,4219.173869,7698.141797
4261.541881,2451.505594,5625.565159,6661.853478
4261.542197,2451.505594,6291.750507,5477.523971
4261.542512,1378.971896,5699.585753,5033.400406
4261.542828,-689.485948,4885.359217,6069.688724
4261.543144,-3217.601092,3034.844362,7772.162391
4261.543459,-5286.058936,-518.144159,10066.800811
4261.543775,-6588.421283,-3256.906145,13397.727550
4261.544091,-7048.078582,-4367.215058,13693.809927
4261.544406,-8044.002729,-5033.400406,15322.262999
4261.544722,-5898.935335,-3552.988522,14804.118840
4261.545037,-3294.210641,-740.205942,12213.398043
4261.545353,-766.095498,3182.885551,8882.471304
4261.545669,1455.581446,6069.688724,6439.791695
4261.545984,2757.943793,9104.533087,4811.338623
4261.546300,3064.381992,10288.862594,3849.070898
4261.546616,1915.238745,9474.636058,4219.173869
4261.546931,229.828649,7179.997637,7105.977043
4261.547247,-919.314598,4145.153275,10140.821405
4261.547563,-3140.991542,222.061783,12435.459826
4261.547878,-4366.744339,-2516.700203,15248.242405
4261.548194,-5132.839837,-3404.947333,16284.530724
4261.548510,-4903.011187,-3478.967927,14434.015869
4261.548825,-3600.648841,-666.185348,11399.171507
4261.549141,-2374.896044,1332.370696,10955.047942
4261.549457,-842.705048,4885.359217,7846.182985
4261.549772,306.438199,6587.832884,4885.359217
4261.550088,1378.971896,8216.285956,4219.173869
4261.550404,1149.143247,8216.285956,4737.318029
4261.550719,-766.095498,6439.791695,6661.853478
4261.551035,-842.705048,3775.050304,8438.347739
4261.551351,-1915.238745,1702.473667,10362.883188
4261.551666,-1915.238745,740.205942,12139.377449
4261.551982,-2528.115143,740.205942,12805.562797
4261.552298,-3524.039291,296.082377,12731.542202
4261.552613,-4290.134789,1258.350101,12731.542202
4261.552929,-3983.696590,2738.761985,11325.150913
4261.553244,-3370.820191,3923.091493,9474.636058
4261.553560,-3447.429741,4145.153275,8882.471304
4261.553876,-2911.162892,3997.112087,7698.141797
4261.554191,-1915.238745,3923.091493,7105.977043
4261.554507,-1838.629195,4219.173869,7476.080014
4261.554823,-2068.457845,3997.112087,9030.512492
4261.555138,-2451.505594,3404.947333,10436.903782
4261.555453,-2528.115143,2220.617826,11917.315666
4261.555769,-2374.896044,1480.411884,11843.295072
4261.556084,-2298.286494,-0.000000,11399.171507
4261.556399,-1991.848295,-148.041188,11029.068536
4261.556714,-1149.143247,592.164754,10140.821405
4261.557030,-2221.676944,2664.741391,9030.512492
4261.557345,-2221.676944,3404.947333,7846.182985
4261.557660,-1762.019645,4663.297435,7254.018232
4261.557975,-2374.896044,5329.482782,7105.977043
4261.558291,-2834.553343,3923.091493,7920.203579
4261.558606,-2757.943793,1628.453072,9474.636058
4261.558921,-2604.724693,-0.000000,11029.068536
4261.559236,-2834.553343,-962.267725,11843.295072
4261.559552,-2451.505594,-888.247130,12805.562797
4261.559867,-1838.629195,-296.082377,12361.439231
4261.560182,-1838.629195,370.102971,10955.047942
4261.560497,76.609550,2368.659014,9030.512492
4261.560813,1455.581446,3775.050304,7105.977043
4261.561128,1838.629195,4737.318029,5625.565159
4261.561443,1455.581446,4959.379811,5551.544565
4261.561759,0.000000,3627.009116,6143.709319
4261.562074,-2374.896044,3256.906145,6957.935855
4261.562389,-3370.820191,1258.350101,9104.533087
4261.562704,-3370.820191,-814.226536,11029.068536
4261.563020,-3677.258390,-1998.556043,12139.377449
4261.563335,-3217.601092,-2368.659014,12953.603985
4261.563650,-3294.210641,-2220.617826,13989.892304
4261.563965,-3370.820191,-518.144159,12953.603985
4261.564281,-2528.115143,1850.514855,10955.047942
4261.564596,-919.314598,3775.050304,8882.471304
4261.564911,995.924147,5181.441594,6735.874072
4261.565226,1762.019645,4663.297435,5921.647536
4261.565542,1225.752797,4737.318029,6217.729913
4261.565857,-306.438199,3997.112087,6513.812290
4261.566172,-1991.848295,3108.864956,8586.388927
4261.566487,-2757.943793,2146.597232,9400.615463
4261.566803,-2834.553343,-370.102971,10732.986159
4261.567118,-2911.162892,-2072.576638,12287.418637
4261.567433,-3140.991542,-3034.844362,12953.603985
4261.567748,-4136.915689,-2738.761985,12879.583391
4261.568064,-4596.572988,-74.020594,11325.150913
4261.568379,-2604.724693,1850.514855,9696.697840
4261.568694,-1149.143247,3404.947333,7772.162391
4261.569010,459.657299,4441.235652,6957.935855
4261.569325,919.314598,4219.173869,6957.935855
4261.569640,-1302.362347,5181.441594,7105.977043
4261.569955,-2145.067394,4811.338623,7624.121203
4261.570271,-1762.019645,3923.091493,9030.512492
4261.570586,-1991.848295,1998.556043,10362.883188
4261.570901,-1685.410096,-74.020594,11843.295072
4261.571216,-2987.772442,-370.102971,13027.624579
4261.571532,-4826.401637,222.061783,11991.336260
4261.571847,-4136.915689,888.247130,11769.274478
4261.572162,-2987.772442,3256.906145,10362.883188
4261.572477,-1838.629195,4145.153275,8142.265362
4261.572793,-1225.752797,3108.864956,7254.018232
4261.573108,-2681.334243,4145.153275,7179.997637
4261.573423,-2987.772442,3627.009116,7328.038826
4261.573738,-2604.724693,3997.112087,8142.265362
4261.574054,-2221.676944,3552.988522,9474.636058
4261.574369,-1915.238745,1998.556043,10288.862594
4261.574684,-2987.772442,1480.411884,11177.109724
4261.575000,-3677.258390,1258.350101,11251.130318
4261.575315,-3677.258390,1554.432478,11547.212695
4261.575630,-2604.724693,2738.761985,11547.212695
4261.575945,-995.924147,3256.906145,10214.842000
4261.576261,-2451.505594,4145.153275,9252.574275
4261.576576,-2451.505594,4589.276840,8142.265362
4261.576891,-995.924147,4219.173869,8290.306550
4261.577206,-612.876398,3775.050304,8956.491898
4261.577522,-306.438199,3182.885551,8882.471304
4261.577837,-1685.410096,2886.803174,9400.615463
4261.578152,-2221.676944,1702.473667,10066.800811
4261.578467,-1225.752797,518.144159,11177.109724
4261.578783,-306.438199,222.061783,11251.130318
4261.579098,229.828649,-0.000000,10584.944971
4261.579413,-689.485948,666.185348,10658.965565
4261.579728,-306.438199,2146.597232,9474.636058
4261.580044,919.314598,3182.885551,7772.162391
4261.580359,2068.457845,3849.070898,8068.244768
4261.580674,1455.581446,3478.967927,8512.368333
4261.580990,0.000000,3256.906145,7624.121203
4261.581305,-306.438199,2368.659014,8364.327145
4261.581620,-306.438199,2146.597232,9178.553681
4261.581935,-459.657299,888.247130,11547.212695
4261.582251,-1762.019645,-148.041188,11547.212695
4261.582566,-2374.896044,-1776.494261,12657.521608
4261.582881,-919.314598,-814.226536,11769.274478
4261.583196,153.219100,-370.102971,10584.944971
4261.583512,1455.581446,740.205942,9474.636058
4261.583827,459.657299,2146.597232,8586.388927
4261.584142,306.438199,2072.576638,9030.512492
4261.584457,1991.848295,2072.576638,8216.285956
4261.584773,2528.115143,2590.720797,7402.059420
4261.585088,2451.505594,1702.473667,8512.368333
4261.585403,919.314598,666.185348,9178.553681
4261.585718,0.000000,-962.267725,9992.780217
4261.586034,76.609550,-888.247130,10214.842000
4261.586349,153.219100,-1480.411884,10066.800811
4261.586664,-536.266849,-1184.329507,10288.862594
4261.586979,-1378.971896,-1998.556043,11177.109724
4261.587295,-536.266849,-1184.329507,9918.759623
4261.587610,-536.266849,-1110.308913,8142.265362
4261.587925,-229.828649,-296.082377,8808.450710
4261.588241,-1685.410096,444.123565,8734.430116
4261.588556,-1378.971896,-148.041188,8586.388927
4261.588871,0.000000,-666.185348,9474.636058
4261.589186,-383.047749,-370.102971,9770.718434
4261.589502,-612.876398,-370.102971,9992.780217
4261.589817,-1302.362347,-962.267725,10066.800811
4261.590132,-1302.362347,-962.267725,11399.171507
4261.590447,-383.047749,-1702.473667,10288.862594
4261.590763,0.000000,-1702.473667,10436.903782
4261.591078,-919.314598,-888.247130,9400.615463
4261.591393,-1838.629195,-1258.350101,9474.636058
4261.591708,-306.438199,-666.185348,9474.636058
4261.592024,-612.876398,-1998.556043,8882.471304
4261.592339,-306.438199,-1036.288319,8734.430116
4261.592654,-1149.143247,-1258.350101,8956.491898
4261.592969,-1455.581446,-1480.411884,9326.594869
4261.593285,0.000000,-1702.473667,10362.883188
4261.593600,612.876398,-1110.308913,9548.656652
4261.593915,842.705048,-1480.411884,10140.821405
4261.594231,383.047749,-1184.329507,9696.697840
4261.594546,612.876398,-1110.308913,9844.739029
4261.594861,1915.238745,-296.082377,9474.636058
4261.595176,2145.067394,296.082377,9030.512492
4261.595492,919.314598,1184.329507,8290.306550
4261.595807,689.485948,-0.000000,9178.553681
4261.596122,1225.752797,444.123565,8512.368333
4261.596437,766.095498,-148.041188,8956.491898
4261.596753,612.876398,-814.226536,9474.636058
4261.597068,-689.485948,222.061783,10140.821405
4261.597383,-383.047749,-1406.391290,9918.759623
4261.597698,995.924147,-2220.617826,10436.903782
4261.598014,1225.752797,-814.226536,9622.677246
4261.598329,1302.362347,-444.123565,9844.739029
4261.598644,229.828649,370.102971,9844.739029
4261.598959,1225.752797,1554.432478,9400.615463
4261.599275,2451.505594,1480.411884,8660.409521
4261.599590,2451.505594,1998.556043,7179.997637
4261.599905,2068.457845,1480.411884,8290.306550
4261.600220,1072.533697,1184.329507,9178.553681
4261.600536,842.705048,1110.308913,9104.533087
4261.600851,766.095498,962.267725,9918.759623
4261.601166,-306.438199,296.082377,9992.780217
4261.601482,-689.485948,-962.267725,10658.965565
4261.601797,-306.438199,-296.082377,10955.047942
4261.602112,0.000000,370.102971,10066.800811
4261.602427,-229.828649,666.185348,9622.677246
4261.602743,-1302.362347,1628.453072,10140.821405
4261.603058,-1225.752797,1702.473667,9918.759623
4261.603373,153.219100,2072.576638,9104.533087
4261.603688,842.705048,2442.679609,9030.512492
4261.604004,229.828649,1406.391290,9770.718434
4261.604319,-536.266849,1554.432478,10807.006753
4261.604634,-612.876398,1184.329507,11325.150913
4261.604949,-229.828649,1776.494261,10658.965565
4261.605265,-383.047749,1702.473667,9992.780217
4261.605580,-689.485948,814.226536,11103.089130
4261.605895,-995.924147,444.123565,10955.047942
4261.606210,0.000000,888.247130,10288.862594
4261.606526,76.609550,518.144159,9918.759623
4261.606841,-383.047749,1480.411884,9030.512492
4261.607156,-1302.362347,814.226536,9992.780217
4261.607472,-459.657299,666.185348,9770.718434
4261.607787,153.219100,666.185348,9696.697840
4261.608102,153.219100,1258.350101,9400.615463
4261.608417,0.000000,962.267725,9548.656652
4261.608733,-612.876398,666.185348,9992.780217
4261.609048,0.000000,-0.000000,10510.924376
4261.609363,76.609550,518.144159,9548.656652
4261.609678,995.924147,-0.000000,9918.759623
4261.609994,536.266849,148.041188,9696.697840
4261.610309,76.609550,-74.020594,9622.677246
4261.610624,229.828649,296.082377,8882.471304
4261.610939,612.876398,148.041188,9326.594869
4261.611255,0.000000,1258.350101,8438.347739
4261.611570,-383.047749,-592.164754,9474.636058
4261.611885,0.000000,-518.144159,9252.574275
4261.612200,612.876398,-1258.350101,9696.697840
4261.612516,612.876398,-1110.308913,8882.471304
4261.612831,-383.047749,-1258.350101,9548.656652
4261.613146,0.000000,-1702.473667,9918.759623
4261.613462,1072.533697,-1406.391290,9548.656652
4261.613777,1838.629195,-370.102971,9252.574275
4261.614092,2068.457845,666.185348,8068.244768
4261.614407,1072.533697,-0.000000,9030.512492
4261.614723,919.314598,-0.000000,9030.512492
4261.615038,1302.362347,-444.123565,9326.594869
4261.615353,1072.533697,-666.185348,8660.409521
4261.615668,229.828649,-1110.308913,8882.471304
4261.615984,-383.047749,-2146.597232,9696.697840
4261.616299,306.438199,-2220.617826,9696.697840
4261.616614,536.266849,-1702.473667,10436.903782
4261.616929,0.000000,-962.267725,9474.636058
4261.617245,-689.485948,-740.205942,9622.677246
4261.617560,0.000000,-444.123565,9252.574275
4261.617875,1072.533697,-592.164754,8956.491898
4261.618190,995.924147,444.123565,9252.574275
4261.618506,-306.438199,-148.041188,9252.574275
4261.618821,-842.705048,-518.144159,9474.636058
4261.619136,-689.485948,-444.123565,9918.759623
4261.619451,0.000000,-74.020594,9992.780217
4261.619767,153.219100,222.061783,9992.780217
4261.620082,-1149.143247,444.123565,9770.718434
4261.620397,-1302.362347,-592.164754,10658.965565
4261.620713,-1455.581446,-296.082377,9696.697840
4261.621028,-612.876398,-888.247130,9992.780217
4261.621343,-153.219100,-0.000000,8882.471304
4261.621658,-919.314598,-814.226536,10436.903782
4261.621974,-689.485948,-0.000000,8808.450710
4261.622289,306.438199,-0.000000,9030.512492
4261.622604,383.047749,1480.411884,8142.265362
4261.622919,-612.876398,-0.000000,9474.636058
4261.623235,-689.485948,222.061783,9252.574275
4261.623550,229.828649,370.102971,9326.594869
4261.623865,689.485948,296.082377,8660.409521
4261.624180,-383.047749,-592.164754,9548.656652
4261.624496,-1072.533697,-222.061783,10066.800811
4261.624811,-919.314598,-148.041188,10140.821405
4261.625126,459.657299,814.226536,9622.677246
4261.625441,842.705048,666.185348,9548.656652
4261.625757,0.000000,2072.576638,9252.574275
4261.626072,-612.876398,1258.350101,9622.677246
4261.626387,0.000000,1850.514855,9474.636058
4261.626703,306.438199,1110.308913,9326.594869
4261.627018,1225.752797,740.205942,9696.697840
4261.627333,-153.219100,296.082377,10436.903782
4261.627648,0.000000,888.247130,9992.780217
4261.627964,1072.533697,666.185348,10066.800811
4261.628279,1455.581446,888.247130,9326.594869
4261.628594,919.314598,1258.350101,9400.615463
4261.628909,689.485948,740.205942,9992.780217
4261.629225,1685.410096,1184.329507,9844.739029
4261.629540,2068.457845,1110.308913,9178.553681
4261.629855,2221.676944,1628.453072,9326.594869
4261.630170,919.314598,888.247130,8512.368333
4261.630486,536.266849,-444.123565,10436.903782
4261.630801,1225.752797,592.164754,9844.739029
4261.631116,842.705048,666.185348,9252.574275
4261.631431,536.266849,1184.329507,9770.718434
4261.631747,-383.047749,666.185348,10510.924376
4261.632062,0.000000,370.102971,10732.986159
4261.632377,153.219100,370.102971,9992.780217
4261.632692,536.266849,962.267725,10288.862594
4261.633008,-459.657299,1184.329507,9696.697840
4261.633323,0.000000,370.102971,10288.862594
4261.633638,842.705048,1628.453072,8660.409521
4261.633954,1378.971896,1480.411884,9104.533087
4261.634269,612.876398,1850.514855,8512.368333
4261.634584,-842.705048,148.041188,9696.697840
4261.634899,-536.266849,222.061783,9474.636058
4261.635215,-536.266849,-370.102971,9770.718434
4261.635530,153.219100,-222.061783,9326.594869
4261.635845,-536.266849,-370.102971,9474.636058
4261.636160,-1608.800546,-1184.329507,9992.780217
4261.636476,-766.095498,-592.164754,9992.780217
4261.636791,0.000000,-74.020594,9622.677246
4261.637106,153.219100,444.123565,9400.615463
4261.637421,-459.657299,444.123565,9400.615463
4261.637737,0.000000,-0.000000,9104.533087
4261.638052,383.047749,-296.082377,9474.636058
4261.638367,459.657299,-0.000000,10066.800811
4261.638682,-306.438199,-0.000000,9474.636058
4261.638998,-1378.971896,-74.020594,10288.862594
4261.639313,-766.095498,-888.247130,10955.047942
4261.639628,0.000000,-444.123565,10214.842000
4261.639944,-229.828649,-370.102971,9696.697840
4261.640259,-1225.752797,-1258.350101,10140.821405
4261.640574,-1149.143247,-2072.576638,10584.944971
4261.640889,-842.705048,-1702.473667,9696.697840
4261.641205,-306.438199,-1258.350101,9474.636058
4261.641520,-306.438199,-666.185348,9326.594869
4261.641835,-1225.752797,-814.226536,9474.636058
4261.642150,536.266849,-1480.411884,10066.800811
4261.642466,1225.752797,-888.247130,9178.553681
4261.642781,1302.362347,-444.123565,9030.512492
4261.643096,689.485948,-296.082377,9326.594869
4261.643411,842.705048,-888.247130,9474.636058
4261.643727,1149.143247,-222.061783,9622.677246
4261.644042,1378.971896,-518.144159,8882.471304
4261.644357,1378.971896,-296.082377,9474.636058
4261.644672,612.876398,-370.102971,9622.677246
4261.644988,842.705048,-1184.329507,9622.677246
4261.645303,1072.533697,-370.102971,9400.615463
4261.645618,459.657299,-148.041188,8808.450710
4261.645934,76.609550,-518.144159,9474.636058
4261.646249,-229.828649,-740.205942,9252.574275
4261.646564,536.266849,-518.144159,9326.594869
4261.646879,536.266849,-814.226536,9474.636058
4261.647195,689.485948,-148.041188,9030.512492
4261.647510,0.000000,-296.082377,9400.615463
4261.647825,383.047749,296.082377,9548.656652
4261.648140,842.705048,666.185348,9252.574275
4261.648456,1685.410096,1332.370696,8512.368333
4261.648771,689.485948,518.144159,9030.512492
4261.649086,0.000000,222.061783,9474.636058
4261.649401,153.219100,296.082377,9400.615463
4261.649717,383.047749,666.185348,9474.636058
4261.650032,306.438199,222.061783,9548.656652
4261.650347,-919.314598,370.102971,10362.883188
4261.650662,-1149.143247,370.102971,10362.883188
4261.650978,-229.828649,-0.000000,10807.006753
4261.651293,153.219100,518.144159,10066.800811
4261.651608,0.000000,962.267725,9622.677246
4261.651923,-766.095498,740.205942,9770.718434
4261.652239,-459.657299,1110.308913,10362.883188
4261.652554,306.438199,814.226536,9918.759623
4261.652869,689.485948,592.164754,10288.862594
4261.653185,-766.095498,2146.597232,9696.697840
4261.653500,-919.314598,740.205942,10214.842000
4261.653815,-229.828649,888.247130,9918.759623
4261.654130,536.266849,1258.350101,9844.739029
4261.654446,76.609550,1332.370696,10140.821405
4261.654761,-1532.190996,592.164754,9992.780217
4261.655076,-1149.143247,-0.000000,11029.068536
4261.655391,-229.828649,296.082377,10066.800811
4261.655707,153.219100,518.144159,10436.903782
4261.656020,-459.657299,814.226536,10066.800811
4261.656335,-1149.143247,296.082377,9918.759623
4261.656650,459.657299,370.102971,9622.677246
4261.656965,1072.533697,666.185348,9326.594869
4261.657281,1072.533697,1480.411884,9548.656652
4261.657596,0.000000,1480.411884,9548.656652
4261.657911,536.266849,370.102971,9326.594869
4261.658227,842.705048,592.164754,9178.553681
4261.658542,1378.971896,444.123565,8956.491898
4261.658857,536.266849,888.247130,8808.450710
4261.659173,0.000000,296.082377,9178.553681
4261.659488,0.000000,-0.000000,9474.636058
4261.659803,229.828649,-0.000000,9696.697840
4261.660119,0.000000,370.102971,8956.491898
4261.660434,-766.095498,-74.020594,10066.800811
4261.660749,-1072.533697,-222.061783,10214.842000
4261.661065,-459.657299,-592.164754,10658.965565
4261.661380,229.828649,-518.144159,9992.780217
4261.661695,229.828649,666.185348,9770.718434
4261.662011,-536.266849,592.164754,9918.759623
4261.662326,612.876398,-0.000000,9474.636058
4261.662641,1762.019645,592.164754,9400.615463
4261.662956,1685.410096,444.123565,8808.450710
4261.663272,919.314598,-0.000000,9326.594869
4261.663587,76.609550,-0.000000,9030.512492
4261.663902,306.438199,-518.144159,9030.512492
4261.664218,766.095498,-962.267725,9178.553681
4261.664533,306.438199,-518.144159,9104.533087
4261.664848,-612.876398,-1258.350101,9696.697840
4261.665164,-536.266849,-1702.473667,9622.677246
4261.665479,76.609550,-666.185348,9992.780217
4261.665794,0.000000,-148.041188,9696.697840
4261.666110,-766.095498,-222.061783,9548.656652
4261.666425,-612.876398,-592.164754,10140.821405
4261.666740,229.828649,-962.267725,10140.821405
4261.667056,1225.752797,-1036.288319,9622.677246
4261.667371,612.876398,444.123565,9400.615463
4261.667686,-536.266849,592.164754,9548.656652
4261.668002,0.000000,518.144159,9474.636058
4261.668317,536.266849,-74.020594,9696.697840
4261.668632,229.828649,-592.164754,9548.656652
4261.668948,-536.266849,-814.226536,9474.636058
4261.669263,-995.924147,-888.247130,9844.739029
4261.669578,-1072.533697,-962.267725,10584.944971
4261.669893,0.000000,-962.267725,9770.718434
4261.670209,-153.219100,-518.144159,9400.615463
4261.670524,-1302.362347,-666.185348,9992.780217
4261.670839,-536.266849,-592.164754,10214.842000
4261.671155,995.924147,-148.041188,9474.636058
4261.671470,1149.143247,518.144159,8956.491898
4261.671785,536.266849,1258.350101,9030.512492
4261.672101,-229.828649,444.123565,9696.697840
4261.672416,0.000000,-222.061783,9178.553681
4261.672731,1302.362347,-74.020594,9770.718434
4261.673047,1072.533697,740.205942,9474.636058
4261.673362,-229.828649,666.185348,9474.636058
4261.673677,-689.485948,444.123565,9918.759623
4261.673993,0.000000,-0.000000,9030.512492
4261.674308,76.609550,-518.144159,9474.636058
4261.674623,0.000000,-74.020594,9474.636058
4261.674939,-1608.800546,-444.123565,9992.780217
4261.675254,-1149.143247,-518.144159,9918.759623
4261.675569,-153.219100,-0.000000,9474.636058
4261.675885,153.219100,518.144159,8512.368333
4261.676200,0.000000,-0.000000,8734.430116
4261.676515,0.000000,592.164754,9474.636058
4261.676830,612.876398,814.226536,9474.636058
4261.677146,1685.410096,148.041188,9474.636058
4261.677461,995.924147,1702.473667,8882.471304
4261.677776,-612.876398,1480.411884,9992.780217
4261.678092,-153.219100,296.082377,10288.862594
4261.678407,536.266849,444.123565,10214.842000
4261.678722,995.924147,592.164754,9844.739029
4261.679038,766.095498,740.205942,9696.697840
4261.679353,-229.828649,740.205942,10732.986159
4261.679668,153.219100,740.205942,9770.718434
4261.679984,536.266849,888.247130,9770.718434
4261.680299,459.657299,1110.308913,9548.656652
4261.680614,0.000000,888.247130,10214.842000
4261.680930,0.000000,518.144159,9770.718434
4261.681245,612.876398,370.102971,9770.718434
4261.681560,842.705048,1184.329507,9622.677246
4261.681876,76.609550,1480.411884,9474.636058
4261.682191,-536.266849,1036.288319,9844.739029
4261.682506,-76.609550,888.247130,10362.883188
4261.682822,229.828649,740.205942,9992.780217
4261.683137,459.657299,296.082377,9178.553681
4261.683452,-459.657299,666.185348,10214.842000
4261.683767,-995.924147,-0.000000,10510.924376
4261.684083,-383.047749,666.185348,9992.780217
4261.684398,383.047749,518.144159,9918.759623
4261.684713,612.876398,592.164754,9548.656652
4261.685029,-383.047749,1036.288319,9918.759623
4261.685344,459.657299,444.123565,9844.739029
4261.685659,995.924147,814.226536,10288.862594
4261.685975,766.095498,962.267725,9030.512492
4261.686290,306.438199,296.082377,9696.697840
4261.686605,-153.219100,-0.000000,9326.594869
4261.686921,612.876398,-222.061783,9474.636058
4261.687236,1378.971896,222.061783,9400.615463
4261.687551,612.876398,148.041188,9030.512492
4261.687867,0.000000,-0.000000,9770.718434
4261.688182,-459.657299,-296.082377,9178.553681
4261.688497,229.828649,-740.205942,9104.533087
4261.688813,919.314598,-0.000000,9400.615463
4261.689128,-153.219100,-370.102971,9474.636058
4261.689443,-689.485948,-0.000000,9474.636058
4261.689758,-76.609550,-222.061783,9622.677246
4261.690074,0.000000,-444.123565,10066.800811
4261.690389,-383.047749,-0.000000,9622.677246
4261.690704,-1072.533697,370.102971,9178.553681
4261.691020,-612.876398,-370.102971,9770.718434
4261.691335,459.657299,-74.020594,9696.697840
4261.691650,766.095498,-0.000000,9474.636058
4261.691966,0.000000,-0.000000,9178.553681
4261.692281,-766.095498,-0.000000,9400.615463
4261.692596,-383.047749,-740.205942,9178.553681
4261.692912,0.000000,-1036.288319,9400.615463
4261.693227,536.266849,-740.205942,9326.594869
4261.693542,-612.876398,-1184.329507,9178.553681
4261.693858,-842.705048,-1110.308913,9474.636058
4261.694173,0.000000,-666.185348,9474.636058
4261.694488,766.095498,-518.144159,9400.615463
4261.694804,689.485948,-148.041188,9178.553681
4261.695119,76.609550,-74.020594,9474.636058
4261.695434,306.438199,-592.164754,9252.574275
4261.695750,1149.143247,-222.061783,8734.430116
4261.696065,995.924147,-0.000000,8882.471304
4261.696380,-383.047749,-370.102971,9918.759623
4261.696695,-842.705048,-814.226536,9992.780217
4261.697011,0.000000,-592.164754,9770.718434
4261.697326,689.485948,-148.041188,9400.615463
4261.697641,383.047749,-0.000000,9992.780217
4261.697957,-612.876398,-222.061783,9696.697840
4261.698272,-612.876398,222.061783,9696.697840
4261.698587,229.828649,-0.000000,9844.739029
4261.698903,1149.143247,296.082377,9474.636058
4261.699218,995.924147,814.226536,9400.615463
4261.699533,383.047749,-74.020594,9770.718434
4261.699849,842.705048,518.144159,9548.656652
4261.700164,1072.533697,962.267725,9770.718434
4261.700479,1149.143247,666.185348,9326.594869
4261.700795,306.438199,814.226536,9992.780217
4261.701110,76.609550,592.164754,9474.636058
4261.701425,842.705048,296.082377,9104.533087
4261.701741,1685.410096,444.123565,9696.697840
4261.702056,0.000000,518.144159,10140.821405
4261.702371,-689.485948,444.123565,10066.800811
4261.702687,-383.047749,444.123565,10288.862594
4261.703002,383.047749,814.226536,10362.883188
4261.703317,1072.533697,666.185348,9770.718434
4261.703632,-229.828649,1036.288319,9770.718434
4261.703948,-536.266849,888.247130,9918.759623
4261.704263,0.000000,888.247130,9548.656652
4261.704578,0.000000,888.247130,9400.615463
4261.704894,-459.657299,370.102971,10140.821405
4261.705209,-1378.971896,518.144159,10140.821405
4261.705524,-1149.143247,296.082377,10214.842000
4261.705840,-612.876398,-0.000000,9474.636058
4261.706155,-153.219100,370.102971,9844.739029
4261.706470,-919.314598,296.082377,9918.759623
4261.706786,-995.924147,-0.000000,9696.697840
4261.707101,-536.266849,-0.000000,9474.636058
4261.707416,229.828649,592.164754,9474.636058
4261.707732,536.266849,888.247130,9326.594869
4261.708047,-1302.362347,1110.308913,9622.677246
4261.708362,0.000000,-296.082377,9252.574275
4261.708678,153.219100,-0.000000,9474.636058
4261.708993,306.438199,-296.082377,9918.759623
4261.709308,-383.047749,-0.000000,10066.800811
4261.709623,-995.924147,-74.020594,9252.574275
4261.709939,0.000000,-148.041188,8956.491898
4261.710254,459.657299,-0.000000,9104.533087
4261.710569,306.438199,-0.000000,9104.533087
4261.710885,0.000000,518.144159,9474.636058
4261.711200,-383.047749,-0.000000,9326.594869
4261.711515,689.485948,444.123565,9252.574275
4261.711831,1225.752797,814.226536,9326.594869
4261.712146,1149.143247,814.226536,9178.553681
4261.712461,229.828649,518.144159,9770.718434
4261.712777,689.485948,-0.000000,9474.636058
4261.713092,1072.533697,-0.000000,9696.697840
4261.713407,1072.533697,518.144159,9252.574275
4261.713723,0.000000,518.144159,9770.718434
4261.714038,76.609550,-222.061783,9844.739029
4261.714353,689.485948,-444.123565,9918.759623
4261.714669,1149.143247,-518.144159,9400.615463
4261.714984,842.705048,-148.041188,9474.636058
4261.715299,0.000000,-0.000000,9696.697840
4261.715615,689.485948,-666.185348,9918.759623
4261.715930,1915.238745,-0.000000,9918.759623
4261.716245,2068.457845,370.102971,8808.450710
4261.716560,612.876398,-222.061783,9696.697840
4261.716876,76.609550,-444.123565,9696.697840
4261.717191,153.219100,-1036.288319,9770.718434
4261.717506,1072.533697,-0.000000,8956.491898
4261.717822,0.000000,-518.144159,9696.697840
4261.718137,-1149.143247,-1110.308913,10807.006753
4261.718452,-995.924147,-740.205942,10436.903782
4261.718768,-383.047749,-814.226536,10140.821405
4261.719083,-229.828649,-222.061783,9918.759623
4261.719398,-536.266849,-148.041188,10288.862594
4261.719714,-766.095498,-0.000000,10214.842000
4261.720029,0.000000,74.020594,9696.697840
4261.720344,842.705048,-74.020594,9548.656652
4261.720660,0.000000,370.102971,9474.636058
4261.720975,-383.047749,444.123565,9474.636058
4261.721290,-536.266849,-0.000000,9252.574275
4261.721606,76.609550,-0.000000,9474.636058
4261.721921,689.485948,-0.000000,9474.636058
4261.722236,229.828649,-0.000000,9030.512492
4261.722552,-1455.581446,-0.000000,9400.615463
4261.722867,-1608.800546,-370.102971,9474.636058
4261.723182,-689.485948,-740.205942,9622.677246
4261.723497,76.609550,-666.185348,9400.615463
4261.723813,-995.924147,-296.082377,9474.636058
4261.724128,-1455.581446,-0.000000,9622.677246
4261.724443,-995.924147,592.164754,9400.615463
4261.724759,76.609550,592.164754,8808.450710
4261.725074,76.609550,814.226536,9474.636058
4261.725389,-689.485948,1110.308913,9326.594869
4261.725705,0.000000,888.247130,9252.574275
4261.726020,306.438199,1110.308913,9104.533087
4261.726335,0.000000,518.144159,9474.636058
4261.726651,-1455.581446,148.041188,9918.759623
4261.726966,-1532.190996,-296.082377,10436.903782
4261.727281,-536.266849,-222.061783,10288.862594
4261.727597,383.047749,-148.041188,9844.739029
4261.727912,612.876398,740.205942,9104.533087
4261.728227,-306.438199,592.164754,9178.553681
4261.728543,229.828649,-74.020594,9104.533087
4261.728858,1378.971896,148.041188,9400.615463
4261.729173,1991.848295,666.185348,9030.512492
4261.729488,995.924147,814.226536,9474.636058
4261.729804,612.876398,666.185348,9252.574275
4261.730119,1302.362347,962.267725,9474.636058
4261.730434,1685.410096,814.226536,9622.677246
4261.730750,2068.457845,444.123565,9622.677246
4261.731065,1072.533697,370.102971,9992.780217
4261.731380,-229.828649,444.123565,9992.780217
4261.731696,76.609550,370.102971,10436.903782
4261.732011,1072.533697,592.164754,10140.821405
4261.732326,229.828649,1110.308913,10140.821405
4261.732642,-153.219100,814.226536,9992.780217
4261.732957,153.219100,148.041188,10732.986159
4261.733272,153.219100,962.267725,9770.718434
4261.733588,1225.752797,814.226536,10066.800811
4261.733903,229.828649,1110.308913,9474.636058
4261.734218,0.000000,888.247130,9696.697840
4261.734534,766.095498,1258.350101,9400.615463
4261.734849,995.924147,296.082377,9770.718434
4261.735164,536.266849,888.247130,9696.697840
4261.735480,-1149.143247,-0.000000,10066.800811
4261.735795,-919.314598,-0.000000,9622.677246
4261.736110,0.000000,-296.082377,10436.903782
4261.736425,0.000000,-0.000000,10140.821405
4261.736741,-919.314598,-0.000000,9474.636058
4261.737056,-1378.971896,-592.164754,10066.800811
4261.737371,-229.828649,-370.102971,10140.821405
4261.737687,-229.828649,-296.082377,9252.574275
4261.738002,76.609550,-0.000000,9622.677246
4261.738317,-229.828649,740.205942,9178.553681
4261.738633,-459.657299,592.164754,9104.533087
4261.738948,383.047749,-0.000000,9178.553681
4261.739263,306.438199,-592.164754,8882.471304
4261.739579,-689.485948,-74.020594,9400.615463
4261.739894,-1302.362347,-592.164754,9474.636058
4261.740209,-995.924147,-888.247130,9104.533087
4261.740525,-306.438199,-592.164754,9474.636058
4261.740840,-536.266849,-1036.288319,9622.677246
4261.741155,-1378.971896,-592.164754,9622.677246
4261.741471,-1762.019645,-1480.411884,9696.697840
4261.741786,-612.876398,-1258.350101,9474.636058
4261.742101,306.438199,-666.185348,9474.636058
4261.742417,229.828649,-592.164754,8882.471304
4261.742732,-689.485948,-518.144159,9400.615463
4261.743047,229.828649,-518.144159,9104.533087
4261.743362,1149.143247,-0.000000,9326.594869
4261.743678,2145.067394,-0.000000,9252.574275
4261.743993,995.924147,-0.000000,9030.512492
4261.744308,612.876398,-0.000000,9474.636058
4261.744624,1302.362347,-222.061783,9030.512492
4261.744939,1455.581446,-370.102971,8734.430116
4261.745254,995.924147,-370.102971,9770.718434
4261.745570,0.000000,-518.144159,9918.759623
4261.745885,-459.657299,-74.020594,9474.636058
4261.746200,153.219100,-296.082377,9696.697840
4261.746516,919.314598,-222.061783,9696.697840
4261.746831,0.000000,-0.000000,10288.862594
4261.747146,-689.485948,222.061783,9844.739029
4261.747462,-229.828649,-0.000000,9992.780217
4261.747777,919.314598,222.061783,9326.594869
4261.748092,1072.533697,1110.308913,9548.656652
4261.748408,0.000000,1036.288319,9622.677246
4261.748723,-306.438199,1184.329507,10288.862594
4261.749038,536.266849,1332.370696,9178.553681
4261.749354,1302.362347,370.102971,9326.594869
4261.749669,383.047749,1258.350101,10066.800811
4261.749984,-766.095498,962.267725,9770.718434
4261.750299,-842.705048,518.144159,9696.697840
4261.750615,0.000000,370.102971,10066.800811
4261.750930,76.609550,-0.000000,9844.739029
4261.751245,-842.705048,-0.000000,10362.883188
4261.751561,-1072.533697,370.102971,10214.842000
4261.751876,0.000000,370.102971,10436.903782
4261.752191,919.314598,1036.288319,9104.533087
4261.752507,919.314598,1258.350101,8808.450710
4261.752822,76.609550,1554.432478,10288.862594
4261.753137,0.000000,740.205942,9548.656652
4261.753453,995.924147,740.205942,9326.594869
4261.753768,612.876398,814.226536,9622.677246
4261.754083,0.000000,1036.288319,9696.697840
4261.754399,-689.485948,444.123565,9918.759623
4261.754714,-612.876398,592.164754,10066.800811
4261.755029,-306.438199,-148.041188,10362.883188
4261.755345,-306.438199,-74.020594,9992.780217
4261.755660,-1455.581446,148.041188,9918.759623
4261.755975,-995.924147,-444.123565,10362.883188
4261.756290,0.000000,-74.020594,10362.883188
4261.756606,842.705048,-0.000000,9548.656652
4261.756921,612.876398,592.164754,9178.553681
4261.757236,0.000000,370.102971,9474.636058
4261.757552,459.657299,888.247130,8512.368333
4261.757867,1378.971896,666.185348,8808.450710
4261.758182,1378.971896,370.102971,8734.430116
4261.758497,306.438199,-296.082377,9474.636058
4261.758813,0.000000,-592.164754,9474.636058
4261.759128,-229.828649,-518.144159,9548.656652
4261.759443,0.000000,-962.267725,10140.821405
4261.759758,0.000000,-370.102971,9178.553681
4261.760074,-842.705048,-1036.288319,9548.656652
4261.760389,612.876398,-444.123565,9400.615463
4261.760704,842.705048,-518.144159,8660.409521
4261.761020,842.705048,-0.000000,8734.430116
4261.761335,-229.828649,666.185348,8808.450710
4261.761650,-306.438199,370.102971,8660.409521
4261.761965,383.047749,-222.061783,9548.656652
4261.762281,1072.533697,-222.061783,9252.574275
4261.762596,766.095498,518.144159,9178.553681
4261.762911,-536.266849,-148.041188,9548.656652
4261.763226,-459.657299,-592.164754,9770.718434
4261.763542,0.000000,-518.144159,10288.862594
4261.763857,153.219100,-444.123565,9474.636058
4261.764172,-612.876398,-0.000000,9326.594869
4261.764487,-1225.752797,-0.000000,9178.553681
4261.764803,229.828649,-666.185348,9696.697840
4261.765118,1072.533697,-0.000000,9548.656652
4261.765433,689.485948,1036.288319,8956.491898
4261.765749,-229.828649,518.144159,9104.533087
4261.766064,76.609550,444.123565,9474.636058
4261.766379,1072.533697,-148.041188,10066.800811
4261.766694,1455.581446,-740.205942,9548.656652
4261.767010,153.219100,-0.000000,10066.800811
4261.767325,-842.705048,-0.000000,10584.944971
4261.767640,0.000000,-296.082377,10510.924376
4261.767955,383.047749,-0.000000,9770.718434
4261.768271,612.876398,222.061783,9992.780217
4261.768586,-919.314598,888.247130,10066.800811
4261.768901,-306.438199,-0.000000,10214.842000
4261.769216,153.219100,-222.061783,9992.780217
4261.769532,306.438199,-518.144159,10510.924376
4261.769847,0.000000,-148.041188,10510.924376
4261.770162,-1072.533697,592.164754,9696.697840
4261.770478,-459.657299,-0.000000,9770.718434
4261.770793,919.314598,-148.041188,10214.842000
4261.771108,919.314598,-444.123565,9918.759623
4261.771423,-229.828649,-0.000000,9548.656652
4261.771739,0.000000,-0.000000,9326.594869
4261.772054,76.609550,222.061783,9400.615463
4261.772369,842.705048,444.123565,9178.553681
4261.772684,995.924147,370.102971,9104.533087
4261.773000,-153.219100,444.123565,9326.594869
4261.773315,0.000000,-0.000000,9178.553681
4261.773630,612.876398,148.041188,9992.780217
4261.773945,919.314598,740.205942,9252.574275
4261.774261,0.000000,592.164754,9918.759623
4261.774576,0.000000,296.082377,9696.697840
4261.774891,842.705048,592.164754,9548.656652
4261.775207,1225.752797,592.164754,9252.574275
4261.775522,995.924147,444.123565,9400.615463
4261.775837,153.219100,962.267725,9326.594869
4261.776152,-383.047749,-0.000000,9326.594869
4261.776468,229.828649,296.082377,9474.636058
4261.776783,766.095498,222.061783,9474.636058
4261.777098,0.000000,296.082377,9326.594869
4261.777413,-536.266849,222.061783,9104.533087
4261.777729,-459.657299,-740.205942,9918.759623
4261.778044,0.000000,-370.102971,9918.759623
4261.778359,229.828649,-0.000000,9918.759623
4261.778674,-612.876398,1184.329507,9474.636058
4261.778990,0.000000,444.123565,9474.636058
4261.779305,229.828649,666.185348,10066.800811
4261.779620,689.485948,444.123565,9548.656652
4261.779936,536.266849,444.123565,9918.759623
4261.780251,-689.485948,1332.370696,10436.903782
4261.780566,-229.828649,444.123565,9326.594869
4261.780881,689.485948,-148.041188,9696.697840
4261.781197,919.314598,444.123565,9474.636058
4261.781512,-383.047749,-0.000000,9622.677246
4261.781827,-689.485948,-222.061783,9696.697840
4261.782142,0.000000,-444.123565,9992.780217
4261.782458,0.000000,-0.000000,10066.800811
4261.782773,0.000000,-74.020594,9400.615463
4261.783088,-536.266849,592.164754,9400.615463
4261.783403,0.000000,-148.041188,9474.636058
4261.783719,153.219100,370.102971,9400.615463
4261.784034,1072.533697,814.226536,9400.615463
4261.784349,229.828649,1258.350101,9474.636058
4261.784664,-459.657299,444.123565,9770.718434
4261.784980,536.266849,-148.041188,10066.800811
4261.785295,1455.581446,148.041188,9326.594869
4261.785610,383.047749,-444.123565,9474.636058
4261.785926,-842.705048,-74.020594,10362.883188
4261.786241,-612.876398,-148.041188,9844.739029
4261.786556,766.095498,-0.000000,9178.553681
4261.786871,1149.143247,-296.082377,9400.615463
4261.787187,0.000000,-148.041188,9252.574275
4261.787502,-153.219100,-222.061783,9104.533087
4261.787817,459.657299,-370.102971,9178.553681
4261.788132,1302.362347,-0.000000,9474.636058
4261.788448,1455.581446,222.061783,9696.697840
4261.788763,153.219100,444.123565,9474.636058
4261.789078,76.609550,-0.000000,8808.450710
4261.789393,766.095498,-444.123565,9622.677246
4261.789709,1302.362347,-0.000000,8808.450710
4261.790024,612.876398,-0.000000,10140.821405
4261.790339,-689.485948,444.123565,9252.574275
4261.790655,-536.266849,-740.205942,9844.739029
4261.790970,306.438199,-222.061783,10066.800811
4261.791285,0.000000,-1036.288319,9622.677246
4261.791600,-1072.533697,-888.247130,9844.739029
4261.791916,-1302.362347,-1184.329507,10214.842000
4261.792231,0.000000,-814.226536,9696.697840
4261.792546,995.924147,-370.102971,9400.615463
4261.792861,689.485948,-0.000000,9252.574275
4261.793177,-995.924147,-0.000000,10214.842000
4261.793492,76.609550,296.082377,8808.450710
4261.793807,766.095498,-0.000000,8512.368333
4261.794122,1685.410096,-0.000000,8660.409521
4261.794438,536.266849,-0.000000,9030.512492
4261.794753,-766.095498,222.061783,9326.594869
4261.795068,0.000000,-148.041188,9474.636058
4261.795384,383.047749,-0.000000,9474.636058
4261.795699,0.000000,-0.000000,9400.615463
4261.796014,-1225.752797,148.041188,9548.656652
4261.796329,-1072.533697,-0.000000,10288.862594
4261.796645,-995.924147,-0.000000,9844.739029
4261.796960,-612.876398,592.164754,9696.697840
4261.797275,-842.705048,518.144159,10658.965565
4261.797590,-995.924147,1332.370696,10436.903782
4261.797906,-459.657299,592.164754,9400.615463
4261.798221,766.095498,1406.391290,9622.677246
4261.798536,766.095498,1702.473667,9770.718434
4261.798851,-612.876398,1406.391290,9326.594869
4261.799167,-306.438199,444.123565,9992.780217
4261.799482,689.485948,1036.288319,9622.677246
4261.799797,1225.752797,666.185348,9918.759623
4261.800113,76.609550,814.226536,9104.533087
4261.800428,-1149.143247,592.164754,10362.883188
4261.800743,76.609550,-518.144159,11103.089130
4261.801058,842.705048,222.061783,9918.759623
4261.801374,995.924147,740.205942,9030.512492
4261.801689,229.828649,148.041188,10214.842000
4261.802004,-229.828649,222.061783,9992.780217
4261.802319,536.266849,-0.000000,9844.739029
4261.802635,1302.362347,592.164754,10066.800811
4261.802950,1225.752797,962.267725,9992.780217
4261.803265,0.000000,222.061783,9178.553681
4261.803580,0.000000,-148.041188,9326.594869
4261.803896,383.047749,-0.000000,10066.800811
4261.804211,536.266849,-222.061783,9696.697840
4261.804526,-153.219100,444.123565,9400.615463
4261.804842,-995.924147,296.082377,9178.553681
4261.805157,76.609550,-518.144159,9992.780217
4261.805472,76.609550,-222.061783,9696.697840
4261.805787,0.000000,-74.020594,9474.636058
4261.806103,-1225.752797,-0.000000,9548.656652
4261.806418,-536.266849,-0.000000,9104.533087
4261.806733,536.266849,74.020594,9252.574275
4261.807048,689.485948,518.144159,9326.594869
4261.807364,-153.219100,962.267725,8882.471304
4261.807679,-536.266849,-0.000000,9178.553681
4261.807994,229.828649,-296.082377,9622.677246
4261.808309,1149.143247,-0.000000,9178.553681
4261.808625,536.266849,296.082377,9030.512492
4261.808940,-689.485948,518.144159,9400.615463
4261.809255,-612.876398,518.144159,9474.636058
4261.809571,0.000000,-74.020594,9326.594869
4261.809886,459.657299,222.061783,9030.512492
4261.810201,306.438199,-296.082377,9400.615463
4261.810516,-995.924147,148.041188,8956.491898
4261.810832,0.000000,-0.000000,9474.636058
4261.811147,76.609550,666.185348,9622.677246
4261.811462,0.000000,-0.000000,10140.821405
4261.811777,-536.266849,740.205942,9474.636058
4261.812093,-766.095498,-0.000000,8808.450710
4261.812408,229.828649,-666.185348,9474.636058
4261.812723,1608.800546,-518.144159,9992.780217
4261.813038,229.828649,-148.041188,9918.759623
4261.813354,-1378.971896,888.247130,9844.739029
4261.813669,-1302.362347,-148.041188,9696.697840
4261.813984,536.266849,-370.102971,10584.944971
4261.814300,1072.533697,296.082377,9622.677246
4261.814615,76.609550,148.041188,10140.821405
4261.814930,-459.657299,-0.000000,10732.986159
4261.815245,153.219100,-148.041188,9770.718434
4261.815561,612.876398,444.123565,9548.656652
4261.815876,1149.143247,222.061783,9326.594869
4261.816191,0.000000,370.102971,10362.883188
4261.816506,229.828649,-370.102971,10214.842000
4261.816822,1302.362347,-592.164754,9696.697840
4261.817137,1072.533697,740.205942,9548.656652
4261.817452,153.219100,296.082377,9178.553681
4261.817767,-995.924147,296.082377,10658.965565
4261.818083,76.609550,370.102971,9992.780217
4261.818398,1455.581446,-518.144159,9918.759623
4261.818713,1455.581446,-74.020594,9992.780217
4261.819029,0.000000,962.267725,10066.800811
4261.819344,-766.095498,814.226536,9770.718434
4261.819659,229.828649,518.144159,9474.636058
4261.819974,842.705048,-148.041188,9770.718434
4261.820290,766.095498,-0.000000,9400.615463
4261.820605,-383.047749,-0.000000,9548.656652
4261.820920,153.219100,-666.185348,9326.594869
4261.821235,536.266849,-370.102971,9474.636058
4261.821551,1149.143247,-0.000000,8586.388927
4261.821866,0.000000,-148.041188,9548.656652
4261.822181,-306.438199,148.041188,9104.533087
4261.822496,229.828649,-370.102971,9770.718434
4261.822812,766.095498,148.041188,9326.594869
4261.823127,383.047749,222.061783,8882.471304
4261.823442,-842.705048,-0.000000,9326.594869
4261.823758,-229.828649,-1258.350101,10066.800811
4261.824073,0.000000,-592.164754,9918.759623
4261.824388,995.924147,-370.102971,9030.512492
4261.824703,0.000000,-0.000000,9474.636058
4261.825019,-766.095498,888.247130,9400.615463
4261.825334,0.000000,-370.102971,9400.615463
4261.825649,919.314598,-296.082377,9474.636058
4261.825964,612.876398,-0.000000,8660.409521
4261.826280,-842.705048,-74.020594,8808.450710
4261.826595,76.609550,-666.185348,9326.594869
4261.826910,229.828649,-370.102971,9622.677246
4261.827225,689.485948,-296.082377,9252.574275
4261.827541,-919.314598,-222.061783,9252.574275
4261.827856,-1072.533697,518.144159,9030.512492
4261.828171,0.000000,-0.000000,9400.615463
4261.828486,383.047749,444.123565,9326.594869
4261.828802,383.047749,740.205942,9474.636058
4261.829117,-766.095498,592.164754,9622.677246
4261.829432,-766.095498,370.102971,9548.656652
4261.829748,306.438199,148.041188,10140.821405
4261.830063,919.314598,814.226536,9696.697840
4261.830378,229.828649,1332.370696,9622.677246
4261.830693,-766.095498,1332.370696,9548.656652
4261.831009,-383.047749,370.102971,9844.739029
4261.831324,459.657299,1110.308913,10214.842000
4261.831639,689.485948,962.267725,10362.883188
4261.831954,-612.876398,592.164754,10066.800811
4261.832270,-612.876398,740.205942,9548.656652
4261.832585,153.219100,222.061783,9844.739029
4261.832900,536.266849,666.185348,10362.883188
4261.833215,76.609550,1036.288319,9770.718434
4261.833531,-1149.143247,1480.411884,10140.821405
4261.833846,76.609550,444.123565,10288.862594
4261.834161,-306.438199,814.226536,9844.739029
4261.834477,229.828649,592.164754,10214.842000
4261.834792,-383.047749,518.144159,9474.636058
4261.835107,-1225.752797,-0.000000,9918.759623
4261.835422,0.000000,-888.247130,10140.821405
4261.835738,1072.533697,-370.102971,9696.697840
4261.836053,306.438199,296.082377,9770.718434
4261.836368,-1302.362347,962.267725,10066.800811
4261.836683,-689.485948,148.041188,9992.780217
4261.836999,612.876398,-0.000000,9770.718434
4261.837314,919.314598,-740.205942,9918.759623
4261.837629,612.876398,222.061783,9178.553681
4261.837944,-306.438199,-0.000000,9326.594869
4261.838260,306.438199,-296.082377,9622.677246
4261.838575,1455.581446,-222.061783,9474.636058
4261.838890,1608.800546,-0.000000,9326.594869
4261.839206,383.047749,518.144159,9474.636058
4261.839521,-689.485948,666.185348,9178.553681
4261.839836,459.657299,-148.041188,9030.512492
4261.840151,919.314598,-370.102971,9622.677246
4261.840467,153.219100,-148.041188,9252.574275
4261.840782,-1072.533697,-0.000000,8956.491898
4261.841097,-536.266849,-962.267725,9696.697840
4261.841412,229.828649,-888.247130,9918.759623
4261.841728,383.047749,-740.205942,9252.574275
4261.842043,-153.219100,1332.370696,9178.553681
4261.842358,-612.876398,1110.308913,9252.574275
4261.842673,766.095498,296.082377,9252.574275
4261.842989,1455.581446,-444.123565,9030.512492
4261.843304,1149.143247,-222.061783,9252.574275
4261.843619,-306.438199,-0.000000,9178.553681
4261.843935,229.828649,-74.020594,9474.636058
4261.844250,766.095498,222.061783,9992.780217
4261.844565,995.924147,-0.000000,8882.471304
4261.844880,229.828649,-0.000000,9104.533087
4261.845196,-612.876398,-740.205942,9400.615463
4261.845511,0.000000,-1110.308913,9400.615463
4261.845826,766.095498,-814.226536,9548.656652
4261.846141,153.219100,-1036.288319,9104.533087
4261.846457,-1149.143247,-518.144159,9548.656652
4261.846772,0.000000,-296.082377,10066.800811
4261.847087,995.924147,-666.185348,9696.697840
4261.847402,919.314598,74.020594,9104.533087
4261.847718,76.609550,518.144159,9696.697840
4261.848033,-995.924147,1110.308913,10288.862594
4261.848348,-459.657299,370.102971,10140.821405
4261.848664,612.876398,-0.000000,10584.944971
4261.848979,229.828649,-296.082377,9548.656652
4261.849294,-689.485948,370.102971,9696.697840
4261.849609,-1149.143247,-814.226536,10881.027347
4261.849925,-536.266849,444.123565,9548.656652
4261.850240,0.000000,592.164754,10436.903782
4261.850555,-306.438199,518.144159,9548.656652
4261.850870,-689.485948,1110.308913,9474.636058
4261.851186,-612.876398,-666.185348,10140.821405
4261.851501,153.219100,-0.000000,9400.615463
4261.851816,612.876398,-0.000000,9992.780217
4261.852131,-536.266849,962.267725,9326.594869
4261.852447,-536.266849,666.185348,8734.430116
4261.852762,459.657299,444.123565,10584.944971
4261.853077,1072.533697,814.226536,9178.553681
4261.853393,919.314598,666.185348,9326.594869
4261.853708,-459.657299,1406.391290,9548.656652
4261.854023,-459.657299,370.102971,9252.574275
4261.854338,306.438199,666.185348,9918.759623
4261.854654,229.828649,370.102971,9548.656652
4261.854969,-383.047749,962.267725,9252.574275
4261.855284,-919.314598,370.102971,9474.636058
4261.855599,-306.438199,-592.164754,9326.594869
4261.855915,919.314598,-0.000000,10066.800811
4261.856230,612.876398,888.247130,8956.491898
4261.856545,-459.657299,1480.411884,9104.533087
4261.856860,306.438199,666.185348,9104.533087
4261.857176,1302.362347,-0.000000,9474.636058
4261.857491,2374.896044,222.061783,8660.409521
4261.857806,1532.190996,296.082377,9326.594869
4261.858122,0.000000,888.247130,9252.574275
4261.858437,536.266849,-666.185348,9548.656652
4261.858752,1225.752797,-518.144159,10066.800811
4261.859067,1225.752797,-296.082377,9474.636058
4261.859383,-153.219100,-444.123565,9844.739029
4261.859698,0.000000,-518.144159,9622.677246
4261.860013,842.705048,-370.102971,10066.800811
4261.860328,1378.971896,-74.020594,10214.842000
4261.860644,383.047749,370.102971,9548.656652
4261.860959,0.000000,518.144159,9400.615463
4261.861274,1072.533697,-0.000000,9474.636058
4261.861590,2068.457845,370.102971,9918.759623
4261.861905,1149.143247,1258.350101,9104.533087
4261.862221,-306.438199,592.164754,9770.718434
4261.862536,-536.266849,814.226536,10066.800811
4261.862852,153.219100,-0.000000,9696.697840
4261.863167,536.266849,-0.000000,9400.615463
4261.863482,0.000000,-296.082377,9696.697840
4261.863798,-1991.848295,444.123565,9992.780217
4261.864113,-1991.848295,-296.082377,10288.862594
4261.864429,-1072.533697,-0.000000,10288.862594
4261.864744,-995.924147,222.061783,10362.883188
4261.865060,-689.485948,296.082377,9400.615463
4261.865375,-1302.362347,592.164754,10140.821405
4261.865690,-383.047749,148.041188,9326.594869
4261.866006,306.438199,296.082377,9770.718434
4261.866321,153.219100,444.123565,9548.656652
4261.866637,-459.657299,518.144159,9474.636058
4261.866952,-612.876398,666.185348,9548.656652
4261.867268,612.876398,-74.020594,9474.636058
4261.867583,459.657299,-296.082377,9030.512492
4261.867898,0.000000,-888.247130,8956.491898
4261.868214,-1685.410096,-148.041188,9696.697840
4261.868529,-1378.971896,-888.247130,9474.636058
4261.868845,-306.438199,-666.185348,9770.718434
4261.869160,-383.047749,-814.226536,9770.718434
4261.869475,-1302.362347,-222.061783,9326.594869
4261.869791,-1455.581446,-592.164754,9918.759623
4261.870106,-383.047749,-1184.329507,9844.739029
4261.870422,229.828649,-222.061783,9474.636058
4261.870737,536.266849,518.144159,9474.636058
4261.871053,-842.705048,740.205942,9770.718434
4261.871368,76.609550,-148.041188,9548.656652
4261.871683,1455.581446,296.082377,9326.594869
4261.871999,1302.362347,370.102971,8734.430116
4261.872314,229.828649,518.144159,9326.594869
4261.872630,-383.047749,-296.082377,10732.986159
4261.872945,536.266849,-0.000000,9696.697840
4261.873261,995.924147,-740.205942,10436.903782
4261.873576,1149.143247,-592.164754,9992.780217
4261.873891,0.000000,222.061783,9252.574275
4261.874207,153.219100,-148.041188,9918.759623
4261.874522,1608.800546,814.226536,9326.594869
4261.874838,2374.896044,1036.288319,9326.594869
4261.875153,1532.190996,1036.288319,9030.512492
4261.875469,842.705048,740.205942,8734.430116
4261.875784,1608.800546,-0.000000,9548.656652
4261.876099,2068.457845,666.185348,9992.780217
4261.876415,1608.800546,1554.432478,9400.615463
4261.876730,0.000000,1036.288319,9474.636058
4261.877046,-383.047749,296.082377,9696.697840
4261.877361,229.828649,222.061783,9844.739029
4261.877676,689.485948,444.123565,9844.739029
4261.877992,0.000000,518.144159,9918.759623
4261.878307,-1608.800546,666.185348,9548.656652
4261.878623,-612.876398,-518.144159,9770.718434
4261.878938,229.828649,444.123565,10066.800811
4261.879254,76.609550,592.164754,9474.636058
4261.879569,-766.095498,814.226536,9104.533087
4261.879884,-459.657299,148.041188,9252.574275
4261.880200,383.047749,-74.020594,9474.636058
4261.880515,689.485948,296.082377,10140.821405
4261.880831,153.219100,666.185348,9474.636058
4261.881146,-995.924147,1036.288319,9474.636058
4261.881462,0.000000,-370.102971,9474.636058
4261.881777,612.876398,-592.164754,10436.903782
4261.882092,0.000000,-74.020594,10140.821405
4261.882408,-1378.971896,592.164754,10436.903782
4261.882723,-1302.362347,1036.288319,9992.780217
4261.883039,-459.657299,-0.000000,10362.883188
4261.883354,766.095498,-0.000000,10214.842000
4261.883670,766.095498,296.082377,9400.615463
4261.883985,-1378.971896,592.164754,10658.965565
4261.884300,-1072.533697,-0.000000,9770.718434
4261.884616,306.438199,518.144159,9992.780217
4261.884931,689.485948,740.205942,9770.718434
4261.885247,0.000000,1036.288319,9474.636058
4261.885562,-1149.143247,518.144159,10140.821405
4261.885877,-536.266849,-0.000000,9696.697840
4261.886193,459.657299,-222.061783,9770.718434
4261.886508,229.828649,740.205942,8808.450710
4261.886824,-1072.533697,740.205942,9400.615463
4261.887139,-919.314598,222.061783,9548.656652
4261.887455,229.828649,-666.185348,9548.656652
4261.887770,995.924147,-296.082377,9622.677246
4261.888085,383.047749,222.061783,9030.512492
4261.888401,-306.438199,296.082377,9548.656652
4261.888716,229.828649,-148.041188,10214.842000
4261.889032,536.266849,370.102971,9326.594869
4261.889347,1455.581446,-740.205942,8438.347739
4261.889663,383.047749,444.123565,9030.512492
4261.889978,76.609550,814.226536,8438.347739
4261.890293,1149.143247,-962.267725,8882.471304
4261.890609,1532.190996,-0.000000,9548.656652
4261.890924,1378.971896,370.102971,8512.368333
4261.891240,-612.876398,296.082377,9400.615463
4261.891555,-459.657299,-74.020594,10066.800811
4261.891870,229.828649,-962.267725,10288.862594
4261.892186,689.485948,-1184.329507,9918.759623
4261.892501,-536.266849,-518.144159,10362.883188
4261.892817,-1225.752797,-666.185348,9844.739029
4261.893132,-76.609550,-888.247130,10066.800811
4261.893448,919.314598,-0.000000,9178.553681
4261.893763,1225.752797,-0.000000,8808.450710
4261.894078,-536.266849,1036.288319,9622.677246
4261.894394,0.000000,666.185348,9104.533087
4261.894709,612.876398,-222.061783,9548.656652
4261.895025,1378.971896,-0.000000,9400.615463
4261.895340,612.876398,814.226536,9474.636058
4261.895656,-229.828649,444.123565,9474.636058
4261.895971,-306.438199,-888.247130,10140.821405
4261.896286,459.657299,-148.041188,11029.068536
4261.896602,0.000000,-0.000000,9474.636058
4261.896917,-612.876398,592.164754,9474.636058
4261.897233,-536.266849,222.061783,10288.862594
4261.897548,0.000000,148.041188,9992.780217
4261.897864,612.876398,296.082377,9326.594869
4261.898179,0.000000,-0.000000,9252.574275
4261.898494,-612.876398,-74.020594,10584.944971
4261.898810,0.000000,222.061783,9104.533087
4261.899125,1072.533697,148.041188,10288.862594
4261.899441,536.266849,740.205942,9622.677246
4261.899756,-459.657299,296.082377,9252.574275
4261.900071,-995.924147,-0.000000,9474.636058
4261.900387,229.828649,-0.000000,9178.553681
4261.900702,76.609550,-0.000000,10510.924376
4261.901018,0.000000,-0.000000,9548.656652
4261.901333,-1302.362347,444.123565,9400.615463
4261.901649,-459.657299,-888.247130,9548.656652
4261.901964,536.266849,-222.061783,9178.553681
4261.902279,459.657299,-0.000000,9474.636058
4261.902595,0.000000,666.185348,9178.553681
4261.902910,0.000000,222.061783,9548.656652
4261.903226,842.705048,-148.041188,8882.471304
4261.903541,766.095498,-518.144159,9548.656652
4261.903857,1072.533697,148.041188,8956.491898
4261.904172,-229.828649,148.041188,9474.636058
4261.904487,153.219100,-148.041188,9548.656652
4261.904803,612.876398,-0.000000,9548.656652
4261.905118,919.314598,370.102971,9548.656652
4261.905434,-153.219100,814.226536,9474.636058
4261.905749,-1532.190996,814.226536,9622.677246
4261.906065,-536.266849,-592.164754,10658.965565
4261.906380,0.000000,-222.061783,10362.883188
4261.906695,229.828649,-0.000000,10584.944971
4261.907011,-1149.143247,370.102971,10288.862594
4261.907326,-689.485948,592.164754,9474.636058
4261.907642,1225.752797,-0.000000,9696.697840
4261.907957,1072.533697,740.205942,9918.759623
4261.908272,766.095498,1776.494261,9474.636058
4261.908588,-153.219100,1554.432478,9252.574275
4261.908903,383.047749,814.226536,9104.533087
4261.909219,1149.143247,296.082377,9770.718434
4261.909534,995.924147,370.102971,8882.471304
4261.909850,-459.657299,518.144159,9474.636058
4261.910165,-1302.362347,-74.020594,9992.780217
4261.910480,0.000000,-296.082377,9548.656652
4261.910796,612.876398,-74.020594,9622.677246
4261.911111,383.047749,592.164754,9474.636058
4261.911427,-842.705048,1110.308913,9918.759623
4261.911742,-229.828649,296.082377,9548.656652
4261.912058,1072.533697,296.082377,9326.594869
4261.912373,1378.971896,592.164754,9326.594869
4261.912688,76.609550,1110.308913,8882.471304
4261.913004,0.000000,1110.308913,9474.636058
4261.913319,689.485948,444.123565,9696.697840
4261.913635,1225.752797,222.061783,9918.759623
4261.913950,1225.752797,370.102971,9178.553681
4261.914265,-612.876398,-0.000000,9696.697840
4261.914581,-689.485948,-814.226536,10288.862594
4261.914896,153.219100,-814.226536,9992.780217
4261.915212,306.438199,-222.061783,9992.780217
4261.915527,-153.219100,-518.144159,9474.636058
4261.915843,-459.657299,-592.164754,10214.842000
4261.916158,306.438199,-518.144159,9548.656652
4261.916473,1378.971896,-0.000000,9770.718434
4261.916789,1072.533697,370.102971,9474.636058
4261.917104,0.000000,1036.288319,9030.512492
4261.917420,229.828649,592.164754,9844.739029
4261.917735,536.266849,-0.000000,10066.800811
4261.918051,1302.362347,-814.226536,10658.965565
4261.918366,689.485948,-0.000000,8956.491898
4261.918681,-766.095498,222.061783,9696.697840
4261.918997,0.000000,-370.102971,10066.800811
4261.919312,0.000000,-1036.288319,10066.800811
4261.919628,76.609550,-370.102971,9474.636058
4261.919943,-536.266849,370.102971,9030.512492
4261.920259,-1532.190996,592.164754,9326.594869
4261.920574,0.000000,-888.247130,9178.553681
4261.920889,612.876398,-74.020594,9474.636058
4261.921205,153.219100,592.164754,8512.368333
4261.921520,-536.266849,740.205942,8290.306550
4261.921836,-229.828649,-296.082377,9622.677246
4261.922151,536.266849,-74.020594,9622.677246
4261.922466,1302.362347,-0.000000,9696.697840
4261.922782,459.657299,1110.308913,8364.327145
4261.923097,-383.047749,740.205942,8586.388927
4261.923413,229.828649,-74.020594,8364.327145
4261.923728,1302.362347,-222.061783,9474.636058
4261.924044,689.485948,-148.041188,9104.533087
4261.924359,-919.314598,-0.000000,9252.574275
4261.924674,-1225.752797,-1110.308913,9696.697840
4261.924990,-919.314598,-1480.411884,10732.986159
4261.925305,-229.828649,-1184.329507,10140.821405
4261.925621,-919.314598,-592.164754,9844.739029
4261.925936,-1302.362347,-74.020594,10214.842000
4261.926252,76.609550,-74.020594,9474.636058
4261.926567,1455.581446,518.144159,10288.862594
4261.926882,1685.410096,1110.308913,9178.553681
4261.927198,842.705048,1702.473667,9104.533087
4261.927513,766.095498,1406.391290,9400.615463
4261.927829,1608.800546,1110.308913,8956.491898
4261.928144,1608.800546,888.247130,9548.656652
4261.928460,612.876398,1036.288319,9474.636058
4261.928775,-1225.752797,666.185348,9696.697840
4261.929090,-612.876398,-1110.308913,10362.883188
4261.929406,-383.047749,-1332.370696,10658.965565
4261.929721,0.000000,-814.226536,10214.842000
4261.930037,-995.924147,222.061783,9918.759623
4261.930352,-995.924147,-0.000000,10288.862594
4261.930667,306.438199,444.123565,9622.677246
4261.930983,1149.143247,740.205942,9844.739029
4261.931298,1455.581446,1628.453072,9252.574275
4261.931614,459.657299,1776.494261,9548.656652
4261.931929,919.314598,888.247130,9474.636058
4261.932245,1915.238745,1184.329507,9474.636058
4261.932560,1762.019645,888.247130,10066.800811
4261.932875,306.438199,962.267725,9918.759623
4261.933191,-919.314598,740.205942,9770.718434
4261.933506,-306.438199,-518.144159,10362.883188
4261.933822,0.000000,-592.164754,10288.862594
4261.934137,0.000000,-370.102971,9770.718434
4261.934453,-1762.019645,296.082377,9474.636058
4261.934768,-1685.410096,-518.144159,9770.718434
4261.935083,-612.876398,-1406.391290,9844.739029
4261.935399,459.657299,-370.102971,9178.553681
4261.935714,383.047749,370.102971,8660.409521
4261.936030,-1072.533697,740.205942,9326.594869
4261.936345,0.000000,222.061783,9474.636058
4261.936661,1225.752797,148.041188,9326.594869
4261.936976,919.314598,1036.288319,8882.471304
4261.937291,-306.438199,888.247130,9178.553681
4261.937607,-306.438199,-0.000000,8882.471304
4261.937922,0.000000,-1258.350101,10066.800811
4261.938238,153.219100,-666.185348,9400.615463
4261.938553,-383.047749,-296.082377,10214.842000
4261.938868,-1915.238745,-0.000000,10066.800811
4261.939184,-1455.581446,-740.205942,10510.924376
4261.939499,-306.438199,-592.164754,9474.636058
4261.939815,383.047749,-962.267725,9844.739029
4261.940130,153.219100,-0.000000,9252.574275
4261.940446,-536.266849,814.226536,8808.450710
4261.940761,383.047749,296.082377,9326.594869
4261.941076,995.924147,444.123565,9030.512492
4261.941392,842.705048,1036.288319,9474.636058
4261.941707,-306.438199,1406.391290,8586.388927
4261.942023,0.000000,-370.102971,9474.636058
4261.942338,383.047749,-518.144159,10140.821405
4261.942654,383.047749,-0.000000,10066.800811
4261.942969,-766.095498,-0.000000,9252.574275
4261.943284,-1608.800546,-0.000000,10140.821405
4261.943600,-536.266849,-1036.288319,10288.862594
4261.943915,842.705048,-592.164754,10584.944971
4261.944231,919.314598,444.123565,9474.636058
4261.944546,306.438199,1258.350101,9252.574275
4261.944861,306.438199,148.041188,9326.594869
4261.945177,1991.848295,-74.020594,9252.574275
4261.945492,2451.505594,222.061783,9622.677246
4261.945808,1991.848295,888.247130,9326.594869
4261.946123,919.314598,814.226536,9178.553681
4261.946439,1685.410096,-222.061783,9178.553681
4261.946754,1915.238745,-222.061783,10140.821405
4261.947069,1149.143247,-0.000000,9326.594869
4261.947385,0.000000,296.082377,9844.739029
4261.947700,-459.657299,-0.000000,9992.780217
4261.948016,459.657299,-1036.288319,9992.780217
4261.948331,383.047749,-444.123565,10362.883188
4261.948647,-153.219100,-148.041188,9622.677246
4261.948962,-1225.752797,-0.000000,10214.842000
4261.949277,-383.047749,666.185348,9474.636058
4261.949593,689.485948,-0.000000,10214.842000
4261.949908,995.924147,740.205942,9918.759623
4261.950224,-153.219100,962.267725,9992.780217
4261.950539,-919.314598,1184.329507,9400.615463
4261.950855,0.000000,-370.102971,9844.739029
4261.951170,153.219100,-370.102971,10436.903782
4261.951485,0.000000,666.185348,9548.656652
4261.951801,-1762.019645,740.205942,9844.739029
4261.952116,-2145.067394,-222.061783,10066.800811
4261.952432,-612.876398,-962.267725,10140.821405
4261.952747,-383.047749,-518.144159,9770.718434
4261.953062,-1149.143247,222.061783,9622.677246
4261.953378,-1762.019645,370.102971,9844.739029
4261.953693,-919.314598,-222.061783,9400.615463
4261.954009,536.266849,-0.000000,9474.636058
4261.954324,689.485948,740.205942,8734.430116
4261.954640,-383.047749,1554.432478,8808.450710
4261.954955,-229.828649,962.267725,8808.450710
4261.955270,612.876398,666.185348,8956.491898
4261.955586,689.485948,1258.350101,9326.594869
4261.955901,383.047749,1184.329507,8660.409521
4261.956217,-383.047749,1036.288319,8808.450710
4261.956532,-306.438199,-444.123565,9252.574275
4261.956848,383.047749,-1110.308913,10510.924376
4261.957163,0.000000,-1036.288319,10214.842000
4261.957478,-1685.410096,-0.000000,9770.718434
4261.957794,-1532.190996,-0.000000,9992.780217
4261.958109,-153.219100,-1332.370696,9992.780217
4261.958425,1149.143247,-888.247130,10214.842000
4261.958740,1302.362347,222.061783,8734.430116
4261.959056,383.047749,592.164754,9104.533087
4261.959371,1072.533697,814.226536,9178.553681
4261.959686,2374.896044,592.164754,9474.636058
4261.960002,3294.210641,1332.370696,8364.327145
4261.960317,1991.848295,1480.411884,9178.553681
4261.960633,842.705048,1110.308913,9474.636058
4261.960948,1149.143247,-370.102971,9400.615463
4261.961264,1302.362347,-444.123565,10436.903782
4261.961579,383.047749,-222.061783,10140.821405
4261.961894,-1302.362347,-0.000000,9918.759623
4261.962210,-842.705048,-814.226536,10436.903782
4261.962525,383.047749,-1184.329507,10584.944971
4261.962841,842.705048,-0.000000,10214.842000
4261.963156,-229.828649,962.267725,8956.491898
4261.963472,-1149.143247,1036.288319,9918.759623
4261.963787,153.219100,814.226536,8882.471304
4261.964102,1302.362347,1258.350101,9992.780217
4261.964418,1072.533697,1776.494261,8808.450710
4261.964733,0.000000,1480.411884,9400.615463
4261.965049,-306.438199,666.185348,9252.574275
4261.965364,229.828649,-0.000000,9918.759623
4261.965680,0.000000,740.205942,10066.800811
4261.965995,-842.705048,740.205942,9548.656652
4261.966310,-1685.410096,-222.061783,10140.821405
4261.966626,-995.924147,-962.267725,9696.697840
4261.966941,-306.438199,-1406.391290,10288.862594
4261.967257,-612.876398,-666.185348,9474.636058
4261.967572,-1455.581446,-0.000000,9474.636058
4261.967888,-1302.362347,-148.041188,9770.718434
4261.968203,459.657299,-370.102971,9400.615463
4261.968519,995.924147,-148.041188,9178.553681
4261.968834,612.876398,666.185348,8364.327145
4261.969149,-689.485948,814.226536,9030.512492
4261.969465,0.000000,-0.000000,9104.533087
4261.969780,229.828649,-740.205942,9474.636058
4261.970096,153.219100,-148.041188,9622.677246
4261.970411,-995.924147,296.082377,9474.636058
4261.970727,-1991.848295,-592.164754,9474.636058
4261.971042,-689.485948,-1554.432478,9918.759623
4261.971357,-153.219100,-1480.411884,9992.780217
4261.971673,-766.095498,-740.205942,9474.636058
4261.971988,-1991.848295,-74.020594,9844.739029
4261.972304,-612.876398,-666.185348,9400.615463
4261.972619,995.924147,-0.000000,9474.636058
4261.972935,1302.362347,444.123565,9178.553681
4261.973250,536.266849,1184.329507,8290.306550
4261.973565,0.000000,296.082377,9474.636058
4261.973881,1225.752797,-0.000000,9400.615463
4261.974196,2221.676944,-0.000000,9104.533087
4261.974512,1302.362347,666.185348,9474.636058
4261.974827,0.000000,740.205942,9770.718434
4261.975143,-306.438199,148.041188,10140.821405
4261.975458,766.095498,-444.123565,9992.780217
4261.975773,1225.752797,-592.164754,10288.862594
4261.976089,612.876398,-0.000000,9622.677246
4261.976404,-306.438199,814.226536,9622.677246
4261.976720,229.828649,-0.000000,9622.677246
4261.977035,1762.019645,148.041188,9548.656652
4261.977351,2145.067394,1110.308913,9326.594869
4261.977666,383.047749,1628.453072,8882.471304
4261.977981,0.000000,740.205942,9622.677246
4261.978297,1455.581446,222.061783,9474.636058
4261.978612,1225.752797,296.082377,10140.821405
4261.978928,306.438199,666.185348,9104.533087
4261.979243,-1149.143247,-0.000000,10584.944971
4261.979559,-689.485948,-592.164754,10288.862594
4261.979874,306.438199,-222.061783,10362.883188
4261.980190,766.095498,888.247130,9400.615463
4261.980505,-995.924147,666.185348,9548.656652
4261.980820,-1225.752797,222.061783,10214.842000
4261.981136,0.000000,-444.123565,9696.697840
4261.981451,689.485948,296.082377,10066.800811
4261.981767,919.314598,-0.000000,9104.533087
4261.982082,-919.314598,740.205942,9696.697840
4261.982398,76.609550,-222.061783,10214.842000
4261.982713,536.266849,-740.205942,8956.491898
4261.983028,995.924147,296.082377,9474.636058
4261.983344,306.438199,592.164754,8290.306550
4261.983659,-1455.581446,444.123565,9622.677246
4261.983975,-536.266849,518.144159,9474.636058
4261.984290,-229.828649,-444.123565,9918.759623
4261.984606,0.000000,-592.164754,9548.656652
4261.984921,-2145.067394,-148.041188,9622.677246
4261.985236,-1762.019645,-148.041188,9622.677246
4261.985552,-306.438199,-148.041188,10066.800811
4261.985867,76.609550,518.144159,10288.862594
4261.986183,-153.219100,1406.391290,8956.491898
4261.986498,-1149.143247,1110.308913,9326.594869
4261.986814,0.000000,370.102971,9474.636058
4261.987129,1072.533697,148.041188,9104.533087
4261.987444,1225.752797,222.061783,9252.574275
4261.987760,229.828649,1628.453072,8364.327145
4261.988075,229.828649,-148.041188,9030.512492
4261.988391,1685.410096,-296.082377,9104.533087
4261.988706,2528.115143,296.082377,9030.512492
4261.989022,1762.019645,666.185348,8216.285956
4261.989337,766.095498,148.041188,8734.430116
4261.989652,383.047749,-962.267725,9104.533087
4261.989968,995.924147,-1406.391290,9770.718434
4261.990283,612.876398,-666.185348,9770.718434
4261.990599,-612.876398,-370.102971,10214.842000
4261.990914,-1302.362347,-222.061783,10955.047942
4261.991230,-306.438199,-0.000000,10436.903782
4261.991545,459.657299,-518.144159,10807.006753
4261.991861,536.266849,222.061783,10066.800811
4261.992176,-306.438199,1628.453072,10732.986159
4261.992491,0.000000,666.185348,9992.780217
4261.992807,1225.752797,592.164754,9622.677246
4261.993122,1608.800546,962.267725,9622.677246
4261.993438,229.828649,222.061783,9104.533087
4261.993753,-536.266849,296.082377,9622.677246
4261.994069,-229.828649,-740.205942,9474.636058
4261.994384,383.047749,-888.247130,9548.656652
4261.994699,0.000000,-518.144159,10066.800811
4261.995015,-2145.067394,-296.082377,9474.636058
4261.995330,-1225.752797,-962.267725,10066.800811
4261.995646,-229.828649,-814.226536,10214.842000
4261.995961,229.828649,-222.061783,10214.842000
4261.996277,-612.876398,-74.020594,9400.615463
4261.996592,-1532.190996,740.205942,9918.759623
4261.996907,-383.047749,222.061783,10362.883188
4261.997223,1149.143247,148.041188,10288.862594
4261.997538,1149.143247,814.226536,9918.759623
4261.997854,0.000000,1628.453072,8882.471304
4261.998169,-383.047749,1628.453072,9474.636058
4261.998485,995.924147,370.102971,9326.594869
4261.998800,995.924147,814.226536,9696.697840
4261.999115,536.266849,444.123565,9030.512492
4261.999431,-1302.362347,148.041188,9326.594869
4261.999746,-766.095498,-888.247130,9918.759623
4262.000062,153.219100,-1554.432478,9326.594869
4262.000377,536.266849,-814.226536,9030.512492
4262.000693,-919.314598,-0.000000,9696.697840
4262.001008,-1685.410096,-0.000000,9622.677246
4262.001324,229.828649,-444.123565,9178.553681
4262.001639,1685.410096,-666.185348,9844.739029
4262.001954,1685.410096,518.144159,9104.533087
4262.002270,0.000000,740.205942,9104.533087
4262.002585,153.219100,-74.020594,9326.594869
4262.002901,2145.067394,-592.164754,9696.697840
4262.003216,2145.067394,592.164754,9918.759623
4262.003532,1532.190996,814.226536,8808.450710
4262.003847,689.485948,-0.000000,9326.594869
4262.004162,1072.533697,-222.061783,9252.574275
4262.004478,1532.190996,-1036.288319,10066.800811
4262.004793,919.314598,-370.102971,9252.574275
4262.005109,-459.657299,-222.061783,9178.553681
4262.005424,-689.485948,-666.185348,9326.594869
4262.005740,766.095498,-444.123565,8956.491898
4262.006055,306.438199,-0.000000,9548.656652
4262.006370,153.219100,222.061783,8808.450710
4262.006686,-1532.190996,518.144159,9844.739029
4262.007001,-689.485948,-0.000000,9696.697840
4262.007317,459.657299,-0.000000,9474.636058
4262.007632,612.876398,222.061783,9252.574275
4262.007948,-919.314598,1332.370696,9178.553681
4262.008263,-2145.067394,518.144159,10140.821405
4262.008578,0.000000,-444.123565,10732.986159
4262.008894,459.657299,1110.308913,9844.739029
4262.009209,-306.438199,370.102971,9104.533087
4262.009525,-1455.581446,1036.288319,9696.697840
4262.009840,-1455.581446,518.144159,10288.862594
4262.010156,-536.266849,-370.102971,10066.800811
4262.010471,153.219100,-0.000000,10732.986159
4262.010786,-1378.971896,-0.000000,9548.656652
4262.011102,-1608.800546,-0.000000,9548.656652
4262.011417,-383.047749,-814.226536,9326.594869
4262.011733,612.876398,-370.102971,10288.862594
4262.012048,76.609550,1258.350101,8882.471304
4262.012364,-995.924147,1258.350101,9474.636058
4262.012679,-766.095498,1184.329507,9696.697840
4262.012995,153.219100,444.123565,10288.862594
4262.013310,766.095498,962.267725,10066.800811
4262.013625,-689.485948,444.123565,9770.718434
4262.013941,-1225.752797,444.123565,10658.965565
4262.014256,0.000000,-74.020594,9770.718434
4262.014572,0.000000,-0.000000,10066.800811
4262.014887,0.000000,592.164754,10288.862594
4262.015203,-1532.190996,518.144159,9844.739029
4262.015518,-306.438199,-0.000000,10214.842000
4262.015833,1072.533697,-592.164754,9548.656652
4262.016149,1302.362347,518.144159,9770.718434
4262.016464,766.095498,740.205942,8660.409521
4262.016780,0.000000,296.082377,9178.553681
4262.017095,919.314598,-74.020594,9696.697840
4262.017411,2145.067394,-222.061783,9252.574275
4262.017726,1838.629195,740.205942,9178.553681
4262.018041,612.876398,814.226536,8660.409521
4262.018357,76.609550,592.164754,8956.491898
4262.018672,1532.190996,-740.205942,9474.636058
4262.018988,1915.238745,-592.164754,9770.718434
4262.019303,766.095498,148.041188,9400.615463
4262.019619,-919.314598,444.123565,9474.636058
4262.019934,-383.047749,-296.082377,10140.821405
4262.020249,1149.143247,-0.000000,9918.759623
4262.020565,1149.143247,518.144159,9400.615463
4262.020880,0.000000,1480.411884,9030.512492
4262.021196,-229.828649,-0.000000,10066.800811
4262.021511,1378.971896,-1184.329507,9992.780217
4262.021827,2451.505594,-74.020594,9622.677246
4262.022142,1149.143247,222.061783,9326.594869
4262.022457,-229.828649,296.082377,9474.636058
4262.022773,459.657299,-888.247130,9992.780217
4262.023088,2298.286494,-1332.370696,9030.512492
4262.023404,2604.724693,-0.000000,9252.574275
4262.023719,1149.143247,666.185348,7994.224174
4262.024035,-153.219100,444.123565,9030.512492
4262.024350,1072.533697,-1480.411884,9400.615463
4262.024666,1378.971896,-888.247130,9844.739029
4262.024981,1302.362347,-518.144159,10140.821405
4262.025296,0.000000,-666.185348,10732.986159
4262.025612,-536.266849,-1628.453072,11399.171507
4262.025927,766.095498,-2738.761985,11547.212695
4262.026243,1838.629195,-1628.453072,11695.253884
4262.026558,2221.676944,-1258.350101,10584.944971
4262.026874,1149.143247,-0.000000,10140.821405
4262.027189,1762.019645,-666.185348,9992.780217
4262.027504,3140.991542,-1110.308913,9252.574275
4262.027820,3600.648841,-444.123565,8734.430116
4262.028135,2757.943793,-1036.288319,8512.368333
4262.028451,766.095498,-1110.308913,9474.636058
4262.028766,1072.533697,-2442.679609,9252.574275
4262.029082,1532.190996,-2368.659014,9770.718434
4262.029397,1532.190996,-2368.659014,10066.800811
4262.029712,1378.971896,-3034.844362,10288.862594
4262.030028,153.219100,-2516.700203,10807.006753
4262.030343,612.876398,-3849.070898,10214.842000
4262.030659,1685.410096,-2664.741391,10288.862594
4262.030974,2145.067394,-1554.432478,9474.636058
4262.031290,2068.457845,-962.267725,9104.533087
4262.031605,1915.238745,-518.144159,8808.450710
4262.031920,2528.115143,-1850.514855,7994.224174
4262.032236,2681.334243,-1110.308913,8142.265362
4262.032551,3447.429741,-814.226536,8586.388927
4262.032867,2221.676944,-1924.535449,9400.615463
4262.033182,1149.143247,-2368.659014,9770.718434
4262.033498,1378.971896,-3478.967927,9844.739029
4262.033813,1838.629195,-3627.009116,10436.903782
4262.034129,2681.334243,-3997.112087,10288.862594
4262.034444,2834.553343,-3923.091493,10881.027347
4262.034759,2068.457845,-2368.659014,9622.677246
4262.035075,1838.629195,-2368.659014,7994.224174
4262.035390,2221.676944,-2072.576638,8734.430116
4262.035706,3830.477490,-1924.535449,9252.574275
4262.036021,2604.724693,-592.164754,7550.100608
4262.036337,2681.334243,-2516.700203,8438.347739
4262.036652,2298.286494,-2590.720797,8586.388927
4262.036967,1838.629195,-2812.782580,8956.491898
4262.037283,1762.019645,-2886.803174,9622.677246
4262.037598,1838.629195,-3478.967927,9622.677246
4262.037914,1838.629195,-3775.050304,11547.212695
4262.038229,1302.362347,-3627.009116,9770.718434
4262.038545,459.657299,-3182.885551,9400.615463
4262.038860,1608.800546,-2146.597232,9696.697840
4262.039175,2451.505594,-1332.370696,8068.244768
4262.039491,2604.724693,-2146.597232,9178.553681
4262.039806,2374.896044,-1110.308913,8142.265362
4262.040122,1685.410096,-2368.659014,9548.656652
4262.040437,1455.581446,-2146.597232,10066.800811
4262.040753,1991.848295,-2442.679609,9992.780217
4262.041068,3140.991542,-2738.761985,9918.759623
4262.041383,3370.820191,-3478.967927,9992.780217
4262.041699,2911.162892,-2294.638420,10214.842000
4262.042014,1455.581446,-2072.576638,9696.697840
4262.042330,1455.581446,-2220.617826,9844.739029
4262.042645,2757.943793,-1184.329507,9252.574275
4262.042961,3677.258390,-1184.329507,8512.368333
4262.043276,3447.429741,-1776.494261,8882.471304
4262.043591,2451.505594,-1036.288319,8956.491898
4262.043907,842.705048,-1184.329507,9252.574275
4262.044222,995.924147,-1554.432478,9918.759623
4262.044538,2681.334243,-1998.556043,10362.883188
4262.044853,3907.087040,-1924.535449,9548.656652
4262.045169,3677.258390,-1702.473667,10214.842000
4262.045484,2834.553343,-1406.391290,10658.965565
4262.045800,2068.457845,-666.185348,10140.821405
4262.046115,1302.362347,-1110.308913,10066.800811
4262.046430,2528.115143,-740.205942,9548.656652
4262.046746,3677.258390,-518.144159,9178.553681
4262.047061,4136.915689,-888.247130,8586.388927
4262.047377,2451.505594,-1480.411884,9030.512492
4262.047692,1762.019645,-1628.453072,10214.842000
4262.048008,842.705048,-2072.576638,10881.027347
4262.048323,1838.629195,-1554.432478,10732.986159
4262.048638,2451.505594,-2220.617826,10510.924376
4262.048954,3370.820191,-2220.617826,9696.697840
4262.049269,3600.648841,-2368.659014,9474.636058
4262.049585,2528.115143,-2072.576638,9770.718434
4262.049900,1915.238745,-2072.576638,10214.842000
4262.050216,1762.019645,-592.164754,9696.697840
4262.050531,2451.505594,-296.082377,9030.512492
4262.050846,2911.162892,-1184.329507,8364.327145
4262.051162,3064.381992,-1702.473667,8882.471304
4262.051477,2604.724693,-2072.576638,8734.430116
4262.051793,1302.362347,-2146.597232,9918.759623
4262.052108,1072.533697,-1924.535449,9992.780217
4262.052424,1149.143247,-2220.617826,10881.027347
4262.052739,1455.581446,-1850.514855,10510.924376
4262.053054,1608.800546,-2368.659014,10288.862594
4262.053370,1608.800546,-2590.720797,10362.883188
4262.053685,1838.629195,-2442.679609,9548.656652
4262.054001,1991.848295,-2146.597232,9400.615463
4262.054316,1991.848295,-666.185348,8808.450710
4262.054632,2374.896044,-666.185348,8734.430116
4262.054947,2757.943793,-592.164754,8956.491898
4262.055262,2451.505594,-1628.453072,9400.615463
4262.055578,2374.896044,-2220.617826,9770.718434
4262.055893,2145.067394,-2294.638420,9918.759623
4262.056209,1762.019645,-2368.659014,9622.677246
4262.056524,2451.505594,-2368.659014,9326.594869
4262.056840,1991.848295,-2368.659014,9104.533087
4262.057155,1532.190996,-1998.556043,9474.636058
4262.057471,1302.362347,-1924.535449,10066.800811
4262.057786,1378.971896,-2072.576638,9918.759623
4262.058101,995.924147,-2146.597232,9918.759623
4262.058417,1149.143247,-2072.576638,9474.636058
4262.058732,1685.410096,-2368.659014,9400.615463
4262.059048,2451.505594,-2220.617826,9548.656652
4262.059363,2145.067394,-2146.597232,9104.533087
4262.059679,2145.067394,-1850.514855,9178.553681
4262.059994,2068.457845,-1406.391290,9178.553681
4262.060309,1685.410096,-1406.391290,9548.656652
4262.060625,1455.581446,-1702.473667,10288.862594
4262.060940,995.924147,-2072.576638,10214.842000
4262.061256,1149.143247,-3330.926739,10288.862594
4262.061571,842.705048,-4071.132681,10140.821405
4262.061886,2451.505594,-3849.070898,10140.821405
4262.062202,2528.115143,-2886.803174,9104.533087
4262.062517,2681.334243,-1998.556043,7920.203579
4262.062833,2757.943793,-1332.370696,8956.491898
4262.063148,2528.115143,-518.144159,8734.430116
4262.063463,2528.115143,-666.185348,8734.430116
4262.063779,2298.286494,-1036.288319,9622.677246
4262.064094,2068.457845,-2368.659014,10288.862594
4262.064410,2298.286494,-3478.967927,11029.068536
4262.064725,2911.162892,-4071.132681,11103.089130
4262.065040,3140.991542,-3849.070898,10214.842000
4262.065356,3140.991542,-2294.638420,9474.636058
4262.065671,3370.820191,-666.185348,8290.306550
4262.065987,3524.039291,370.102971,8216.285956
4262.066302,3217.601092,592.164754,7698.141797
4262.066617,2221.676944,222.061783,7328.038826
4262.066933,1378.971896,-592.164754,8734.430116
4262.067248,842.705048,-2294.638420,10288.862594
4262.067564,536.266849,-3552.988522,11473.192101
4262.067879,995.924147,-4441.235652,12435.459826
4262.068194,2068.457845,-4145.153275,12879.583391
4262.068510,3064.381992,-3627.009116,12213.398043
4262.068825,4060.306139,-1776.494261,10807.006753
4262.069141,4060.306139,-0.000000,8142.265362
4262.069456,4060.306139,1184.329507,7624.121203
4262.069772,4596.572988,2072.576638,6661.853478
4262.070087,3907.087040,1036.288319,5625.565159
4262.070402,2451.505594,-0.000000,6291.750507
4262.070718,919.314598,-1554.432478,8882.471304
4262.071033,-306.438199,-3552.988522,10807.006753
4262.071349,-842.705048,-4663.297435,12213.398043
4262.071664,-1072.533697,-5107.421000,13841.851115
4262.071979,0.000000,-5551.544565,14285.974681
4262.072295,2298.286494,-5033.400406,13397.727550
4262.072610,3524.039291,-3552.988522,11547.212695
4262.072926,5132.839837,-1110.308913,9104.533087
4262.073241,5056.230287,1258.350101,6513.812290
4262.073556,5132.839837,2368.659014,5181.441594
4262.073872,4903.011187,2368.659014,4737.318029
4262.074187,4136.915689,1332.370696,5181.441594
4262.074503,2681.334243,-0.000000,6291.750507
4262.074818,153.219100,-1480.411884,9252.574275
4262.075133,-1532.190996,-3923.091493,11251.130318
4262.075449,-2145.067394,-5995.668130,13545.768739
4262.075764,-2221.676944,-6513.812290,13989.892304
4262.076080,-1532.190996,-6365.771101,13841.851115
4262.076395,0.000000,-4515.256246,12657.521608
4262.076710,1915.238745,-2812.782580,11029.068536
4262.077026,3600.648841,-0.000000,8956.491898
4262.077341,4060.306139,2368.659014,6661.853478
4262.077657,4903.011187,2812.782580,6069.688724
4262.077972,5515.887586,2886.803174,6217.729913
4262.078287,5515.887586,1702.473667,6439.791695
4262.078603,4443.353888,-0.000000,8216.285956
4262.078918,3217.601092,-2220.617826,9474.636058
4262.079234,1991.848295,-3849.070898,11325.150913
4262.079549,1608.800546,-4811.338623,11917.315666
4262.079864,1455.581446,-5181.441594,12139.377449
4262.080180,612.876398,-4737.318029,11251.130318
4262.080495,536.266849,-3997.112087,10732.986159
4262.080811,766.095498,-2294.638420,9252.574275
4262.081126,766.095498,-814.226536,8142.265362
4262.081442,1762.019645,-148.041188,8438.347739
4262.081757,2068.457845,370.102971,7772.162391
4262.082072,2221.676944,222.061783,8586.388927
4262.082388,2681.334243,-296.082377,9548.656652
4262.082703,2911.162892,-814.226536,10288.862594
4262.083019,2987.772442,-1628.453072,11177.109724
4262.083334,3524.039291,-2072.576638,11769.274478
4262.083649,3524.039291,-2368.659014,11251.130318
4262.083965,2911.162892,-2368.659014,10436.903782
4262.084280,2451.505594,-2368.659014,9326.594869
4262.084596,1762.019645,-2368.659014,8438.347739
4262.084911,1378.971896,-2442.679609,7846.182985
4262.085226,766.095498,-2368.659014,7920.203579
4262.085542,229.828649,-2442.679609,8364.327145
4262.085857,0.000000,-2738.761985,9030.512492
4262.086173,383.047749,-2960.823768,10066.800811
4262.086488,842.705048,-3182.885551,10658.965565
4262.086803,1455.581446,-3182.885551,11547.212695
4262.087119,2834.553343,-2442.679609,11621.233289
4262.087434,3294.210641,-1628.453072,11177.109724
4262.087750,4213.525239,-518.144159,10066.800811
4262.088065,4366.744339,592.164754,9178.553681
4262.088380,4136.915689,888.247130,8216.285956
4262.088696,3600.648841,740.205942,7772.162391
4262.089011,3217.601092,-0.000000,7624.121203
4262.089327,1838.629195,-518.144159,8290.306550
4262.089642,1149.143247,-1924.535449,9326.594869
4262.089957,306.438199,-2960.823768,9992.780217
4262.090273,0.000000,-4071.132681,10807.006753
4262.090588,-383.047749,-4441.235652,11103.089130
4262.090904,0.000000,-3923.091493,10584.944971
4262.091219,459.657299,-3256.906145,10288.862594
4262.091535,1225.752797,-1406.391290,9252.574275
4262.091850,1225.752797,-370.102971,8290.306550
4262.092165,1378.971896,-0.000000,7698.141797
4262.092481,1608.800546,444.123565,7698.141797
4262.092796,1762.019645,518.144159,8216.285956
4262.093112,1532.190996,296.082377,9178.553681
4262.093427,536.266849,-0.000000,9622.677246
4262.093742,459.657299,-814.226536,10288.862594
4262.094058,689.485948,-1480.411884,11029.068536
4262.094373,536.266849,-2590.720797,11917.315666
4262.094689,689.485948,-3182.885551,11547.212695
4262.095004,1149.143247,-2960.823768,11547.212695
4262.095319,2068.457845,-2812.782580,10436.903782
4262.095635,2374.896044,-2146.597232,9474.636058
4262.095950,2604.724693,-1036.288319,9030.512492
4262.096266,2528.115143,-814.226536,8364.327145
4262.096581,3370.820191,-740.205942,8068.244768
4262.096896,3524.039291,-740.205942,7994.224174
4262.097212,3677.258390,-1184.329507,8512.368333
4262.097527,3600.648841,-1998.556043,8956.491898
4262.097843,3370.820191,-2368.659014,9918.759623
4262.098158,3217.601092,-2960.823768,10955.047942
4262.098473,2987.772442,-3404.947333,11103.089130
4262.098789,3064.381992,-2812.782580,11695.253884
4262.099104,3217.601092,-1924.535449,10881.027347
4262.099420,3370.820191,-1702.473667,10362.883188
4262.099735,3447.429741,-1480.411884,9474.636058
4262.100050,3983.696590,-1406.391290,9400.615463
4262.100366,4136.915689,-1258.350101,8808.450710
4262.100681,3907.087040,-1998.556043,9030.512492
4262.100997,4136.915689,-2590.720797,9030.512492
4262.101312,4366.744339,-2812.782580,9400.615463
4262.101628,4213.525239,-3256.906145,9696.697840
4262.101943,3447.429741,-3256.906145,9622.677246
4262.102258,2528.115143,-3182.885551,9548.656652
4262.102574,2911.162892,-3478.967927,9548.656652
4262.102889,2451.505594,-3330.926739,9030.512492
4262.103205,1915.238745,-2886.803174,9178.553681
4262.103520,1532.190996,-2516.700203,8882.471304
4262.103835,1072.533697,-2516.700203,8956.491898
4262.104151,1378.971896,-2664.741391,9252.574275
4262.104466,1608.800546,-2738.761985,9474.636058
4262.104782,1608.800546,-2590.720797,9696.697840
4262.105097,1302.362347,-2812.782580,10362.883188
4262.105412,1685.410096,-3034.844362,10140.821405
4262.105728,1838.629195,-3404.947333,10436.903782
4262.106043,2451.505594,-3108.864956,9992.780217
4262.106359,2298.286494,-3182.885551,9844.739029
4262.106674,2221.676944,-3256.906145,9104.533087
4262.106989,2451.505594,-2960.823768,8512.368333
4262.107305,2528.115143,-2886.803174,8068.244768
4262.107620,2987.772442,-2442.679609,7772.162391
4262.107936,2298.286494,-2368.659014,7846.182985
4262.108251,1455.581446,-2146.597232,7179.997637
4262.108566,1225.752797,-2368.659014,7846.182985
4262.108882,842.705048,-2812.782580,8364.327145
4262.109197,0.000000,-2886.803174,8586.388927
4262.109513,-536.266849,-2738.761985,9548.656652
4262.109828,-842.705048,-2368.659014,10288.862594
4262.110143,-766.095498,-2146.597232,10955.047942
4262.110459,-536.266849,-1406.391290,10881.027347
4262.110774,-383.047749,-1406.391290,10510.924376
4262.111090,383.047749,-962.267725,11177.109724
4262.111405,1302.362347,-518.144159,11251.130318
4262.111720,2374.896044,-666.185348,10510.924376
4262.112036,2834.553343,-148.041188,10288.862594
4262.112351,4213.525239,-148.041188,9844.739029
4262.112667,4596.572988,-148.041188,9326.594869
4262.112982,4290.134789,-444.123565,9030.512492
4262.113298,3830.477490,-74.020594,8660.409521
4262.113613,2757.943793,-148.041188,8438.347739
4262.113928,2374.896044,-666.185348,8364.327145
4262.114244,1302.362347,-1406.391290,8808.450710
4262.114559,612.876398,-1850.514855,9326.594869
4262.114875,0.000000,-2812.782580,10288.862594
4262.115190,0.000000,-2664.741391,11177.109724
4262.115505,689.485948,-2442.679609,11991.336260
4262.115821,1072.533697,-1998.556043,12509.480420
4262.116136,2604.724693,-1332.370696,12657.521608
4262.116452,4443.353888,-666.185348,11769.274478
4262.116767,5822.325785,222.061783,10362.883188
4262.117082,6741.640382,1258.350101,8882.471304
4262.117398,6205.373534,2812.782580,7179.997637
4262.117713,5745.716235,3034.844362,6439.791695
4262.118029,3983.696590,2146.597232,5995.668130
4262.118344,2604.724693,74.020594,6587.832884
4262.118659,689.485948,-2294.638420,9030.512492
4262.118975,-383.047749,-4293.194464,10584.944971
4262.119290,-1532.190996,-6143.709319,12879.583391
4262.119606,-1378.971896,-7031.956449,14434.015869
4262.119921,0.000000,-7328.038826,14359.995275
4262.120236,2451.505594,-5699.585753,13249.686362
4262.120552,4290.134789,-2960.823768,10955.047942
4262.120867,5822.325785,666.185348,7550.100608
4262.121183,7124.688131,3108.864956,5255.462188
4262.121498,6818.249932,4441.235652,3182.885551
4262.121813,5975.544884,4293.194464,3256.906145
4262.122129,4136.915689,3182.885551,5329.482782
4262.122444,2145.067394,-0.000000,8142.265362
4262.122760,153.219100,-3997.112087,11399.171507
4262.123075,-1225.752797,-7031.956449,13915.871710
4262.123391,-1378.971896,-8290.306550,14656.077652
4262.123706,-1455.581446,-9178.553681,15322.262999
4262.124021,-306.438199,-7476.080014,14211.954086
4262.124337,1532.190996,-5255.462188,11029.068536
4262.124652,2757.943793,-1258.350101,7994.224174
4262.124968,4060.306139,1776.494261,5847.626942
4262.125283,4443.353888,2886.803174,4367.215058
4262.125598,3830.477490,2442.679609,4441.235652
4262.125914,3370.820191,296.082377,5773.606348
4262.126229,3447.429741,-1480.411884,7772.162391
4262.126545,2604.724693,-3182.885551,9844.739029
4262.126860,1225.752797,-4811.338623,11029.068536
4262.127175,536.266849,-6513.812290,12731.542202
4262.127491,383.047749,-6365.771101,13249.686362
4262.127806,229.828649,-6069.688724,12361.439231
4262.128122,0.000000,-3849.070898,11251.130318
4262.128437,-766.095498,-2590.720797,9622.677246
4262.128752,76.609550,-2220.617826,8142.265362
4262.129068,1072.533697,-1702.473667,7179.997637
4262.129383,995.924147,-1110.308913,6809.894666
4262.129699,1302.362347,-1406.391290,7179.997637
4262.130014,1608.800546,-1258.350101,8438.347739
4262.130329,2374.896044,-1554.432478,10140.821405
4262.130645,1915.238745,-1850.514855,11547.212695
4262.130960,2221.676944,-2960.823768,12731.542202
4262.131276,3140.991542,-4145.153275,12657.521608
4262.131591,3064.381992,-4219.173869,11843.295072
4262.131906,3677.258390,-3997.112087,10214.842000
4262.132222,3524.039291,-1998.556043,8586.388927
4262.132537,3140.991542,-370.102971,6735.874072
4262.132853,2451.505594,518.144159,6735.874072
4262.133168,1532.190996,666.185348,6957.935855
4262.133483,1302.362347,-518.144159,7402.059420
4262.133799,766.095498,-1406.391290,8734.430116
4262.134114,76.609550,-2812.782580,10214.842000
4262.134430,536.266849,-4145.153275,12213.398043
4262.134745,1225.752797,-3849.070898,13027.624579
4262.135061,2221.676944,-3404.947333,13175.665768
4262.135376,2757.943793,-2368.659014,12805.562797
4262.135691,4136.915689,222.061783,10436.903782
4262.136007,4673.182538,1850.514855,8734.430116
4262.136322,5822.325785,2072.576638,7476.080014
4262.136638,5898.935335,2664.741391,6587.832884
4262.136953,4519.963438,1998.556043,6217.729913
4262.137268,2757.943793,296.082377,6957.935855
4262.137584,1991.848295,-1406.391290,8808.450710
4262.137899,1455.581446,-3034.844362,9844.739029
4262.138215,842.705048,-4441.235652,10881.027347
4262.138530,919.314598,-5921.647536,12139.377449
4262.138845,995.924147,-5551.544565,13027.624579
4262.139161,842.705048,-4663.297435,12509.480420
4262.139476,919.314598,-2738.761985,11769.274478
4262.139792,1915.238745,-148.041188,9622.677246
4262.140107,3983.696590,888.247130,7402.059420
4262.140422,5362.668486,1480.411884,6957.935855
4262.140738,5592.497135,2442.679609,6513.812290
4262.141053,3753.867940,2146.597232,6883.915261
4262.141369,2298.286494,814.226536,8068.244768
4262.141684,2068.457845,-222.061783,9696.697840
4262.141999,1378.971896,-2368.659014,10510.924376
4262.142315,1302.362347,-3997.112087,11843.295072
4262.142630,612.876398,-5033.400406,12213.398043
4262.142946,-689.485948,-5033.400406,12805.562797
4262.143261,-995.924147,-5033.400406,12583.501014
4262.143576,-919.314598,-2664.741391,10732.986159
4262.143892,1455.581446,-1332.370696,8660.409521
4262.144207,4136.915689,-518.144159,7550.100608
4262.144523,4290.134789,814.226536,6365.771101
4262.144838,3294.210641,740.205942,6661.853478
4262.145154,2451.505594,592.164754,7624.121203
4262.145469,2604.724693,-0.000000,8364.327145
4262.145784,3370.820191,-1258.350101,9770.718434
4262.146100,3753.867940,-2368.659014,10955.047942
4262.146415,2221.676944,-3701.029710,11547.212695
4262.146731,383.047749,-4441.235652,12435.459826
4262.147046,-919.314598,-3478.967927,12287.418637
4262.147361,0.000000,-2886.803174,10881.027347
4262.147677,1455.581446,-3182.885551,10362.883188
4262.147992,2451.505594,-518.144159,8512.368333
4262.148308,2068.457845,-1110.308913,8142.265362
4262.148623,1991.848295,-962.267725,7254.018232
4262.148938,1838.629195,-1258.350101,8290.306550
4262.149254,3600.648841,-2664.741391,9474.636058
4262.149569,3753.867940,-1998.556043,9696.697840
4262.149885,2604.724693,-2886.803174,9844.739029
4262.150200,2068.457845,-3627.009116,10807.006753
4262.150515,1838.629195,-3404.947333,10881.027347
4262.150831,2451.505594,-4737.318029,11251.130318
4262.151146,2911.162892,-2738.761985,11177.109724
4262.151462,2604.724693,-2368.659014,9474.636058
4262.151777,2221.676944,-1480.411884,8068.244768
4262.152092,2911.162892,-1036.288319,8068.244768
4262.152408,3217.601092,-1480.411884,8142.265362
4262.152723,2681.334243,-1258.350101,8364.327145
4262.153039,1532.190996,-1850.514855,8734.430116
4262.153354,459.657299,-2146.597232,9178.553681
4262.153669,919.314598,-2220.617826,9992.780217
4262.153985,1302.362347,-3775.050304,10658.965565
4262.154300,0.000000,-2368.659014,9992.780217
4262.154616,536.266849,-5329.482782,12065.356855
4262.154931,0.000000,-2146.597232,9770.718434
4262.155247,0.000000,-1332.370696,9252.574275
4262.155562,1991.848295,-888.247130,9030.512492
4262.155877,1302.362347,962.267725,8512.368333
4262.156193,842.705048,296.082377,7846.182985
4262.156508,536.266849,148.041188,7328.038826
4262.156824,1532.190996,222.061783,7772.162391
4262.157139,1072.533697,518.144159,9326.594869
4262.157454,-536.266849,-444.123565,10807.006753
4262.157770,-1455.581446,-1776.494261,10658.965565
4262.158085,-1608.800546,-2220.617826,10658.965565
4262.158401,306.438199,-2886.803174,11029.068536
4262.158716,383.047749,-814.226536,9918.759623
4262.159031,-536.266849,518.144159,10584.944971
4262.159347,-1149.143247,666.185348,8512.368333
4262.159662,459.657299,962.267725,8734.430116
4262.159978,1685.410096,2072.576638,7105.977043
4262.160293,1455.581446,2516.700203,7402.059420
4262.160608,76.609550,2146.597232,8142.265362
4262.160924,-1378.971896,444.123565,9548.656652
4262.161239,-459.657299,-1110.308913,11325.150913
4262.161555,153.219100,-962.267725,10807.006753
4262.161870,-842.705048,-0.000000,12287.418637
4262.162186,-995.924147,-740.205942,12213.398043
4262.162501,-153.219100,-592.164754,11843.295072
4262.162817,1991.848295,-666.185348,10955.047942
4262.163132,2681.334243,1702.473667,8734.430116
4262.163448,1685.410096,3330.926739,8438.347739
4262.163763,995.924147,3256.906145,7476.080014
4262.164079,2145.067394,2368.659014,7920.203579
4262.164394,2681.334243,2146.597232,7179.997637
4262.164709,612.876398,1924.535449,9326.594869
4262.165025,-1532.190996,1184.329507,10584.944971
4262.165340,-1838.629195,-74.020594,11843.295072
4262.165656,-383.047749,-1258.350101,12139.377449
4262.165971,76.609550,-740.205942,12509.480420
4262.166287,-459.657299,444.123565,12583.501014
4262.166602,-1072.533697,1776.494261,10140.821405
4262.166918,919.314598,444.123565,11473.192101
4262.167233,3217.601092,3404.947333,9178.553681
4262.167549,2681.334243,4737.318029,7476.080014
4262.167864,1838.629195,4219.173869,7402.059420
4262.168179,459.657299,3552.988522,7698.141797
4262.168495,842.705048,1480.411884,9474.636058
4262.168810,1532.190996,814.226536,8882.471304
4262.169126,-536.266849,962.267725,9918.759623
4262.169441,-2068.457845,-666.185348,10807.006753
4262.169757,-2681.334243,-1776.494261,12139.377449
4262.170072,0.000000,-2590.720797,11769.274478
4262.170388,229.828649,-1258.350101,11029.068536
4262.170703,-842.705048,888.247130,9548.656652
4262.171019,-1378.971896,1332.370696,8364.327145
4262.171334,153.219100,1850.514855,8512.368333
4262.171650,1915.238745,2146.597232,7550.100608
4262.171965,536.266849,2368.659014,7920.203579
4262.172280,-612.876398,2220.617826,8216.285956
4262.172596,-1455.581446,370.102971,8956.491898
4262.172911,-536.266849,-518.144159,10510.924376
4262.173227,-229.828649,-1110.308913,10955.047942
4262.173542,-1455.581446,-740.205942,10510.924376
4262.173858,-2834.553343,-2368.659014,11251.130318
4262.174173,-1455.581446,-2886.803174,11695.253884
4262.174489,-229.828649,-2294.638420,10436.903782
4262.174804,383.047749,-888.247130,9474.636058
4262.175120,-995.924147,1110.308913,7846.182985
4262.175435,-536.266849,444.123565,7698.141797
4262.175751,842.705048,-0.000000,8068.244768
4262.176066,1455.581446,222.061783,7402.059420
4262.176381,459.657299,666.185348,8216.285956
4262.176697,-536.266849,-888.247130,9104.533087
4262.177012,0.000000,-1998.556043,10881.027347
4262.177328,1149.143247,-2442.679609,10584.944971
4262.177643,153.219100,-2072.576638,11325.150913
4262.177959,76.609550,-1406.391290,10510.924376
4262.178274,-612.876398,-1184.329507,10140.821405
4262.178590,766.095498,-888.247130,9770.718434
4262.178905,1378.971896,-148.041188,8586.388927
4262.179221,612.876398,1554.432478,7846.182985
4262.179536,-153.219100,518.144159,7550.100608
4262.179852,-229.828649,-148.041188,8808.450710
4262.180167,1302.362347,-518.144159,9030.512492
4262.180482,1149.143247,-444.123565,9548.656652
4262.180798,229.828649,-666.185348,10362.883188
4262.181113,-612.876398,-962.267725,10881.027347
4262.181429,306.438199,-1110.308913,10955.047942
4262.181744,2298.286494,-1702.473667,10436.903782
4262.182060,2145.067394,-222.061783,10066.800811
4262.182375,1072.533697,370.102971,9326.594869
4262.182691,229.828649,370.102971,8438.347739
4262.183006,1455.581446,-0.000000,8216.285956
4262.183322,1915.238745,518.144159,8068.244768
4262.183637,306.438199,1480.411884,7476.080014
4262.183952,0.000000,-444.123565,8216.285956
4262.184268,-459.657299,-1554.432478,10584.944971
4262.184583,842.705048,-1628.453072,9844.739029
4262.184899,0.000000,-1036.288319,10658.965565
4262.185214,-1072.533697,-888.247130,11251.130318
4262.185530,-1532.190996,-1110.308913,11029.068536
4262.185845,306.438199,-222.061783,10510.924376
4262.186161,1762.019645,222.061783,9474.636058
4262.186476,842.705048,3034.844362,8734.430116
4262.186792,-536.266849,3108.864956,7179.997637
4262.187107,0.000000,1702.473667,9474.636058
4262.187423,842.705048,1628.453072,8734.430116
4262.187738,689.485948,1184.329507,9474.636058
4262.188053,-1225.752797,1332.370696,9474.636058
4262.188369,-1838.629195,-444.123565,11029.068536
4262.188684,-1149.143247,-444.123565,12139.377449
4262.189000,153.219100,-1332.370696,11251.130318
4262.189315,-306.438199,296.082377,10436.903782
4262.189631,-1838.629195,888.247130,10658.965565
4262.189946,-1225.752797,1184.329507,10510.924376
4262.190262,1149.143247,1184.329507,9548.656652
4262.190577,995.924147,2442.679609,8438.347739
4262.190893,0.000000,3849.070898,8142.265362
4262.191208,-229.828649,1850.514855,8142.265362
4262.191524,383.047749,592.164754,9622.677246
4262.191839,1608.800546,814.226536,9918.759623
4262.192154,306.438199,1850.514855,9474.636058
4262.192470,-689.485948,962.267725,10436.903782
4262.192785,-689.485948,-148.041188,10955.047942
4262.193101,383.047749,-296.082377,10288.862594
4262.193416,383.047749,-0.000000,10066.800811
4262.193732,-1302.362347,814.226536,9622.677246
4262.194047,-1455.581446,592.164754,9252.574275
4262.194363,-766.095498,666.185348,9696.697840
4262.194678,612.876398,666.185348,8956.491898
4262.194994,229.828649,592.164754,10214.842000
4262.195309,-842.705048,1110.308913,9696.697840
4262.195625,-1378.971896,-74.020594,10436.903782
4262.195940,612.876398,-518.144159,11251.130318
4262.196255,1225.752797,-148.041188,11325.150913
4262.196571,1072.533697,518.144159,9104.533087
4262.196886,612.876398,370.102971,9474.636058
4262.197202,995.924147,666.185348,9178.553681
4262.197517,2221.676944,-888.247130,9030.512492
4262.197833,2145.067394,444.123565,7772.162391
4262.198148,766.095498,592.164754,7920.203579
4262.198464,383.047749,-296.082377,7624.121203
4262.198779,383.047749,-1924.535449,9400.615463
4262.199095,1072.533697,-1850.514855,8808.450710
4262.199410,-306.438199,-1332.370696,10066.800811
4262.199725,-1378.971896,-740.205942,9030.512492
4262.200041,-995.924147,-1628.453072,10066.800811
4262.200356,536.266849,-1406.391290,11029.068536
4262.200672,612.876398,-1036.288319,9918.759623
4262.200987,0.000000,888.247130,9400.615463
4262.201303,-459.657299,814.226536,9474.636058
4262.201618,536.266849,518.144159,9474.636058
4262.201934,1838.629195,296.082377,8364.327145
4262.202249,1378.971896,1184.329507,8956.491898
4262.202565,153.219100,1332.370696,8586.388927
4262.202880,-1149.143247,296.082377,9030.512492
4262.203196,229.828649,-1184.329507,9326.594869
4262.203511,76.609550,-1258.350101,10214.842000
4262.203826,-919.314598,-814.226536,9548.656652
4262.204142,-1685.410096,-2072.576638,9844.739029
4262.204457,-1302.362347,-1998.556043,9770.718434
4262.204773,383.047749,-1702.473667,10066.800811
4262.205088,919.314598,-740.205942,9548.656652
4262.205404,-306.438199,370.102971,9104.533087
4262.205719,-229.828649,1036.288319,8068.244768
4262.206035,995.924147,222.061783,8808.450710
4262.206350,2145.067394,222.061783,9030.512492
4262.206666,1302.362347,740.205942,9030.512492
4262.206981,-383.047749,740.205942,9548.656652
4262.207297,-689.485948,-222.061783,10584.944971
4262.207612,842.705048,-888.247130,11103.089130
4262.207927,612.876398,-370.102971,11621.233289
4262.208243,-1378.971896,-0.000000,10955.047942
4262.208558,-2145.067394,-148.041188,10955.047942
4262.208874,-1455.581446,-222.061783,10214.842000
4262.209189,459.657299,-444.123565,9770.718434
4262.209505,306.438199,962.267725,9548.656652
4262.209820,-1149.143247,1110.308913,9326.594869
4262.210136,-995.924147,962.267725,9474.636058
4262.210451,1302.362347,-0.000000,9400.615463
4262.210767,1685.410096,740.205942,9400.615463
4262.211082,76.609550,1258.350101,9252.574275
4262.211398,-689.485948,740.205942,10066.800811
4262.211713,-459.657299,666.185348,10732.986159
4262.212028,459.657299,296.082377,9992.780217
4262.212344,0.000000,666.185348,10066.800811
4262.212659,-1225.752797,518.144159,9918.759623
4262.212975,-1149.143247,-0.000000,10288.862594
4262.213290,0.000000,962.267725,9844.739029
4262.213606,536.266849,962.267725,9696.697840
4262.213921,0.000000,2294.638420,9326.594869
4262.214237,-919.314598,1480.411884,9474.636058
4262.214552,-459.657299,444.123565,9696.697840
4262.214868,1378.971896,222.061783,9696.697840
4262.215183,689.485948,814.226536,9030.512492
4262.215498,-153.219100,1036.288319,9474.636058
4262.215814,0.000000,592.164754,9030.512492
4262.216129,0.000000,296.082377,9770.718434
4262.216445,1455.581446,-74.020594,8808.450710
4262.216760,689.485948,1406.391290,9326.594869
4262.217076,-306.438199,1258.350101,8586.388927
4262.217391,0.000000,-0.000000,9770.718434
4262.217707,1378.971896,-518.144159,9696.697840
4262.218022,1608.800546,296.082377,8956.491898
4262.218338,153.219100,888.247130,8660.409521
4262.218653,-842.705048,-0.000000,9918.759623
4262.218969,536.266849,-814.226536,10066.800811
4262.219284,1608.800546,-888.247130,10066.800811
4262.219599,1072.533697,740.205942,9474.636058
4262.219915,-229.828649,370.102971,9104.533087
4262.220230,-229.828649,-370.102971,9326.594869
4262.220546,1378.971896,-666.185348,10066.800811
4262.220861,1991.848295,-0.000000,8882.471304
4262.221177,1149.143247,740.205942,9178.553681
4262.221492,76.609550,666.185348,8586.388927
4262.221808,153.219100,-148.041188,9696.697840
4262.222123,1072.533697,-296.082377,9400.615463
4262.222439,0.000000,666.185348,10214.842000
4262.222754,-1455.581446,-74.020594,9474.636058
4262.223070,-1532.190996,-1036.288319,10732.986159
4262.223385,-229.828649,-814.226536,10510.924376
4262.223700,76.609550,-962.267725,9918.759623
4262.224016,-919.314598,444.123565,9104.533087
4262.224331,-842.705048,-0.000000,9844.739029
4262.224647,0.000000,592.164754,9770.718434
4262.224962,1685.410096,666.185348,8734.430116
4262.225278,1455.581446,1258.350101,8512.368333
4262.225593,76.609550,1480.411884,9178.553681
4262.225909,-306.438199,592.164754,8586.388927
4262.226224,766.095498,-592.164754,9548.656652
4262.226540,689.485948,-814.226536,9548.656652
4262.226855,-689.485948,-1110.308913,9918.759623
4262.227170,-1915.238745,-1332.370696,10214.842000
4262.227486,-2528.115143,-962.267725,10584.944971
4262.227801,-1455.581446,-2220.617826,10436.903782
4262.228117,-1072.533697,-814.226536,10510.924376
4262.228432,-1915.238745,296.082377,9770.718434
4262.228748,-1762.019645,592.164754,8586.388927
4262.229063,229.828649,296.082377,9770.718434
4262.229379,1838.629195,444.123565,9252.574275
4262.229694,995.924147,1480.411884,8512.368333
4262.230010,459.657299,1628.453072,9252.574275
4262.230325,-306.438199,1258.350101,9252.574275
4262.230641,536.266849,-0.000000,9474.636058
4262.230956,1225.752797,-740.205942,9844.739029
4262.231271,-459.657299,-0.000000,10362.883188
4262.231587,-2145.067394,-592.164754,9548.656652
4262.231902,-1378.971896,-1406.391290,9770.718434
4262.232218,-229.828649,-1628.453072,10066.800811
4262.232533,0.000000,-888.247130,10140.821405
4262.232849,-919.314598,-296.082377,9400.615463
4262.233164,-995.924147,666.185348,9474.636058
4262.233480,766.095498,-0.000000,9622.677246
4262.233795,2298.286494,296.082377,9326.594869
4262.234111,1608.800546,1998.556043,9252.574275
4262.234426,689.485948,1628.453072,9178.553681
4262.234742,1378.971896,1036.288319,9474.636058
4262.235057,2681.334243,444.123565,9622.677246
4262.235372,2451.505594,1332.370696,9326.594869
4262.235688,995.924147,1554.432478,8586.388927
4262.236003,-229.828649,740.205942,9622.677246
4262.236319,0.000000,222.061783,9770.718434
4262.236634,766.095498,-592.164754,9622.677246
4262.236950,153.219100,-74.020594,9844.739029
4262.237265,-995.924147,-0.000000,9992.780217
4262.237581,-1302.362347,-370.102971,10807.006753
4262.237896,919.314598,-222.061783,10436.903782
4262.238212,1915.238745,592.164754,9918.759623
4262.238527,612.876398,1850.514855,9178.553681
4262.238843,229.828649,1332.370696,9104.533087
4262.239158,1685.410096,1184.329507,9474.636058
4262.239473,3140.991542,1332.370696,8660.409521
4262.239789,2451.505594,1924.535449,9252.574275
4262.240104,459.657299,1850.514855,9030.512492
4262.240420,-536.266849,-0.000000,10140.821405
4262.240735,0.000000,-518.144159,10214.842000
4262.241051,229.828649,-444.123565,10140.821405
4262.241366,-766.095498,296.082377,9844.739029
4262.241682,-1915.238745,-296.082377,10140.821405
4262.241997,-1149.143247,-1036.288319,10658.965565
4262.242313,459.657299,-1850.514855,9992.780217
4262.242628,0.000000,444.123565,9474.636058
4262.242943,-1072.533697,1110.308913,9474.636058
4262.243259,-689.485948,962.267725,9770.718434
4262.243574,689.485948,666.185348,9326.594869
4262.243890,995.924147,444.123565,8956.491898
4262.244205,0.000000,1110.308913,9548.656652
4262.244521,-1302.362347,814.226536,8882.471304
4262.244836,-1225.752797,-0.000000,10214.842000
4262.245152,-459.657299,-0.000000,10732.986159
4262.245467,-536.266849,-0.000000,10066.800811
4262.245783,-1915.238745,-370.102971,9992.780217
4262.246098,-2604.724693,-1036.288319,10288.862594
4262.246414,-1455.581446,-1480.411884,10584.944971
4262.246729,0.000000,-1036.288319,9770.718434
4262.247044,0.000000,-0.000000,9400.615463
4262.247360,-612.876398,-0.000000,9400.615463
4262.247675,0.000000,592.164754,8882.471304
4262.247991,842.705048,-370.102971,8882.471304
4262.248306,1378.971896,-0.000000,8586.388927
4262.248622,306.438199,-0.000000,9178.553681
4262.248937,-306.438199,-0.000000,8364.327145
4262.249253,306.438199,-1036.288319,9326.594869
4262.249568,1378.971896,-1554.432478,9622.677246
4262.249884,689.485948,-370.102971,9474.636058
4262.250199,-536.266849,-296.082377,9104.533087
4262.250515,-689.485948,-1406.391290,9622.677246
4262.250830,0.000000,-1924.535449,10214.842000
4262.251145,689.485948,-814.226536,10066.800811
4262.251461,0.000000,-0.000000,9252.574275
4262.251776,-689.485948,296.082377,9104.533087
4262.252092,153.219100,-0.000000,9400.615463
4262.252407,2068.457845,-1258.350101,9622.677246
4262.252723,1685.410096,-0.000000,9326.594869
4262.253038,995.924147,222.061783,9252.574275
4262.253354,536.266849,296.082377,8956.491898
4262.253669,1302.362347,222.061783,9548.656652
4262.253985,2528.115143,296.082377,9400.615463
4262.254300,1378.971896,518.144159,9400.615463
4262.254616,229.828649,-0.000000,9474.636058
4262.254931,0.000000,-148.041188,9918.759623
4262.255246,1685.410096,-592.164754,9400.615463
4262.255562,919.314598,-0.000000,9548.656652
4262.255877,-536.266849,-148.041188,9770.718434
4262.256193,-536.266849,-444.123565,10288.862594
4262.256508,0.000000,-370.102971,10214.842000
4262.256824,1915.238745,-0.000000,9474.636058
4262.257139,1072.533697,1258.350101,9548.656652
4262.257455,0.000000,2072.576638,9474.636058
4262.257770,306.438199,1406.391290,9474.636058
4262.258086,1915.238745,1110.308913,9178.553681
4262.258401,1762.019645,962.267725,9548.656652
4262.258716,229.828649,1628.453072,9104.533087
4262.259032,-1455.581446,1036.288319,10066.800811
4262.259347,-1225.752797,296.082377,10362.883188
4262.259663,153.219100,-0.000000,10510.924376
4262.259978,-612.876398,740.205942,9992.780217
4262.260294,-1608.800546,-370.102971,10214.842000
4262.260609,-2145.067394,-888.247130,11399.171507
4262.260925,-1455.581446,-518.144159,11251.130318
4262.261240,-612.876398,-296.082377,10510.924376
4262.261556,-1072.533697,740.205942,9622.677246
4262.261871,-1225.752797,962.267725,9770.718434
4262.262186,-306.438199,444.123565,9696.697840
4262.262502,1838.629195,1332.370696,8956.491898
4262.262817,1302.362347,1702.473667,9400.615463
4262.263133,842.705048,1628.453072,8660.409521
4262.263448,-842.705048,1258.350101,8956.491898
4262.263764,-229.828649,-0.000000,9400.615463
4262.264079,1378.971896,-1628.453072,11547.212695
4262.264394,-536.266849,666.185348,9400.615463
4262.264710,-2451.505594,-1184.329507,9400.615463
4262.265025,-1532.190996,-1036.288319,11251.130318
4262.265341,-842.705048,-0.000000,10436.903782
4262.265656,-229.828649,-148.041188,9474.636058
4262.265971,153.219100,518.144159,9548.656652
4262.266287,-689.485948,962.267725,9030.512492
