#time,accel_x,accel_y,accel_z
4217.322031,76.609550,-0.000000,9252.574275
4217.322347,229.828649,222.061783,9770.718434
4217.322662,76.609550,-0.000000,9622.677246
4217.322978,306.438199,-0.000000,9696.697840
4217.323294,306.438199,-0.000000,9844.739029
4217.323610,306.438199,-0.000000,9696.697840
4217.323925,229.828649,296.082377,9474.636058
4217.324241,536.266849,-0.000000,9696.697840
4217.324557,-229.828649,148.041188,9770.718434
4217.324873,0.000000,148.041188,10140.821405
4217.325188,0.000000,-0.000000,9548.656652
4217.325504,0.000000,148.041188,9844.739029
4217.325820,0.000000,-0.000000,9622.677246
4217.326136,536.266849,370.102971,9474.636058
4217.326451,0.000000,-0.000000,9548.656652
4217.326767,-306.438199,-0.000000,9992.780217
4217.327083,0.000000,296.082377,9696.697840
4217.327399,0.000000,-0.000000,9474.636058
4217.327714,76.609550,-0.000000,9918.759623
4217.328030,76.609550,148.041188,9770.718434
4217.328346,76.609550,296.082377,9474.636058
4217.328662,76.609550,-0.000000,9474.636058
4217.328977,229.828649,-0.000000,9622.677246
4217.329293,153.219100,-0.000000,9326.594869
4217.329609,76.609550,370.102971,9474.636058
4217.329925,0.000000,-0.000000,9770.718434
4217.330240,76.609550,148.041188,9622.677246
4217.330556,612.876398,-0.000000,9400.615463
4217.330872,0.000000,74.020594,9252.574275
4217.331188,0.000000,-0.000000,9696.697840
4217.331503,229.828649,222.061783,9474.636058
4217.331819,0.000000,296.082377,9474.636058
4217.332135,306.438199,-0.000000,9696.697840
4217.332451,383.047749,-0.000000,9400.615463
4217.332767,0.000000,-74.020594,9326.594869
4217.333082,76.609550,148.041188,9844.739029
4217.333398,76.609550,-0.000000,9622.677246
4217.333714,459.657299,-0.000000,9474.636058
4217.334030,459.657299,-0.000000,9548.656652
4217.334345,229.828649,222.061783,9622.677246
4217.334661,0.000000,222.061783,9400.615463
4217.334977,153.219100,222.061783,9400.615463
4217.335293,0.000000,222.061783,9770.718434
4217.335608,76.609550,-0.000000,9696.697840
4217.335924,306.438199,296.082377,9770.718434
4217.336240,-153.219100,-0.000000,9696.697840
4217.336556,-229.828649,148.041188,9548.656652
4217.336871,153.219100,-0.000000,9696.697840
4217.337187,76.609550,444.123565,9770.718434
4217.337503,0.000000,222.061783,9918.759623
4217.337819,0.000000,-0.000000,9622.677246
4217.338134,153.219100,148.041188,9770.718434
4217.338450,383.047749,-0.000000,9548.656652
4217.338766,229.828649,296.082377,9770.718434
4217.339082,0.000000,-0.000000,9770.718434
4217.339397,0.000000,-0.000000,9696.697840
4217.339713,0.000000,370.102971,10288.862594
4217.340029,0.000000,-0.000000,9178.553681
4217.340345,0.000000,-74.020594,9474.636058
4217.340660,0.000000,148.041188,9992.780217
4217.340976,0.000000,222.061783,9474.636058
4217.341292,76.609550,-0.000000,9548.656652
4217.341608,0.000000,-0.000000,9326.594869
4217.341923,153.219100,-0.000000,9474.636058
4217.342239,153.219100,148.041188,9474.636058
4217.342555,76.609550,444.123565,9622.677246
4217.342871,0.000000,148.041188,9696.697840
4217.343186,229.828649,-0.000000,9178.553681
4217.343502,383.047749,-0.000000,9252.574275
4217.343818,153.219100,-0.000000,9548.656652
4217.344134,0.000000,222.061783,9474.636058
4217.344449,306.438199,222.061783,9918.759623
4217.344765,229.828649,222.061783,9474.636058
4217.345081,153.219100,296.082377,9622.677246
4217.345397,153.219100,296.082377,9474.636058
4217.345712,229.828649,222.061783,9474.636058
4217.346028,459.657299,-0.000000,9622.677246
4217.346344,612.876398,-0.000000,9474.636058
4217.346660,229.828649,370.102971,9474.636058
4217.346975,153.219100,148.041188,9548.656652
4217.347291,0.000000,296.082377,9992.780217
4217.347607,0.000000,370.102971,9918.759623
4217.347923,0.000000,-0.000000,9474.636058
4217.348238,0.000000,-0.000000,10362.883188
4217.348554,0.000000,-0.000000,9844.739029
4217.348870,0.000000,148.041188,9178.553681
4217.349186,153.219100,-0.000000,9622.677246
4217.349501,-229.828649,-0.000000,9622.677246
4217.349817,0.000000,296.082377,9992.780217
4217.350133,0.000000,74.020594,9770.718434
4217.350449,-153.219100,-0.000000,9770.718434
4217.350764,76.609550,-148.041188,9474.636058
4217.351080,229.828649,222.061783,9252.574275
4217.351396,0.000000,-0.000000,9844.739029
4217.351712,0.000000,222.061783,9696.697840
4217.352027,0.000000,-74.020594,9474.636058
4217.352343,0.000000,-0.000000,9474.636058
4217.352659,0.000000,148.041188,9474.636058
4217.352975,0.000000,666.185348,9400.615463
4217.353290,-229.828649,222.061783,9474.636058
4217.353606,0.000000,444.123565,9622.677246
4217.353922,-306.438199,518.144159,9400.615463
4217.354238,-536.266849,-0.000000,9252.574275
4217.354553,-612.876398,370.102971,9918.759623
4217.354869,-612.876398,444.123565,9622.677246
4217.355185,-612.876398,370.102971,9474.636058
4217.355501,-536.266849,370.102971,9474.636058
4217.355816,-612.876398,370.102971,9844.739029
4217.356132,-459.657299,888.247130,9474.636058
4217.356448,-536.266849,962.267725,9252.574275
4217.356764,-919.314598,814.226536,9474.636058
4217.357080,-536.266849,1110.308913,9252.574275
4217.357395,-995.924147,1332.370696,9400.615463
4217.357711,-1225.752797,1258.350101,9178.553681
4217.358027,-1838.629195,962.267725,9400.615463
4217.358343,-1302.362347,1184.329507,9178.553681
4217.358658,-2451.505594,1184.329507,9474.636058
4217.358974,-2987.772442,1036.288319,10214.842000
4217.359290,-2911.162892,1406.391290,9844.739029
4217.359606,-2911.162892,1258.350101,9844.739029
4217.359921,-3140.991542,1406.391290,9992.780217
4217.360237,-2834.553343,1998.556043,9918.759623
4217.360553,-2834.553343,2294.638420,9918.759623
4217.360869,-2834.553343,2294.638420,9622.677246
4217.361184,-2681.334243,2368.659014,9474.636058
4217.361500,-2451.505594,2738.761985,8956.491898
4217.361816,-2451.505594,2886.803174,9178.553681
4217.362132,-2374.896044,2886.803174,9474.636058
4217.362447,-2757.943793,2812.782580,9548.656652
4217.362763,-2451.505594,2738.761985,9548.656652
4217.363079,-2374.896044,2590.720797,9918.759623
4217.363395,-2374.896044,2220.617826,10436.903782
4217.363710,-2068.457845,2146.597232,10288.862594
4217.364026,-1685.410096,2294.638420,9918.759623
4217.364342,-995.924147,2442.679609,9474.636058
4217.364658,-766.095498,3034.844362,8882.471304
4217.364973,-1072.533697,3404.947333,8512.368333
4217.365289,-689.485948,4071.132681,8512.368333
4217.365605,-995.924147,4145.153275,8512.368333
4217.365921,-1302.362347,4071.132681,8882.471304
4217.366236,-1915.238745,3478.967927,9474.636058
4217.366552,-2145.067394,2960.823768,10214.842000
4217.366868,-2757.943793,2664.741391,10584.944971
4217.367184,-2834.553343,2368.659014,11325.150913
4217.367499,-2834.553343,2516.700203,11399.171507
4217.367815,-2451.505594,3182.885551,11177.109724
4217.368131,-2451.505594,3478.967927,10807.006753
4217.368447,-1991.848295,4367.215058,9696.697840
4217.368762,-1532.190996,4737.318029,9474.636058
4217.369078,-919.314598,4737.318029,8734.430116
4217.369394,-1762.019645,4589.276840,8882.471304
4217.369710,-2221.676944,4071.132681,9548.656652
4217.370025,-2374.896044,3330.926739,9474.636058
4217.370341,-2451.505594,2664.741391,9992.780217
4217.370657,-2451.505594,2072.576638,11177.109724
4217.370973,-2528.115143,1924.535449,11399.171507
4217.371288,-2374.896044,1480.411884,11547.212695
4217.371604,-1838.629195,1998.556043,11177.109724
4217.371920,-919.314598,2072.576638,10436.903782
4217.372236,0.000000,2516.700203,9252.574275
4217.372551,689.485948,3108.864956,8438.347739
4217.372867,536.266849,3404.947333,8364.327145
4217.373183,306.438199,3627.009116,7920.203579
4217.373499,0.000000,3627.009116,7476.080014
4217.373814,-1225.752797,2960.823768,7772.162391
4217.374130,-2145.067394,2516.700203,8586.388927
4217.374446,-3064.381992,1628.453072,9548.656652
4217.374762,-3600.648841,1184.329507,10807.006753
4217.375077,-4290.134789,148.041188,11695.253884
4217.375393,-4596.572988,-0.000000,11029.068536
4217.375709,-4366.744339,222.061783,11177.109724
4217.376025,-3753.867940,740.205942,11399.171507
4217.376340,-2911.162892,1258.350101,10658.965565
4217.376656,-1762.019645,1776.494261,10140.821405
4217.376972,-383.047749,2294.638420,9326.594869
4217.377288,153.219100,3108.864956,8882.471304
4217.377603,1149.143247,3330.926739,8142.265362
4217.377919,459.657299,3478.967927,7920.203579
4217.378235,0.000000,2812.782580,7846.182985
4217.378551,-842.705048,2072.576638,7698.141797
4217.378866,-2068.457845,1332.370696,7994.224174
4217.379182,-3064.381992,148.041188,8438.347739
4217.379498,-4443.353888,-370.102971,9030.512492
4217.379814,-5056.230287,-962.267725,10066.800811
4217.380129,-5592.497135,-1184.329507,10955.047942
4217.380445,-5362.668486,-1332.370696,11177.109724
4217.380761,-4903.011187,-962.267725,12139.377449
4217.381077,-3294.210641,-592.164754,11695.253884
4217.381393,-1915.238745,444.123565,11695.253884
4217.381708,153.219100,1628.453072,10214.842000
4217.382024,1991.848295,3108.864956,9104.533087
4217.382340,2681.334243,4959.379811,7105.977043
4217.382656,2451.505594,6069.688724,6143.709319
4217.382971,1838.629195,5995.668130,5181.441594
4217.383287,229.828649,5107.421000,5107.421000
4217.383603,-2221.676944,3997.112087,7031.956449
4217.383919,-4443.353888,962.267725,9178.553681
4217.384234,-6128.763984,-2146.597232,11991.336260
4217.384550,-7124.688131,-3775.050304,12583.501014
4217.384866,-7814.174080,-4663.297435,13545.768739
4217.385182,-6741.640382,-3849.070898,15026.180623
4217.385497,-4596.572988,-2664.741391,13545.768739
4217.385813,-2068.457845,1036.288319,10362.883188
4217.386129,766.095498,4219.173869,7624.121203
4217.386445,2221.676944,7920.203579,5329.482782
4217.386760,3370.820191,9992.780217,4811.338623
4217.387076,2528.115143,10584.944971,3775.050304
4217.387392,1072.533697,8734.430116,4959.379811
4217.387708,0.000000,5699.585753,8808.450710
4217.388023,-1838.629195,1924.535449,11103.089130
4217.388339,-3370.820191,-1702.473667,13915.871710
4217.388655,-4749.792088,-3256.906145,15766.386565
4217.388971,-5209.449386,-3108.864956,15618.345376
4217.389286,-4519.963438,-2516.700203,13619.789333
4217.389602,-3140.991542,222.061783,11103.089130
4217.389918,-1915.238745,3478.967927,9844.739029
4217.390234,-536.266849,5921.647536,6365.771101
4217.390549,766.095498,7476.080014,4737.318029
4217.390865,1302.362347,8142.265362,4737.318029
4217.391181,0.000000,6957.935855,6513.812290
4217.391497,-995.924147,4737.318029,7920.203579
4217.391812,-1608.800546,2368.659014,9770.718434
4217.392128,-1838.629195,888.247130,11917.315666
4217.392444,-1685.410096,518.144159,12657.521608
4217.392760,-3294.210641,888.247130,12731.542202
4217.393075,-3370.820191,296.082377,12953.603985
4217.393391,-3294.210641,2072.576638,12361.439231
4217.393707,-3217.601092,3182.885551,10140.821405
4217.394023,-3370.820191,3775.050304,8956.491898
4217.394338,-3064.381992,3404.947333,8660.409521
4217.394654,-2298.286494,3404.947333,7550.100608
4217.394970,-1762.019645,3478.967927,7328.038826
4217.395286,-1838.629195,4293.194464,8142.265362
4217.395601,-2221.676944,3627.009116,9918.759623
4217.395917,-2145.067394,3034.844362,10807.006753
4217.396233,-2451.505594,2368.659014,11621.233289
4217.396549,-2145.067394,814.226536,11843.295072
4217.396864,-1991.848295,-148.041188,11251.130318
4217.397180,-1685.410096,-0.000000,10140.821405
4217.397496,-2221.676944,1850.514855,9474.636058
4217.397812,-2221.676944,3330.926739,8142.265362
4217.398127,-1455.581446,4737.318029,7254.018232
4217.398443,-1762.019645,5329.482782,6735.874072
4217.398759,-2911.162892,4293.194464,7624.121203
4217.399075,-3600.648841,2812.782580,9104.533087
4217.399390,-3064.381992,888.247130,10362.883188
4217.399706,-2834.553343,-370.102971,11843.295072
4217.400022,-2834.553343,-1554.432478,12731.542202
4217.400338,-2068.457845,-1258.350101,13471.748144
4217.400653,-1532.190996,-0.000000,11917.315666
4217.400969,-536.266849,2220.617826,10214.842000
4217.401285,1072.533697,3627.009116,7994.224174
4217.401600,1762.019645,4811.338623,5995.668130
4217.401916,1685.410096,5181.441594,6143.709319
4217.402232,689.485948,4737.318029,5477.523971
4217.402547,-1072.533697,3478.967927,6291.750507
4217.402863,-2681.334243,2072.576638,8142.265362
4217.403179,-3064.381992,-148.041188,9548.656652
4217.403494,-3830.477490,-1850.514855,11399.171507
4217.403810,-3600.648841,-2812.782580,12657.521608
4217.404125,-3677.258390,-2590.720797,13471.748144
4217.404441,-3983.696590,-1702.473667,13397.727550
4217.404757,-3524.039291,148.041188,12139.377449
4217.405072,-2681.334243,2368.659014,10510.924376
4217.405388,-306.438199,3627.009116,8290.306550
4217.405704,1149.143247,4737.318029,6513.812290
4217.406019,2068.457845,4663.297435,6143.709319
4217.406335,995.924147,4367.215058,7031.956449
4217.406650,-842.705048,5033.400406,7105.977043
4217.406966,-2068.457845,3034.844362,8734.430116
4217.407282,-2145.067394,1110.308913,10214.842000
4217.407597,-2604.724693,-1258.350101,11695.253884
4217.407913,-3064.381992,-2738.761985,12509.480420
4217.408229,-3907.087040,-3108.864956,12953.603985
4217.408544,-5132.839837,-1406.391290,12435.459826
4217.408860,-4060.306139,148.041188,10807.006753
4217.409176,-1915.238745,1776.494261,9252.574275
4217.409491,153.219100,3849.070898,7994.224174
4217.409807,1378.971896,3849.070898,7031.956449
4217.410122,842.705048,4145.153275,7031.956449
4217.410438,-612.876398,4959.379811,7254.018232
4217.410754,-229.828649,3701.029710,9252.574275
4217.411069,766.095498,3108.864956,9696.697840
4217.411385,995.924147,962.267725,11473.192101
4217.411701,842.705048,-888.247130,12731.542202
4217.412016,-995.924147,-222.061783,11769.274478
4217.412332,-2451.505594,370.102971,11251.130318
4217.412647,-2068.457845,1258.350101,10436.903782
4217.412963,-1608.800546,2220.617826,8660.409521
4217.413279,-919.314598,2368.659014,6883.915261
4217.413594,-919.314598,1850.514855,7550.100608
4217.413910,-1685.410096,2442.679609,7328.038826
4217.414226,-2451.505594,1554.432478,8660.409521
4217.414541,-2068.457845,1184.329507,9918.759623
4217.414857,-766.095498,444.123565,11177.109724
4217.415172,0.000000,-518.144159,11917.315666
4217.415488,-383.047749,-814.226536,12213.398043
4217.415804,-536.266849,-0.000000,11547.212695
4217.416119,459.657299,962.267725,10807.006753
4217.416435,1225.752797,2886.803174,8956.491898
4217.416751,2145.067394,2960.823768,7994.224174
4217.417066,1532.190996,2146.597232,7550.100608
4217.417382,-306.438199,3034.844362,6809.894666
4217.417697,-612.876398,1332.370696,7698.141797
4217.418013,-689.485948,518.144159,8438.347739
4217.418329,-612.876398,-1332.370696,9770.718434
4217.418644,-1455.581446,-2738.761985,11325.150913
4217.418960,-2451.505594,-2294.638420,11991.336260
4217.419276,-2451.505594,-2294.638420,11621.233289
4217.419591,-1149.143247,-1924.535449,11473.192101
4217.419907,766.095498,148.041188,10288.862594
4217.420222,2221.676944,1110.308913,10288.862594
4217.420538,2145.067394,2886.803174,7254.018232
4217.420854,766.095498,3775.050304,5995.668130
4217.421169,1378.971896,3404.947333,7254.018232
4217.421485,1838.629195,3478.967927,7402.059420
4217.421801,1532.190996,2146.597232,8438.347739
4217.422116,-153.219100,296.082377,9696.697840
4217.422432,-2604.724693,-740.205942,10288.862594
4217.422747,-2681.334243,-1850.514855,11695.253884
4217.423063,-2068.457845,-2590.720797,12805.562797
4217.423379,-1532.190996,-3256.906145,12509.480420
4217.423694,-1225.752797,-3034.844362,11769.274478
4217.424010,-1225.752797,-888.247130,10140.821405
4217.424326,-612.876398,814.226536,8290.306550
4217.424641,1378.971896,2442.679609,7920.203579
4217.424957,2604.724693,3330.926739,7105.977043
4217.425272,2604.724693,2368.659014,7254.018232
4217.425588,1762.019645,2516.700203,7698.141797
4217.425904,612.876398,1332.370696,7846.182985
4217.426219,459.657299,-222.061783,9622.677246
4217.426535,766.095498,-1332.370696,11843.295072
4217.426851,459.657299,-2886.803174,11991.336260
4217.427166,0.000000,-3404.947333,12139.377449
4217.427482,-1149.143247,-2368.659014,11473.192101
4217.427797,-689.485948,-1776.494261,10214.842000
4217.428113,229.828649,-444.123565,9844.739029
4217.428429,1072.533697,296.082377,9252.574275
4217.428744,1455.581446,814.226536,8586.388927
4217.429060,919.314598,1554.432478,6587.832884
4217.429376,536.266849,-74.020594,7254.018232
4217.429691,766.095498,-370.102971,9104.533087
4217.430007,1149.143247,-888.247130,9992.780217
4217.430323,1225.752797,-2294.638420,10584.944971
4217.430638,0.000000,-2146.597232,11251.130318
4217.430954,-383.047749,-1480.411884,10807.006753
4217.431269,0.000000,-1850.514855,10140.821405
4217.431585,306.438199,-1480.411884,10214.842000
4217.431901,766.095498,-1554.432478,10510.924376
4217.432216,76.609550,-888.247130,8956.491898
4217.432532,-995.924147,518.144159,7328.038826
4217.432848,-842.705048,370.102971,7254.018232
4217.433163,0.000000,222.061783,8216.285956
4217.433479,612.876398,-222.061783,8882.471304
4217.433794,-459.657299,-592.164754,9844.739029
4217.434110,-1991.848295,-962.267725,10584.944971
4217.434426,-1838.629195,-1480.411884,11251.130318
4217.434741,-459.657299,-1406.391290,10362.883188
4217.435057,995.924147,-1924.535449,11769.274478
4217.435373,766.095498,-814.226536,9992.780217
4217.435688,0.000000,296.082377,9178.553681
4217.436004,76.609550,1332.370696,7550.100608
4217.436319,1302.362347,2072.576638,7328.038826
4217.436635,2221.676944,2146.597232,6587.832884
4217.436951,2145.067394,1184.329507,7698.141797
4217.437266,229.828649,1036.288319,7698.141797
4217.437582,-1072.533697,-296.082377,8586.388927
4217.437898,-766.095498,-666.185348,10807.006753
4217.438213,-459.657299,-1332.370696,10955.047942
4217.438529,76.609550,-1776.494261,11251.130318
4217.438844,0.000000,-1184.329507,11769.274478
4217.439160,-612.876398,370.102971,10140.821405
4217.439476,766.095498,888.247130,9252.574275
4217.439791,1608.800546,2368.659014,8364.327145
4217.440107,1915.238745,2442.679609,7920.203579
4217.440423,1302.362347,2664.741391,7920.203579
4217.440738,383.047749,2886.803174,7550.100608
4217.441054,306.438199,1406.391290,8882.471304
4217.441369,383.047749,740.205942,10140.821405
4217.441685,306.438199,-296.082377,11769.274478
4217.442001,-536.266849,-1628.453072,12361.439231
4217.442316,-1532.190996,-814.226536,12213.398043
4217.442632,-1532.190996,148.041188,11769.274478
4217.442948,-383.047749,296.082377,10955.047942
4217.443263,1225.752797,1110.308913,9918.759623
4217.443579,1685.410096,1184.329507,9104.533087
4217.443894,919.314598,1776.494261,8216.285956
4217.444210,919.314598,2960.823768,7402.059420
4217.444526,1455.581446,2664.741391,8216.285956
4217.444841,1302.362347,2516.700203,9400.615463
4217.445157,1302.362347,962.267725,9918.759623
4217.445473,0.000000,-148.041188,11103.089130
4217.445788,-1302.362347,-0.000000,10881.027347
4217.446104,-1378.971896,-740.205942,11103.089130
4217.446419,-842.705048,222.061783,11325.150913
4217.446735,-229.828649,-222.061783,10955.047942
4217.447051,-229.828649,-296.082377,9844.739029
4217.447366,-1149.143247,1036.288319,9400.615463
4217.447682,-689.485948,1628.453072,8882.471304
4217.447998,0.000000,1998.556043,8216.285956
4217.448313,612.876398,1702.473667,9030.512492
4217.448629,229.828649,518.144159,9474.636058
4217.448945,-995.924147,592.164754,9474.636058
4217.449260,-1302.362347,-0.000000,9400.615463
4217.449576,-919.314598,592.164754,10288.862594
4217.449891,-229.828649,296.082377,10881.027347
4217.450207,306.438199,-814.226536,11103.089130
4217.450523,-689.485948,-814.226536,9992.780217
4217.450838,-1149.143247,-296.082377,9178.553681
4217.451154,-612.876398,-444.123565,9400.615463
4217.451470,0.000000,740.205942,8956.491898
4217.451785,919.314598,-0.000000,8956.491898
4217.452101,1072.533697,-148.041188,9030.512492
4217.452416,-306.438199,666.185348,8290.306550
4217.452732,-689.485948,-370.102971,8660.409521
4217.453048,0.000000,-296.082377,9548.656652
4217.453363,1072.533697,-1110.308913,10362.883188
4217.453679,919.314598,-2072.576638,10510.924376
4217.453995,0.000000,-1406.391290,10288.862594
4217.454310,-306.438199,-888.247130,9252.574275
4217.454626,766.095498,-370.102971,9770.718434
4217.454941,1915.238745,-148.041188,9326.594869
4217.455257,1915.238745,-148.041188,8956.491898
4217.455573,766.095498,-370.102971,8512.368333
4217.455888,0.000000,-74.020594,8882.471304
4217.456204,383.047749,-0.000000,8882.471304
4217.456520,536.266849,-0.000000,9252.574275
4217.456835,689.485948,-1110.308913,9844.739029
4217.457151,0.000000,-1406.391290,10584.944971
4217.457466,-1149.143247,-1332.370696,9696.697840
4217.457782,76.609550,-1406.391290,10214.842000
4217.458098,919.314598,-814.226536,9696.697840
4217.458413,1532.190996,-1110.308913,10066.800811
4217.458729,1532.190996,-740.205942,9844.739029
4217.459045,383.047749,370.102971,9178.553681
4217.459360,1149.143247,962.267725,8290.306550
4217.459676,1225.752797,1332.370696,8808.450710
4217.459991,1149.143247,370.102971,8586.388927
4217.460307,1149.143247,-962.267725,9770.718434
4217.460623,0.000000,-666.185348,10066.800811
4217.460938,-1072.533697,-962.267725,10214.842000
4217.461254,-229.828649,-518.144159,9918.759623
4217.461570,153.219100,-666.185348,10214.842000
4217.461885,689.485948,-1702.473667,10658.965565
4217.462201,76.609550,-1036.288319,9992.780217
4217.462516,76.609550,-222.061783,9474.636058
4217.462832,919.314598,962.267725,8734.430116
4217.463148,919.314598,2220.617826,8734.430116
4217.463463,1149.143247,1924.535449,8660.409521
4217.463779,383.047749,1406.391290,8882.471304
4217.464095,-842.705048,1184.329507,9178.553681
4217.464410,-1149.143247,296.082377,9474.636058
4217.464726,-919.314598,518.144159,10362.883188
4217.465041,-459.657299,-370.102971,11103.089130
4217.465357,-1149.143247,-1036.288319,11029.068536
4217.465673,-1532.190996,-814.226536,10288.862594
4217.465988,-1838.629195,-74.020594,10288.862594
4217.466304,-919.314598,1332.370696,9474.636058
4217.466620,-383.047749,1480.411884,9178.553681
4217.466935,0.000000,962.267725,9030.512492
4217.467251,-1225.752797,1480.411884,8956.491898
4217.467566,-1532.190996,1036.288319,8660.409521
4217.467882,-766.095498,1036.288319,9400.615463
4217.468198,-459.657299,814.226536,9696.697840
4217.468513,383.047749,-666.185348,9770.718434
4217.468829,-919.314598,-518.144159,10288.862594
4217.469145,-1532.190996,296.082377,9548.656652
4217.469460,-689.485948,222.061783,10288.862594
4217.469776,536.266849,1776.494261,9844.739029
4217.470092,995.924147,1332.370696,9474.636058
4217.470407,612.876398,962.267725,9326.594869
4217.470723,-459.657299,1480.411884,8512.368333
4217.471038,-459.657299,1406.391290,8734.430116
4217.471354,229.828649,1628.453072,9326.594869
4217.471670,1072.533697,1332.370696,9474.636058
4217.471985,995.924147,-148.041188,10140.821405
4217.472301,-459.657299,-0.000000,9844.739029
4217.472617,-459.657299,370.102971,10362.883188
4217.472932,459.657299,1036.288319,9696.697840
4217.473248,1225.752797,1332.370696,9770.718434
4217.473563,2068.457845,814.226536,9844.739029
4217.473879,1532.190996,740.205942,9178.553681
4217.474195,612.876398,1406.391290,8586.388927
4217.474510,1302.362347,1776.494261,8438.347739
4217.474826,1532.190996,1924.535449,8956.491898
4217.475142,1991.848295,370.102971,9622.677246
4217.475457,995.924147,296.082377,10066.800811
4217.475773,-153.219100,-0.000000,9844.739029
4217.476088,-229.828649,-0.000000,10140.821405
4217.476404,459.657299,-0.000000,10288.862594
4217.476720,1072.533697,-814.226536,11325.150913
4217.477035,459.657299,-1406.391290,11547.212695
4217.477351,-306.438199,370.102971,10288.862594
4217.477667,0.000000,1036.288319,9474.636058
4217.477982,766.095498,1776.494261,9400.615463
4217.478298,1455.581446,1110.308913,9696.697840
4217.478613,1838.629195,-0.000000,9918.759623
4217.478929,383.047749,444.123565,9030.512492
4217.479245,-153.219100,592.164754,8660.409521
4217.479560,229.828649,296.082377,9104.533087
4217.479876,536.266849,370.102971,10066.800811
4217.480192,306.438199,-1332.370696,10881.027347
4217.480507,-1149.143247,-1628.453072,10362.883188
4217.480823,-1915.238745,-1258.350101,10362.883188
4217.481138,-1685.410096,-1184.329507,9992.780217
4217.481454,-842.705048,-222.061783,10066.800811
4217.481770,-229.828649,-592.164754,10214.842000
4217.482085,-919.314598,-592.164754,9548.656652
4217.482401,-1455.581446,-370.102971,9400.615463
4217.482717,-919.314598,-222.061783,9030.512492
4217.483032,0.000000,-0.000000,8734.430116
4217.483348,1072.533697,-148.041188,9252.574275
4217.483663,0.000000,-814.226536,9474.636058
4217.483979,-1072.533697,-740.205942,9622.677246
4217.484295,-1225.752797,-1184.329507,9622.677246
4217.484610,-153.219100,-592.164754,9548.656652
4217.484926,-153.219100,-888.247130,10288.862594
4217.485242,0.000000,-1850.514855,9844.739029
4217.485557,-1225.752797,-1258.350101,9770.718434
4217.485873,-1608.800546,-1332.370696,9326.594869
4217.486188,-383.047749,-1332.370696,9474.636058
4217.486504,76.609550,-296.082377,9178.553681
4217.486820,459.657299,-370.102971,9548.656652
4217.487135,0.000000,-74.020594,9326.594869
4217.487451,-919.314598,-0.000000,8882.471304
4217.487767,229.828649,-444.123565,9474.636058
4217.488082,536.266849,518.144159,9326.594869
4217.488398,919.314598,-0.000000,10066.800811
4217.488713,842.705048,-592.164754,10066.800811
4217.489029,0.000000,-0.000000,8808.450710
4217.489345,0.000000,-148.041188,8808.450710
4217.489660,459.657299,222.061783,8808.450710
4217.489976,459.657299,-0.000000,8956.491898
4217.490292,919.314598,-1406.391290,8882.471304
4217.490607,-612.876398,-592.164754,8882.471304
4217.490923,-919.314598,-518.144159,8660.409521
4217.491239,229.828649,-222.061783,9548.656652
4217.491554,1302.362347,-0.000000,9104.533087
4217.491870,995.924147,-814.226536,9770.718434
4217.492185,766.095498,-296.082377,9696.697840
4217.492501,459.657299,518.144159,9400.615463
4217.492817,1455.581446,1702.473667,8882.471304
4217.493132,2221.676944,2072.576638,9474.636058
4217.493448,2528.115143,1332.370696,9548.656652
4217.493764,1685.410096,1110.308913,9326.594869
4217.494079,0.000000,962.267725,9474.636058
4217.494395,0.000000,1184.329507,9696.697840
4217.494710,612.876398,592.164754,10658.965565
4217.495026,1685.410096,296.082377,10658.965565
4217.495342,842.705048,-222.061783,10732.986159
4217.495657,-536.266849,518.144159,10066.800811
4217.495973,-229.828649,370.102971,9844.739029
4217.496289,459.657299,1332.370696,10288.862594
4217.496604,1225.752797,1480.411884,10066.800811
4217.496920,1378.971896,1332.370696,9770.718434
4217.497235,0.000000,1406.391290,9548.656652
4217.497551,-383.047749,1258.350101,8956.491898
4217.497867,306.438199,1406.391290,9992.780217
4217.498182,0.000000,1332.370696,10732.986159
4217.498498,306.438199,592.164754,10732.986159
4217.498814,-919.314598,888.247130,10584.944971
4217.499131,-2221.676944,1258.350101,10288.862594
4217.499446,-1378.971896,1184.329507,10066.800811
4217.499761,-689.485948,1258.350101,10214.842000
4217.500077,76.609550,-222.061783,10807.006753
4217.500392,-689.485948,-148.041188,10658.965565
4217.500707,-1302.362347,518.144159,9030.512492
4217.501023,-689.485948,296.082377,9178.553681
4217.501338,153.219100,1258.350101,9178.553681
4217.501653,459.657299,740.205942,8660.409521
4217.501968,229.828649,-370.102971,9548.656652
4217.502284,-995.924147,-0.000000,9030.512492
4217.502599,-919.314598,-296.082377,9474.636058
4217.502914,-306.438199,370.102971,9104.533087
4217.503230,229.828649,-0.000000,9474.636058
4217.503545,459.657299,-444.123565,9548.656652
4217.503860,-306.438199,-814.226536,9178.553681
4217.504176,-1149.143247,-666.185348,8660.409521
4217.504491,-306.438199,370.102971,9326.594869
4217.504806,-153.219100,1036.288319,9326.594869
4217.505121,153.219100,-0.000000,9474.636058
4217.505437,-306.438199,-148.041188,9326.594869
4217.505752,-1072.533697,-74.020594,8956.491898
4217.506067,-612.876398,-666.185348,9326.594869
4217.506383,0.000000,-296.082377,10214.842000
4217.506698,689.485948,-444.123565,9696.697840
4217.507013,306.438199,-592.164754,9474.636058
4217.507329,-383.047749,296.082377,8956.491898
4217.507644,0.000000,-0.000000,8956.491898
4217.507959,536.266849,296.082377,9252.574275
4217.508274,1455.581446,222.061783,9104.533087
4217.508590,1455.581446,-1036.288319,9474.636058
4217.508905,459.657299,-814.226536,9622.677246
4217.509220,-459.657299,-888.247130,9770.718434
4217.509536,536.266849,-740.205942,10066.800811
4217.509851,842.705048,-222.061783,10066.800811
4217.510166,1149.143247,-1332.370696,10436.903782
4217.510482,842.705048,-1406.391290,10066.800811
4217.510797,229.828649,-592.164754,9548.656652
4217.511112,689.485948,222.061783,9474.636058
4217.511427,1149.143247,370.102971,9770.718434
4217.511743,2145.067394,-222.061783,9844.739029
4217.512058,2068.457845,-74.020594,9252.574275
4217.512373,919.314598,74.020594,8734.430116
4217.512689,919.314598,-74.020594,9474.636058
4217.513004,1608.800546,296.082377,9844.739029
4217.513319,1532.190996,148.041188,9104.533087
4217.513635,459.657299,-666.185348,9992.780217
4217.513950,-1225.752797,-592.164754,9844.739029
4217.514265,-1378.971896,-888.247130,9844.739029
4217.514581,-459.657299,-592.164754,10288.862594
4217.514896,153.219100,-592.164754,10881.027347
4217.515211,0.000000,-888.247130,10214.842000
4217.515526,-1225.752797,-148.041188,9548.656652
4217.515842,-1225.752797,222.061783,8956.491898
4217.516157,0.000000,740.205942,8882.471304
4217.516472,689.485948,1110.308913,9474.636058
4217.516788,1378.971896,666.185348,9178.553681
4217.517103,-383.047749,444.123565,9474.636058
4217.517418,-1378.971896,370.102971,9252.574275
4217.517734,-842.705048,222.061783,9326.594869
4217.518049,0.000000,370.102971,9622.677246
4217.518364,459.657299,-518.144159,10510.924376
4217.518679,-536.266849,-888.247130,10362.883188
4217.518995,-1532.190996,-222.061783,9548.656652
4217.519310,-1532.190996,-148.041188,9622.677246
4217.519625,-612.876398,1258.350101,9474.636058
4217.519941,383.047749,370.102971,9474.636058
4217.520256,306.438199,518.144159,9474.636058
4217.520571,-689.485948,592.164754,9474.636058
4217.520887,-612.876398,888.247130,8734.430116
4217.521202,919.314598,1110.308913,9104.533087
4217.521517,1225.752797,1554.432478,9696.697840
4217.521832,995.924147,814.226536,9918.759623
4217.522148,0.000000,666.185348,9474.636058
4217.522463,-689.485948,592.164754,8586.388927
4217.522778,0.000000,740.205942,9178.553681
4217.523094,0.000000,1036.288319,9622.677246
4217.523409,153.219100,518.144159,9548.656652
4217.523724,-766.095498,148.041188,9548.656652
4217.524040,-1455.581446,666.185348,9400.615463
4217.524355,-1225.752797,296.082377,9474.636058
4217.524670,76.609550,1258.350101,9696.697840
4217.524986,842.705048,888.247130,10362.883188
4217.525301,842.705048,148.041188,10066.800811
4217.525616,-383.047749,740.205942,9918.759623
4217.525931,383.047749,1406.391290,8808.450710
4217.526247,689.485948,1850.514855,9474.636058
4217.526562,1608.800546,1924.535449,9622.677246
4217.526877,1762.019645,1110.308913,9622.677246
4217.527193,842.705048,888.247130,9548.656652
4217.527508,459.657299,-0.000000,9696.697840
4217.527823,1149.143247,518.144159,9400.615463
4217.528139,766.095498,666.185348,10584.944971
4217.528454,1225.752797,-296.082377,9918.759623
4217.528769,0.000000,-814.226536,10510.924376
4217.529084,-995.924147,-222.061783,10066.800811
4217.529400,-229.828649,-740.205942,10214.842000
4217.529715,306.438199,814.226536,9918.759623
4217.530030,1225.752797,-0.000000,10436.903782
4217.530346,1149.143247,-592.164754,9918.759623
4217.530661,-459.657299,370.102971,9474.636058
4217.530976,153.219100,296.082377,9400.615463
4217.531292,689.485948,1184.329507,9548.656652
4217.531607,1225.752797,444.123565,10066.800811
4217.531922,1762.019645,-370.102971,10066.800811
4217.532237,-842.705048,-0.000000,9844.739029
4217.532553,-1072.533697,-0.000000,9252.574275
4217.532868,-383.047749,222.061783,9326.594869
4217.533183,306.438199,-74.020594,9400.615463
4217.533499,0.000000,-1332.370696,10288.862594
4217.533814,-1378.971896,-1924.535449,10436.903782
4217.534129,-1455.581446,-592.164754,9326.594869
4217.534445,-536.266849,-444.123565,9770.718434
4217.534760,0.000000,222.061783,9030.512492
4217.535075,536.266849,-888.247130,10214.842000
4217.535390,0.000000,-1036.288319,8734.430116
4217.535706,-306.438199,-888.247130,8956.491898
4217.536021,0.000000,-74.020594,8586.388927
4217.536336,536.266849,222.061783,9474.636058
4217.536652,995.924147,-0.000000,9474.636058
4217.536967,229.828649,-666.185348,9474.636058
4217.537282,-689.485948,-148.041188,9030.512492
4217.537598,-459.657299,-1110.308913,9030.512492
4217.537913,0.000000,-0.000000,9622.677246
4217.538228,689.485948,-740.205942,9696.697840
4217.538544,153.219100,-1258.350101,9696.697840
4217.538859,-1072.533697,-962.267725,9104.533087
4217.539174,-842.705048,-666.185348,9178.553681
4217.539489,306.438199,-0.000000,8882.471304
4217.539805,536.266849,-74.020594,9696.697840
4217.540120,1302.362347,-370.102971,9474.636058
4217.540435,-229.828649,-0.000000,9104.533087
4217.540751,-919.314598,-0.000000,9252.574275
4217.541066,0.000000,296.082377,9844.739029
4217.541381,306.438199,222.061783,9844.739029
4217.541697,919.314598,-444.123565,9918.759623
4217.542012,0.000000,-0.000000,10066.800811
4217.542327,-766.095498,370.102971,9178.553681
4217.542642,-153.219100,-0.000000,9548.656652
4217.542958,306.438199,666.185348,9770.718434
4217.543273,536.266849,444.123565,9918.759623
4217.543588,153.219100,-0.000000,9770.718434
4217.543904,-229.828649,-0.000000,9622.677246
4217.544219,-459.657299,296.082377,9400.615463
4217.544534,383.047749,740.205942,9622.677246
4217.544850,919.314598,666.185348,9548.656652
4217.545165,995.924147,-0.000000,10288.862594
4217.545480,229.828649,814.226536,9474.636058
4217.545795,76.609550,444.123565,9326.594869
4217.546111,689.485948,1924.535449,8956.491898
4217.546426,1149.143247,1480.411884,9696.697840
4217.546741,1378.971896,666.185348,9400.615463
4217.547057,-153.219100,592.164754,9770.718434
4217.547372,-1378.971896,666.185348,9696.697840
4217.547687,-689.485948,666.185348,9548.656652
4217.548003,-842.705048,1406.391290,9548.656652
4217.548318,459.657299,148.041188,10436.903782
4217.548633,0.000000,-370.102971,10362.883188
4217.548948,-766.095498,296.082377,9474.636058
4217.549264,-306.438199,296.082377,9400.615463
4217.549579,842.705048,1850.514855,9474.636058
4217.549894,1302.362347,1628.453072,9178.553681
4217.550210,1225.752797,518.144159,9400.615463
4217.550525,0.000000,1480.411884,8882.471304
4217.550840,-459.657299,518.144159,8808.450710
4217.551156,0.000000,518.144159,9474.636058
4217.551471,229.828649,-0.000000,10584.944971
4217.551786,229.828649,-666.185348,10732.986159
4217.552102,-1149.143247,-518.144159,10214.842000
4217.552417,-1685.410096,-370.102971,9844.739029
4217.552732,-689.485948,148.041188,10510.924376
4217.553047,0.000000,666.185348,10066.800811
4217.553363,919.314598,222.061783,9400.615463
4217.553678,229.828649,296.082377,9918.759623
4217.553993,153.219100,888.247130,8290.306550
4217.554309,-229.828649,1258.350101,8660.409521
4217.554624,459.657299,1258.350101,9252.574275
4217.554939,1149.143247,-148.041188,9844.739029
4217.555255,0.000000,-148.041188,9622.677246
4217.555570,-842.705048,-0.000000,9548.656652
4217.555885,-995.924147,-74.020594,9326.594869
4217.556200,0.000000,-0.000000,9474.636058
4217.556516,536.266849,-74.020594,9548.656652
4217.556831,229.828649,-1184.329507,10140.821405
4217.557146,-459.657299,-0.000000,9548.656652
4217.557462,-536.266849,-518.144159,9104.533087
4217.557777,383.047749,296.082377,9326.594869
4217.558092,842.705048,888.247130,9030.512492
4217.558408,1225.752797,-518.144159,10066.800811
4217.558723,229.828649,296.082377,9178.553681
4217.559038,383.047749,-296.082377,8734.430116
4217.559353,1532.190996,-0.000000,9030.512492
4217.559669,1378.971896,370.102971,9104.533087
4217.559984,1455.581446,-148.041188,9400.615463
4217.560299,459.657299,-592.164754,9844.739029
4217.560615,-459.657299,-444.123565,8734.430116
4217.560930,0.000000,-1258.350101,9474.636058
4217.561245,459.657299,-370.102971,9474.636058
4217.561561,1378.971896,-518.144159,9548.656652
4217.561876,459.657299,-1184.329507,10214.842000
4217.562191,-919.314598,-74.020594,9474.636058
4217.562506,-229.828649,-370.102971,9622.677246
4217.562822,383.047749,-74.020594,9548.656652
4217.563137,1149.143247,-74.020594,9474.636058
4217.563452,612.876398,-370.102971,9770.718434
4217.563768,-459.657299,-0.000000,9474.636058
4217.564083,-689.485948,148.041188,9178.553681
4217.564398,-229.828649,222.061783,9622.677246
4217.564714,0.000000,222.061783,10066.800811
4217.565029,0.000000,-814.226536,9992.780217
4217.565344,-689.485948,-666.185348,9918.759623
4217.565660,-1302.362347,-962.267725,9992.780217
4217.565975,-766.095498,-74.020594,10140.821405
4217.566290,-689.485948,-0.000000,9622.677246
4217.566605,229.828649,-222.061783,9918.759623
4217.566921,-383.047749,-444.123565,9548.656652
4217.567236,-842.705048,-0.000000,8882.471304
4217.567551,0.000000,-0.000000,8882.471304
4217.567867,383.047749,1258.350101,8882.471304
4217.568182,1072.533697,814.226536,9400.615463
4217.568497,689.485948,-0.000000,9326.594869
4217.568813,-536.266849,518.144159,9326.594869
4217.569128,-229.828649,148.041188,9104.533087
4217.569443,536.266849,1110.308913,9622.677246
4217.569758,919.314598,1258.350101,9474.636058
4217.570074,766.095498,-74.020594,9918.759623
4217.570389,153.219100,444.123565,9548.656652
4217.570704,-766.095498,222.061783,9844.739029
4217.571020,-306.438199,888.247130,9918.759623
4217.571335,383.047749,1110.308913,9770.718434
4217.571650,536.266849,296.082377,9770.718434
4217.571966,0.000000,962.267725,10584.944971
4217.572281,-689.485948,814.226536,9400.615463
4217.572596,76.609550,-0.000000,10066.800811
4217.572911,0.000000,1110.308913,9918.759623
4217.573227,1149.143247,296.082377,9548.656652
4217.573542,995.924147,-0.000000,9622.677246
4217.573857,0.000000,1110.308913,9252.574275
4217.574173,0.000000,962.267725,9696.697840
4217.574488,536.266849,888.247130,9992.780217
4217.574803,1149.143247,444.123565,9844.739029
4217.575119,766.095498,-666.185348,10362.883188
4217.575434,0.000000,-74.020594,10436.903782
4217.575749,0.000000,-0.000000,9548.656652
4217.576064,612.876398,740.205942,9918.759623
4217.576380,1685.410096,740.205942,10140.821405
4217.576695,1608.800546,296.082377,9918.759623
4217.577010,1072.533697,666.185348,9548.656652
4217.577326,229.828649,-74.020594,9400.615463
4217.577641,766.095498,740.205942,9548.656652
4217.577956,919.314598,888.247130,9770.718434
4217.578272,1149.143247,-370.102971,9770.718434
4217.578587,689.485948,-592.164754,10214.842000
4217.578902,-383.047749,-148.041188,9252.574275
4217.579218,0.000000,-0.000000,9252.574275
4217.579533,383.047749,1036.288319,9622.677246
4217.579848,229.828649,296.082377,9326.594869
4217.580163,-536.266849,-370.102971,8956.491898
4217.580479,-1378.971896,-0.000000,9400.615463
4217.580794,-1378.971896,-592.164754,9252.574275
4217.581109,-536.266849,-296.082377,9474.636058
4217.581425,-229.828649,-74.020594,9548.656652
4217.581740,-383.047749,-444.123565,9992.780217
4217.582055,-1149.143247,-0.000000,9252.574275
4217.582371,-1532.190996,-0.000000,8956.491898
4217.582686,-153.219100,666.185348,8808.450710
4217.583001,612.876398,518.144159,9400.615463
4217.583316,229.828649,-222.061783,9326.594869
4217.583632,-536.266849,-518.144159,9326.594869
4217.583947,-995.924147,-1110.308913,9030.512492
4217.584262,-689.485948,-888.247130,9622.677246
4217.584578,-306.438199,-74.020594,9474.636058
4217.584893,153.219100,-962.267725,10510.924376
4217.585208,0.000000,-740.205942,9326.594869
4217.585524,-1149.143247,-518.144159,9474.636058
4217.585839,-766.095498,-1036.288319,8882.471304
4217.586154,612.876398,-1110.308913,9104.533087
4217.586469,995.924147,-74.020594,9400.615463
4217.586785,689.485948,-148.041188,9030.512492
4217.587100,0.000000,666.185348,8364.327145
4217.587415,229.828649,-0.000000,9252.574275
4217.587731,306.438199,518.144159,8882.471304
4217.588046,842.705048,518.144159,9326.594869
4217.588361,995.924147,222.061783,9918.759623
4217.588677,-612.876398,-74.020594,10140.821405
4217.588992,-1378.971896,-74.020594,9178.553681
4217.589307,-689.485948,-222.061783,10214.842000
4217.589623,0.000000,-0.000000,9918.759623
4217.589938,0.000000,-666.185348,10510.924376
4217.590253,-383.047749,148.041188,11103.089130
4217.590568,-1072.533697,814.226536,9474.636058
4217.590884,-153.219100,814.226536,9622.677246
4217.591199,766.095498,1332.370696,10362.883188
4217.591514,2068.457845,888.247130,9844.739029
4217.591830,1915.238745,740.205942,9474.636058
4217.592145,306.438199,1406.391290,9252.574275
4217.592460,689.485948,1036.288319,9178.553681
4217.592776,1225.752797,1554.432478,9474.636058
4217.593091,1608.800546,888.247130,8882.471304
4217.593406,1225.752797,-740.205942,10214.842000
4217.593721,0.000000,222.061783,10214.842000
4217.594037,-689.485948,592.164754,10362.883188
4217.594352,0.000000,814.226536,9918.759623
4217.594667,919.314598,370.102971,10140.821405
4217.594983,1302.362347,-518.144159,10732.986159
4217.595298,306.438199,666.185348,9548.656652
4217.595613,-459.657299,740.205942,9770.718434
4217.595929,766.095498,1628.453072,9252.574275
4217.596244,1302.362347,1776.494261,9326.594869
4217.596559,1149.143247,962.267725,9844.739029
4217.596874,153.219100,518.144159,9696.697840
4217.597190,-766.095498,222.061783,10140.821405
4217.597505,-612.876398,-0.000000,9918.759623
4217.597820,0.000000,370.102971,9548.656652
4217.598136,-229.828649,-0.000000,10140.821405
4217.598451,-1302.362347,-1036.288319,10066.800811
4217.598766,-1072.533697,-444.123565,9992.780217
4217.599082,-1838.629195,-444.123565,9918.759623
4217.599397,-612.876398,148.041188,9696.697840
4217.599712,-459.657299,814.226536,9844.739029
4217.600028,-306.438199,-444.123565,9918.759623
4217.600343,-612.876398,-0.000000,9474.636058
4217.600658,-689.485948,-296.082377,9178.553681
4217.600974,0.000000,296.082377,9326.594869
4217.601289,536.266849,1110.308913,9400.615463
4217.601604,689.485948,-148.041188,9548.656652
4217.601920,-229.828649,-222.061783,9104.533087
4217.602235,-1072.533697,-0.000000,8808.450710
4217.602550,-612.876398,-0.000000,9326.594869
4217.602866,0.000000,370.102971,8734.430116
4217.603181,0.000000,-666.185348,9474.636058
4217.603496,-459.657299,-518.144159,9844.739029
4217.603812,-1072.533697,-0.000000,8512.368333
4217.604127,-766.095498,-518.144159,9548.656652
4217.604442,76.609550,370.102971,9474.636058
4217.604758,536.266849,-0.000000,9844.739029
4217.605073,919.314598,-962.267725,9622.677246
4217.605388,-459.657299,222.061783,8734.430116
4217.605704,-842.705048,222.061783,8956.491898
4217.606019,0.000000,888.247130,9326.594869
4217.606334,459.657299,1332.370696,9548.656652
4217.606650,459.657299,-222.061783,9622.677246
4217.606965,0.000000,-370.102971,10140.821405
4217.607280,-995.924147,-74.020594,9326.594869
4217.607596,0.000000,-296.082377,9844.739029
4217.607911,612.876398,148.041188,10658.965565
4217.608226,459.657299,-962.267725,10140.821405
4217.608542,229.828649,-962.267725,10140.821405
4217.608857,0.000000,-0.000000,9548.656652
4217.609172,536.266849,-0.000000,8956.491898
4217.609488,1455.581446,592.164754,9622.677246
4217.609803,2221.676944,-0.000000,9696.697840
4217.610118,1762.019645,-0.000000,9696.697840
4217.610434,689.485948,-148.041188,9326.594869
4217.610749,459.657299,-444.123565,9474.636058
4217.611064,995.924147,518.144159,10214.842000
4217.611380,1915.238745,222.061783,9918.759623
4217.611695,1378.971896,-1184.329507,10362.883188
4217.612010,0.000000,-222.061783,10362.883188
4217.612326,-229.828649,-444.123565,9474.636058
4217.612641,766.095498,666.185348,9696.697840
4217.612956,1608.800546,518.144159,10066.800811
4217.613272,1225.752797,-0.000000,10362.883188
4217.613587,306.438199,370.102971,9474.636058
4217.613902,-153.219100,370.102971,9622.677246
4217.614218,153.219100,962.267725,9622.677246
4217.614533,842.705048,1184.329507,9400.615463
4217.614848,1455.581446,-222.061783,9474.636058
4217.615164,306.438199,-666.185348,9474.636058
4217.615479,-1225.752797,-222.061783,9252.574275
4217.615794,-536.266849,-888.247130,9252.574275
4217.616110,-153.219100,1036.288319,9030.512492
4217.616425,-153.219100,518.144159,9326.594869
4217.616740,-306.438199,-222.061783,9918.759623
4217.617056,-1225.752797,518.144159,9104.533087
4217.617371,-1532.190996,-222.061783,8734.430116
4217.617686,-306.438199,592.164754,9178.553681
4217.618002,0.000000,888.247130,9474.636058
4217.618317,153.219100,-0.000000,10066.800811
4217.618632,-919.314598,-0.000000,9918.759623
4217.618948,-1532.190996,444.123565,9030.512492
4217.619263,0.000000,444.123565,9252.574275
4217.619578,229.828649,1406.391290,9548.656652
4217.619894,383.047749,370.102971,9474.636058
4217.620209,-459.657299,222.061783,9104.533087
4217.620524,-1378.971896,-148.041188,9622.677246
4217.620840,-459.657299,-444.123565,8956.491898
4217.621155,-306.438199,222.061783,9474.636058
4217.621470,153.219100,-148.041188,9844.739029
4217.621786,-153.219100,-222.061783,9844.739029
4217.622101,-995.924147,370.102971,9104.533087
4217.622416,-842.705048,-0.000000,9474.636058
4217.622732,0.000000,740.205942,9474.636058
4217.623047,766.095498,814.226536,9770.718434
4217.623362,612.876398,-222.061783,10066.800811
4217.623678,-689.485948,518.144159,9030.512492
4217.623993,-842.705048,296.082377,9474.636058
4217.624308,229.828649,888.247130,9844.739029
4217.624624,1072.533697,1036.288319,10214.842000
4217.624939,1532.190996,-74.020594,9844.739029
4217.625254,995.924147,-0.000000,9326.594869
4217.625570,0.000000,148.041188,9178.553681
4217.625885,842.705048,296.082377,9474.636058
4217.626200,1072.533697,814.226536,9326.594869
4217.626516,1225.752797,-444.123565,9548.656652
4217.626831,766.095498,-444.123565,9844.739029
4217.627146,-383.047749,148.041188,9474.636058
4217.627462,229.828649,-148.041188,9770.718434
4217.627777,842.705048,814.226536,10066.800811
4217.628092,1072.533697,296.082377,9918.759623
4217.628408,1455.581446,-148.041188,10510.924376
4217.628723,229.828649,962.267725,9178.553681
4217.629038,76.609550,370.102971,9622.677246
4217.629354,919.314598,1406.391290,9474.636058
4217.629669,1608.800546,888.247130,9696.697840
4217.629984,1532.190996,-0.000000,9622.677246
4217.630300,612.876398,444.123565,9252.574275
4217.630615,-306.438199,-0.000000,9474.636058
4217.630930,-229.828649,444.123565,9474.636058
4217.631246,612.876398,518.144159,9844.739029
4217.631561,689.485948,-962.267725,10436.903782
4217.631876,-766.095498,-518.144159,9844.739029
4217.632192,-1302.362347,-222.061783,9326.594869
4217.632507,-612.876398,-222.061783,9474.636058
4217.632822,153.219100,296.082377,9474.636058
4217.633138,459.657299,-444.123565,9696.697840
4217.633453,76.609550,-518.144159,9992.780217
4217.633768,-1302.362347,296.082377,9104.533087
4217.634084,-842.705048,-74.020594,9622.677246
4217.634399,-229.828649,222.061783,9622.677246
4217.634714,459.657299,-296.082377,10140.821405
4217.635030,76.609550,-814.226536,10214.842000
4217.635345,-1378.971896,-0.000000,9474.636058
4217.635660,-1225.752797,-444.123565,9252.574275
4217.635976,-229.828649,-0.000000,9252.574275
4217.636291,0.000000,296.082377,9400.615463
4217.636606,536.266849,-370.102971,9474.636058
4217.636922,-689.485948,-148.041188,9326.594869
4217.637237,-1455.581446,-222.061783,8956.491898
4217.637552,-229.828649,-222.061783,9030.512492
4217.637868,383.047749,370.102971,10066.800811
4217.638183,689.485948,-148.041188,9844.739029
4217.638498,-306.438199,-814.226536,9696.697840
4217.638814,-536.266849,-222.061783,8734.430116
4217.639129,-76.609550,-0.000000,9326.594869
4217.639444,536.266849,1036.288319,9178.553681
4217.639760,1149.143247,444.123565,9178.553681
4217.640075,76.609550,-592.164754,9474.636058
4217.640390,-229.828649,148.041188,9326.594869
4217.640706,-689.485948,-74.020594,9104.533087
4217.641021,0.000000,592.164754,9844.739029
4217.641336,306.438199,296.082377,10732.986159
4217.641652,229.828649,-592.164754,9548.656652
4217.641967,-612.876398,-148.041188,9696.697840
4217.642282,-842.705048,-222.061783,9474.636058
4217.642598,766.095498,370.102971,9178.553681
4217.642913,1608.800546,962.267725,9474.636058
4217.643228,1302.362347,444.123565,10214.842000
4217.643544,842.705048,518.144159,8956.491898
4217.643859,383.047749,-0.000000,8512.368333
4217.644174,306.438199,-0.000000,9326.594869
4217.644490,1378.971896,666.185348,9696.697840
4217.644805,1838.629195,370.102971,9622.677246
4217.645120,1072.533697,-74.020594,10066.800811
4217.645436,76.609550,592.164754,9474.636058
4217.645751,0.000000,-0.000000,9918.759623
4217.646066,842.705048,962.267725,9326.594869
4217.646382,1608.800546,444.123565,9918.759623
4217.646697,995.924147,814.226536,9844.739029
4217.647012,0.000000,740.205942,9548.656652
4217.647328,-306.438199,814.226536,9622.677246
4217.647643,536.266849,1258.350101,9622.677246
4217.647958,383.047749,1110.308913,10288.862594
4217.648274,383.047749,-74.020594,10510.924376
4217.648589,-536.266849,370.102971,10288.862594
4217.648904,-842.705048,-370.102971,10288.862594
4217.649220,-229.828649,296.082377,9696.697840
4217.649535,0.000000,1184.329507,9474.636058
4217.649850,766.095498,-0.000000,9992.780217
4217.650166,-153.219100,-0.000000,9622.677246
4217.650481,-1302.362347,-0.000000,9252.574275
4217.650796,-536.266849,370.102971,9400.615463
4217.651112,76.609550,370.102971,9696.697840
4217.651427,1072.533697,-370.102971,9770.718434
4217.651742,383.047749,-370.102971,9918.759623
4217.652058,-612.876398,74.020594,9622.677246
4217.652373,-766.095498,-0.000000,9548.656652
4217.652688,383.047749,1258.350101,9030.512492
4217.653004,766.095498,-74.020594,9696.697840
4217.653319,766.095498,-370.102971,9474.636058
4217.653634,-612.876398,518.144159,8956.491898
4217.653950,-842.705048,-296.082377,9104.533087
4217.654265,0.000000,-222.061783,9474.636058
4217.654580,153.219100,-0.000000,10066.800811
4217.654896,459.657299,-740.205942,9770.718434
4217.655211,-383.047749,-370.102971,9622.677246
4217.655526,-995.924147,-0.000000,9400.615463
4217.655842,76.609550,444.123565,9326.594869
4217.656157,995.924147,666.185348,9326.594869
4217.656472,1149.143247,-148.041188,9844.739029
4217.656788,306.438199,-0.000000,9326.594869
4217.657103,-229.828649,-0.000000,9326.594869
4217.657418,383.047749,370.102971,9104.533087
4217.657734,689.485948,666.185348,9326.594869
4217.658049,1455.581446,-0.000000,9252.574275
4217.658364,76.609550,-592.164754,10362.883188
4217.658680,-766.095498,-518.144159,9770.718434
4217.658995,-842.705048,-444.123565,9326.594869
4217.659310,229.828649,444.123565,10214.842000
4217.659626,842.705048,-74.020594,10584.944971
4217.659941,689.485948,-666.185348,9918.759623
4217.660256,229.828649,-370.102971,9400.615463
4217.660572,-76.609550,-370.102971,9622.677246
4217.660887,536.266849,518.144159,9992.780217
4217.661202,1225.752797,444.123565,9918.759623
4217.661518,1762.019645,-0.000000,10140.821405
4217.661833,1225.752797,-74.020594,9474.636058
4217.662148,536.266849,-0.000000,8882.471304
4217.662464,1532.190996,-0.000000,9178.553681
4217.662779,1455.581446,444.123565,9696.697840
4217.663094,1608.800546,-0.000000,9844.739029
4217.663410,1149.143247,-222.061783,9474.636058
4217.663725,-612.876398,-0.000000,9178.553681
4217.664040,-842.705048,-888.247130,9770.718434
4217.664356,-306.438199,-0.000000,9844.739029
4217.664671,0.000000,-296.082377,10436.903782
4217.664986,-306.438199,-888.247130,11103.089130
4217.665302,-1378.971896,-74.020594,10066.800811
4217.665617,-1149.143247,370.102971,9474.636058
4217.665932,-459.657299,1184.329507,10214.842000
4217.666248,306.438199,1184.329507,9770.718434
4217.666563,612.876398,444.123565,9622.677246
4217.666878,0.000000,888.247130,9178.553681
4217.667194,-766.095498,592.164754,9326.594869
4217.667509,-229.828649,1036.288319,9474.636058
4217.667824,0.000000,962.267725,9474.636058
4217.668140,383.047749,-370.102971,9992.780217
4217.668455,0.000000,-888.247130,9548.656652
4217.668770,-1915.238745,-148.041188,9326.594869
4217.669086,-1072.533697,-0.000000,9400.615463
4217.669401,-306.438199,666.185348,9030.512492
4217.669716,0.000000,-0.000000,9696.697840
4217.670032,0.000000,-222.061783,9548.656652
4217.670347,-1149.143247,296.082377,9178.553681
4217.670662,-995.924147,-0.000000,8956.491898
4217.670978,612.876398,888.247130,9104.533087
4217.671293,536.266849,962.267725,9622.677246
4217.671608,612.876398,740.205942,9474.636058
4217.671924,-842.705048,814.226536,9400.615463
4217.672239,-1378.971896,-0.000000,9622.677246
4217.672554,-383.047749,740.205942,9548.656652
4217.672870,306.438199,666.185348,9548.656652
4217.673185,0.000000,518.144159,9400.615463
4217.673500,-842.705048,-74.020594,9844.739029
4217.673816,-1378.971896,-222.061783,9326.594869
4217.674131,-459.657299,-444.123565,9844.739029
4217.674446,689.485948,-74.020594,9622.677246
4217.674762,612.876398,-148.041188,10140.821405
4217.675077,229.828649,666.185348,9474.636058
4217.675392,0.000000,518.144159,9030.512492
4217.675708,842.705048,222.061783,9030.512492
4217.676023,1608.800546,814.226536,9400.615463
4217.676338,2221.676944,740.205942,9400.615463
4217.676654,1455.581446,444.123565,9844.739029
4217.676969,536.266849,444.123565,9696.697840
4217.677284,995.924147,148.041188,9622.677246
4217.677600,1302.362347,296.082377,9918.759623
4217.677915,1532.190996,-0.000000,10584.944971
4217.678230,1149.143247,-222.061783,10288.862594
4217.678546,0.000000,-0.000000,9770.718434
4217.678861,0.000000,-444.123565,10066.800811
4217.679176,689.485948,-0.000000,9992.780217
4217.679492,766.095498,444.123565,9696.697840
4217.679807,1149.143247,-0.000000,9770.718434
4217.680122,229.828649,592.164754,9400.615463
4217.680438,-459.657299,222.061783,9104.533087
4217.680753,153.219100,-0.000000,9178.553681
4217.681068,536.266849,814.226536,9770.718434
4217.681384,1149.143247,-0.000000,9918.759623
4217.681699,-229.828649,-74.020594,9474.636058
4217.682014,-919.314598,148.041188,8734.430116
4217.682330,-1072.533697,-222.061783,9622.677246
4217.682645,-383.047749,518.144159,9622.677246
4217.682960,76.609550,-148.041188,10510.924376
4217.683276,-842.705048,-370.102971,10214.842000
4217.683591,-1149.143247,-444.123565,9400.615463
4217.683906,-689.485948,-666.185348,9474.636058
4217.684222,-383.047749,-74.020594,9548.656652
4217.684537,0.000000,-0.000000,9770.718434
4217.684852,229.828649,-222.061783,9252.574275
4217.685168,-229.828649,962.267725,9252.574275
4217.685483,-842.705048,-370.102971,9030.512492
4217.685798,-229.828649,-222.061783,9326.594869
4217.686114,383.047749,370.102971,9326.594869
4217.686429,689.485948,-444.123565,9252.574275
4217.686744,0.000000,-666.185348,9770.718434
4217.687060,-1532.190996,-296.082377,9178.553681
4217.687375,-1302.362347,-518.144159,9844.739029
4217.687690,-383.047749,296.082377,9548.656652
4217.688006,536.266849,-592.164754,10066.800811
4217.688321,0.000000,-222.061783,9992.780217
4217.688636,-612.876398,-0.000000,9622.677246
4217.688952,-766.095498,222.061783,9400.615463
4217.689267,76.609550,1110.308913,9622.677246
4217.689582,1455.581446,814.226536,9770.718434
4217.689898,689.485948,666.185348,9622.677246
4217.690213,0.000000,518.144159,9696.697840
4217.690528,0.000000,-148.041188,9696.697840
4217.690844,612.876398,666.185348,10140.821405
4217.691159,766.095498,962.267725,9918.759623
4217.691474,612.876398,296.082377,9770.718434
4217.691790,-153.219100,-444.123565,10140.821405
4217.692105,-459.657299,-0.000000,9474.636058
4217.692420,306.438199,-0.000000,9474.636058
4217.692736,995.924147,518.144159,9252.574275
4217.693051,1302.362347,222.061783,10288.862594
4217.693366,306.438199,-0.000000,9474.636058
4217.693682,0.000000,370.102971,9770.718434
4217.693997,536.266849,740.205942,9548.656652
4217.694312,1302.362347,1036.288319,9548.656652
4217.694628,1762.019645,444.123565,9622.677246
4217.694943,1302.362347,-74.020594,9992.780217
4217.695258,229.828649,962.267725,8956.491898
4217.695574,-459.657299,-0.000000,9474.636058
4217.695889,842.705048,1184.329507,9178.553681
4217.696204,1072.533697,518.144159,9918.759623
4217.696520,766.095498,-0.000000,10140.821405
4217.696835,-536.266849,148.041188,9400.615463
4217.697150,-919.314598,-814.226536,9178.553681
4217.697466,0.000000,-888.247130,9918.759623
4217.697781,76.609550,296.082377,9992.780217
4217.698096,766.095498,-592.164754,10436.903782
4217.698412,-459.657299,296.082377,9326.594869
4217.698727,-229.828649,-296.082377,9474.636058
4217.699042,383.047749,-74.020594,9326.594869
4217.699358,919.314598,888.247130,9474.636058
4217.699673,995.924147,444.123565,9548.656652
4217.699988,842.705048,-0.000000,9474.636058
4217.700304,-229.828649,-0.000000,8586.388927
4217.700619,-306.438199,-888.247130,9474.636058
4217.700934,229.828649,444.123565,9844.739029
4217.701250,306.438199,-666.185348,9844.739029
4217.701565,-306.438199,-962.267725,10140.821405
4217.701880,-842.705048,-592.164754,9474.636058
4217.702195,-1149.143247,-1258.350101,9770.718434
4217.702511,-689.485948,-0.000000,9622.677246
4217.702826,0.000000,444.123565,9474.636058
4217.703141,0.000000,-222.061783,10066.800811
4217.703456,-229.828649,296.082377,9178.553681
4217.703772,-766.095498,518.144159,9104.533087
4217.704087,-76.609550,666.185348,9178.553681
4217.704402,0.000000,962.267725,9474.636058
4217.704717,306.438199,-0.000000,9474.636058
4217.705033,-153.219100,-74.020594,9474.636058
4217.705348,-1225.752797,222.061783,8734.430116
4217.705663,-1225.752797,-296.082377,9474.636058
4217.705978,-383.047749,518.144159,9844.739029
4217.706294,153.219100,-0.000000,9400.615463
4217.706609,0.000000,-814.226536,9696.697840
4217.706924,-1225.752797,-222.061783,9104.533087
4217.707239,-1072.533697,-296.082377,9178.553681
4217.707555,-153.219100,222.061783,9770.718434
4217.707870,536.266849,148.041188,9844.739029
4217.708185,306.438199,-74.020594,9770.718434
4217.708500,76.609550,666.185348,9178.553681
4217.708816,306.438199,-0.000000,9474.636058
4217.709131,919.314598,444.123565,9474.636058
4217.709446,1072.533697,1036.288319,9400.615463
4217.709761,1225.752797,-0.000000,9844.739029
4217.710077,689.485948,148.041188,9844.739029
4217.710392,-229.828649,444.123565,9622.677246
4217.710707,153.219100,-0.000000,10288.862594
4217.711022,766.095498,888.247130,10214.842000
4217.711338,1072.533697,-148.041188,10510.924376
4217.711653,383.047749,-444.123565,10436.903782
4217.711968,-153.219100,-0.000000,9844.739029
4217.712283,153.219100,296.082377,9844.739029
4217.712599,1149.143247,1332.370696,9548.656652
4217.712914,1608.800546,518.144159,9474.636058
4217.713229,842.705048,518.144159,9474.636058
4217.713544,0.000000,962.267725,9252.574275
4217.713860,-842.705048,296.082377,9474.636058
4217.714175,-229.828649,370.102971,10066.800811
4217.714490,306.438199,-74.020594,10436.903782
4217.714805,0.000000,-370.102971,10288.862594
4217.715121,-1149.143247,-296.082377,10214.842000
4217.715436,-1149.143247,-444.123565,9548.656652
4217.715751,-383.047749,592.164754,9622.677246
4217.716066,383.047749,1184.329507,9326.594869
4217.716382,766.095498,666.185348,9474.636058
4217.716697,0.000000,888.247130,8956.491898
4217.717012,-459.657299,-74.020594,9252.574275
4217.717327,-536.266849,148.041188,9252.574275
4217.717643,153.219100,370.102971,9696.697840
4217.717958,536.266849,-148.041188,9844.739029
4217.718273,153.219100,-370.102971,9992.780217
4217.718588,0.000000,-0.000000,9104.533087
4217.718904,153.219100,-74.020594,9104.533087
4217.719219,306.438199,814.226536,9474.636058
4217.719534,766.095498,592.164754,9030.512492
4217.719849,306.438199,296.082377,9104.533087
4217.720165,-766.095498,666.185348,9178.553681
4217.720480,-842.705048,-740.205942,9326.594869
4217.720795,-306.438199,-1036.288319,10066.800811
4217.721110,76.609550,-148.041188,9992.780217
4217.721426,-306.438199,-592.164754,10807.006753
4217.721741,-1225.752797,-0.000000,9474.636058
4217.722056,-1225.752797,-222.061783,8512.368333
4217.722371,0.000000,-0.000000,9696.697840
4217.722687,383.047749,666.185348,9918.759623
4217.723002,1072.533697,-0.000000,9696.697840
4217.723317,229.828649,518.144159,8956.491898
4217.723632,-536.266849,148.041188,9326.594869
4217.723948,0.000000,740.205942,9622.677246
4217.724263,306.438199,1258.350101,9844.739029
4217.724578,919.314598,-148.041188,10288.862594
4217.724893,536.266849,296.082377,10436.903782
4217.725209,0.000000,-592.164754,9696.697840
4217.725524,-689.485948,-666.185348,10214.842000
4217.725839,153.219100,296.082377,9622.677246
4217.726154,919.314598,-222.061783,9844.739029
4217.726470,842.705048,-444.123565,9474.636058
4217.726785,536.266849,-222.061783,9104.533087
4217.727100,76.609550,-592.164754,9474.636058
4217.727415,229.828649,666.185348,9992.780217
4217.727731,1225.752797,592.164754,8882.471304
4217.728046,1378.971896,-0.000000,10066.800811
4217.728361,612.876398,740.205942,8808.450710
4217.728676,229.828649,-148.041188,9178.553681
4217.728992,459.657299,-296.082377,9252.574275
4217.729307,1225.752797,148.041188,9918.759623
4217.729622,612.876398,222.061783,9178.553681
4217.729937,0.000000,296.082377,9918.759623
4217.730253,-842.705048,444.123565,9400.615463
4217.730568,0.000000,-592.164754,9474.636058
4217.730883,0.000000,-0.000000,9696.697840
4217.731198,76.609550,-444.123565,10066.800811
4217.731514,-459.657299,-0.000000,9844.739029
4217.731829,-995.924147,222.061783,9252.574275
4217.732144,-536.266849,-296.082377,10140.821405
4217.732459,536.266849,370.102971,9474.636058
4217.732775,689.485948,444.123565,8956.491898
4217.733090,1225.752797,296.082377,9548.656652
4217.733405,-612.876398,1110.308913,9400.615463
4217.733720,-995.924147,-74.020594,9030.512492
4217.734036,612.876398,370.102971,9252.574275
4217.734351,0.000000,592.164754,9918.759623
4217.734666,536.266849,148.041188,10066.800811
4217.734981,-459.657299,666.185348,9622.677246
4217.735297,-842.705048,518.144159,9696.697840
4217.735612,-766.095498,370.102971,9400.615463
4217.735927,536.266849,1258.350101,9770.718434
4217.736242,919.314598,518.144159,10066.800811
4217.736558,536.266849,296.082377,9844.739029
4217.736873,0.000000,-0.000000,9326.594869
4217.737188,-536.266849,-148.041188,9844.739029
4217.737503,383.047749,814.226536,9696.697840
4217.737819,919.314598,518.144159,9844.739029
4217.738134,689.485948,296.082377,9400.615463
4217.738449,0.000000,592.164754,8290.306550
4217.738764,-536.266849,-518.144159,8882.471304
4217.739080,76.609550,-0.000000,9770.718434
4217.739395,383.047749,296.082377,10140.821405
4217.739710,612.876398,-0.000000,9992.780217
4217.740025,-995.924147,222.061783,9474.636058
4217.740341,-459.657299,-74.020594,9474.636058
4217.740656,0.000000,444.123565,9992.780217
4217.740971,306.438199,814.226536,9844.739029
4217.741286,459.657299,518.144159,10732.986159
4217.741602,0.000000,592.164754,9548.656652
4217.741917,153.219100,370.102971,9696.697840
4217.742232,0.000000,-0.000000,9696.697840
4217.742547,689.485948,740.205942,10066.800811
4217.742863,1378.971896,-0.000000,10362.883188
4217.743178,459.657299,-74.020594,9770.718434
4217.743493,153.219100,148.041188,9178.553681
4217.743808,0.000000,-296.082377,10066.800811
4217.744124,306.438199,740.205942,9474.636058
4217.744439,766.095498,-0.000000,9992.780217
4217.744754,383.047749,-592.164754,10140.821405
4217.745069,-229.828649,-296.082377,9474.636058
4217.745385,-459.657299,-0.000000,9548.656652
4217.745700,383.047749,296.082377,9696.697840
4217.746015,689.485948,222.061783,10140.821405
4217.746330,536.266849,-74.020594,9992.780217
4217.746646,-383.047749,444.123565,9696.697840
4217.746961,-919.314598,518.144159,9252.574275
4217.747276,-536.266849,-0.000000,9474.636058
4217.747591,459.657299,296.082377,9400.615463
4217.747907,459.657299,-592.164754,9400.615463
4217.748222,0.000000,-962.267725,9548.656652
4217.748537,-612.876398,-740.205942,8882.471304
4217.748852,-842.705048,-1110.308913,9474.636058
4217.749168,0.000000,296.082377,8438.347739
4217.749483,0.000000,-888.247130,9622.677246
4217.749798,-306.438199,-666.185348,8216.285956
4217.750113,-995.924147,-444.123565,8882.471304
4217.750429,-919.314598,-444.123565,8956.491898
4217.750744,-153.219100,-296.082377,9918.759623
4217.751059,689.485948,-0.000000,9326.594869
4217.751374,766.095498,-0.000000,9770.718434
4217.751690,-383.047749,740.205942,9030.512492
4217.752005,-459.657299,-444.123565,9548.656652
4217.752320,153.219100,148.041188,9548.656652
4217.752635,689.485948,888.247130,9030.512492
4217.752951,1455.581446,-222.061783,9918.759623
4217.753266,459.657299,814.226536,8438.347739
4217.753581,-919.314598,-74.020594,8882.471304
4217.753896,0.000000,-222.061783,9474.636058
4217.754212,0.000000,518.144159,9548.656652
4217.754527,536.266849,-0.000000,9844.739029
4217.754842,76.609550,-370.102971,9844.739029
4217.755157,-383.047749,222.061783,9326.594869
4217.755473,-919.314598,-222.061783,9992.780217
4217.755788,0.000000,888.247130,9918.759623
4217.756103,459.657299,518.144159,10214.842000
4217.756418,153.219100,814.226536,9992.780217
4217.756734,-229.828649,1332.370696,9918.759623
4217.757049,0.000000,888.247130,9326.594869
4217.757364,689.485948,1036.288319,10140.821405
4217.757679,689.485948,1258.350101,9918.759623
4217.757995,383.047749,148.041188,10436.903782
4217.758310,-306.438199,1110.308913,10214.842000
4217.758625,-689.485948,-0.000000,10436.903782
4217.758940,383.047749,444.123565,9696.697840
4217.759256,612.876398,962.267725,10288.862594
4217.759571,919.314598,370.102971,10140.821405
4217.759886,306.438199,814.226536,9252.574275
4217.760201,0.000000,592.164754,9326.594869
4217.760517,612.876398,222.061783,9844.739029
4217.760832,1149.143247,1036.288319,9918.759623
4217.761147,1532.190996,444.123565,9696.697840
4217.761462,612.876398,-0.000000,9844.739029
4217.761778,-153.219100,888.247130,9400.615463
4217.762093,-76.609550,-370.102971,9474.636058
4217.762408,383.047749,518.144159,9696.697840
4217.762723,536.266849,-0.000000,9548.656652
4217.763039,383.047749,370.102971,9696.697840
4217.763354,-306.438199,814.226536,9030.512492
4217.763669,-612.876398,-444.123565,9474.636058
4217.763984,0.000000,518.144159,9770.718434
4217.764300,0.000000,592.164754,9474.636058
4217.764615,612.876398,-74.020594,9474.636058
4217.764930,153.219100,-370.102971,9252.574275
4217.765245,-612.876398,-0.000000,9178.553681
4217.765561,-383.047749,-0.000000,9030.512492
4217.765876,153.219100,370.102971,9548.656652
4217.766191,383.047749,-222.061783,9844.739029
4217.766506,-766.095498,-148.041188,8586.388927
4217.766822,-1149.143247,-518.144159,9844.739029
4217.767137,-689.485948,-666.185348,9400.615463
4217.767452,-536.266849,296.082377,9696.697840
4217.767767,0.000000,-740.205942,10288.862594
4217.768083,76.609550,-888.247130,9474.636058
4217.768398,-689.485948,-148.041188,9178.553681
4217.768713,-689.485948,-888.247130,9770.718434
4217.769028,0.000000,-148.041188,9696.697840
4217.769344,919.314598,-0.000000,9696.697840
4217.769659,1378.971896,-74.020594,9622.677246
4217.769974,76.609550,888.247130,8956.491898
4217.770289,-536.266849,222.061783,9918.759623
4217.770605,383.047749,296.082377,9030.512492
4217.770920,995.924147,222.061783,9696.697840
4217.771235,1378.971896,-148.041188,9770.718434
4217.771550,459.657299,592.164754,9400.615463
4217.771866,-766.095498,666.185348,8734.430116
4217.772181,-536.266849,-592.164754,9918.759623
4217.772496,612.876398,666.185348,9844.739029
4217.772811,229.828649,-888.247130,9400.615463
4217.773127,0.000000,-814.226536,9992.780217
4217.773442,-612.876398,-370.102971,9474.636058
4217.773757,-612.876398,-1184.329507,9918.759623
4217.774072,306.438199,-74.020594,10436.903782
4217.774388,689.485948,-296.082377,10214.842000
4217.774703,1455.581446,370.102971,9622.677246
4217.775018,919.314598,1036.288319,8956.491898
4217.775333,1225.752797,-0.000000,8882.471304
4217.775649,1762.019645,1480.411884,8956.491898
4217.775964,1762.019645,740.205942,9326.594869
4217.776279,1991.848295,444.123565,9474.636058
4217.776594,459.657299,222.061783,9844.739029
4217.776910,0.000000,-444.123565,9622.677246
4217.777225,0.000000,-444.123565,9696.697840
4217.777540,0.000000,-296.082377,10214.842000
4217.777855,153.219100,-1554.432478,11177.109724
4217.778171,-459.657299,-666.185348,9992.780217
4217.778486,-995.924147,518.144159,9696.697840
4217.778801,-536.266849,296.082377,9030.512492
4217.779116,383.047749,1110.308913,9326.594869
4217.779432,842.705048,296.082377,9770.718434
4217.779747,229.828649,518.144159,9918.759623
4217.780062,-536.266849,814.226536,8956.491898
4217.780377,-536.266849,444.123565,8882.471304
4217.780693,0.000000,1332.370696,9548.656652
4217.781008,306.438199,592.164754,10362.883188
4217.781323,0.000000,-740.205942,9918.759623
4217.781638,-1302.362347,-0.000000,9770.718434
4217.781954,-1915.238745,-74.020594,9030.512492
4217.782269,-1378.971896,222.061783,9474.636058
4217.782584,-383.047749,666.185348,9844.739029
4217.782899,-229.828649,-444.123565,10362.883188
4217.783215,-689.485948,222.061783,8956.491898
4217.783530,-1378.971896,222.061783,9326.594869
4217.783845,-919.314598,370.102971,9400.615463
4217.784160,459.657299,1184.329507,9548.656652
4217.784476,612.876398,-0.000000,9622.677246
4217.784791,306.438199,370.102971,9326.594869
4217.785106,-229.828649,444.123565,9252.574275
4217.785421,0.000000,296.082377,9844.739029
4217.785737,383.047749,962.267725,9178.553681
4217.786052,459.657299,148.041188,9844.739029
4217.786367,536.266849,-222.061783,9918.759623
4217.786682,-766.095498,-0.000000,9400.615463
4217.786998,-689.485948,-148.041188,9696.697840
4217.787313,-306.438199,444.123565,10140.821405
4217.787628,306.438199,-0.000000,10214.842000
4217.787943,1072.533697,-444.123565,9844.739029
4217.788259,306.438199,962.267725,9104.533087
4217.788574,-383.047749,222.061783,10288.862594
4217.788889,229.828649,518.144159,9326.594869
4217.789204,1149.143247,962.267725,9474.636058
4217.789520,1455.581446,148.041188,9548.656652
4217.789835,766.095498,518.144159,9474.636058
4217.790150,-383.047749,740.205942,9770.718434
4217.790465,0.000000,-0.000000,9548.656652
4217.790781,689.485948,148.041188,9918.759623
4217.791096,612.876398,-370.102971,10436.903782
4217.791411,612.876398,-74.020594,9474.636058
4217.791726,0.000000,-0.000000,9844.739029
4217.792042,0.000000,-592.164754,10140.821405
4217.792357,689.485948,740.205942,9770.718434
4217.792672,1378.971896,222.061783,9696.697840
4217.792987,1225.752797,-666.185348,10362.883188
4217.793303,919.314598,888.247130,9178.553681
4217.793618,153.219100,148.041188,9030.512492
4217.793933,1149.143247,370.102971,9696.697840
4217.794248,1685.410096,148.041188,9400.615463
4217.794564,1302.362347,-962.267725,9696.697840
4217.794879,689.485948,-0.000000,9474.636058
4217.795194,-459.657299,-444.123565,9474.636058
4217.795509,0.000000,-592.164754,9548.656652
4217.795825,536.266849,-0.000000,9770.718434
4217.796140,536.266849,-518.144159,10214.842000
4217.796455,-536.266849,-0.000000,9622.677246
4217.796770,-1762.019645,-370.102971,9474.636058
4217.797086,-842.705048,-740.205942,9696.697840
4217.797401,-536.266849,74.020594,9696.697840
4217.797716,-306.438199,-222.061783,9918.759623
4217.798031,-536.266849,-296.082377,10214.842000
4217.798347,-1149.143247,148.041188,8956.491898
4217.798662,-536.266849,-74.020594,9104.533087
4217.798977,-229.828649,148.041188,9030.512492
4217.799292,0.000000,222.061783,9474.636058
4217.799608,-306.438199,-740.205942,9474.636058
4217.799923,-1455.581446,-0.000000,8512.368333
4217.800238,-1685.410096,-740.205942,9326.594869
4217.800553,-1532.190996,-296.082377,9770.718434
4217.800869,-995.924147,-370.102971,10362.883188
4217.801184,-536.266849,-1110.308913,10066.800811
4217.801499,-919.314598,-444.123565,9696.697840
4217.801815,-612.876398,-592.164754,9326.594869
4217.802130,-536.266849,-518.144159,9326.594869
4217.802445,0.000000,444.123565,9474.636058
4217.802760,689.485948,-0.000000,9696.697840
4217.803076,1072.533697,370.102971,8734.430116
4217.803391,76.609550,1110.308913,7698.141797
4217.803706,153.219100,-518.144159,8586.388927
4217.804022,1072.533697,1110.308913,8808.450710
4217.804337,919.314598,-0.000000,9918.759623
4217.804652,383.047749,-74.020594,9696.697840
4217.804968,-459.657299,-0.000000,9696.697840
4217.805283,0.000000,-0.000000,9030.512492
4217.805598,0.000000,370.102971,9992.780217
4217.805913,612.876398,592.164754,10140.821405
4217.806229,919.314598,666.185348,10436.903782
4217.806544,459.657299,1406.391290,9252.574275
4217.806859,76.609550,962.267725,10140.821405
4217.807175,536.266849,1258.350101,9696.697840
4217.807490,1378.971896,888.247130,9770.718434
4217.807805,1915.238745,296.082377,10288.862594
4217.808121,1685.410096,888.247130,9548.656652
4217.808436,766.095498,592.164754,9400.615463
4217.808751,689.485948,222.061783,9844.739029
4217.809066,1149.143247,1110.308913,9548.656652
4217.809382,1455.581446,-0.000000,9844.739029
4217.809697,1149.143247,222.061783,9548.656652
4217.810012,153.219100,-0.000000,9992.780217
4217.810328,-306.438199,-370.102971,10288.862594
4217.810643,459.657299,888.247130,10066.800811
4217.810958,459.657299,222.061783,10436.903782
4217.811274,689.485948,-0.000000,11325.150913
4217.811589,76.609550,1184.329507,10436.903782
4217.811904,-153.219100,1036.288319,9696.697840
4217.812219,919.314598,740.205942,9918.759623
4217.812535,1685.410096,1332.370696,9326.594869
4217.812850,1762.019645,592.164754,9474.636058
4217.813165,0.000000,740.205942,9178.553681
4217.813481,-612.876398,296.082377,9178.553681
4217.813796,-612.876398,-0.000000,9474.636058
4217.814111,-459.657299,296.082377,9548.656652
4217.814427,-153.219100,-814.226536,9696.697840
4217.814742,-1762.019645,-1036.288319,10066.800811
4217.815057,-2221.676944,-740.205942,9548.656652
4217.815372,-2221.676944,-962.267725,9992.780217
4217.815688,-1302.362347,370.102971,9844.739029
4217.816003,-229.828649,-0.000000,9622.677246
4217.816318,-459.657299,444.123565,9696.697840
4217.816634,-995.924147,1184.329507,8734.430116
4217.816949,-1149.143247,-0.000000,9178.553681
4217.817264,-306.438199,1258.350101,8956.491898
4217.817580,459.657299,296.082377,9548.656652
4217.817895,229.828649,518.144159,9696.697840
4217.818210,-842.705048,296.082377,8956.491898
4217.818525,-1149.143247,-518.144159,9474.636058
4217.818841,-383.047749,-1036.288319,9178.553681
4217.819156,-306.438199,-666.185348,9992.780217
4217.819471,-76.609550,-1480.411884,10732.986159
4217.819787,-306.438199,-444.123565,8734.430116
4217.820102,-1149.143247,-148.041188,9326.594869
4217.820417,-306.438199,-1036.288319,9326.594869
4217.820733,306.438199,-296.082377,9400.615463
4217.821048,1072.533697,-296.082377,10288.862594
4217.821363,842.705048,-0.000000,9548.656652
4217.821678,229.828649,370.102971,9030.512492
4217.821994,383.047749,-444.123565,9918.759623
4217.822309,995.924147,740.205942,9474.636058
4217.822624,1378.971896,296.082377,9844.739029
4217.822940,1225.752797,-0.000000,10214.842000
4217.823255,459.657299,592.164754,8956.491898
4217.823570,0.000000,-592.164754,9770.718434
4217.823885,306.438199,-444.123565,10362.883188
4217.824201,459.657299,-740.205942,10362.883188
4217.824516,689.485948,-1258.350101,10362.883188
4217.824831,153.219100,222.061783,9770.718434
4217.825147,153.219100,-0.000000,9030.512492
4217.825462,612.876398,-740.205942,9622.677246
4217.825777,1608.800546,74.020594,9992.780217
4217.826093,1991.848295,370.102971,9104.533087
4217.826408,1685.410096,1184.329507,8734.430116
4217.826723,995.924147,370.102971,9104.533087
4217.827038,1072.533697,222.061783,9770.718434
4217.827354,1072.533697,814.226536,10066.800811
4217.827669,1225.752797,-444.123565,9844.739029
4217.827984,842.705048,-0.000000,10214.842000
4217.828300,153.219100,370.102971,9696.697840
4217.828615,-536.266849,-0.000000,9696.697840
4217.828930,76.609550,518.144159,9548.656652
4217.829246,842.705048,222.061783,9474.636058
4217.829561,689.485948,-0.000000,9326.594869
4217.829876,-153.219100,370.102971,9178.553681
4217.830191,-536.266849,222.061783,9844.739029
4217.830507,-153.219100,518.144159,9474.636058
4217.830822,-76.609550,518.144159,9622.677246
4217.831137,229.828649,-592.164754,10066.800811
4217.831453,0.000000,-0.000000,8586.388927
4217.831768,-1225.752797,518.144159,9030.512492
4217.832083,-689.485948,370.102971,9918.759623
4217.832399,-383.047749,592.164754,9622.677246
4217.832714,-153.219100,444.123565,9844.739029
4217.833029,-689.485948,-148.041188,9252.574275
4217.833344,-1915.238745,-0.000000,9474.636058
4217.833660,-1685.410096,-814.226536,9400.615463
4217.833975,-612.876398,-296.082377,10288.862594
4217.834290,-229.828649,-740.205942,10436.903782
4217.834606,-383.047749,-148.041188,9474.636058
4217.834921,-1072.533697,888.247130,9104.533087
4217.835236,-1225.752797,370.102971,9326.594869
4217.835552,-306.438199,518.144159,9548.656652
4217.835867,689.485948,666.185348,9104.533087
4217.836182,459.657299,-148.041188,9548.656652
4217.836497,-306.438199,888.247130,8734.430116
4217.836813,-536.266849,518.144159,9030.512492
4217.837128,-229.828649,370.102971,9326.594869
4217.837443,459.657299,444.123565,10214.842000
4217.837759,-229.828649,-444.123565,10436.903782
4217.838074,-842.705048,370.102971,9474.636058
4217.838389,-1072.533697,370.102971,9400.615463
4217.838705,-689.485948,296.082377,9992.780217
4217.839020,229.828649,888.247130,9844.739029
4217.839335,612.876398,666.185348,9696.697840
4217.839650,689.485948,740.205942,10066.800811
4217.839966,459.657299,1110.308913,9104.533087
4217.840281,1225.752797,370.102971,8956.491898
4217.840596,1302.362347,1554.432478,9400.615463
4217.840912,1991.848295,1406.391290,9400.615463
4217.841227,1455.581446,814.226536,9992.780217
4217.841542,612.876398,1110.308913,9474.636058
4217.841858,536.266849,-592.164754,9474.636058
4217.842173,842.705048,-74.020594,9474.636058
4217.842488,1225.752797,-0.000000,9622.677246
4217.842803,1378.971896,-444.123565,10288.862594
4217.843119,612.876398,222.061783,9400.615463
4217.843434,459.657299,148.041188,9770.718434
4217.843749,612.876398,222.061783,9992.780217
4217.844065,842.705048,1184.329507,10066.800811
4217.844380,1455.581446,-74.020594,10510.924376
4217.844695,1302.362347,-74.020594,9696.697840
4217.845011,612.876398,370.102971,9918.759623
4217.845326,536.266849,296.082377,9474.636058
4217.845641,536.266849,740.205942,9918.759623
4217.845956,536.266849,222.061783,10288.862594
4217.846272,229.828649,-0.000000,9770.718434
4217.846587,-306.438199,296.082377,9474.636058
4217.846902,-536.266849,-222.061783,9548.656652
4217.847218,-383.047749,-0.000000,9696.697840
4217.847533,0.000000,-444.123565,9992.780217
4217.847848,153.219100,-1406.391290,10140.821405
4217.848164,-1072.533697,-296.082377,9844.739029
4217.848479,-1455.581446,-962.267725,9326.594869
4217.848794,-766.095498,-0.000000,10658.965565
4217.849109,0.000000,222.061783,9696.697840
4217.849425,229.828649,-666.185348,10732.986159
4217.849740,-306.438199,1036.288319,9622.677246
4217.850055,-1302.362347,-0.000000,9474.636058
4217.850371,-459.657299,-444.123565,10066.800811
4217.850686,383.047749,-0.000000,9474.636058
4217.851001,383.047749,-296.082377,8808.450710
4217.851317,229.828649,-296.082377,8808.450710
4217.851632,0.000000,148.041188,8586.388927
4217.851947,-536.266849,-518.144159,8512.368333
4217.852262,76.609550,-296.082377,8734.430116
4217.852578,0.000000,-962.267725,9474.636058
4217.852893,-459.657299,-370.102971,9030.512492
4217.853208,-1378.971896,-0.000000,8586.388927
4217.853524,-995.924147,-1036.288319,9474.636058
4217.853839,-383.047749,-888.247130,9918.759623
4217.854154,-1149.143247,-0.000000,9326.594869
4217.854470,76.609550,-592.164754,10288.862594
4217.854785,-383.047749,1036.288319,9030.512492
4217.855100,-1455.581446,444.123565,9474.636058
4217.855415,0.000000,370.102971,9474.636058
4217.855731,76.609550,444.123565,9474.636058
4217.856046,306.438199,-148.041188,10362.883188
4217.856361,0.000000,592.164754,9326.594869
4217.856677,-842.705048,296.082377,8956.491898
4217.856992,-153.219100,-592.164754,9844.739029
4217.857307,306.438199,518.144159,9252.574275
4217.857623,1072.533697,-1036.288319,9252.574275
4217.857938,995.924147,-296.082377,9400.615463
4217.858253,306.438199,592.164754,9178.553681
4217.858568,689.485948,-148.041188,9400.615463
4217.858884,1302.362347,962.267725,9474.636058
4217.859199,1991.848295,222.061783,9992.780217
4217.859514,1455.581446,444.123565,9992.780217
4217.859830,536.266849,1110.308913,9400.615463
4217.860145,306.438199,518.144159,9844.739029
4217.860460,1302.362347,1184.329507,10436.903782
4217.860776,1762.019645,1184.329507,10288.862594
4217.861091,1149.143247,148.041188,10214.842000
4217.861406,229.828649,1258.350101,9992.780217
4217.861721,153.219100,592.164754,9992.780217
4217.862037,76.609550,666.185348,9770.718434
4217.862352,919.314598,1332.370696,9548.656652
4217.862667,689.485948,296.082377,9474.636058
4217.862983,383.047749,518.144159,9474.636058
4217.863298,-459.657299,222.061783,9030.512492
4217.863613,-459.657299,222.061783,9474.636058
4217.863929,-153.219100,296.082377,9992.780217
4217.864244,76.609550,-74.020594,10214.842000
4217.864559,76.609550,370.102971,9474.636058
4217.864874,-766.095498,814.226536,9326.594869
4217.865190,-995.924147,222.061783,9696.697840
4217.865505,-536.266849,740.205942,9622.677246
4217.865820,229.828649,296.082377,9474.636058
4217.866136,0.000000,-0.000000,9696.697840
4217.866451,-689.485948,518.144159,9252.574275
4217.866766,-842.705048,-0.000000,9622.677246
4217.867081,-383.047749,222.061783,10066.800811
4217.867397,0.000000,296.082377,9474.636058
4217.867712,459.657299,-888.247130,10140.821405
4217.868027,0.000000,-0.000000,9178.553681
4217.868343,0.000000,-0.000000,8808.450710
4217.868658,229.828649,-74.020594,8956.491898
4217.868973,612.876398,370.102971,9104.533087
4217.869289,1378.971896,296.082377,9030.512492
4217.869604,0.000000,74.020594,8660.409521
4217.869919,-229.828649,-0.000000,8808.450710
4217.870234,0.000000,-222.061783,9474.636058
4217.870550,76.609550,-0.000000,9918.759623
4217.870865,76.609550,-0.000000,10066.800811
4217.871180,-306.438199,-0.000000,10066.800811
4217.871496,-1149.143247,370.102971,9992.780217
4217.871811,-1072.533697,-0.000000,9844.739029
4217.872126,-153.219100,444.123565,9770.718434
4217.872442,0.000000,444.123565,10140.821405
4217.872757,229.828649,-74.020594,10288.862594
4217.873072,0.000000,592.164754,9474.636058
4217.873387,-842.705048,296.082377,9918.759623
4217.873703,-689.485948,814.226536,9844.739029
4217.874018,76.609550,666.185348,9770.718434
4217.874333,536.266849,-814.226536,10214.842000
4217.874649,306.438199,-148.041188,10066.800811
4217.874964,-76.609550,-444.123565,9770.718434
4217.875279,0.000000,-370.102971,9622.677246
4217.875595,689.485948,444.123565,9918.759623
4217.875910,1302.362347,-74.020594,10066.800811
4217.876225,995.924147,-0.000000,9474.636058
4217.876540,383.047749,-148.041188,9178.553681
4217.876856,1149.143247,-296.082377,9696.697840
4217.877171,1149.143247,148.041188,9326.594869
4217.877486,2298.286494,-592.164754,9992.780217
4217.877802,1225.752797,-0.000000,9400.615463
4217.878117,612.876398,-0.000000,9030.512492
4217.878432,153.219100,-666.185348,8956.491898
4217.878748,995.924147,518.144159,9178.553681
4217.879063,995.924147,-222.061783,9770.718434
4217.879378,536.266849,-518.144159,9104.533087
4217.879693,0.000000,370.102971,9030.512492
4217.880009,-995.924147,-814.226536,9474.636058
4217.880324,-612.876398,-962.267725,9252.574275
4217.880639,-306.438199,-444.123565,9030.512492
4217.880955,0.000000,-666.185348,9770.718434
4217.881270,-766.095498,-0.000000,9326.594869
4217.881585,-459.657299,-370.102971,9622.677246
4217.881901,0.000000,-0.000000,9622.677246
4217.882216,229.828649,962.267725,8956.491898
4217.882531,306.438199,-0.000000,9326.594869
4217.882846,306.438199,370.102971,8808.450710
4217.883162,-612.876398,666.185348,8290.306550
4217.883477,-306.438199,-296.082377,9326.594869
4217.883792,-383.047749,370.102971,9474.636058
4217.884108,0.000000,-444.123565,9696.697840
4217.884423,0.000000,-0.000000,9474.636058
4217.884738,-536.266849,592.164754,8882.471304
4217.885054,-919.314598,-222.061783,9474.636058
4217.885369,306.438199,296.082377,9548.656652
4217.885684,306.438199,962.267725,9918.759623
4217.885999,919.314598,444.123565,9770.718434
4217.886315,0.000000,1332.370696,9178.553681
4217.886630,-383.047749,444.123565,9326.594869
4217.886945,0.000000,222.061783,9844.739029
4217.887261,76.609550,962.267725,10436.903782
4217.887576,-229.828649,-0.000000,10140.821405
4217.887891,-536.266849,370.102971,9474.636058
4217.888207,-229.828649,666.185348,9770.718434
4217.888522,0.000000,296.082377,10362.883188
4217.888837,995.924147,1184.329507,9474.636058
4217.889152,995.924147,370.102971,9696.697840
4217.889468,766.095498,444.123565,9548.656652
4217.889783,-383.047749,1110.308913,9252.574275
4217.890098,0.000000,-148.041188,9696.697840
4217.890414,153.219100,518.144159,10510.924376
4217.890729,612.876398,-0.000000,10140.821405
4217.891044,612.876398,-1110.308913,10140.821405
4217.891360,-383.047749,296.082377,9770.718434
4217.891675,-766.095498,-222.061783,10288.862594
4217.891990,0.000000,-0.000000,9918.759623
4217.892305,1149.143247,962.267725,9548.656652
4217.892621,1915.238745,592.164754,9622.677246
4217.892936,689.485948,1036.288319,9474.636058
4217.893251,306.438199,962.267725,9474.636058
4217.893567,459.657299,518.144159,10140.821405
4217.893882,919.314598,1554.432478,9622.677246
4217.894197,1302.362347,-0.000000,9622.677246
4217.894513,459.657299,222.061783,9844.739029
4217.894828,0.000000,592.164754,9474.636058
4217.895143,-306.438199,-0.000000,9844.739029
4217.895458,689.485948,1332.370696,9474.636058
4217.895774,153.219100,-296.082377,9252.574275
4217.896089,0.000000,-814.226536,9622.677246
4217.896404,-536.266849,370.102971,8956.491898
4217.896720,-919.314598,-222.061783,8956.491898
4217.897035,-306.438199,148.041188,9400.615463
4217.897350,306.438199,-0.000000,9400.615463
4217.897666,153.219100,-814.226536,10140.821405
4217.897981,-919.314598,740.205942,9918.759623
4217.898296,-1378.971896,370.102971,9252.574275
4217.898611,-766.095498,-0.000000,9104.533087
4217.898927,0.000000,296.082377,9548.656652
4217.899242,229.828649,-888.247130,10362.883188
4217.899557,-612.876398,-0.000000,9918.759623
4217.899873,-1225.752797,-0.000000,9474.636058
4217.900188,-612.876398,-592.164754,10288.862594
4217.900503,0.000000,370.102971,10214.842000
4217.900819,229.828649,-592.164754,9474.636058
4217.901134,-536.266849,-814.226536,9696.697840
4217.901449,-1149.143247,-370.102971,9622.677246
4217.901764,-995.924147,-1184.329507,9918.759623
4217.902080,0.000000,-0.000000,9104.533087
4217.902395,536.266849,-518.144159,9622.677246
4217.902710,383.047749,-814.226536,10066.800811
4217.903026,76.609550,-0.000000,9178.553681
4217.903341,-306.438199,-518.144159,9474.636058
4217.903656,536.266849,222.061783,9696.697840
4217.903972,842.705048,518.144159,9400.615463
4217.904287,1072.533697,-222.061783,9770.718434
4217.904602,0.000000,296.082377,9844.739029
4217.904918,0.000000,-0.000000,9030.512492
4217.905233,306.438199,-222.061783,9696.697840
4217.905548,995.924147,666.185348,9474.636058
4217.905864,1455.581446,-1110.308913,10510.924376
4217.906179,612.876398,-0.000000,9104.533087
4217.906494,0.000000,-0.000000,9252.574275
4217.906810,0.000000,-74.020594,9548.656652
4217.907125,689.485948,740.205942,9326.594869
4217.907440,1302.362347,-814.226536,9178.553681
4217.907756,1378.971896,-814.226536,9844.739029
4217.908071,459.657299,518.144159,8956.491898
4217.908386,306.438199,-296.082377,8734.430116
4217.908702,1149.143247,592.164754,9548.656652
4217.909017,1991.848295,-0.000000,9844.739029
4217.909332,1838.629195,-370.102971,9400.615463
4217.909648,842.705048,666.185348,9474.636058
4217.909963,153.219100,-0.000000,8882.471304
4217.910278,229.828649,-74.020594,9918.759623
4217.910594,1149.143247,296.082377,9696.697840
4217.910909,842.705048,-518.144159,9622.677246
4217.911225,459.657299,814.226536,9474.636058
4217.911540,-306.438199,296.082377,9400.615463
4217.911855,-306.438199,-0.000000,9400.615463
4217.912171,306.438199,592.164754,9622.677246
4217.912486,0.000000,-0.000000,10436.903782
4217.912801,-306.438199,-222.061783,9696.697840
4217.913117,-1455.581446,962.267725,8956.491898
4217.913432,-1149.143247,-74.020594,9770.718434
4217.913747,-612.876398,740.205942,9918.759623
4217.914063,0.000000,814.226536,9770.718434
4217.914378,0.000000,-0.000000,9992.780217
4217.914693,-1225.752797,888.247130,9474.636058
4217.915009,-1225.752797,-0.000000,10066.800811
4217.915324,-612.876398,-0.000000,9844.739029
4217.915639,-383.047749,592.164754,9548.656652
4217.915955,306.438199,-296.082377,10140.821405
4217.916270,-536.266849,1036.288319,9696.697840
4217.916585,-1225.752797,888.247130,9326.594869
4217.916901,-536.266849,148.041188,9992.780217
4217.917216,153.219100,740.205942,9474.636058
4217.917531,76.609550,-222.061783,9474.636058
4217.917847,76.609550,370.102971,8956.491898
4217.918162,-459.657299,740.205942,8512.368333
4217.918477,-306.438199,-0.000000,9622.677246
4217.918793,0.000000,962.267725,9548.656652
4217.919108,306.438199,-74.020594,9474.636058
4217.919423,153.219100,370.102971,9770.718434
4217.919739,-612.876398,962.267725,9030.512492
4217.920054,-842.705048,666.185348,9474.636058
4217.920369,0.000000,814.226536,10140.821405
4217.920685,153.219100,-296.082377,9548.656652
4217.921000,459.657299,-148.041188,9844.739029
4217.921315,-383.047749,740.205942,9474.636058
4217.921631,-153.219100,222.061783,9400.615463
4217.921946,306.438199,1110.308913,9252.574275
4217.922261,842.705048,370.102971,9474.636058
4217.922577,1072.533697,-296.082377,10066.800811
4217.922892,383.047749,814.226536,9474.636058
4217.923207,-153.219100,296.082377,8882.471304
4217.923523,842.705048,-222.061783,9844.739029
4217.923838,1072.533697,296.082377,9918.759623
4217.924153,1762.019645,-740.205942,9622.677246
4217.924469,919.314598,-0.000000,9992.780217
4217.924784,919.314598,518.144159,9622.677246
4217.925099,612.876398,296.082377,9918.759623
4217.925415,1225.752797,1332.370696,10140.821405
4217.925730,1685.410096,370.102971,9992.780217
4217.926045,1608.800546,-222.061783,10214.842000
4217.926361,689.485948,296.082377,9474.636058
4217.926676,536.266849,-222.061783,9770.718434
4217.926991,1378.971896,888.247130,9992.780217
4217.927307,1455.581446,-0.000000,9992.780217
4217.927622,766.095498,-666.185348,10362.883188
4217.927937,0.000000,444.123565,9474.636058
4217.928253,-689.485948,-74.020594,9474.636058
4217.928568,-229.828649,740.205942,9474.636058
4217.928883,536.266849,370.102971,9474.636058
4217.929199,229.828649,-1036.288319,10140.821405
4217.929514,-612.876398,-296.082377,9400.615463
4217.929829,-1608.800546,-222.061783,9400.615463
4217.930145,-1762.019645,-148.041188,10510.924376
4217.930460,-612.876398,370.102971,10140.821405
4217.930776,-612.876398,-444.123565,9770.718434
4217.931091,-689.485948,-0.000000,9918.759623
4217.931406,-1072.533697,296.082377,8586.388927
4217.931722,-1225.752797,-0.000000,8808.450710
4217.932037,-1072.533697,592.164754,9474.636058
4217.932352,-306.438199,-222.061783,9474.636058
4217.932668,-306.438199,-888.247130,9696.697840
4217.932983,-1149.143247,-148.041188,9474.636058
4217.933298,-1532.190996,-888.247130,9622.677246
4217.933614,-1532.190996,-0.000000,9474.636058
4217.933929,-766.095498,-0.000000,9696.697840
4217.934244,0.000000,-1406.391290,10066.800811
4217.934560,-766.095498,-296.082377,9696.697840
4217.934875,-919.314598,-0.000000,9252.574275
4217.935190,0.000000,-148.041188,9178.553681
4217.935506,995.924147,962.267725,9178.553681
4217.935821,1225.752797,-444.123565,9918.759623
4217.936136,536.266849,296.082377,9400.615463
4217.936452,0.000000,444.123565,9252.574275
4217.936767,76.609550,-222.061783,9474.636058
4217.937082,459.657299,1258.350101,9400.615463
4217.937398,995.924147,-0.000000,9474.636058
4217.937713,995.924147,-148.041188,10362.883188
4217.938028,-153.219100,370.102971,9252.574275
4217.938344,-383.047749,-518.144159,9400.615463
4217.938659,-306.438199,296.082377,10140.821405
4217.938974,612.876398,-222.061783,9770.718434
4217.939290,459.657299,-740.205942,9992.780217
4217.939605,766.095498,518.144159,9474.636058
4217.939920,-536.266849,1406.391290,8438.347739
4217.940236,612.876398,-0.000000,9548.656652
4217.940551,1991.848295,666.185348,9918.759623
4217.940866,1685.410096,296.082377,9474.636058
4217.941182,1685.410096,-0.000000,9326.594869
4217.941497,919.314598,-148.041188,9252.574275
4217.941812,1762.019645,-222.061783,10584.944971
4217.942128,2221.676944,888.247130,9548.656652
4217.942443,2221.676944,-222.061783,9548.656652
4217.942758,2145.067394,-814.226536,10214.842000
4217.943074,2221.676944,-444.123565,9474.636058
4217.943389,2145.067394,-370.102971,9622.677246
4217.943704,2298.286494,-0.000000,8808.450710
4217.944020,2987.772442,-444.123565,10066.800811
4217.944335,3217.601092,-740.205942,9474.636058
4217.944650,2145.067394,-370.102971,9252.574275
4217.944966,1455.581446,-666.185348,9548.656652
4217.945281,2068.457845,-1110.308913,9918.759623
4217.945596,2374.896044,-740.205942,9918.759623
4217.945912,2298.286494,-1628.453072,9770.718434
4217.946227,2145.067394,-1036.288319,9992.780217
4217.946542,1225.752797,-1184.329507,9918.759623
4217.946858,689.485948,-1258.350101,10510.924376
4217.947173,1072.533697,-1036.288319,10288.862594
4217.947488,1608.800546,-1184.329507,10066.800811
4217.947804,2451.505594,-1850.514855,9844.739029
4217.948119,2145.067394,-1406.391290,9178.553681
4217.948434,689.485948,-1702.473667,10288.862594
4217.948750,383.047749,-1998.556043,10214.842000
4217.949065,919.314598,-2516.700203,10510.924376
4217.949380,2145.067394,-3034.844362,10214.842000
4217.949696,2681.334243,-3108.864956,10288.862594
4217.950011,2068.457845,-2072.576638,10066.800811
4217.950327,995.924147,-1702.473667,9030.512492
4217.950642,1302.362347,-2220.617826,9178.553681
4217.950957,2068.457845,-2368.659014,9178.553681
4217.951273,2221.676944,-2516.700203,8808.450710
4217.951588,2604.724693,-2516.700203,8512.368333
4217.951903,1072.533697,-2146.597232,8438.347739
4217.952219,383.047749,-3034.844362,9030.512492
4217.952534,229.828649,-3330.926739,9326.594869
4217.952849,766.095498,-3330.926739,8956.491898
4217.953165,1838.629195,-3108.864956,8956.491898
4217.953480,1532.190996,-2368.659014,9104.533087
4217.953795,459.657299,-2368.659014,9178.553681
4217.954111,0.000000,-3330.926739,10214.842000
4217.954426,459.657299,-3034.844362,9918.759623
4217.954741,1762.019645,-2442.679609,9326.594869
4217.955057,2834.553343,-2368.659014,9030.512492
4217.955372,3140.991542,-1776.494261,8808.450710
4217.955687,2681.334243,-2146.597232,8882.471304
4217.956003,2145.067394,-2368.659014,9252.574275
4217.956318,1532.190996,-2442.679609,9030.512492
4217.956633,2221.676944,-2442.679609,8512.368333
4217.956949,3064.381992,-2960.823768,9030.512492
4217.957264,3370.820191,-3552.988522,8882.471304
4217.957579,2298.286494,-3627.009116,9696.697840
4217.957895,1225.752797,-3478.967927,9844.739029
4217.958210,995.924147,-2960.823768,10510.924376
4217.958525,1685.410096,-2146.597232,9770.718434
4217.958841,2911.162892,-2590.720797,9326.594869
4217.959156,4136.915689,-2146.597232,9252.574275
4217.959471,3907.087040,-2294.638420,8956.491898
4217.959787,3370.820191,-1924.535449,9252.574275
4217.960102,3064.381992,-962.267725,9696.697840
4217.960417,2757.943793,-296.082377,9918.759623
4217.960733,2834.553343,-666.185348,9474.636058
4217.961048,3524.039291,-1184.329507,9252.574275
4217.961363,3983.696590,-2220.617826,9326.594869
4217.961679,3753.867940,-2590.720797,9844.739029
4217.961994,2451.505594,-2442.679609,10140.821405
4217.962309,1838.629195,-2516.700203,10658.965565
4217.962625,2298.286494,-1776.494261,11251.130318
4217.962940,2681.334243,-1776.494261,10214.842000
4217.963255,2834.553343,-1924.535449,9844.739029
4217.963571,3370.820191,-1628.453072,9622.677246
4217.963886,3370.820191,-1406.391290,9252.574275
4217.964201,2757.943793,-814.226536,9030.512492
4217.964517,2834.553343,-74.020594,9030.512492
4217.964832,2451.505594,-370.102971,9548.656652
4217.965147,2681.334243,-444.123565,10066.800811
4217.965463,2374.896044,-1480.411884,10510.924376
4217.965778,1532.190996,-1776.494261,10510.924376
4217.966093,1378.971896,-2516.700203,10658.965565
4217.966409,995.924147,-2368.659014,9918.759623
4217.966724,1149.143247,-1998.556043,9770.718434
4217.967039,842.705048,-1332.370696,9548.656652
4217.967355,1225.752797,-1332.370696,9474.636058
4217.967670,995.924147,-1554.432478,10066.800811
4217.967985,612.876398,-1924.535449,10510.924376
4217.968301,459.657299,-2072.576638,10584.944971
4217.968616,995.924147,-1998.556043,9770.718434
4217.968931,1991.848295,-2072.576638,9548.656652
4217.969247,3370.820191,-2294.638420,9548.656652
4217.969562,3140.991542,-1702.473667,8882.471304
4217.969878,2604.724693,-1480.411884,8364.327145
4217.970193,2374.896044,-962.267725,8660.409521
4217.970508,2298.286494,-666.185348,8808.450710
4217.970824,1838.629195,-1258.350101,9178.553681
4217.971139,1608.800546,-2072.576638,9918.759623
4217.971454,1149.143247,-2960.823768,10214.842000
4217.971770,995.924147,-3256.906145,9770.718434
4217.972085,1225.752797,-3552.988522,9548.656652
4217.972400,1532.190996,-2442.679609,9474.636058
4217.972716,1838.629195,-1184.329507,8660.409521
4217.973031,1838.629195,-148.041188,8586.388927
4217.973346,1455.581446,222.061783,8882.471304
4217.973662,1608.800546,-296.082377,9474.636058
4217.973977,1455.581446,-962.267725,9400.615463
4217.974292,1991.848295,-2146.597232,10288.862594
4217.974608,1685.410096,-2738.761985,10658.965565
4217.974923,2374.896044,-3034.844362,10510.924376
4217.975238,2604.724693,-2812.782580,9992.780217
4217.975554,2834.553343,-1702.473667,9400.615463
4217.975869,3064.381992,-740.205942,8438.347739
4217.976184,2834.553343,-0.000000,7772.162391
4217.976500,2528.115143,-0.000000,7846.182985
4217.976815,1762.019645,-1184.329507,7994.224174
4217.977130,1608.800546,-2368.659014,9622.677246
4217.977446,1149.143247,-3627.009116,10288.862594
4217.977761,1378.971896,-4589.276840,12139.377449
4217.978076,1762.019645,-4737.318029,12435.459826
4217.978392,3140.991542,-4515.256246,12361.439231
4217.978707,3983.696590,-2590.720797,11251.130318
4217.979022,4443.353888,-1036.288319,9770.718434
4217.979338,4213.525239,740.205942,7994.224174
4217.979653,4443.353888,1036.288319,6883.915261
4217.979968,3294.210641,592.164754,6513.812290
4217.980284,2374.896044,-0.000000,6587.832884
4217.980599,1455.581446,-1258.350101,8068.244768
4217.980914,0.000000,-3108.864956,10436.903782
4217.981230,-919.314598,-4515.256246,12139.377449
4217.981545,-1149.143247,-5847.626942,13767.830521
4217.981860,-383.047749,-6365.771101,14508.036463
4217.982176,1378.971896,-5921.647536,14730.098246
4217.982491,2987.772442,-4367.215058,12731.542202
4217.982806,4979.620737,-2590.720797,9696.697840
4217.983122,5515.887586,518.144159,7402.059420
4217.983437,6052.154434,1776.494261,5921.647536
4217.983752,5745.716235,2146.597232,4219.173869
4217.984068,4519.963438,1554.432478,4367.215058
4217.984383,2911.162892,740.205942,4959.379811
4217.984698,842.705048,-1406.391290,7328.038826
4217.985014,-1225.752797,-3478.967927,9992.780217
4217.985329,-2451.505594,-6143.709319,13101.645173
4217.985644,-2911.162892,-7328.038826,13619.789333
4217.985960,-2451.505594,-7254.018232,13397.727550
4217.986275,-1455.581446,-6587.832884,13915.871710
4217.986590,689.485948,-4219.173869,12065.356855
4217.986906,2451.505594,-1406.391290,10214.842000
4217.987221,4213.525239,1702.473667,7920.203579
4217.987536,5592.497135,3256.906145,6291.750507
4217.987852,6511.811733,3034.844362,4737.318029
4217.988167,6665.030833,2590.720797,5773.606348
4217.988482,5745.716235,740.205942,6365.771101
4217.988798,4136.915689,-1036.288319,7846.182985
4217.989113,2451.505594,-2590.720797,9918.759623
4217.989429,1302.362347,-4737.318029,10807.006753
4217.989744,153.219100,-6291.750507,11325.150913
4217.990059,0.000000,-6365.771101,11843.295072
4217.990375,-689.485948,-5699.585753,11251.130318
4217.990690,-306.438199,-4219.173869,10658.965565
4217.991005,76.609550,-2368.659014,9474.636058
4217.991321,1072.533697,-1184.329507,8364.327145
4217.991636,2221.676944,444.123565,7698.141797
4217.991951,3140.991542,1258.350101,7846.182985
4217.992267,3447.429741,1406.391290,8290.306550
4217.992582,3830.477490,1480.411884,9326.594869
4217.992897,3600.648841,370.102971,9992.780217
4217.993213,2987.772442,-0.000000,10732.986159
4217.993528,2221.676944,-740.205942,11769.274478
4217.993843,1915.238745,-1776.494261,11843.295072
4217.994159,1302.362347,-2590.720797,11769.274478
4217.994474,229.828649,-2886.803174,11547.212695
4217.994789,0.000000,-2738.761985,10288.862594
4217.995105,-306.438199,-2368.659014,9400.615463
4217.995420,76.609550,-2146.597232,8734.430116
4217.995735,842.705048,-1480.411884,8512.368333
4217.996051,536.266849,-888.247130,8512.368333
4217.996366,1991.848295,-814.226536,8808.450710
4217.996681,2374.896044,-740.205942,9474.636058
4217.996997,2681.334243,-444.123565,10066.800811
4217.997312,3677.258390,-370.102971,10658.965565
4217.997627,3753.867940,-148.041188,10584.944971
4217.997943,3830.477490,-222.061783,10658.965565
4217.998258,4136.915689,-148.041188,10658.965565
4217.998573,3064.381992,-74.020594,9474.636058
4217.998889,2528.115143,-592.164754,8660.409521
4217.999204,2145.067394,-518.144159,9030.512492
4217.999519,1149.143247,-1480.411884,8660.409521
4217.999835,1302.362347,-2368.659014,9252.574275
4218.000150,689.485948,-3108.864956,9770.718434
4218.000465,459.657299,-3627.009116,10436.903782
4218.000781,459.657299,-3552.988522,9992.780217
4218.001096,842.705048,-3256.906145,9696.697840
4218.001411,1762.019645,-2664.741391,9696.697840
4218.001727,1838.629195,-1554.432478,9178.553681
4218.002042,1762.019645,-1036.288319,8660.409521
4218.002357,1915.238745,-888.247130,8660.409521
4218.002673,1455.581446,-370.102971,8068.244768
4218.002988,1302.362347,-444.123565,8956.491898
4218.003303,1149.143247,-666.185348,9474.636058
4218.003619,536.266849,-1332.370696,9770.718434
4218.003934,459.657299,-1702.473667,10732.986159
4218.004250,229.828649,-2220.617826,10881.027347
4218.004565,383.047749,-2886.803174,11399.171507
4218.004881,1072.533697,-3256.906145,11251.130318
4218.005196,1532.190996,-2960.823768,10658.965565
4218.005512,2374.896044,-2812.782580,9696.697840
4218.005827,2757.943793,-2072.576638,8882.471304
4218.006142,2757.943793,-1480.411884,7846.182985
4218.006458,3217.601092,-1628.453072,7550.100608
4218.006773,3447.429741,-1110.308913,7994.224174
4218.007089,3600.648841,-1480.411884,8068.244768
4218.007404,3600.648841,-1702.473667,8438.347739
4218.007720,3370.820191,-2368.659014,9326.594869
4218.008035,2987.772442,-3034.844362,10140.821405
4218.008351,2987.772442,-3330.926739,10510.924376
4218.008666,3447.429741,-2960.823768,10955.047942
4218.008981,2604.724693,-2812.782580,10881.027347
4218.009297,2834.553343,-2368.659014,10436.903782
4218.009612,2987.772442,-1850.514855,9844.739029
4218.009928,3600.648841,-1998.556043,9474.636058
4218.010243,4136.915689,-1628.453072,9400.615463
4218.010559,4519.963438,-1776.494261,8882.471304
4218.010874,4290.134789,-2220.617826,9474.636058
4218.011190,4060.306139,-2368.659014,9770.718434
4218.011505,4213.525239,-2886.803174,10066.800811
4218.011821,3677.258390,-3108.864956,10140.821405
4218.012136,3447.429741,-3182.885551,9844.739029
4218.012451,2987.772442,-3404.947333,9992.780217
4218.012767,2681.334243,-3182.885551,10214.842000
4218.013082,2298.286494,-2664.741391,9918.759623
4218.013398,2145.067394,-2886.803174,9992.780217
4218.013713,1608.800546,-2664.741391,9548.656652
4218.014029,1838.629195,-2664.741391,9844.739029
4218.014344,2068.457845,-2516.700203,9844.739029
4218.014660,2221.676944,-2368.659014,9770.718434
4218.014975,1685.410096,-2442.679609,9992.780217
4218.015290,1455.581446,-2368.659014,10362.883188
4218.015606,1762.019645,-1998.556043,10140.821405
4218.015921,2068.457845,-2738.761985,10510.924376
4218.016237,1685.410096,-2368.659014,10584.944971
4218.016552,1838.629195,-2738.761985,9844.739029
4218.016868,2374.896044,-2886.803174,9474.636058
4218.017183,2451.505594,-2812.782580,8956.491898
4218.017499,2451.505594,-2590.720797,8512.368333
4218.017814,2757.943793,-2146.597232,7994.224174
4218.018130,2374.896044,-1850.514855,7328.038826
4218.018445,1455.581446,-2220.617826,7476.080014
4218.018760,1149.143247,-2220.617826,7476.080014
4218.019076,536.266849,-2220.617826,8068.244768
4218.019391,0.000000,-2294.638420,8290.306550
4218.019707,-459.657299,-2442.679609,8882.471304
4218.020022,-766.095498,-2072.576638,9548.656652
4218.020338,-612.876398,-1850.514855,9918.759623
4218.020653,-766.095498,-1776.494261,10066.800811
4218.020969,-229.828649,-1110.308913,10362.883188
4218.021284,0.000000,-814.226536,10955.047942
4218.021599,1149.143247,-518.144159,10658.965565
4218.021915,2298.286494,-814.226536,10288.862594
4218.022230,2987.772442,-74.020594,10214.842000
4218.022546,3447.429741,-296.082377,9696.697840
4218.022861,4366.744339,-0.000000,8882.471304
4218.023177,4290.134789,-148.041188,8216.285956
4218.023492,3677.258390,-0.000000,8586.388927
4218.023808,2757.943793,222.061783,8586.388927
4218.024123,2068.457845,-888.247130,8290.306550
4218.024438,1685.410096,-1554.432478,9030.512492
4218.024754,536.266849,-2220.617826,9844.739029
4218.025069,-229.828649,-2886.803174,10955.047942
4218.025385,0.000000,-3034.844362,11917.315666
4218.025700,1072.533697,-2960.823768,13249.686362
4218.026016,1685.410096,-2220.617826,12805.562797
4218.026331,3294.210641,-1258.350101,12657.521608
4218.026647,4673.182538,-444.123565,11399.171507
4218.026962,5975.544884,740.205942,10288.862594
4218.027278,6894.859482,2072.576638,8586.388927
4218.027593,6205.373534,2442.679609,6883.915261
4218.027908,5515.887586,2812.782580,6809.894666
4218.028224,4060.306139,1480.411884,6513.812290
4218.028539,2068.457845,-296.082377,7698.141797
4218.028855,383.047749,-2812.782580,10214.842000
4218.029170,-842.705048,-4959.379811,12213.398043
4218.029486,-1378.971896,-6587.832884,14211.954086
4218.029801,-995.924147,-7254.018232,15174.221811
4218.030117,612.876398,-6957.935855,14359.995275
4218.030432,2757.943793,-5107.421000,12361.439231
4218.030747,4596.572988,-2368.659014,9918.759623
4218.031063,5822.325785,1184.329507,6069.688724
4218.031378,6281.983084,3182.885551,4145.153275
4218.031694,6358.592633,4663.297435,2812.782580
4218.032009,5439.278036,3701.029710,3108.864956
4218.032325,3677.258390,1776.494261,5181.441594
4218.032640,1608.800546,-1776.494261,8660.409521
4218.032956,-459.657299,-5033.400406,11917.315666
4218.033271,-1455.581446,-8290.306550,14285.974681
4218.033587,-1532.190996,-9474.636058,14952.160028
4218.033902,-1685.410096,-8882.471304,15544.324782
4218.034217,-229.828649,-6957.935855,13175.665768
4218.034533,1608.800546,-4219.173869,9844.739029
4218.034848,3140.991542,-740.205942,7105.977043
4218.035164,4596.572988,1702.473667,5107.421000
4218.035479,4213.525239,2442.679609,4367.215058
4218.035795,3907.087040,1850.514855,5255.462188
4218.036110,3447.429741,-444.123565,6735.874072
4218.036426,3140.991542,-2590.720797,8734.430116
4218.036741,2604.724693,-4145.153275,10362.883188
4218.037056,1225.752797,-5625.565159,11325.150913
4218.037372,995.924147,-6069.688724,12213.398043
4218.037687,919.314598,-6069.688724,12361.439231
4218.038003,536.266849,-5255.462188,11695.253884
4218.038318,-383.047749,-3701.029710,10510.924376
4218.038634,-536.266849,-2442.679609,9326.594869
4218.038949,306.438199,-2368.659014,7920.203579
4218.039265,842.705048,-1924.535449,6735.874072
4218.039580,1225.752797,-1554.432478,7105.977043
4218.039895,766.095498,-814.226536,7698.141797
4218.040211,1225.752797,-1110.308913,9400.615463
4218.040526,2068.457845,-1184.329507,10955.047942
4218.040842,2451.505594,-1998.556043,12213.398043
4218.041157,2528.115143,-3108.864956,12435.459826
4218.041473,3294.210641,-3552.988522,12213.398043
4218.041788,3447.429741,-3404.947333,11251.130318
4218.042104,4136.915689,-3034.844362,9918.759623
4218.042419,3830.477490,-666.185348,6957.935855
4218.042735,3140.991542,-0.000000,6661.853478
4218.043050,2145.067394,1258.350101,6439.791695
4218.043365,1302.362347,814.226536,7105.977043
4218.043681,919.314598,-0.000000,7772.162391
4218.043996,306.438199,-1406.391290,9548.656652
4218.044312,0.000000,-3256.906145,10732.986159
4218.044627,689.485948,-4515.256246,12583.501014
4218.044943,1608.800546,-3849.070898,13471.748144
4218.045258,1915.238745,-2960.823768,13471.748144
4218.045574,3294.210641,-444.123565,12361.439231
4218.045889,4903.011187,1554.432478,9992.780217
4218.046204,5822.325785,2738.761985,7772.162391
4218.046520,6818.249932,3256.906145,6735.874072
4218.046835,5745.716235,3108.864956,6439.791695
4218.047151,4290.134789,1850.514855,7105.977043
4218.047466,2451.505594,-0.000000,8142.265362
4218.047782,1455.581446,-1628.453072,9178.553681
4218.048097,689.485948,-3404.947333,10436.903782
4218.048413,383.047749,-5403.503377,11843.295072
4218.048728,842.705048,-5995.668130,13249.686362
4218.049044,306.438199,-5625.565159,13471.748144
4218.049359,229.828649,-4293.194464,13027.624579
4218.049674,1225.752797,-2368.659014,11399.171507
4218.049990,2298.286494,-74.020594,9104.533087
4218.050305,4366.744339,1036.288319,7254.018232
4218.050621,5286.058936,2072.576638,5847.626942
4218.050936,4749.792088,2368.659014,5921.647536
4218.051252,3217.601092,2146.597232,6291.750507
4218.051567,1991.848295,888.247130,8290.306550
4218.051883,995.924147,-814.226536,9252.574275
4218.052198,919.314598,-3478.967927,10510.924376
4218.052513,1302.362347,-5329.482782,12287.418637
4218.052829,-153.219100,-6143.709319,12805.562797
4218.053144,-1225.752797,-5625.565159,12805.562797
4218.053460,-1762.019645,-4589.276840,11621.233289
4218.053775,-383.047749,-2368.659014,9474.636058
4218.054091,1915.238745,-1036.288319,7698.141797
4218.054406,3983.696590,518.144159,6143.709319
4218.054722,3600.648841,1110.308913,5255.462188
4218.055037,2145.067394,1184.329507,5699.585753
4218.055352,1072.533697,962.267725,6365.771101
4218.055668,1532.190996,222.061783,7476.080014
4218.055983,1991.848295,-1702.473667,10288.862594
4218.056299,2145.067394,-2738.761985,10658.965565
4218.056614,-153.219100,-3997.112087,12213.398043
4218.056930,-1991.848295,-4293.194464,13397.727550
4218.057245,-3217.601092,-3182.885551,12213.398043
4218.057561,-1532.190996,-2368.659014,11621.233289
4218.057876,842.705048,-1554.432478,10066.800811
4218.058192,2068.457845,592.164754,7846.182985
4218.058507,1608.800546,814.226536,7328.038826
4218.058822,153.219100,962.267725,7105.977043
4218.059138,229.828649,518.144159,7772.162391
4218.059453,1378.971896,74.020594,8660.409521
4218.059769,2374.896044,-444.123565,9696.697840
4218.060084,1149.143247,-962.267725,10362.883188
4218.060400,-536.266849,-2590.720797,11917.315666
4218.060715,-1915.238745,-3034.844362,12361.439231
4218.061031,-1762.019645,-2812.782580,12731.542202
4218.061346,76.609550,-1702.473667,12065.356855
4218.061661,1149.143247,-666.185348,10214.842000
4218.061977,766.095498,148.041188,8660.409521
4218.062292,689.485948,740.205942,7624.121203
4218.062608,689.485948,1184.329507,8142.265362
4218.062923,1608.800546,962.267725,7920.203579
4218.063239,2145.067394,962.267725,9178.553681
4218.063554,995.924147,296.082377,9104.533087
4218.063870,383.047749,-296.082377,9770.718434
4218.064185,153.219100,-1036.288319,10732.986159
4218.064501,536.266849,-2738.761985,11991.336260
4218.064816,1762.019645,-2442.679609,11769.274478
4218.065131,1455.581446,-888.247130,10436.903782
4218.065447,612.876398,296.082377,9400.615463
4218.065762,766.095498,1406.391290,8068.244768
4218.066078,1838.629195,2294.638420,6957.935855
4218.066393,2757.943793,1924.535449,7476.080014
4218.066709,1915.238745,2516.700203,7105.977043
4218.067024,0.000000,1110.308913,7920.203579
4218.067340,-1378.971896,962.267725,8586.388927
4218.067655,-1532.190996,-0.000000,9992.780217
4218.067970,-383.047749,-1406.391290,12287.418637
4218.068286,-459.657299,-814.226536,11843.295072
4218.068601,-1455.581446,-962.267725,11177.109724
4218.068917,-1149.143247,-74.020594,11473.192101
4218.069232,-383.047749,1258.350101,10362.883188
4218.069548,612.876398,2294.638420,8882.471304
4218.069863,1608.800546,3552.988522,8216.285956
4218.070179,1762.019645,3849.070898,7476.080014
4218.070494,0.000000,3404.947333,7920.203579
4218.070809,0.000000,2664.741391,7698.141797
4218.071125,-919.314598,814.226536,9622.677246
4218.071440,-919.314598,962.267725,10807.006753
4218.071756,-995.924147,-592.164754,10807.006753
4218.072071,-2068.457845,-2146.597232,11769.274478
4218.072387,-2298.286494,-1332.370696,11769.274478
4218.072702,-2298.286494,-1554.432478,11103.089130
4218.073018,-536.266849,-666.185348,10510.924376
4218.073333,766.095498,1110.308913,9696.697840
4218.073649,842.705048,1702.473667,8512.368333
4218.073964,536.266849,2516.700203,7328.038826
4218.074279,536.266849,2960.823768,7179.997637
4218.074595,612.876398,2664.741391,8068.244768
4218.074910,689.485948,2664.741391,9104.533087
4218.075226,0.000000,1184.329507,9474.636058
4218.075541,-306.438199,-814.226536,11177.109724
4218.075857,-1302.362347,-1036.288319,11251.130318
4218.076172,-1915.238745,-1480.411884,12213.398043
4218.076488,-1225.752797,-1406.391290,11547.212695
4218.076803,-1302.362347,-592.164754,11547.212695
4218.077118,-1149.143247,296.082377,10510.924376
4218.077434,-612.876398,1480.411884,8512.368333
4218.077749,459.657299,1998.556043,7846.182985
4218.078065,1225.752797,2294.638420,8142.265362
4218.078380,1915.238745,1702.473667,7476.080014
4218.078696,766.095498,1110.308913,9178.553681
4218.079011,-306.438199,1110.308913,9030.512492
4218.079327,-612.876398,-0.000000,9622.677246
4218.079642,995.924147,-1258.350101,11177.109724
4218.079958,842.705048,-1110.308913,11621.233289
4218.080273,153.219100,-1628.453072,11325.150913
4218.080588,0.000000,-962.267725,11177.109724
4218.080904,-306.438199,-0.000000,9696.697840
4218.081219,1302.362347,148.041188,9548.656652
4218.081535,2145.067394,740.205942,8216.285956
4218.081850,1455.581446,740.205942,7402.059420
4218.082166,842.705048,-0.000000,8438.347739
4218.082481,689.485948,1110.308913,7254.018232
4218.082797,536.266849,-444.123565,8660.409521
4218.083112,1149.143247,-370.102971,9696.697840
4218.083427,459.657299,-1480.411884,9770.718434
4218.083743,-383.047749,-2072.576638,10584.944971
4218.084058,-995.924147,-2072.576638,11177.109724
4218.084374,-229.828649,-1110.308913,10288.862594
4218.084689,306.438199,-1850.514855,10214.842000
4218.085005,229.828649,-296.082377,9326.594869
4218.085320,-229.828649,-0.000000,8290.306550
4218.085636,-229.828649,1036.288319,8142.265362
4218.085951,76.609550,518.144159,7476.080014
4218.086266,689.485948,-148.041188,8512.368333
4218.086582,459.657299,-518.144159,9918.759623
4218.086897,-459.657299,-1332.370696,9474.636058
4218.087213,-1455.581446,-1110.308913,10658.965565
4218.087528,-1302.362347,-1184.329507,10881.027347
4218.087844,383.047749,-1998.556043,10658.965565
4218.088159,842.705048,-814.226536,10584.944971
4218.088475,76.609550,-666.185348,9918.759623
4218.088790,-383.047749,-370.102971,8808.450710
4218.089106,-229.828649,1332.370696,7846.182985
4218.089421,1149.143247,1258.350101,7624.121203
4218.089736,1378.971896,1036.288319,8734.430116
4218.090052,459.657299,888.247130,7772.162391
4218.090367,76.609550,-1036.288319,8586.388927
4218.090683,-536.266849,-740.205942,9918.759623
4218.090998,-689.485948,-296.082377,10510.924376
4218.091314,229.828649,-1332.370696,11103.089130
4218.091629,306.438199,-0.000000,11103.089130
4218.091945,0.000000,-370.102971,10288.862594
4218.092260,-612.876398,814.226536,9030.512492
4218.092575,0.000000,1554.432478,8660.409521
4218.092891,612.876398,1332.370696,9622.677246
4218.093206,1072.533697,1924.535449,8660.409521
4218.093522,459.657299,1332.370696,7994.224174
4218.093837,-306.438199,962.267725,9104.533087
4218.094153,-383.047749,1332.370696,9252.574275
4218.094468,0.000000,-370.102971,10510.924376
4218.094784,306.438199,-0.000000,11251.130318
4218.095099,76.609550,-518.144159,10955.047942
4218.095414,-612.876398,-370.102971,10881.027347
4218.095730,-995.924147,592.164754,10584.944971
4218.096045,306.438199,222.061783,10584.944971
4218.096361,1608.800546,1036.288319,10214.842000
4218.096676,1532.190996,1480.411884,8808.450710
4218.096992,612.876398,1036.288319,8290.306550
4218.097307,0.000000,1702.473667,9104.533087
4218.097623,306.438199,1554.432478,8956.491898
4218.097938,919.314598,370.102971,9770.718434
4218.098254,766.095498,444.123565,10881.027347
4218.098569,0.000000,-518.144159,10807.006753
4218.098884,-612.876398,-296.082377,10658.965565
4218.099200,-842.705048,-0.000000,10881.027347
4218.099515,76.609550,-0.000000,10881.027347
4218.099831,1149.143247,666.185348,9770.718434
4218.100146,919.314598,962.267725,9252.574275
4218.100462,76.609550,962.267725,9548.656652
4218.100777,-229.828649,2368.659014,7846.182985
4218.101093,1455.581446,1702.473667,8734.430116
4218.101408,1072.533697,1554.432478,9104.533087
4218.101723,0.000000,814.226536,9326.594869
4218.102039,-842.705048,-296.082377,9844.739029
4218.102354,-1532.190996,222.061783,10066.800811
4218.102670,-612.876398,148.041188,9992.780217
4218.102985,306.438199,-1036.288319,10732.986159
4218.103301,306.438199,-370.102971,10658.965565
4218.103616,-536.266849,-0.000000,10288.862594
4218.103932,-1149.143247,888.247130,9030.512492
4218.104247,-383.047749,1110.308913,8734.430116
4218.104563,1072.533697,814.226536,8068.244768
4218.104878,1762.019645,296.082377,8660.409521
4218.105193,689.485948,-0.000000,8364.327145
4218.105509,-383.047749,-444.123565,9474.636058
4218.105824,-689.485948,-74.020594,9400.615463
4218.106140,-229.828649,-1332.370696,10584.944971
4218.106455,383.047749,-1184.329507,10658.965565
4218.106771,0.000000,-1332.370696,10362.883188
4218.107086,0.000000,-1332.370696,9844.739029
4218.107402,-229.828649,-1110.308913,9992.780217
4218.107717,612.876398,-592.164754,9474.636058
4218.108033,1225.752797,-592.164754,9326.594869
4218.108348,1225.752797,592.164754,8290.306550
4218.108664,612.876398,-222.061783,8512.368333
4218.108979,153.219100,518.144159,8512.368333
4218.109294,306.438199,-296.082377,9326.594869
4218.109610,153.219100,-1036.288319,10658.965565
4218.109925,229.828649,-1110.308913,10881.027347
4218.110241,76.609550,-1628.453072,10732.986159
4218.110556,-383.047749,-1554.432478,10362.883188
4218.110872,-536.266849,-888.247130,10066.800811
4218.111187,766.095498,-1258.350101,10510.924376
4218.111503,766.095498,-222.061783,9474.636058
4218.111818,383.047749,-222.061783,8660.409521
4218.112134,0.000000,-0.000000,8142.265362
4218.112449,-612.876398,1036.288319,8142.265362
4218.112765,229.828649,-0.000000,8586.388927
4218.113080,919.314598,444.123565,9178.553681
4218.113396,1532.190996,-74.020594,9474.636058
4218.113711,153.219100,-666.185348,9696.697840
4218.114026,-766.095498,-0.000000,9770.718434
4218.114342,-459.657299,-1110.308913,10140.821405
4218.114657,612.876398,-592.164754,10955.047942
4218.114973,306.438199,740.205942,9178.553681
4218.115288,-229.828649,-296.082377,9030.512492
4218.115604,76.609550,-444.123565,9622.677246
4218.115919,-536.266849,888.247130,8438.347739
4218.116235,-842.705048,-592.164754,9844.739029
4218.116550,0.000000,-0.000000,10066.800811
4218.116866,-1225.752797,-0.000000,9474.636058
4218.117181,-1302.362347,-0.000000,9474.636058
4218.117497,-536.266849,518.144159,9178.553681
4218.117812,229.828649,-0.000000,9474.636058
4218.118127,1225.752797,370.102971,10214.842000
4218.118443,306.438199,888.247130,9326.594869
4218.118758,536.266849,1184.329507,9178.553681
4218.119074,459.657299,1702.473667,8290.306550
4218.119389,766.095498,1258.350101,8512.368333
4218.119705,919.314598,962.267725,9178.553681
4218.120020,-383.047749,814.226536,9400.615463
4218.120336,-1302.362347,518.144159,10288.862594
4218.120651,-2145.067394,1702.473667,9622.677246
4218.120967,-2221.676944,518.144159,10881.027347
4218.121282,-689.485948,-1036.288319,11547.212695
4218.121598,383.047749,-148.041188,10881.027347
4218.121913,-229.828649,-444.123565,10732.986159
