#time,accel_x,accel_y,accel_z
3692.981267,1225.752797,592.164754,8956.491898
3692.981582,1685.410096,592.164754,8734.430116
3692.981897,1532.190996,740.205942,8956.491898
3692.982211,1225.752797,888.247130,9178.553681
3692.982526,1302.362347,740.205942,9474.636058
3692.982841,1225.752797,518.144159,9770.718434
3692.983155,995.924147,518.144159,10140.821405
3692.983470,459.657299,592.164754,9918.759623
3692.983785,766.095498,666.185348,9696.697840
3692.984099,766.095498,666.185348,9474.636058
3692.984414,689.485948,370.102971,9548.656652
3692.984728,229.828649,-0.000000,8882.471304
3692.985043,383.047749,-148.041188,8956.491898
3692.985358,229.828649,-444.123565,9030.512492
3692.985672,76.609550,-740.205942,9326.594869
3692.985987,0.000000,-1110.308913,9548.656652
3692.986302,-153.219100,-1110.308913,9326.594869
3692.986616,-536.266849,-1332.370696,9474.636058
3692.986931,-689.485948,-1332.370696,9252.574275
3692.987246,-612.876398,-1036.288319,9548.656652
3692.987560,-229.828649,-814.226536,9696.697840
3692.987875,-536.266849,-666.185348,9178.553681
3692.988190,153.219100,-444.123565,8882.471304
3692.988504,459.657299,-222.061783,9178.553681
3692.988819,459.657299,-740.205942,9400.615463
3692.989134,612.876398,-740.205942,9474.636058
3692.989448,459.657299,-740.205942,9696.697840
3692.989763,612.876398,-518.144159,9992.780217
3692.990077,383.047749,-666.185348,9548.656652
3692.990392,306.438199,-888.247130,9770.718434
3692.990707,0.000000,-592.164754,9622.677246
3692.991021,-229.828649,-740.205942,9474.636058
3692.991336,0.000000,-740.205942,9104.533087
3692.991651,0.000000,-592.164754,9252.574275
3692.991965,76.609550,-518.144159,9252.574275
3692.992280,612.876398,-740.205942,9252.574275
3692.992595,0.000000,-888.247130,9474.636058
3692.992909,0.000000,-592.164754,9474.636058
3692.993224,459.657299,-444.123565,9770.718434
3692.993539,689.485948,-518.144159,9400.615463
3692.993853,306.438199,-222.061783,9622.677246
3692.994168,306.438199,444.123565,9474.636058
3692.994483,76.609550,296.082377,8734.430116
3692.994797,612.876398,296.082377,9030.512492
3692.995112,76.609550,-0.000000,9474.636058
3692.995426,229.828649,370.102971,8586.388927
3692.995741,383.047749,592.164754,8882.471304
3692.996056,612.876398,370.102971,8956.491898
3692.996370,459.657299,370.102971,9474.636058
3692.996685,383.047749,592.164754,9252.574275
3692.997000,459.657299,518.144159,9400.615463
3692.997314,459.657299,740.205942,9548.656652
3692.997629,459.657299,592.164754,9178.553681
3692.997944,459.657299,1258.350101,9178.553681
3692.998258,383.047749,1332.370696,9474.636058
3692.998573,153.219100,1184.329507,9474.636058
3692.998888,0.000000,1184.329507,9622.677246
3692.999202,459.657299,1406.391290,9992.780217
3692.999517,0.000000,1184.329507,9918.759623
3692.999831,229.828649,962.267725,9918.759623
3693.000146,229.828649,1036.288319,10066.800811
3693.000461,0.000000,1036.288319,10362.883188
3693.000775,0.000000,740.205942,10658.965565
3693.001090,0.000000,1184.329507,10362.883188
3693.001405,-229.828649,962.267725,10732.986159
3693.001719,0.000000,814.226536,10436.903782
3693.002034,0.000000,1036.288319,10732.986159
3693.002349,-612.876398,740.205942,10807.006753
3693.002663,-306.438199,592.164754,10807.006753
3693.002978,-383.047749,592.164754,10436.903782
3693.003293,0.000000,370.102971,10288.862594
3693.003607,0.000000,444.123565,10584.944971
3693.003922,76.609550,222.061783,10658.965565
3693.004237,0.000000,518.144159,10288.862594
3693.004551,0.000000,370.102971,10066.800811
3693.004866,153.219100,296.082377,10362.883188
3693.005180,536.266849,-0.000000,9548.656652
3693.005495,383.047749,370.102971,9474.636058
3693.005810,229.828649,444.123565,10140.821405
3693.006124,383.047749,-0.000000,9104.533087
3693.006439,306.438199,370.102971,9474.636058
3693.006754,306.438199,-148.041188,9252.574275
3693.007068,153.219100,-74.020594,9400.615463
3693.007383,229.828649,-74.020594,9474.636058
3693.007698,153.219100,-148.041188,9400.615463
3693.008012,229.828649,-222.061783,9474.636058
3693.008327,0.000000,-296.082377,9474.636058
3693.008642,306.438199,-444.123565,8882.471304
3693.008956,-229.828649,-0.000000,8956.491898
3693.009271,76.609550,-148.041188,9030.512492
3693.009586,0.000000,-148.041188,8734.430116
3693.009900,0.000000,-74.020594,9030.512492
3693.010215,0.000000,-0.000000,9178.553681
3693.010529,0.000000,-222.061783,9178.553681
3693.010844,0.000000,-296.082377,9400.615463
3693.011159,0.000000,-518.144159,9252.574275
3693.011473,-229.828649,-666.185348,9030.512492
3693.011788,0.000000,-592.164754,9252.574275
3693.012103,-153.219100,-370.102971,9104.533087
3693.012417,-229.828649,-740.205942,9326.594869
3693.012732,-229.828649,-518.144159,9326.594869
3693.013047,-536.266849,-370.102971,9400.615463
3693.013361,0.000000,-740.205942,9474.636058
3693.013676,0.000000,-592.164754,9326.594869
3693.013991,229.828649,-740.205942,9326.594869
3693.014305,0.000000,-518.144159,9474.636058
3693.014620,0.000000,-296.082377,9770.718434
3693.014935,0.000000,-370.102971,9918.759623
3693.015249,0.000000,-962.267725,9474.636058
3693.015564,0.000000,-518.144159,9844.739029
3693.015878,229.828649,-740.205942,9252.574275
3693.016193,0.000000,-222.061783,9474.636058
3693.016508,0.000000,-444.123565,10066.800811
3693.016822,76.609550,-148.041188,10214.842000
3693.017137,0.000000,-444.123565,9918.759623
3693.017452,0.000000,-222.061783,9770.718434
3693.017766,0.000000,-222.061783,9622.677246
3693.018081,0.000000,-74.020594,9918.759623
3693.018396,0.000000,-0.000000,9696.697840
3693.018710,0.000000,-74.020594,9696.697840
3693.019025,229.828649,296.082377,9474.636058
3693.019340,76.609550,518.144159,9178.553681
3693.019654,459.657299,222.061783,9104.533087
3693.019969,459.657299,740.205942,9696.697840
3693.020284,0.000000,518.144159,9474.636058
3693.020598,0.000000,814.226536,9030.512492
3693.020913,0.000000,518.144159,9252.574275
3693.021227,383.047749,1036.288319,9548.656652
3693.021542,0.000000,370.102971,9400.615463
3693.021857,76.609550,814.226536,9622.677246
3693.022171,229.828649,814.226536,9178.553681
3693.022486,229.828649,888.247130,9474.636058
3693.022800,-306.438199,814.226536,9252.574275
3693.023115,153.219100,666.185348,9326.594869
3693.023430,153.219100,888.247130,9474.636058
3693.023744,153.219100,740.205942,9474.636058
3693.024059,383.047749,888.247130,9696.697840
3693.024373,459.657299,740.205942,9770.718434
3693.024688,306.438199,740.205942,9474.636058
3693.025002,0.000000,814.226536,9474.636058
3693.025317,0.000000,814.226536,9474.636058
3693.025631,536.266849,592.164754,9992.780217
3693.025946,229.828649,518.144159,10140.821405
3693.026260,229.828649,592.164754,10140.821405
3693.026575,0.000000,592.164754,9770.718434
3693.026889,0.000000,370.102971,9770.718434
3693.027204,0.000000,296.082377,10288.862594
3693.027518,153.219100,-148.041188,10584.944971
3693.027833,229.828649,-0.000000,10066.800811
3693.028148,153.219100,-0.000000,9918.759623
3693.028462,306.438199,-0.000000,10140.821405
3693.028777,459.657299,148.041188,9992.780217
3693.029091,0.000000,-0.000000,9548.656652
3693.029406,76.609550,-0.000000,9770.718434
3693.029720,153.219100,-0.000000,9844.739029
3693.030035,229.828649,-0.000000,9770.718434
3693.030349,229.828649,-0.000000,9696.697840
3693.030664,229.828649,-0.000000,9696.697840
3693.030978,153.219100,-0.000000,9474.636058
3693.031293,0.000000,-0.000000,9326.594869
3693.031607,0.000000,-0.000000,9474.636058
3693.031922,0.000000,-0.000000,9474.636058
3693.032236,76.609550,-74.020594,9326.594869
3693.032551,0.000000,-0.000000,9326.594869
3693.032866,0.000000,-0.000000,9104.533087
3693.033180,76.609550,-0.000000,9178.553681
3693.033495,0.000000,-0.000000,8956.491898
3693.033809,459.657299,-0.000000,9030.512492
3693.034124,0.000000,-0.000000,9252.574275
3693.034438,76.609550,-0.000000,9030.512492
3693.034753,76.609550,-222.061783,8882.471304
3693.035067,153.219100,-0.000000,9326.594869
3693.035382,0.000000,-0.000000,8956.491898
3693.035696,0.000000,-74.020594,8956.491898
3693.036011,153.219100,-148.041188,9178.553681
3693.036325,229.828649,-370.102971,9252.574275
3693.036640,153.219100,-0.000000,9178.553681
3693.036954,536.266849,-74.020594,9252.574275
3693.037269,229.828649,-0.000000,9548.656652
3693.037584,536.266849,-0.000000,9474.636058
3693.037898,0.000000,-148.041188,9474.636058
3693.038213,0.000000,-296.082377,9696.697840
3693.038527,-306.438199,-296.082377,10214.842000
3693.038842,153.219100,-222.061783,9548.656652
3693.039156,76.609550,-222.061783,9770.718434
3693.039471,153.219100,-0.000000,10288.862594
3693.039785,0.000000,222.061783,10066.800811
3693.040100,0.000000,-148.041188,9696.697840
3693.040414,229.828649,-0.000000,9696.697840
3693.040729,153.219100,-0.000000,10140.821405
3693.041043,76.609550,-0.000000,9844.739029
3693.041358,153.219100,148.041188,10140.821405
3693.041672,0.000000,296.082377,9992.780217
3693.041987,0.000000,370.102971,9992.780217
3693.042302,153.219100,666.185348,9992.780217
3693.042616,76.609550,370.102971,9992.780217
3693.042931,0.000000,-0.000000,10066.800811
3693.043245,76.609550,444.123565,9770.718434
3693.043560,-153.219100,592.164754,9622.677246
3693.043874,0.000000,666.185348,9770.718434
3693.044189,0.000000,666.185348,9770.718434
3693.044503,0.000000,592.164754,9918.759623
3693.044818,153.219100,592.164754,9844.739029
3693.045132,153.219100,666.185348,9622.677246
3693.045447,153.219100,370.102971,9252.574275
3693.045761,0.000000,740.205942,9548.656652
3693.046076,536.266849,814.226536,9918.759623
3693.046390,229.828649,148.041188,9178.553681
3693.046705,383.047749,1036.288319,9178.553681
3693.047020,306.438199,592.164754,9326.594869
3693.047334,229.828649,592.164754,9400.615463
3693.047649,536.266849,592.164754,9400.615463
3693.047963,229.828649,444.123565,9474.636058
3693.048278,383.047749,592.164754,9696.697840
3693.048592,229.828649,370.102971,9400.615463
3693.048907,383.047749,222.061783,9548.656652
3693.049221,0.000000,-74.020594,9918.759623
3693.049536,306.438199,222.061783,9770.718434
3693.049850,459.657299,-0.000000,9548.656652
3693.050165,306.438199,-0.000000,9770.718434
3693.050479,459.657299,-0.000000,9770.718434
3693.050794,459.657299,-0.000000,9548.656652
3693.051108,229.828649,-0.000000,9474.636058
3693.051423,536.266849,-148.041188,9252.574275
3693.051737,76.609550,-0.000000,9844.739029
3693.052052,153.219100,-0.000000,9770.718434
3693.052367,459.657299,-0.000000,9844.739029
3693.052681,153.219100,-222.061783,9696.697840
3693.052996,229.828649,-0.000000,9918.759623
3693.053310,0.000000,-0.000000,9696.697840
3693.053625,0.000000,-222.061783,9770.718434
3693.053939,0.000000,-74.020594,9548.656652
3693.054254,0.000000,-0.000000,9104.533087
3693.054568,0.000000,-74.020594,9696.697840
3693.054883,-306.438199,-0.000000,9770.718434
3693.055197,-153.219100,-222.061783,9548.656652
3693.055512,153.219100,-222.061783,9326.594869
3693.055826,0.000000,-518.144159,9326.594869
3693.056141,0.000000,-444.123565,9030.512492
3693.056455,0.000000,-0.000000,9400.615463
3693.056770,76.609550,-0.000000,9474.636058
3693.057085,0.000000,-222.061783,9178.553681
3693.057399,76.609550,-0.000000,9178.553681
3693.057714,153.219100,-0.000000,9252.574275
3693.058028,153.219100,-148.041188,9178.553681
3693.058343,76.609550,-148.041188,9326.594869
3693.058657,153.219100,-0.000000,9178.553681
3693.058972,383.047749,444.123565,9548.656652
3693.059286,153.219100,-222.061783,9178.553681
3693.059601,153.219100,-222.061783,9030.512492
3693.059915,76.609550,-148.041188,9548.656652
3693.060230,76.609550,-0.000000,9474.636058
3693.060544,153.219100,-296.082377,9770.718434
3693.060859,383.047749,-74.020594,9622.677246
3693.061173,383.047749,-0.000000,9474.636058
3693.061488,306.438199,-0.000000,9400.615463
3693.061803,0.000000,148.041188,9474.636058
3693.062117,612.876398,-148.041188,9696.697840
3693.062432,459.657299,296.082377,9622.677246
3693.062746,0.000000,-0.000000,9696.697840
3693.063061,76.609550,222.061783,9844.739029
3693.063375,76.609550,-0.000000,9696.697840
3693.063690,229.828649,444.123565,9918.759623
3693.064004,0.000000,148.041188,10214.842000
3693.064319,0.000000,-0.000000,10510.924376
3693.064633,76.609550,370.102971,9622.677246
3693.064948,0.000000,296.082377,9326.594869
3693.065262,153.219100,222.061783,9992.780217
3693.065577,153.219100,148.041188,9844.739029
3693.065891,76.609550,370.102971,9844.739029
3693.066206,-229.828649,296.082377,9622.677246
3693.066521,229.828649,296.082377,10066.800811
3693.066835,76.609550,518.144159,9548.656652
3693.067150,153.219100,518.144159,9548.656652
3693.067464,0.000000,444.123565,9918.759623
3693.067779,0.000000,222.061783,9548.656652
3693.068093,0.000000,370.102971,9770.718434
3693.068408,0.000000,148.041188,9622.677246
3693.068722,0.000000,370.102971,9622.677246
3693.069037,0.000000,444.123565,9474.636058
3693.069351,76.609550,444.123565,9548.656652
3693.069666,76.609550,444.123565,9770.718434
3693.069980,0.000000,518.144159,9326.594869
3693.070295,0.000000,370.102971,9622.677246
3693.070609,0.000000,148.041188,9622.677246
3693.070924,0.000000,-0.000000,9622.677246
3693.071239,229.828649,148.041188,10066.800811
3693.071553,76.609550,370.102971,9770.718434
3693.071868,153.219100,-0.000000,9844.739029
3693.072182,153.219100,370.102971,9696.697840
3693.072497,0.000000,222.061783,9400.615463
3693.072811,919.314598,-0.000000,9918.759623
3693.073126,306.438199,148.041188,9548.656652
3693.073440,76.609550,222.061783,9622.677246
3693.073755,76.609550,-0.000000,9622.677246
3693.074069,76.609550,222.061783,9918.759623
3693.074384,0.000000,-0.000000,9770.718434
3693.074698,0.000000,222.061783,9622.677246
3693.075013,76.609550,-0.000000,9696.697840
3693.075327,0.000000,-0.000000,9622.677246
3693.075642,153.219100,-74.020594,9252.574275
3693.075957,383.047749,-0.000000,9548.656652
3693.076271,0.000000,-0.000000,9474.636058
3693.076586,76.609550,-296.082377,9474.636058
3693.076900,0.000000,-0.000000,9400.615463
3693.077215,0.000000,-444.123565,9326.594869
3693.077529,76.609550,-148.041188,9622.677246
3693.077844,0.000000,148.041188,9326.594869
3693.078158,0.000000,148.041188,9474.636058
3693.078473,459.657299,-148.041188,9474.636058
3693.078787,0.000000,-0.000000,9474.636058
3693.079102,0.000000,-148.041188,9178.553681
3693.079416,0.000000,-0.000000,9400.615463
3693.079731,0.000000,-148.041188,9622.677246
3693.080045,0.000000,-0.000000,9474.636058
3693.080360,0.000000,-0.000000,9696.697840
3693.080674,306.438199,-0.000000,9474.636058
3693.080989,229.828649,-0.000000,9178.553681
3693.081304,459.657299,-0.000000,9252.574275
3693.081618,0.000000,-0.000000,9474.636058
3693.081933,0.000000,-148.041188,9548.656652
3693.082247,306.438199,-0.000000,9844.739029
3693.082562,229.828649,-0.000000,9770.718434
3693.082876,76.609550,-0.000000,9474.636058
3693.083191,0.000000,148.041188,9474.636058
3693.083505,842.705048,-0.000000,9548.656652
3693.083820,536.266849,444.123565,9844.739029
3693.084134,0.000000,296.082377,9844.739029
3693.084449,76.609550,148.041188,10066.800811
3693.084763,0.000000,222.061783,9474.636058
3693.085078,383.047749,296.082377,9844.739029
3693.085392,0.000000,444.123565,10066.800811
3693.085707,76.609550,370.102971,9844.739029
3693.086022,0.000000,370.102971,9770.718434
3693.086336,229.828649,296.082377,9548.656652
3693.086651,306.438199,370.102971,9622.677246
3693.086965,153.219100,740.205942,9696.697840
3693.087280,0.000000,222.061783,9548.656652
3693.087594,0.000000,296.082377,9548.656652
3693.087909,229.828649,444.123565,9474.636058
3693.088223,0.000000,444.123565,9548.656652
3693.088538,153.219100,370.102971,9622.677246
3693.088852,0.000000,518.144159,9622.677246
3693.089167,0.000000,370.102971,9770.718434
3693.089481,-153.219100,518.144159,9770.718434
3693.089796,0.000000,296.082377,9918.759623
3693.090110,0.000000,222.061783,9622.677246
3693.090425,0.000000,592.164754,9770.718434
3693.090740,153.219100,296.082377,9770.718434
3693.091054,229.828649,296.082377,9400.615463
3693.091369,306.438199,666.185348,9992.780217
3693.091683,459.657299,296.082377,9696.697840
3693.091998,0.000000,222.061783,9622.677246
3693.092312,76.609550,148.041188,9622.677246
3693.092627,306.438199,222.061783,9474.636058
3693.092941,306.438199,-0.000000,9696.697840
3693.093256,229.828649,222.061783,9770.718434
3693.093570,306.438199,370.102971,9770.718434
3693.093885,306.438199,444.123565,9622.677246
3693.094199,229.828649,518.144159,9474.636058
3693.094514,306.438199,-0.000000,9696.697840
3693.094828,229.828649,-0.000000,9992.780217
3693.095143,0.000000,-0.000000,9770.718434
3693.095458,0.000000,-0.000000,9622.677246
3693.095772,229.828649,222.061783,9696.697840
3693.096087,0.000000,-0.000000,9918.759623
3693.096401,0.000000,-0.000000,9622.677246
3693.096716,0.000000,-0.000000,9622.677246
3693.097030,0.000000,-0.000000,9992.780217
3693.097345,0.000000,-0.000000,9178.553681
3693.097659,153.219100,-0.000000,9622.677246
3693.097974,76.609550,-0.000000,9622.677246
3693.098288,306.438199,-74.020594,9400.615463
3693.098603,0.000000,-74.020594,9400.615463
3693.098917,0.000000,-0.000000,9474.636058
3693.099232,76.609550,-0.000000,9696.697840
3693.099546,0.000000,-0.000000,9400.615463
3693.099861,0.000000,-222.061783,9400.615463
3693.100176,229.828649,-0.000000,9474.636058
3693.100490,76.609550,-74.020594,9548.656652
3693.100805,306.438199,-0.000000,9474.636058
3693.101119,383.047749,-0.000000,9400.615463
3693.101434,153.219100,-0.000000,9326.594869
3693.101748,229.828649,-74.020594,8956.491898
3693.102063,153.219100,-0.000000,9400.615463
3693.102377,76.609550,-74.020594,9474.636058
3693.102692,0.000000,-222.061783,9400.615463
3693.103006,153.219100,-0.000000,9548.656652
3693.103321,76.609550,-74.020594,9474.636058
3693.103635,229.828649,-74.020594,9548.656652
3693.103950,153.219100,-0.000000,9918.759623
3693.104264,0.000000,370.102971,9548.656652
3693.104579,0.000000,-74.020594,9770.718434
3693.104894,229.828649,-0.000000,9770.718434
3693.105208,76.609550,-74.020594,9474.636058
3693.105523,306.438199,-0.000000,10214.842000
3693.105837,0.000000,-0.000000,9770.718434
3693.106152,153.219100,-0.000000,9844.739029
3693.106466,0.000000,-0.000000,9696.697840
3693.106781,76.609550,222.061783,9918.759623
3693.107095,76.609550,-0.000000,9770.718434
3693.107410,229.828649,-0.000000,9770.718434
3693.107724,-76.609550,296.082377,10066.800811
3693.108039,0.000000,296.082377,9844.739029
3693.108353,0.000000,370.102971,9622.677246
3693.108668,-306.438199,148.041188,9770.718434
3693.108982,-229.828649,-0.000000,9696.697840
3693.109297,0.000000,296.082377,10214.842000
3693.109611,0.000000,222.061783,9622.677246
3693.109926,0.000000,296.082377,9474.636058
3693.110241,0.000000,592.164754,9474.636058
3693.110555,306.438199,518.144159,9474.636058
3693.110870,229.828649,222.061783,9474.636058
3693.111184,153.219100,518.144159,9548.656652
3693.111499,153.219100,222.061783,9474.636058
3693.111813,306.438199,370.102971,9474.636058
3693.112128,153.219100,148.041188,9400.615463
3693.112442,153.219100,296.082377,9252.574275
3693.112757,229.828649,444.123565,9622.677246
3693.113071,229.828649,370.102971,9474.636058
3693.113386,76.609550,370.102971,9400.615463
3693.113700,383.047749,-0.000000,9622.677246
3693.114015,153.219100,-0.000000,9474.636058
3693.114329,0.000000,296.082377,9474.636058
3693.114644,153.219100,-0.000000,9844.739029
3693.114959,229.828649,370.102971,9474.636058
3693.115273,229.828649,-74.020594,9622.677246
3693.115588,383.047749,222.061783,9326.594869
3693.115902,0.000000,74.020594,9548.656652
3693.116217,306.438199,222.061783,9844.739029
3693.116531,229.828649,370.102971,9918.759623
3693.116846,383.047749,222.061783,9696.697840
3693.117160,0.000000,148.041188,9770.718434
3693.117475,229.828649,-0.000000,9844.739029
3693.117789,153.219100,148.041188,9696.697840
3693.118104,76.609550,222.061783,9622.677246
3693.118418,-229.828649,-0.000000,9622.677246
3693.118733,0.000000,-148.041188,9770.718434
3693.119047,0.000000,148.041188,9844.739029
3693.119362,0.000000,-0.000000,9696.697840
3693.119677,0.000000,-0.000000,9548.656652
3693.119991,306.438199,-296.082377,9548.656652
3693.120306,0.000000,-0.000000,9474.636058
3693.120620,0.000000,-0.000000,9622.677246
3693.120935,76.609550,-0.000000,9474.636058
3693.121249,0.000000,-0.000000,9400.615463
3693.121564,0.000000,-0.000000,9622.677246
3693.121878,229.828649,370.102971,9474.636058
3693.122193,0.000000,-0.000000,9548.656652
3693.122507,76.609550,-0.000000,9400.615463
3693.122822,153.219100,-0.000000,9178.553681
3693.123136,229.828649,148.041188,9104.533087
3693.123451,383.047749,296.082377,9326.594869
3693.123766,76.609550,-0.000000,9474.636058
3693.124080,306.438199,148.041188,9548.656652
3693.124395,0.000000,-74.020594,9548.656652
3693.124709,0.000000,-0.000000,8882.471304
3693.125024,0.000000,-0.000000,9474.636058
3693.125338,306.438199,-74.020594,9696.697840
3693.125653,153.219100,-0.000000,9548.656652
3693.125967,229.828649,-0.000000,9622.677246
3693.126282,0.000000,-0.000000,9770.718434
3693.126597,306.438199,222.061783,9548.656652
3693.126911,153.219100,296.082377,9474.636058
3693.127226,153.219100,-0.000000,9770.718434
3693.127540,612.876398,222.061783,9992.780217
3693.127855,0.000000,-0.000000,10140.821405
3693.128169,0.000000,-0.000000,9696.697840
3693.128484,0.000000,-0.000000,10140.821405
3693.128798,0.000000,296.082377,9918.759623
3693.129113,0.000000,-0.000000,9844.739029
3693.129428,229.828649,-0.000000,9548.656652
3693.129742,76.609550,296.082377,9992.780217
3693.130057,0.000000,296.082377,9844.739029
3693.130371,0.000000,-0.000000,9918.759623
3693.130686,383.047749,-0.000000,9992.780217
3693.131000,0.000000,222.061783,10140.821405
3693.131315,0.000000,-0.000000,10288.862594
3693.131629,383.047749,296.082377,10066.800811
3693.131944,383.047749,666.185348,9622.677246
3693.132259,612.876398,888.247130,9474.636058
3693.132573,689.485948,1036.288319,9178.553681
3693.132888,995.924147,1110.308913,8734.430116
3693.133202,1072.533697,814.226536,8882.471304
3693.133517,842.705048,814.226536,8882.471304
3693.133831,842.705048,-0.000000,8956.491898
3693.134146,612.876398,222.061783,9474.636058
3693.134460,612.876398,370.102971,9992.780217
3693.134775,612.876398,518.144159,9770.718434
3693.135090,766.095498,740.205942,10214.842000
3693.135404,766.095498,962.267725,9770.718434
3693.135719,1072.533697,1332.370696,9326.594869
3693.136033,1532.190996,1406.391290,9992.780217
3693.136348,2221.676944,1406.391290,9400.615463
3693.136662,2604.724693,1332.370696,8956.491898
3693.136977,2757.943793,1332.370696,8734.430116
3693.137292,2987.772442,2072.576638,9474.636058
3693.137606,3294.210641,2220.617826,9400.615463
3693.137921,3294.210641,2294.638420,9474.636058
3693.138235,3140.991542,2294.638420,9400.615463
3693.138550,3447.429741,2220.617826,9622.677246
3693.138864,2987.772442,2368.659014,9474.636058
3693.139179,3064.381992,2368.659014,9622.677246
3693.139493,3140.991542,2442.679609,9474.636058
3693.139808,3447.429741,2664.741391,9474.636058
3693.140123,3064.381992,2960.823768,9474.636058
3693.140437,3600.648841,3256.906145,9326.594869
3693.140752,3677.258390,3478.967927,9104.533087
3693.141066,3524.039291,3404.947333,9178.553681
3693.141381,3140.991542,3330.926739,9030.512492
3693.141695,2987.772442,3478.967927,9030.512492
3693.142010,2528.115143,3108.864956,9252.574275
3693.142324,2221.676944,2960.823768,9770.718434
3693.142639,2068.457845,2516.700203,9696.697840
3693.142954,1915.238745,2590.720797,10066.800811
3693.143268,2145.067394,2886.803174,10066.800811
3693.143583,1838.629195,3552.988522,10140.821405
3693.143897,2221.676944,4145.153275,10140.821405
3693.144212,2145.067394,4367.215058,9992.780217
3693.144526,2068.457845,4219.173869,9770.718434
3693.144841,2451.505594,4219.173869,10214.842000
3693.145155,2298.286494,4071.132681,10658.965565
3693.145470,2068.457845,3849.070898,10732.986159
3693.145785,2068.457845,3849.070898,10658.965565
3693.146099,1915.238745,3701.029710,10510.924376
3693.146414,2145.067394,3404.947333,10658.965565
3693.146728,2604.724693,3552.988522,10436.903782
3693.147043,2374.896044,3108.864956,9918.759623
3693.147357,2145.067394,2738.761985,9622.677246
3693.147672,1991.848295,2738.761985,9474.636058
3693.147986,2451.505594,3034.844362,9918.759623
3693.148301,2374.896044,2664.741391,9178.553681
3693.148616,2451.505594,2886.803174,9252.574275
3693.148930,2145.067394,2738.761985,9474.636058
3693.149245,1838.629195,2812.782580,9400.615463
3693.149559,1608.800546,2886.803174,9326.594869
3693.149874,1608.800546,2960.823768,9474.636058
3693.150188,1532.190996,2516.700203,9548.656652
3693.150503,1378.971896,2368.659014,9770.718434
3693.150817,1302.362347,1406.391290,9918.759623
3693.151132,1072.533697,1480.411884,10510.924376
3693.151447,842.705048,1406.391290,10658.965565
3693.151761,766.095498,1628.453072,10807.006753
3693.152076,1072.533697,1554.432478,10510.924376
3693.152390,1685.410096,1998.556043,10214.842000
3693.152705,1762.019645,1776.494261,9474.636058
3693.153019,2451.505594,1628.453072,9326.594869
3693.153334,2911.162892,1998.556043,8438.347739
3693.153648,2987.772442,1924.535449,7624.121203
3693.153963,3140.991542,1998.556043,7476.080014
3693.154278,2987.772442,1702.473667,7402.059420
3693.154592,3064.381992,1332.370696,7994.224174
3693.154907,2451.505594,888.247130,8586.388927
3693.155221,1991.848295,518.144159,8290.306550
3693.155536,1149.143247,-0.000000,9474.636058
3693.155850,0.000000,-148.041188,9918.759623
3693.156165,0.000000,-518.144159,10362.883188
3693.156480,-229.828649,-592.164754,11251.130318
3693.156794,-229.828649,-740.205942,10881.027347
3693.157109,842.705048,-0.000000,10881.027347
3693.157423,1608.800546,962.267725,10584.944971
3693.157738,2298.286494,1702.473667,9844.739029
3693.158052,2604.724693,2146.597232,9030.512492
3693.158367,3447.429741,2368.659014,8216.285956
3693.158681,3600.648841,2294.638420,8142.265362
3693.158996,3064.381992,1776.494261,7624.121203
3693.159311,2221.676944,740.205942,8068.244768
3693.159625,1225.752797,222.061783,8660.409521
3693.159940,-383.047749,-962.267725,9326.594869
3693.160254,-1225.752797,-1554.432478,10288.862594
3693.160569,-2298.286494,-2368.659014,11399.171507
3693.160883,-2451.505594,-2516.700203,12583.501014
3693.161198,-2221.676944,-2146.597232,12731.542202
3693.161512,-2145.067394,-1332.370696,12065.356855
3693.161827,-842.705048,-296.082377,11695.253884
3693.162142,536.266849,1110.308913,10510.924376
3693.162456,1838.629195,1850.514855,9474.636058
3693.162771,3140.991542,2812.782580,7994.224174
3693.163085,2834.553343,3108.864956,7105.977043
3693.163400,2757.943793,2738.761985,7105.977043
3693.163714,2451.505594,1554.432478,7994.224174
3693.164029,1225.752797,592.164754,8734.430116
3693.164343,-229.828649,-1110.308913,9178.553681
3693.164658,-1149.143247,-1776.494261,11103.089130
3693.164973,-2068.457845,-2664.741391,11843.295072
3693.165287,-2528.115143,-2442.679609,12287.418637
3693.165602,-2604.724693,-1776.494261,12139.377449
3693.165916,-1532.190996,-666.185348,10510.924376
3693.166231,306.438199,592.164754,9400.615463
3693.166545,1455.581446,1628.453072,7476.080014
3693.166860,2528.115143,2146.597232,6143.709319
3693.167174,3830.477490,2368.659014,5921.647536
3693.167489,3830.477490,2368.659014,5995.668130
3693.167804,2987.772442,2146.597232,6809.894666
3693.168118,1838.629195,1110.308913,8438.347739
3693.168433,842.705048,-0.000000,9992.780217
3693.168747,-1225.752797,-1110.308913,11547.212695
3693.169062,-2528.115143,-740.205942,12287.418637
3693.169376,-2681.334243,-666.185348,12435.459826
3693.169691,-2604.724693,-740.205942,11843.295072
3693.170005,-1991.848295,-0.000000,11029.068536
3693.170320,-612.876398,740.205942,8956.491898
3693.170635,842.705048,1554.432478,7772.162391
3693.170949,2145.067394,2220.617826,6957.935855
3693.171264,2528.115143,1776.494261,6883.915261
3693.171578,2451.505594,1480.411884,7698.141797
3693.171893,1762.019645,962.267725,9400.615463
3693.172207,766.095498,-0.000000,10510.924376
3693.172522,0.000000,-370.102971,12065.356855
3693.172836,-1685.410096,-74.020594,12953.603985
3693.173151,-1991.848295,-222.061783,12879.583391
3693.173466,-1532.190996,148.041188,12509.480420
3693.173780,-1072.533697,518.144159,10436.903782
3693.174095,153.219100,1406.391290,8882.471304
3693.174409,1225.752797,1850.514855,7550.100608
3693.174724,1915.238745,1036.288319,7328.038826
3693.175038,2374.896044,222.061783,7105.977043
3693.175353,1608.800546,370.102971,8142.265362
3693.175668,1149.143247,-296.082377,9400.615463
3693.175982,76.609550,-1110.308913,11399.171507
3693.176297,-689.485948,-1036.288319,12657.521608
3693.176611,-1915.238745,-1184.329507,13175.665768
3693.176926,-1685.410096,-0.000000,12731.542202
3693.177240,-1378.971896,518.144159,11251.130318
3693.177555,-689.485948,962.267725,9622.677246
3693.177869,153.219100,1924.535449,8364.327145
3693.178184,1149.143247,2294.638420,6439.791695
3693.178499,2604.724693,1036.288319,6365.771101
3693.178813,2298.286494,370.102971,6883.915261
3693.179128,1225.752797,-592.164754,7920.203579
3693.179442,229.828649,-1406.391290,9770.718434
3693.179757,-1072.533697,-2442.679609,11917.315666
3693.180071,-2451.505594,-2812.782580,13693.809927
3693.180386,-2911.162892,-2072.576638,13841.851115
3693.180700,-3064.381992,-888.247130,12287.418637
3693.181015,-2528.115143,-444.123565,11399.171507
3693.181330,-536.266849,1036.288319,9474.636058
3693.181644,689.485948,1850.514855,7179.997637
3693.181959,2221.676944,2516.700203,5773.606348
3693.182273,3370.820191,1850.514855,4959.379811
3693.182588,3217.601092,962.267725,6069.688724
3693.182902,2757.943793,-296.082377,7550.100608
3693.183217,2068.457845,-1628.453072,9252.574275
3693.183531,0.000000,-2664.741391,11547.212695
3693.183846,-1685.410096,-2960.823768,13175.665768
3693.184161,-2604.724693,-2664.741391,13545.768739
3693.184475,-3370.820191,-2072.576638,12435.459826
3693.184790,-2757.943793,-1184.329507,10955.047942
3693.185104,-1455.581446,-0.000000,9104.533087
3693.185419,0.000000,1036.288319,6957.935855
3693.185733,1378.971896,1258.350101,5625.565159
3693.186048,2757.943793,1036.288319,5181.441594
3693.186362,2987.772442,370.102971,6439.791695
3693.186677,2834.553343,-296.082377,7624.121203
3693.186992,1915.238745,-1184.329507,9696.697840
3693.187306,153.219100,-1776.494261,11695.253884
3693.187621,-1149.143247,-2516.700203,13471.748144
3693.187935,-1685.410096,-2072.576638,13767.830521
3693.188250,-2757.943793,-666.185348,11547.212695
3693.188564,-2604.724693,-518.144159,10732.986159
3693.188879,-2145.067394,1036.288319,9326.594869
3693.189193,-612.876398,1110.308913,7179.997637
3693.189508,842.705048,1628.453072,6217.729913
3693.189823,2221.676944,1406.391290,5995.668130
3693.190137,2451.505594,888.247130,6883.915261
3693.190452,2298.286494,-0.000000,8290.306550
3693.190766,1838.629195,-888.247130,9918.759623
3693.191081,153.219100,-1554.432478,12287.418637
3693.191395,-995.924147,-962.267725,13619.789333
3693.191710,-1838.629195,-296.082377,13545.768739
3693.192024,-1838.629195,666.185348,12213.398043
3693.192339,-1608.800546,1776.494261,10732.986159
3693.192654,-1072.533697,2738.761985,8660.409521
3693.192968,229.828649,3182.885551,6661.853478
3693.193283,1762.019645,2738.761985,5921.647536
3693.193597,2451.505594,1924.535449,5847.626942
3693.193912,2451.505594,888.247130,7254.018232
3693.194226,2145.067394,-148.041188,9030.512492
3693.194541,1072.533697,-1776.494261,10955.047942
3693.194856,-536.266849,-1924.535449,13175.665768
3693.195170,-1762.019645,-1702.473667,14211.954086
3693.195485,-2987.772442,-592.164754,13915.871710
3693.195799,-2834.553343,1332.370696,11917.315666
3693.196114,-2145.067394,2146.597232,10510.924376
3693.196428,-536.266849,3108.864956,8808.450710
3693.196743,766.095498,3108.864956,7105.977043
3693.197057,2451.505594,2886.803174,5921.647536
3693.197372,3064.381992,2368.659014,6291.750507
3693.197687,2757.943793,1332.370696,7772.162391
3693.198001,2451.505594,-0.000000,9178.553681
3693.198316,1225.752797,-1554.432478,11325.150913
3693.198630,-536.266849,-1998.556043,13101.645173
3693.198945,-2221.676944,-1702.473667,13767.830521
3693.199259,-2987.772442,-1628.453072,13397.727550
3693.199574,-2987.772442,-0.000000,11843.295072
3693.199888,-2145.067394,666.185348,10510.924376
3693.200203,-536.266849,2072.576638,8142.265362
3693.200518,842.705048,2812.782580,7105.977043
3693.200832,2374.896044,2886.803174,5847.626942
3693.201147,3524.039291,2220.617826,5255.462188
3693.201461,3600.648841,1554.432478,6957.935855
3693.201776,3370.820191,-74.020594,8364.327145
3693.202090,1915.238745,-1110.308913,10436.903782
3693.202405,153.219100,-1850.514855,12287.418637
3693.202719,-1762.019645,-2516.700203,13619.789333
3693.203034,-2681.334243,-1850.514855,13249.686362
3693.203349,-2911.162892,-666.185348,11695.253884
3693.203663,-2528.115143,518.144159,10436.903782
3693.203978,-1532.190996,1406.391290,8438.347739
3693.204292,0.000000,1332.370696,6143.709319
3693.204607,2451.505594,1924.535449,5403.503377
3693.204921,2757.943793,1628.453072,6143.709319
3693.205236,2834.553343,666.185348,7179.997637
3693.205550,2834.553343,-666.185348,8586.388927
3693.205865,1685.410096,-1628.453072,10510.924376
3693.206180,459.657299,-1924.535449,12287.418637
3693.206494,-689.485948,-1924.535449,13545.768739
3693.206809,-2221.676944,-1258.350101,12583.501014
3693.207123,-2451.505594,-0.000000,11473.192101
3693.207438,-2451.505594,666.185348,10288.862594
3693.207752,-1532.190996,962.267725,8068.244768
3693.208067,0.000000,1036.288319,6661.853478
3693.208381,1302.362347,1258.350101,6439.791695
3693.208696,2298.286494,888.247130,6291.750507
3693.209011,2298.286494,-518.144159,7254.018232
3693.209325,1991.848295,-1110.308913,8882.471304
3693.209640,995.924147,-2072.576638,11251.130318
3693.209954,-536.266849,-2442.679609,12361.439231
3693.210269,-1608.800546,-2072.576638,13323.706956
3693.210583,-2298.286494,-1184.329507,12953.603985
3693.210898,-1991.848295,148.041188,11695.253884
3693.211212,-1302.362347,962.267725,9992.780217
3693.211527,-919.314598,1998.556043,8586.388927
3693.211842,689.485948,2220.617826,6735.874072
3693.212156,1915.238745,1628.453072,6143.709319
3693.212471,2681.334243,1628.453072,7031.956449
3693.212785,2757.943793,-0.000000,7994.224174
3693.213100,2298.286494,-740.205942,9474.636058
3693.213414,459.657299,-1998.556043,11547.212695
3693.213729,-842.705048,-3108.864956,13027.624579
3693.214044,-1991.848295,-2146.597232,13249.686362
3693.214358,-2834.553343,-1406.391290,12731.542202
3693.214673,-2451.505594,518.144159,12065.356855
3693.214987,-2145.067394,1554.432478,9844.739029
3693.215302,-229.828649,2886.803174,7254.018232
3693.215616,689.485948,2886.803174,6513.812290
3693.215931,2068.457845,2590.720797,5995.668130
3693.216245,2451.505594,1776.494261,6291.750507
3693.216560,2451.505594,-0.000000,7846.182985
3693.216875,2145.067394,-814.226536,9696.697840
3693.217189,612.876398,-2146.597232,11843.295072
3693.217504,-995.924147,-2516.700203,12805.562797
3693.217818,-2374.896044,-1850.514855,13397.727550
3693.218133,-2757.943793,-962.267725,13323.706956
3693.218447,-2757.943793,222.061783,11029.068536
3693.218762,-2068.457845,1554.432478,9326.594869
3693.219076,-766.095498,2664.741391,7698.141797
3693.219391,919.314598,2294.638420,6513.812290
3693.219706,2451.505594,1924.535449,5773.606348
3693.220020,2987.772442,1406.391290,5995.668130
3693.220335,2911.162892,-0.000000,7994.224174
3693.220649,2911.162892,-962.267725,9104.533087
3693.220964,1608.800546,-1628.453072,11325.150913
3693.221278,76.609550,-1776.494261,12731.542202
3693.221593,-1225.752797,-1110.308913,12583.501014
3693.221907,-1838.629195,-518.144159,12361.439231
3693.222222,-1608.800546,592.164754,11251.130318
3693.222537,-1072.533697,1924.535449,9252.574275
3693.222851,-306.438199,2220.617826,7179.997637
3693.223166,1378.971896,2368.659014,5995.668130
3693.223480,2681.334243,1776.494261,6143.709319
3693.223795,2681.334243,1554.432478,6957.935855
3693.224109,2451.505594,370.102971,8216.285956
3693.224424,1762.019645,-740.205942,9844.739029
3693.224738,995.924147,-1554.432478,11991.336260
3693.225053,-383.047749,-2146.597232,13249.686362
3693.225367,-1608.800546,-962.267725,13175.665768
3693.225682,-2068.457845,-0.000000,13249.686362
3693.225996,-2145.067394,1184.329507,11029.068536
3693.226311,-1762.019645,1776.494261,9474.636058
3693.226625,-536.266849,2368.659014,7550.100608
3693.226940,842.705048,2368.659014,6735.874072
3693.227254,2221.676944,2220.617826,6069.688724
3693.227569,2451.505594,962.267725,6661.853478
3693.227883,2528.115143,-222.061783,8512.368333
3693.228198,1608.800546,-1258.350101,9918.759623
3693.228512,0.000000,-2516.700203,11621.233289
3693.228827,-1149.143247,-2516.700203,13101.645173
3693.229141,-2068.457845,-1850.514855,12583.501014
3693.229456,-2681.334243,-518.144159,12213.398043
3693.229770,-2145.067394,592.164754,11177.109724
3693.230085,-1608.800546,2220.617826,9104.533087
3693.230399,-306.438199,2664.741391,7179.997637
3693.230713,1225.752797,2220.617826,6513.812290
3693.231028,1838.629195,1110.308913,6365.771101
3693.231342,2451.505594,444.123565,6957.935855
3693.231657,2221.676944,-518.144159,8438.347739
3693.231971,1225.752797,-1480.411884,10584.944971
3693.232286,0.000000,-2368.659014,12213.398043
3693.232600,-1225.752797,-2294.638420,13249.686362
3693.232915,-2451.505594,-1554.432478,12879.583391
3693.233229,-2451.505594,-444.123565,12213.398043
3693.233544,-2298.286494,518.144159,10436.903782
3693.233858,-2221.676944,1998.556043,8956.491898
3693.234173,-536.266849,2146.597232,7179.997637
3693.234487,1072.533697,1480.411884,6365.771101
3693.234802,1991.848295,1258.350101,5847.626942
3693.235116,2451.505594,296.082377,7179.997637
3693.235431,2451.505594,-370.102971,8734.430116
3693.235745,1455.581446,-962.267725,10510.924376
3693.236060,229.828649,-2072.576638,12287.418637
3693.236374,-842.705048,-1998.556043,13101.645173
3693.236689,-1532.190996,-1258.350101,12583.501014
3693.237003,-1915.238745,-222.061783,11547.212695
3693.237318,-1685.410096,592.164754,10214.842000
3693.237632,-1149.143247,1702.473667,8364.327145
3693.237947,-153.219100,1924.535449,6661.853478
3693.238261,689.485948,1924.535449,6365.771101
3693.238576,2298.286494,888.247130,6069.688724
3693.238890,2374.896044,222.061783,7105.977043
3693.239205,1991.848295,-814.226536,8734.430116
3693.239519,1149.143247,-1924.535449,10807.006753
3693.239834,153.219100,-2738.761985,12065.356855
3693.240148,-842.705048,-2516.700203,13249.686362
3693.240463,-1532.190996,-1406.391290,12805.562797
3693.240777,-1685.410096,-148.041188,11695.253884
3693.241092,-1685.410096,1258.350101,9696.697840
3693.241406,-383.047749,2146.597232,7550.100608
3693.241721,766.095498,2294.638420,6365.771101
3693.242035,1838.629195,2294.638420,6217.729913
3693.242350,2374.896044,1480.411884,6439.791695
3693.242664,2451.505594,148.041188,7624.121203
3693.242979,2068.457845,-1036.288319,9104.533087
3693.243293,1225.752797,-2072.576638,11325.150913
3693.243608,-383.047749,-2294.638420,12953.603985
3693.243922,-1455.581446,-1998.556043,13323.706956
3693.244237,-2221.676944,-444.123565,12879.583391
3693.244551,-2145.067394,962.267725,11029.068536
3693.244866,-1532.190996,1702.473667,9474.636058
3693.245180,-689.485948,3108.864956,7698.141797
3693.245494,536.266849,2812.782580,6217.729913
3693.245809,1685.410096,2294.638420,6143.709319
3693.246123,2374.896044,1406.391290,6735.874072
3693.246438,2374.896044,518.144159,8216.285956
3693.246752,1455.581446,-296.082377,10066.800811
3693.247067,229.828649,-1110.308913,11769.274478
3693.247381,-842.705048,-2072.576638,13767.830521
3693.247696,-1762.019645,-1406.391290,13841.851115
3693.248010,-2298.286494,-296.082377,12509.480420
3693.248325,-2221.676944,740.205942,11547.212695
3693.248639,-1838.629195,1628.453072,9326.594869
3693.248954,-612.876398,2516.700203,7328.038826
3693.249268,459.657299,2368.659014,6291.750507
3693.249583,1532.190996,2146.597232,6513.812290
3693.249897,2068.457845,1110.308913,6883.915261
3693.250212,2068.457845,444.123565,8290.306550
3693.250526,1685.410096,-592.164754,9696.697840
3693.250841,689.485948,-1628.453072,11843.295072
3693.251155,-995.924147,-1998.556043,12879.583391
3693.251470,-1532.190996,-1480.411884,12953.603985
3693.251784,-1991.848295,-370.102971,11843.295072
3693.252099,-2145.067394,370.102971,11029.068536
3693.252413,-1149.143247,1776.494261,9252.574275
3693.252728,-536.266849,2368.659014,7328.038826
3693.253042,919.314598,2146.597232,6439.791695
3693.253357,1685.410096,1702.473667,6217.729913
3693.253671,2221.676944,370.102971,7031.956449
3693.253986,2145.067394,-518.144159,8290.306550
3693.254300,1532.190996,-1554.432478,10436.903782
3693.254615,153.219100,-2294.638420,12139.377449
3693.254929,-689.485948,-2368.659014,13101.645173
3693.255244,-995.924147,-1480.411884,12583.501014
3693.255558,-1685.410096,-444.123565,11695.253884
3693.255873,-1225.752797,666.185348,10436.903782
3693.256187,-842.705048,1924.535449,8808.450710
3693.256502,-536.266849,2146.597232,7031.956449
3693.256816,536.266849,1628.453072,6439.791695
3693.257131,1838.629195,1184.329507,6291.750507
3693.257445,2145.067394,296.082377,7698.141797
3693.257760,2068.457845,-370.102971,8586.388927
3693.258074,1455.581446,-1776.494261,10584.944971
3693.258389,76.609550,-2516.700203,12435.459826
3693.258703,-1149.143247,-2442.679609,13175.665768
3693.259018,-1608.800546,-1406.391290,12731.542202
3693.259332,-1532.190996,-222.061783,11769.274478
3693.259647,-919.314598,1110.308913,9918.759623
3693.259961,-383.047749,1850.514855,7920.203579
3693.260275,153.219100,2590.720797,6291.750507
3693.260590,1532.190996,1628.453072,5995.668130
3693.260904,2374.896044,1184.329507,6217.729913
3693.261219,2068.457845,-222.061783,7179.997637
3693.261533,1915.238745,-1110.308913,9104.533087
3693.261848,919.314598,-1702.473667,11325.150913
3693.262162,-536.266849,-2664.741391,12657.521608
3693.262477,-1378.971896,-3034.844362,13397.727550
3693.262791,-1762.019645,-1258.350101,12657.521608
3693.263106,-1455.581446,-518.144159,11325.150913
3693.263420,-995.924147,1110.308913,10066.800811
3693.263735,-689.485948,2072.576638,7846.182985
3693.264049,536.266849,2146.597232,6291.750507
3693.264364,1915.238745,1702.473667,6291.750507
3693.264678,2145.067394,1184.329507,6661.853478
3693.264993,2374.896044,296.082377,8068.244768
3693.265307,1762.019645,-888.247130,9178.553681
3693.265622,306.438199,-1924.535449,11325.150913
3693.265936,-919.314598,-2442.679609,13175.665768
3693.266251,-1838.629195,-1776.494261,13545.768739
3693.266565,-2374.896044,-888.247130,12805.562797
3693.266880,-2221.676944,-0.000000,11843.295072
3693.267194,-1685.410096,1258.350101,9548.656652
3693.267509,-1149.143247,2294.638420,7920.203579
3693.267823,383.047749,2664.741391,6661.853478
3693.268138,1762.019645,2220.617826,6513.812290
3693.268452,2298.286494,1332.370696,6661.853478
3693.268767,2374.896044,444.123565,7772.162391
3693.269081,2145.067394,-740.205942,9252.574275
3693.269396,459.657299,-1332.370696,11547.212695
3693.269710,-995.924147,-2368.659014,12953.603985
3693.270025,-2068.457845,-1924.535449,12953.603985
3693.270339,-2068.457845,-592.164754,11917.315666
3693.270654,-1991.848295,444.123565,10955.047942
3693.270968,-1225.752797,1480.411884,9178.553681
3693.271283,-383.047749,2516.700203,7254.018232
3693.271597,383.047749,2220.617826,5773.606348
3693.271912,1762.019645,1776.494261,6217.729913
3693.272226,2298.286494,814.226536,6809.894666
3693.272541,2298.286494,-0.000000,8364.327145
3693.272855,1838.629195,-888.247130,10140.821405
3693.273170,612.876398,-1406.391290,11917.315666
3693.273484,-842.705048,-1998.556043,13175.665768
3693.273799,-1302.362347,-1554.432478,12805.562797
3693.274113,-1532.190996,-74.020594,12435.459826
3693.274428,-1378.971896,740.205942,11029.068536
3693.274742,-612.876398,1702.473667,8882.471304
3693.275057,306.438199,2368.659014,7105.977043
3693.275371,1149.143247,2294.638420,6661.853478
3693.275685,1915.238745,1850.514855,6439.791695
3693.276000,2451.505594,444.123565,7105.977043
3693.276314,2374.896044,-148.041188,8364.327145
3693.276629,1455.581446,-1332.370696,10807.006753
3693.276943,229.828649,-2220.617826,12435.459826
3693.277258,-842.705048,-2146.597232,13323.706956
3693.277572,-1991.848295,-1184.329507,13101.645173
3693.277887,-1685.410096,-0.000000,12065.356855
3693.278201,-1378.971896,1110.308913,10584.944971
3693.278516,-612.876398,2590.720797,8660.409521
3693.278830,766.095498,2738.761985,7105.977043
3693.279145,1838.629195,2812.782580,5995.668130
3693.279459,2451.505594,2294.638420,5773.606348
3693.279774,2528.115143,666.185348,7402.059420
3693.280088,1991.848295,-222.061783,8660.409521
3693.280403,842.705048,-1480.411884,11103.089130
3693.280717,-536.266849,-2368.659014,12435.459826
3693.281032,-1838.629195,-2294.638420,13397.727550
3693.281346,-2604.724693,-1628.453072,13101.645173
3693.281661,-2757.943793,-296.082377,11769.274478
3693.281975,-2298.286494,666.185348,10510.924376
3693.282290,-1149.143247,1850.514855,8216.285956
3693.282604,0.000000,2220.617826,6883.915261
3693.282919,1608.800546,1998.556043,6217.729913
3693.283233,1991.848295,1480.411884,6143.709319
3693.283548,2528.115143,888.247130,7402.059420
3693.283862,1838.629195,-518.144159,9030.512492
3693.284177,306.438199,-1480.411884,11029.068536
3693.284491,-536.266849,-2516.700203,12657.521608
3693.284806,-1685.410096,-2294.638420,13175.665768
3693.285120,-2298.286494,-1480.411884,12657.521608
3693.285435,-2374.896044,-296.082377,11843.295072
3693.285749,-1608.800546,444.123565,9696.697840
3693.286064,-1072.533697,1702.473667,7994.224174
3693.286378,0.000000,1924.535449,6735.874072
3693.286693,1302.362347,1554.432478,6143.709319
3693.287007,2145.067394,962.267725,6069.688724
3693.287322,1838.629195,-222.061783,7698.141797
3693.287636,1225.752797,-1036.288319,9400.615463
3693.287951,229.828649,-2294.638420,11251.130318
3693.288265,-689.485948,-2590.720797,13027.624579
3693.288580,-1302.362347,-2220.617826,13249.686362
3693.288894,-2221.676944,-962.267725,12435.459826
3693.289209,-1608.800546,-0.000000,11251.130318
3693.289523,-1302.362347,1184.329507,9622.677246
3693.289838,-842.705048,2072.576638,7698.141797
3693.290152,536.266849,2072.576638,6365.771101
3693.290466,1685.410096,1998.556043,5995.668130
3693.290781,2451.505594,1036.288319,6513.812290
3693.291095,2374.896044,-296.082377,7846.182985
3693.291410,1838.629195,-1110.308913,9844.739029
3693.291724,229.828649,-2146.597232,11843.295072
3693.292039,-612.876398,-2442.679609,12953.603985
3693.292353,-1532.190996,-1924.535449,13027.624579
3693.292668,-1685.410096,-370.102971,12435.459826
3693.292982,-1608.800546,592.164754,10807.006753
3693.293297,-766.095498,1628.453072,9252.574275
3693.293611,0.000000,2442.679609,7179.997637
3693.293926,1302.362347,2442.679609,6143.709319
3693.294240,2374.896044,2146.597232,5699.585753
3693.294555,3217.601092,962.267725,6365.771101
3693.294869,2528.115143,-0.000000,8512.368333
3693.295184,1762.019645,-1036.288319,10510.924376
3693.295498,459.657299,-1776.494261,11843.295072
3693.295813,-842.705048,-2220.617826,13323.706956
3693.296127,-1838.629195,-1406.391290,13249.686362
3693.296442,-1685.410096,-592.164754,12287.418637
3693.296756,-1225.752797,666.185348,10881.027347
3693.297071,-689.485948,1850.514855,9326.594869
3693.297385,76.609550,3182.885551,7179.997637
3693.297700,1532.190996,2812.782580,5995.668130
3693.298014,2145.067394,1702.473667,5847.626942
3693.298329,3064.381992,962.267725,6957.935855
3693.298643,2298.286494,-0.000000,8882.471304
3693.298958,1225.752797,-814.226536,10436.903782
3693.299272,-153.219100,-1776.494261,12731.542202
3693.299587,-1149.143247,-2072.576638,13323.706956
3693.299901,-2221.676944,-1258.350101,13249.686362
3693.300216,-2298.286494,-222.061783,12583.501014
3693.300530,-2145.067394,962.267725,11251.130318
3693.300845,-995.924147,2442.679609,9030.512492
3693.301159,0.000000,2368.659014,7031.956449
3693.301474,919.314598,2516.700203,6661.853478
3693.301788,1762.019645,2072.576638,6069.688724
3693.302103,2145.067394,814.226536,7254.018232
3693.302417,2145.067394,-518.144159,8808.450710
3693.302732,1072.533697,-1036.288319,10732.986159
3693.303046,-229.828649,-2072.576638,12361.439231
3693.303361,-1455.581446,-2220.617826,13249.686362
3693.303675,-2604.724693,-1110.308913,12953.603985
3693.303990,-2068.457845,-0.000000,11843.295072
3693.304304,-2451.505594,888.247130,9770.718434
3693.304619,-1072.533697,1702.473667,8364.327145
3693.304933,153.219100,2442.679609,6809.894666
3693.305247,1225.752797,2072.576638,5847.626942
3693.305562,1762.019645,740.205942,6365.771101
3693.305876,2221.676944,296.082377,7179.997637
3693.306191,1762.019645,-592.164754,8512.368333
3693.306505,612.876398,-1924.535449,10584.944971
3693.306820,-306.438199,-2812.782580,12509.480420
3693.307134,-1072.533697,-2368.659014,13545.768739
3693.307449,-2145.067394,-1110.308913,12583.501014
3693.307763,-1762.019645,-0.000000,11843.295072
3693.308078,-1455.581446,1110.308913,9918.759623
3693.308392,-383.047749,2072.576638,8068.244768
3693.308707,1072.533697,2294.638420,6513.812290
3693.309021,1915.238745,2294.638420,5995.668130
3693.309336,2681.334243,962.267725,6587.832884
3693.309650,2757.943793,-0.000000,7550.100608
3693.309965,2221.676944,-1036.288319,9400.615463
3693.310279,1072.533697,-1998.556043,11473.192101
3693.310594,0.000000,-2738.761985,12583.501014
3693.310908,-1149.143247,-2294.638420,13249.686362
3693.311223,-1915.238745,-962.267725,12509.480420
3693.311537,-1991.848295,-0.000000,11547.212695
3693.311852,-1225.752797,814.226536,9326.594869
3693.312166,-459.657299,2072.576638,7402.059420
3693.312481,612.876398,2220.617826,6513.812290
3693.312795,1455.581446,1628.453072,5847.626942
3693.313110,2221.676944,740.205942,6587.832884
3693.313424,2374.896044,-74.020594,7994.224174
3693.313739,1685.410096,-888.247130,9696.697840
3693.314053,383.047749,-1924.535449,11843.295072
3693.314368,-1149.143247,-2368.659014,13323.706956
3693.314682,-1915.238745,-1776.494261,13767.830521
3693.314997,-2374.896044,-740.205942,12361.439231
3693.315311,-1991.848295,370.102971,11029.068536
3693.315626,-1302.362347,1554.432478,9622.677246
3693.315940,-536.266849,2664.741391,7550.100608
3693.316255,1072.533697,2590.720797,6365.771101
3693.316569,1915.238745,2146.597232,5921.647536
3693.316884,2604.724693,962.267725,6735.874072
3693.317198,2451.505594,-0.000000,7550.100608
3693.317513,1685.410096,-1184.329507,9548.656652
3693.317827,383.047749,-2368.659014,11843.295072
3693.318142,-842.705048,-2294.638420,13027.624579
3693.318456,-1762.019645,-1628.453072,12953.603985
3693.318771,-2145.067394,-222.061783,12287.418637
3693.319085,-1991.848295,962.267725,11547.212695
3693.319400,-1072.533697,1998.556043,8808.450710
3693.319714,-306.438199,2368.659014,6883.915261
3693.320028,1072.533697,2368.659014,6809.894666
3693.320343,1762.019645,2146.597232,6513.812290
3693.320657,1991.848295,1258.350101,7402.059420
3693.320972,2221.676944,-222.061783,9030.512492
3693.321286,1072.533697,-1036.288319,10881.027347
3693.321601,-229.828649,-1924.535449,12435.459826
3693.321915,-1072.533697,-2072.576638,13767.830521
3693.322230,-1991.848295,-1110.308913,13249.686362
3693.322544,-2068.457845,-74.020594,12065.356855
3693.322859,-1608.800546,1110.308913,10881.027347
3693.323173,-1072.533697,2368.659014,9104.533087
3693.323488,153.219100,2812.782580,6883.915261
3693.323802,1455.581446,2442.679609,5995.668130
3693.324117,2451.505594,1628.453072,6069.688724
3693.324431,2528.115143,370.102971,7402.059420
3693.324746,2298.286494,-592.164754,8364.327145
3693.325060,1072.533697,-1554.432478,10732.986159
3693.325374,0.000000,-2664.741391,12879.583391
3693.325689,-842.705048,-2368.659014,13175.665768
3693.326003,-2145.067394,-1332.370696,12805.562797
3693.326318,-2145.067394,444.123565,11991.336260
3693.326632,-1072.533697,1110.308913,10510.924376
3693.326946,-459.657299,2368.659014,7994.224174
3693.327261,766.095498,2664.741391,6587.832884
3693.327575,1532.190996,2220.617826,6365.771101
3693.327890,2145.067394,1480.411884,6069.688724
3693.328204,2374.896044,-0.000000,7402.059420
3693.328518,1991.848295,-740.205942,9548.656652
3693.328833,1149.143247,-1776.494261,11029.068536
3693.329147,0.000000,-2516.700203,12509.480420
3693.329462,-1455.581446,-2220.617826,13027.624579
3693.329776,-1762.019645,-1332.370696,12731.542202
3693.330090,-1072.533697,-370.102971,11325.150913
3693.330405,-1225.752797,1332.370696,9400.615463
3693.330719,-306.438199,2368.659014,7698.141797
3693.331034,689.485948,2516.700203,6439.791695
3693.331348,1915.238745,2220.617826,5699.585753
3693.331662,2604.724693,888.247130,6291.750507
3693.331977,2451.505594,370.102971,7550.100608
3693.332291,1685.410096,-518.144159,9548.656652
3693.332606,612.876398,-1998.556043,11695.253884
3693.332920,-612.876398,-2590.720797,13175.665768
3693.333234,-1532.190996,-2294.638420,13471.748144
3693.333549,-2221.676944,-666.185348,12953.603985
3693.333863,-2451.505594,444.123565,11547.212695
3693.334178,-1378.971896,1406.391290,9548.656652
3693.334492,-306.438199,2072.576638,7328.038826
3693.334806,689.485948,2516.700203,6143.709319
3693.335121,2221.676944,2146.597232,6291.750507
3693.335435,2604.724693,962.267725,6587.832884
3693.335750,2298.286494,-0.000000,7698.141797
3693.336064,1378.971896,-666.185348,9992.780217
3693.336379,153.219100,-2146.597232,11843.295072
3693.336693,-995.924147,-2664.741391,13323.706956
3693.337007,-1532.190996,-1554.432478,13471.748144
3693.337322,-2145.067394,-592.164754,12731.542202
3693.337636,-1838.629195,444.123565,11103.089130
3693.337951,-995.924147,2072.576638,9030.512492
3693.338265,0.000000,2664.741391,7402.059420
3693.338579,1302.362347,2738.761985,5921.647536
3693.338894,2987.772442,1850.514855,5773.606348
3693.339208,2834.553343,814.226536,6587.832884
3693.339523,2528.115143,-0.000000,8216.285956
3693.339837,1532.190996,-962.267725,10288.862594
3693.340151,383.047749,-1850.514855,11843.295072
3693.340466,-612.876398,-2294.638420,13545.768739
3693.340780,-1685.410096,-1776.494261,13027.624579
3693.341095,-2451.505594,-592.164754,11917.315666
3693.341409,-1991.848295,-0.000000,10881.027347
3693.341723,-1762.019645,1554.432478,9252.574275
3693.342038,-612.876398,1998.556043,7550.100608
3693.342352,766.095498,2368.659014,6291.750507
3693.342667,1838.629195,1850.514855,6513.812290
3693.342981,2068.457845,814.226536,7254.018232
3693.343295,2451.505594,-296.082377,9178.553681
3693.343610,1072.533697,-1480.411884,10658.965565
3693.343924,0.000000,-2294.638420,12065.356855
3693.344239,-1378.971896,-2072.576638,13175.665768
3693.344553,-2068.457845,-1258.350101,12953.603985
3693.344867,-2068.457845,-222.061783,12583.501014
3693.345182,-1915.238745,962.267725,11103.089130
3693.345496,-1072.533697,1998.556043,8586.388927
3693.345811,-153.219100,2590.720797,6883.915261
3693.346125,1225.752797,2146.597232,6217.729913
3693.346439,1685.410096,1702.473667,5847.626942
3693.346754,2221.676944,518.144159,6883.915261
3693.347068,2145.067394,-296.082377,8290.306550
3693.347383,1225.752797,-1332.370696,10807.006753
3693.347697,76.609550,-2368.659014,12065.356855
3693.348011,-383.047749,-2442.679609,12879.583391
3693.348326,-1455.581446,-1036.288319,12435.459826
3693.348640,-1532.190996,444.123565,11029.068536
3693.348955,-1149.143247,1406.391290,9992.780217
3693.349269,-612.876398,2368.659014,8142.265362
3693.349583,766.095498,2590.720797,6217.729913
3693.349898,1838.629195,2368.659014,5625.565159
3693.350212,2374.896044,1332.370696,6365.771101
3693.350527,2451.505594,148.041188,7698.141797
3693.350841,1762.019645,-740.205942,9178.553681
3693.351155,459.657299,-2072.576638,11399.171507
3693.351470,-612.876398,-2590.720797,12879.583391
3693.351784,-1838.629195,-2146.597232,13471.748144
3693.352099,-2221.676944,-962.267725,12805.562797
3693.352413,-1991.848295,370.102971,11843.295072
3693.352727,-995.924147,1554.432478,9918.759623
3693.353042,-459.657299,2442.679609,7772.162391
3693.353356,1225.752797,2812.782580,6217.729913
3693.353671,1991.848295,2220.617826,5847.626942
3693.353985,2681.334243,1406.391290,6513.812290
3693.354299,1991.848295,-0.000000,7698.141797
3693.354614,1608.800546,-444.123565,9178.553681
3693.354928,459.657299,-1776.494261,11473.192101
3693.355243,-842.705048,-2442.679609,12879.583391
3693.355557,-2068.457845,-2220.617826,13397.727550
3693.355871,-2298.286494,-962.267725,12805.562797
3693.356186,-2451.505594,-0.000000,11621.233289
3693.356500,-1532.190996,962.267725,9918.759623
3693.356815,-536.266849,2442.679609,7772.162391
3693.357129,919.314598,2368.659014,6439.791695
3693.357443,1685.410096,1998.556043,5625.565159
3693.357758,2374.896044,1332.370696,6587.832884
3693.358072,1991.848295,-74.020594,8068.244768
3693.358387,1532.190996,-740.205942,9844.739029
3693.358701,229.828649,-1924.535449,11843.295072
3693.359015,-1225.752797,-2368.659014,13101.645173
3693.359330,-1685.410096,-1924.535449,13101.645173
3693.359644,-2451.505594,-888.247130,12509.480420
3693.359959,-2221.676944,-0.000000,11547.212695
3693.360273,-1378.971896,1554.432478,9252.574275
3693.360587,-459.657299,2072.576638,7254.018232
3693.360902,842.705048,2368.659014,5847.626942
3693.361216,2298.286494,1924.535449,5995.668130
3693.361531,2298.286494,444.123565,6883.915261
3693.361845,2451.505594,-740.205942,7994.224174
3693.362159,1302.362347,-1554.432478,10066.800811
3693.362474,0.000000,-2072.576638,12065.356855
3693.362788,-919.314598,-2220.617826,13249.686362
3693.363103,-1532.190996,-1628.453072,13101.645173
3693.363417,-2145.067394,-296.082377,12287.418637
3693.363731,-1532.190996,666.185348,10955.047942
3693.364046,-689.485948,1924.535449,8734.430116
3693.364360,-229.828649,2368.659014,7105.977043
3693.364675,1149.143247,2442.679609,6069.688724
3693.364989,1685.410096,1628.453072,6217.729913
3693.365303,2221.676944,518.144159,7031.956449
3693.365618,2145.067394,-814.226536,8512.368333
3693.365932,995.924147,-2220.617826,10362.883188
3693.366247,0.000000,-3108.864956,12361.439231
3693.366561,-1072.533697,-2738.761985,13545.768739
3693.366875,-2374.896044,-1702.473667,13397.727550
3693.367190,-2221.676944,-444.123565,12361.439231
3693.367504,-1685.410096,1036.288319,10732.986159
3693.367819,-459.657299,1998.556043,8660.409521
3693.368133,689.485948,2442.679609,6439.791695
3693.368447,2221.676944,2886.803174,5847.626942
3693.368762,2604.724693,2220.617826,5699.585753
3693.369076,2911.162892,740.205942,6587.832884
3693.369391,2528.115143,-148.041188,8734.430116
3693.369705,1378.971896,-1406.391290,10807.006753
3693.370019,76.609550,-2368.659014,12731.542202
3693.370334,-1149.143247,-2442.679609,13397.727550
3693.370648,-2221.676944,-1554.432478,13027.624579
3693.370963,-2298.286494,-296.082377,11917.315666
3693.371277,-1838.629195,888.247130,10140.821405
3693.371591,-995.924147,2220.617826,8142.265362
3693.371906,383.047749,2738.761985,6661.853478
3693.372220,1991.848295,2442.679609,5847.626942
3693.372535,2451.505594,1184.329507,5773.606348
3693.372849,2834.553343,518.144159,7105.977043
3693.373163,1991.848295,148.041188,8660.409521
3693.373478,1072.533697,-1258.350101,11029.068536
3693.373792,153.219100,-2146.597232,13175.665768
3693.374107,-1302.362347,-1924.535449,13989.892304
3693.374421,-2145.067394,-1036.288319,13249.686362
3693.374735,-2068.457845,444.123565,11695.253884
3693.375050,-1915.238745,1628.453072,10066.800811
3693.375364,-383.047749,2294.638420,8142.265362
3693.375679,229.828649,2516.700203,6513.812290
3693.375993,1532.190996,2368.659014,5921.647536
3693.376307,2451.505594,1110.308913,6513.812290
3693.376622,2451.505594,-296.082377,7550.100608
3693.376936,1838.629195,-814.226536,9474.636058
3693.377251,459.657299,-1776.494261,11473.192101
3693.377565,-459.657299,-2368.659014,13101.645173
3693.377879,-1455.581446,-2146.597232,13323.706956
3693.378194,-1838.629195,-1036.288319,12879.583391
3693.378508,-1838.629195,814.226536,11621.233289
3693.378823,-1532.190996,1850.514855,9474.636058
3693.379137,-612.876398,2738.761985,7476.080014
3693.379451,689.485948,2812.782580,6365.771101
3693.379766,1685.410096,2220.617826,6661.853478
3693.380080,2374.896044,1036.288319,6735.874072
3693.380395,2221.676944,-0.000000,7994.224174
3693.380709,1378.971896,-1036.288319,9622.677246
3693.381023,153.219100,-2072.576638,11991.336260
3693.381338,-919.314598,-2960.823768,13545.768739
3693.381652,-2068.457845,-2072.576638,13619.789333
3693.381967,-2374.896044,-814.226536,12731.542202
3693.382281,-1991.848295,888.247130,10955.047942
3693.382595,-1302.362347,1924.535449,9326.594869
3693.382910,-689.485948,2442.679609,7698.141797
3693.383224,1149.143247,2664.741391,5921.647536
3693.383539,2221.676944,2368.659014,5625.565159
3693.383853,2757.943793,1110.308913,6513.812290
3693.384167,2681.334243,-0.000000,7624.121203
3693.384482,2068.457845,-1184.329507,9844.739029
3693.384796,306.438199,-2072.576638,11843.295072
3693.385111,-612.876398,-2368.659014,13101.645173
3693.385425,-1608.800546,-1702.473667,13101.645173
3693.385739,-2451.505594,-1110.308913,12213.398043
3693.386054,-2145.067394,-74.020594,11325.150913
3693.386368,-1608.800546,1332.370696,9104.533087
3693.386683,-153.219100,2516.700203,7105.977043
3693.386997,995.924147,2220.617826,6365.771101
3693.387311,1915.238745,1702.473667,5847.626942
3693.387626,2681.334243,518.144159,7105.977043
3693.387940,2374.896044,-592.164754,8290.306550
3693.388255,1302.362347,-1554.432478,10362.883188
3693.388569,229.828649,-2442.679609,11917.315666
3693.388883,-536.266849,-2442.679609,13619.789333
3693.389198,-1455.581446,-1702.473667,13397.727550
3693.389512,-1915.238745,-518.144159,12139.377449
3693.389827,-1838.629195,666.185348,10362.883188
3693.390141,-766.095498,1702.473667,8290.306550
3693.390456,0.000000,2072.576638,6809.894666
3693.390770,1302.362347,2072.576638,5699.585753
3693.391084,2221.676944,1480.411884,5773.606348
3693.391399,2451.505594,296.082377,7105.977043
3693.391713,2221.676944,-962.267725,8512.368333
3693.392028,919.314598,-1628.453072,10881.027347
3693.392342,-306.438199,-2590.720797,12879.583391
3693.392656,-1225.752797,-2294.638420,12953.603985
3693.392971,-1455.581446,-1110.308913,12435.459826
3693.393285,-1532.190996,-0.000000,11473.192101
3693.393600,-1149.143247,1480.411884,10362.883188
3693.393914,-536.266849,2368.659014,8438.347739
3693.394228,459.657299,2590.720797,6513.812290
3693.394543,1455.581446,2516.700203,5921.647536
3693.394857,2221.676944,1776.494261,5921.647536
3693.395172,2298.286494,296.082377,7698.141797
3693.395486,1608.800546,-148.041188,9178.553681
3693.395800,229.828649,-1776.494261,11399.171507
3693.396115,-995.924147,-2442.679609,13175.665768
3693.396429,-1685.410096,-2146.597232,13471.748144
3693.396744,-2145.067394,-962.267725,13545.768739
3693.397058,-2374.896044,370.102971,11843.295072
3693.397372,-1685.410096,1628.453072,9918.759623
3693.397687,-1149.143247,2516.700203,8216.285956
3693.398001,383.047749,2812.782580,6587.832884
3693.398316,1225.752797,2368.659014,6217.729913
3693.398630,1685.410096,962.267725,6735.874072
3693.398944,2221.676944,296.082377,7698.141797
3693.399259,1532.190996,-962.267725,9622.677246
3693.399573,229.828649,-1998.556043,11177.109724
3693.399888,-766.095498,-2738.761985,13249.686362
3693.400202,-1991.848295,-2220.617826,13545.768739
3693.400516,-2221.676944,-962.267725,12509.480420
3693.400831,-1991.848295,370.102971,11177.109724
3693.401145,-1378.971896,1332.370696,9474.636058
3693.401460,-306.438199,2738.761985,7476.080014
3693.401774,919.314598,2516.700203,6439.791695
3693.402088,2145.067394,2368.659014,6291.750507
3693.402403,2681.334243,1110.308913,6439.791695
3693.402717,2451.505594,-74.020594,7994.224174
3693.403032,1455.581446,-1332.370696,9770.718434
3693.403346,229.828649,-2368.659014,11843.295072
3693.403660,-766.095498,-2664.741391,13175.665768
3693.403975,-1608.800546,-1998.556043,13249.686362
3693.404289,-2068.457845,-592.164754,12435.459826
3693.404604,-1685.410096,592.164754,11029.068536
3693.404918,-1072.533697,1924.535449,8734.430116
3693.405232,0.000000,2442.679609,7179.997637
3693.405547,1532.190996,2590.720797,6291.750507
3693.405861,2451.505594,2146.597232,6143.709319
3693.406176,3064.381992,814.226536,6291.750507
3693.406490,2757.943793,-148.041188,7920.203579
3693.406804,2068.457845,-1110.308913,9918.759623
3693.407119,459.657299,-1998.556043,12065.356855
3693.407433,-766.095498,-2368.659014,13323.706956
3693.407748,-1762.019645,-1628.453072,12953.603985
3693.408062,-1915.238745,-296.082377,11843.295072
3693.408376,-1302.362347,666.185348,10807.006753
3693.408691,-842.705048,1554.432478,8734.430116
3693.409005,76.609550,2442.679609,6809.894666
3693.409320,1072.533697,2146.597232,6217.729913
3693.409634,2068.457845,1850.514855,5847.626942
3693.409948,2451.505594,370.102971,6735.874072
3693.410263,1838.629195,-740.205942,8586.388927
3693.410577,919.314598,-1702.473667,10584.944971
3693.410892,-383.047749,-2664.741391,11917.315666
3693.411206,-1149.143247,-2294.638420,13323.706956
3693.411520,-2298.286494,-1184.329507,12657.521608
3693.411835,-2145.067394,-148.041188,11991.336260
3693.412149,-1915.238745,962.267725,10658.965565
3693.412464,-766.095498,1924.535449,8734.430116
3693.412778,459.657299,2516.700203,6809.894666
3693.413092,1608.800546,2368.659014,5995.668130
3693.413407,1915.238745,1776.494261,6291.750507
3693.413721,2145.067394,444.123565,7476.080014
3693.414036,1608.800546,-444.123565,8734.430116
3693.414350,612.876398,-1850.514855,11103.089130
3693.414664,-612.876398,-2146.597232,12731.542202
3693.414979,-1378.971896,-1998.556043,13249.686362
3693.415293,-2834.553343,-962.267725,12879.583391
3693.415608,-2068.457845,444.123565,11991.336260
3693.415922,-1378.971896,1258.350101,10362.883188
3693.416236,-459.657299,2368.659014,8512.368333
3693.416551,459.657299,2886.803174,6883.915261
3693.416865,1915.238745,2590.720797,5847.626942
3693.417180,2451.505594,1554.432478,6439.791695
3693.417494,2528.115143,296.082377,7476.080014
3693.417808,1685.410096,-518.144159,9030.512492
3693.418123,229.828649,-1850.514855,11473.192101
3693.418437,-536.266849,-2442.679609,13027.624579
3693.418752,-2068.457845,-2220.617826,13101.645173
3693.419066,-2374.896044,-1184.329507,12583.501014
3693.419380,-2298.286494,-0.000000,11917.315666
3693.419695,-1838.629195,1036.288319,9992.780217
3693.420009,-766.095498,1776.494261,8290.306550
3693.420324,459.657299,2516.700203,6587.832884
3693.420638,1838.629195,1850.514855,6143.709319
3693.420952,2604.724693,1258.350101,6735.874072
3693.421267,2451.505594,-148.041188,7402.059420
3693.421581,1608.800546,-888.247130,9178.553681
3693.421896,76.609550,-1924.535449,11399.171507
3693.422210,-459.657299,-2590.720797,12805.562797
3693.422524,-1378.971896,-2072.576638,13101.645173
3693.422839,-1685.410096,-1110.308913,12213.398043
3693.423153,-1378.971896,370.102971,11473.192101
3693.423468,-919.314598,1258.350101,9474.636058
3693.423782,0.000000,2072.576638,7328.038826
3693.424096,1149.143247,2368.659014,6217.729913
3693.424411,2221.676944,1998.556043,6217.729913
3693.424725,2681.334243,1036.288319,6143.709319
3693.425040,2528.115143,-148.041188,7624.121203
3693.425354,1991.848295,-1036.288319,9400.615463
3693.425668,689.485948,-1998.556043,11621.233289
3693.425983,-459.657299,-2146.597232,12805.562797
3693.426297,-1608.800546,-1776.494261,13101.645173
3693.426612,-2145.067394,-296.082377,12509.480420
3693.426926,-1685.410096,740.205942,11621.233289
3693.427240,-689.485948,1628.453072,9400.615463
3693.427555,-306.438199,2368.659014,7624.121203
3693.427869,995.924147,2368.659014,6513.812290
3693.428184,1762.019645,2294.638420,6069.688724
3693.428498,2145.067394,1184.329507,6957.935855
3693.428812,2451.505594,-148.041188,8734.430116
3693.429127,1072.533697,-666.185348,10362.883188
3693.429441,0.000000,-1554.432478,11991.336260
3693.429756,-1149.143247,-2146.597232,13101.645173
3693.430070,-1915.238745,-1406.391290,12879.583391
3693.430385,-2145.067394,-222.061783,12213.398043
3693.430699,-1762.019645,1110.308913,10510.924376
3693.431013,-689.485948,2294.638420,8882.471304
3693.431328,0.000000,2812.782580,7031.956449
3693.431642,1149.143247,2590.720797,6291.750507
3693.431957,1838.629195,1850.514855,6217.729913
3693.432271,1762.019645,518.144159,7105.977043
3693.432585,1532.190996,-444.123565,8882.471304
3693.432900,306.438199,-1258.350101,10807.006753
3693.433214,-766.095498,-2516.700203,12065.356855
3693.433529,-1838.629195,-2294.638420,13397.727550
3693.433843,-2451.505594,-1332.370696,13027.624579
3693.434157,-2298.286494,-148.041188,12435.459826
3693.434472,-2068.457845,1406.391290,10584.944971
3693.434786,-689.485948,1480.411884,8808.450710
3693.435101,306.438199,2442.679609,6587.832884
3693.435415,1302.362347,2220.617826,6069.688724
3693.435729,2298.286494,1480.411884,6439.791695
3693.436044,2451.505594,518.144159,7031.956449
3693.436358,1762.019645,296.082377,9030.512492
3693.436673,536.266849,-1554.432478,10807.006753
3693.436987,-153.219100,-2220.617826,12435.459826
3693.437301,-1455.581446,-2442.679609,12805.562797
3693.437616,-1915.238745,-1406.391290,12731.542202
3693.437930,-1762.019645,-296.082377,12139.377449
3693.438245,-1455.581446,888.247130,10214.842000
3693.438559,-229.828649,1924.535449,8438.347739
3693.438873,459.657299,2516.700203,6735.874072
3693.439188,1991.848295,2220.617826,6439.791695
3693.439502,2221.676944,1258.350101,6069.688724
3693.439817,2374.896044,592.164754,7105.977043
3693.440131,2068.457845,-814.226536,8956.491898
3693.440445,842.705048,-1924.535449,10881.027347
3693.440760,-383.047749,-2664.741391,12213.398043
3693.441074,-1378.971896,-2516.700203,13323.706956
3693.441389,-2374.896044,-1332.370696,12805.562797
3693.441703,-2068.457845,-74.020594,11547.212695
3693.442017,-1608.800546,1036.288319,9918.759623
3693.442332,-612.876398,1702.473667,8290.306550
3693.442646,459.657299,1998.556043,6365.771101
3693.442961,1685.410096,1998.556043,5921.647536
3693.443275,2451.505594,1110.308913,6217.729913
3693.443590,2604.724693,222.061783,7328.038826
3693.443904,2451.505594,-1258.350101,9178.553681
3693.444218,1378.971896,-1924.535449,10955.047942
3693.444533,76.609550,-2146.597232,12287.418637
3693.444847,-919.314598,-2294.638420,13175.665768
3693.445162,-1608.800546,-592.164754,12731.542202
3693.445476,-1915.238745,370.102971,11473.192101
3693.445790,-1378.971896,1184.329507,9326.594869
3693.446105,-612.876398,2146.597232,7402.059420
3693.446419,766.095498,1998.556043,6439.791695
3693.446734,1991.848295,1628.453072,6143.709319
3693.447048,2834.553343,1258.350101,6587.832884
3693.447362,2298.286494,-148.041188,8216.285956
3693.447677,1455.581446,-888.247130,10140.821405
3693.447991,0.000000,-1998.556043,11547.212695
3693.448306,-612.876398,-2146.597232,12879.583391
3693.448620,-1532.190996,-1776.494261,13767.830521
3693.448934,-1991.848295,-0.000000,12583.501014
3693.449249,-1838.629195,888.247130,11473.192101
3693.449563,-1455.581446,2146.597232,9252.574275
3693.449878,-459.657299,2664.741391,7550.100608
3693.450192,842.705048,2442.679609,6587.832884
3693.450506,1455.581446,1924.535449,6365.771101
3693.450821,1762.019645,740.205942,7031.956449
3693.451135,1608.800546,-296.082377,8512.368333
3693.451450,536.266849,-1332.370696,9992.780217
3693.451764,-459.657299,-2368.659014,11917.315666
3693.452078,-1532.190996,-2368.659014,13175.665768
3693.452393,-2145.067394,-1702.473667,12805.562797
3693.452707,-2374.896044,-74.020594,12287.418637
3693.453022,-2068.457845,1110.308913,10881.027347
3693.453336,-1149.143247,2146.597232,9326.594869
3693.453650,0.000000,3034.844362,7105.977043
3693.453965,1302.362347,2812.782580,6291.750507
3693.454279,2451.505594,2368.659014,5699.585753
3693.454594,2528.115143,518.144159,7105.977043
3693.454908,2298.286494,-74.020594,8364.327145
3693.455222,995.924147,-1628.453072,10362.883188
3693.455537,-229.828649,-2442.679609,12213.398043
3693.455851,-1378.971896,-2368.659014,13027.624579
3693.456166,-2221.676944,-1850.514855,12953.603985
3693.456480,-2298.286494,-740.205942,12139.377449
3693.456795,-1685.410096,666.185348,10955.047942
3693.457109,-612.876398,1776.494261,8660.409521
3693.457423,383.047749,2590.720797,7031.956449
3693.457738,2068.457845,2516.700203,5699.585753
3693.458052,2451.505594,2146.597232,5773.606348
3693.458367,3370.820191,888.247130,7105.977043
3693.458681,2757.943793,-370.102971,7624.121203
3693.458995,1685.410096,-1480.411884,10066.800811
3693.459310,689.485948,-2220.617826,12509.480420
3693.459624,-1072.533697,-2220.617826,13175.665768
3693.459939,-1608.800546,-1406.391290,13027.624579
3693.460253,-1991.848295,-370.102971,11991.336260
3693.460567,-1532.190996,888.247130,10362.883188
3693.460882,-612.876398,2072.576638,8734.430116
3693.461196,0.000000,2294.638420,7105.977043
3693.461511,1302.362347,2220.617826,6735.874072
3693.461825,2298.286494,1480.411884,6143.709319
3693.462139,2451.505594,296.082377,7179.997637
3693.462454,2068.457845,-518.144159,9030.512492
3693.462768,919.314598,-1628.453072,10955.047942
3693.463083,-536.266849,-2146.597232,12065.356855
3693.463397,-1225.752797,-1998.556043,12953.603985
3693.463711,-1762.019645,-740.205942,12509.480420
3693.464026,-1915.238745,518.144159,11769.274478
3693.464340,-1378.971896,1628.453072,9918.759623
3693.464655,-689.485948,2516.700203,7994.224174
3693.464969,306.438199,2516.700203,6513.812290
3693.465283,1762.019645,1998.556043,6143.709319
3693.465598,1838.629195,1036.288319,6365.771101
3693.465912,1762.019645,-0.000000,7846.182985
3693.466227,1149.143247,-1184.329507,9252.574275
3693.466541,306.438199,-1850.514855,11621.233289
3693.466855,-612.876398,-2442.679609,13323.706956
3693.467170,-1915.238745,-2072.576638,13471.748144
3693.467484,-2221.676944,-296.082377,12509.480420
3693.467799,-1532.190996,814.226536,11473.192101
3693.468113,-1072.533697,1776.494261,9474.636058
3693.468427,0.000000,2738.761985,8068.244768
3693.468742,689.485948,2664.741391,6217.729913
3693.469056,1302.362347,2294.638420,6291.750507
3693.469371,2068.457845,962.267725,6661.853478
3693.469685,1991.848295,-148.041188,7994.224174
3693.470000,919.314598,-1332.370696,10214.842000
3693.470314,-536.266849,-2516.700203,12213.398043
3693.470628,-1685.410096,-3034.844362,13767.830521
3693.470943,-2298.286494,-2072.576638,13397.727550
3693.471257,-2451.505594,-666.185348,12657.521608
3693.471572,-2298.286494,666.185348,11251.130318
3693.471886,-1455.581446,1702.473667,9474.636058
3693.472200,-229.828649,2590.720797,7550.100608
3693.472515,1149.143247,2368.659014,5921.647536
3693.472829,2528.115143,2442.679609,5773.606348
3693.473144,2451.505594,962.267725,6439.791695
3693.473458,2298.286494,-296.082377,7846.182985
3693.473772,1608.800546,-1406.391290,9474.636058
3693.474087,0.000000,-2294.638420,11917.315666
3693.474401,-1072.533697,-2960.823768,13619.789333
3693.474716,-1685.410096,-2072.576638,12879.583391
3693.475030,-2374.896044,-1110.308913,12065.356855
3693.475344,-1915.238745,370.102971,11177.109724
3693.475659,-995.924147,1480.411884,8956.491898
3693.475973,153.219100,2442.679609,7328.038826
3693.476288,1302.362347,2220.617826,6439.791695
3693.476602,2528.115143,2220.617826,5921.647536
3693.476916,2911.162892,666.185348,6513.812290
3693.477231,3217.601092,-222.061783,7698.141797
3693.477545,2221.676944,-1184.329507,10140.821405
3693.477860,306.438199,-2146.597232,12361.439231
3693.478174,-612.876398,-2294.638420,13175.665768
3693.478488,-1608.800546,-1628.453072,13027.624579
3693.478803,-1608.800546,-296.082377,12065.356855
3693.479117,-1302.362347,962.267725,10288.862594
3693.479432,-612.876398,1776.494261,8734.430116
3693.479746,229.828649,2220.617826,6957.935855
3693.480060,1302.362347,2294.638420,6217.729913
3693.480375,1762.019645,1406.391290,6217.729913
3693.480689,2374.896044,-74.020594,7105.977043
3693.481004,1838.629195,-888.247130,8660.409521
3693.481318,766.095498,-1850.514855,11029.068536
3693.481632,-229.828649,-2368.659014,12435.459826
3693.481947,-1149.143247,-2294.638420,13397.727550
3693.482261,-2145.067394,-962.267725,12879.583391
3693.482576,-2221.676944,370.102971,12287.418637
3693.482890,-1838.629195,1924.535449,10510.924376
3693.483205,-995.924147,2368.659014,8142.265362
3693.483519,76.609550,3404.947333,6957.935855
3693.483833,766.095498,2220.617826,5995.668130
3693.484148,1685.410096,1480.411884,6661.853478
3693.484462,1685.410096,-296.082377,7550.100608
3693.484777,1149.143247,-888.247130,9474.636058
3693.485091,229.828649,-1850.514855,11843.295072
3693.485405,-919.314598,-2516.700203,12953.603985
3693.485720,-2068.457845,-1998.556043,13545.768739
3693.486034,-2528.115143,-1036.288319,12953.603985
3693.486349,-2221.676944,444.123565,11547.212695
3693.486663,-1455.581446,1554.432478,9622.677246
3693.486977,-689.485948,2590.720797,7476.080014
3693.487292,842.705048,2738.761985,6365.771101
3693.487606,1838.629195,2368.659014,5625.565159
3693.487921,3140.991542,814.226536,6143.709319
3693.488235,2374.896044,222.061783,7772.162391
3693.488549,1455.581446,-962.267725,9622.677246
3693.488864,383.047749,-1480.411884,11843.295072
3693.489178,-842.705048,-2516.700203,13175.665768
3693.489493,-1991.848295,-2072.576638,13249.686362
3693.489807,-1762.019645,-962.267725,12583.501014
3693.490121,-1608.800546,370.102971,11399.171507
3693.490436,-1225.752797,1480.411884,9844.739029
3693.490750,0.000000,2664.741391,7476.080014
3693.491065,1378.971896,2960.823768,5847.626942
3693.491379,2528.115143,2368.659014,5921.647536
3693.491693,2987.772442,1258.350101,6513.812290
3693.492008,2834.553343,-0.000000,7550.100608
3693.492322,1915.238745,-1332.370696,9696.697840
3693.492637,995.924147,-2738.761985,11621.233289
3693.492951,-612.876398,-2590.720797,13027.624579
3693.493265,-1378.971896,-1554.432478,13767.830521
3693.493580,-1915.238745,-444.123565,12657.521608
3693.493894,-1378.971896,592.164754,11251.130318
3693.494209,-842.705048,2146.597232,9178.553681
3693.494523,76.609550,2664.741391,7402.059420
3693.494837,1455.581446,2590.720797,6439.791695
3693.495152,2451.505594,2072.576638,5921.647536
3693.495466,2757.943793,592.164754,6661.853478
3693.495781,2604.724693,-444.123565,8216.285956
3693.496095,1915.238745,-1184.329507,9918.759623
3693.496410,229.828649,-2220.617826,11991.336260
3693.496724,-766.095498,-2664.741391,12879.583391
3693.497038,-2068.457845,-1332.370696,13249.686362
3693.497353,-2221.676944,-74.020594,12213.398043
3693.497667,-1838.629195,888.247130,11029.068536
3693.497982,-919.314598,1702.473667,9104.533087
3693.498296,0.000000,2516.700203,7179.997637
3693.498610,1149.143247,2664.741391,5625.565159
3693.498925,1685.410096,1628.453072,6069.688724
3693.499239,2145.067394,296.082377,6957.935855
3693.499554,1915.238745,-222.061783,8364.327145
3693.499868,689.485948,-1332.370696,10140.821405
3693.500182,-766.095498,-2368.659014,12287.418637
3693.500497,-1532.190996,-2294.638420,13323.706956
3693.500811,-2145.067394,-1554.432478,13175.665768
3693.501126,-2374.896044,148.041188,12139.377449
3693.501440,-1455.581446,1332.370696,10436.903782
3693.501754,-612.876398,3034.844362,8808.450710
3693.502069,153.219100,2886.803174,6735.874072
3693.502383,1838.629195,2738.761985,6217.729913
3693.502698,2068.457845,1850.514855,6069.688724
3693.503012,2298.286494,444.123565,7105.977043
3693.503326,1915.238745,-222.061783,8660.409521
3693.503641,383.047749,-1406.391290,10881.027347
3693.503955,-536.266849,-2368.659014,12657.521608
3693.504270,-1685.410096,-2368.659014,13175.665768
3693.504584,-2145.067394,-1406.391290,12953.603985
3693.504898,-2451.505594,-0.000000,12065.356855
3693.505213,-1838.629195,1258.350101,9918.759623
3693.505527,-919.314598,2220.617826,8586.388927
3693.505842,76.609550,2590.720797,6661.853478
3693.506156,1608.800546,1924.535449,5773.606348
3693.506470,2221.676944,1184.329507,6291.750507
3693.506785,2374.896044,222.061783,7550.100608
3693.507099,1915.238745,-592.164754,9104.533087
3693.507414,383.047749,-1924.535449,10807.006753
3693.507728,-306.438199,-2516.700203,12509.480420
3693.508042,-1685.410096,-2368.659014,13397.727550
3693.508357,-2298.286494,-1184.329507,12731.542202
3693.508671,-2068.457845,-0.000000,11843.295072
3693.508986,-1455.581446,1110.308913,10066.800811
3693.509300,-383.047749,2146.597232,7698.141797
3693.509615,919.314598,2516.700203,6883.915261
3693.509929,2451.505594,2146.597232,6217.729913
3693.510243,2911.162892,1110.308913,6291.750507
3693.510558,2374.896044,-74.020594,7031.956449
3693.510872,2374.896044,-666.185348,9326.594869
3693.511187,995.924147,-1554.432478,11251.130318
3693.511501,0.000000,-2368.659014,12361.439231
3693.511815,-1455.581446,-2072.576638,12805.562797
3693.512130,-1991.848295,-1110.308913,12361.439231
3693.512444,-1915.238745,-0.000000,11695.253884
3693.512759,-1302.362347,1184.329507,9548.656652
3693.513073,-536.266849,2294.638420,8068.244768
3693.513387,842.705048,2368.659014,6957.935855
3693.513702,1455.581446,2072.576638,6439.791695
3693.514016,2451.505594,1110.308913,6587.832884
3693.514331,1991.848295,-74.020594,8216.285956
3693.514645,1685.410096,-814.226536,10066.800811
3693.514959,612.876398,-1776.494261,11399.171507
3693.515274,-306.438199,-2516.700203,12805.562797
3693.515588,-1455.581446,-1628.453072,13471.748144
3693.515903,-2068.457845,-444.123565,12213.398043
3693.516217,-1608.800546,444.123565,11251.130318
3693.516531,-995.924147,1998.556043,9548.656652
3693.516846,0.000000,2368.659014,7402.059420
3693.517160,1302.362347,1924.535449,5995.668130
3693.517475,1991.848295,1480.411884,5625.565159
3693.517789,2528.115143,518.144159,6439.791695
3693.518103,2374.896044,-888.247130,7846.182985
3693.518418,1378.971896,-1406.391290,9400.615463
3693.518732,76.609550,-2220.617826,11621.233289
3693.519047,-1149.143247,-2294.638420,12657.521608
3693.519361,-1762.019645,-1184.329507,12805.562797
3693.519675,-2221.676944,-518.144159,12435.459826
3693.519990,-2068.457845,962.267725,11251.130318
3693.520304,-1225.752797,1776.494261,9326.594869
3693.520619,-459.657299,2294.638420,7402.059420
3693.520933,1302.362347,2220.617826,6735.874072
3693.521247,1915.238745,1998.556043,6513.812290
3693.521562,2451.505594,962.267725,7105.977043
3693.521876,1762.019645,-296.082377,8512.368333
3693.522191,842.705048,-1406.391290,10510.924376
3693.522505,-229.828649,-2146.597232,12361.439231
3693.522820,-1225.752797,-2368.659014,12953.603985
3693.523134,-2068.457845,-1110.308913,12657.521608
3693.523448,-1915.238745,-0.000000,12213.398043
3693.523763,-1532.190996,962.267725,10732.986159
3693.524077,-536.266849,2146.597232,8660.409521
3693.524392,229.828649,2368.659014,6809.894666
3693.524706,1762.019645,2738.761985,5551.544565
3693.525020,2374.896044,1850.514855,5995.668130
3693.525335,2374.896044,592.164754,7550.100608
3693.525649,1991.848295,-222.061783,8438.347739
3693.525964,536.266849,-1554.432478,10732.986159
3693.526278,-229.828649,-2368.659014,12805.562797
3693.526593,-1455.581446,-2368.659014,13249.686362
3693.526907,-2374.896044,-1036.288319,13175.665768
3693.527222,-2298.286494,-74.020594,12361.439231
3693.527536,-1378.971896,1110.308913,10881.027347
3693.527850,-536.266849,1998.556043,8142.265362
3693.528165,612.876398,2886.803174,6735.874072
3693.528479,1838.629195,2294.638420,6217.729913
3693.528794,2221.676944,1332.370696,5995.668130
3693.529108,2757.943793,296.082377,6809.894666
3693.529423,2145.067394,-962.267725,8808.450710
3693.529737,383.047749,-1924.535449,11029.068536
3693.530052,-153.219100,-2368.659014,12509.480420
3693.530366,-1302.362347,-2220.617826,13101.645173
3693.530681,-1991.848295,-1332.370696,13027.624579
3693.530995,-1991.848295,-296.082377,11769.274478
3693.531309,-1302.362347,1184.329507,9992.780217
3693.531624,-536.266849,2220.617826,8364.327145
3693.531938,1378.971896,2886.803174,6661.853478
3693.532253,2298.286494,2516.700203,6143.709319
3693.532567,2757.943793,1628.453072,6291.750507
3693.532882,2987.772442,296.082377,7698.141797
3693.533196,1991.848295,-666.185348,9252.574275
3693.533511,1072.533697,-1702.473667,11103.089130
3693.533825,0.000000,-2146.597232,12583.501014
3693.534140,-1072.533697,-1850.514855,13101.645173
3693.534454,-1991.848295,-814.226536,12805.562797
3693.534768,-1685.410096,296.082377,11473.192101
3693.535083,-1149.143247,1184.329507,9770.718434
3693.535397,-459.657299,2072.576638,7624.121203
3693.535712,459.657299,2294.638420,6513.812290
3693.536026,1838.629195,1924.535449,6587.832884
3693.536341,2298.286494,666.185348,6735.874072
3693.536655,2374.896044,-370.102971,7698.141797
3693.536970,1302.362347,-962.267725,9844.739029
3693.537284,76.609550,-1924.535449,11695.253884
3693.537599,-766.095498,-2442.679609,12953.603985
3693.537913,-2068.457845,-1776.494261,13027.624579
3693.538228,-2221.676944,-666.185348,12139.377449
3693.538542,-1762.019645,370.102971,11029.068536
3693.538856,-1532.190996,1628.453072,9104.533087
3693.539171,-459.657299,2368.659014,7846.182985
3693.539485,766.095498,2590.720797,6143.709319
3693.539800,1378.971896,1998.556043,6365.771101
3693.540114,1915.238745,518.144159,6957.935855
3693.540429,1915.238745,-592.164754,8142.265362
3693.540743,842.705048,-1406.391290,9992.780217
3693.541058,-383.047749,-1924.535449,11843.295072
3693.541372,-1225.752797,-2442.679609,13101.645173
3693.541687,-1915.238745,-1406.391290,12657.521608
3693.542001,-2221.676944,-222.061783,12139.377449
3693.542315,-1991.848295,962.267725,11103.089130
3693.542630,-1072.533697,1776.494261,9104.533087
3693.542944,306.438199,2442.679609,7105.977043
3693.543259,1455.581446,2442.679609,6291.750507
3693.543573,2374.896044,1702.473667,6143.709319
3693.543888,2298.286494,740.205942,6809.894666
3693.544202,1915.238745,-592.164754,8438.347739
3693.544517,842.705048,-1480.411884,10584.944971
3693.544831,0.000000,-2146.597232,12213.398043
3693.545146,-1072.533697,-2368.659014,13323.706956
3693.545460,-1991.848295,-1184.329507,13101.645173
3693.545774,-1915.238745,-444.123565,12287.418637
3693.546089,-842.705048,1406.391290,10881.027347
3693.546403,-229.828649,2442.679609,8586.388927
3693.546718,536.266849,2960.823768,7105.977043
3693.547032,1915.238745,2664.741391,6069.688724
3693.547347,2374.896044,2146.597232,5921.647536
3693.547661,2451.505594,444.123565,7105.977043
3693.547976,2145.067394,-666.185348,8438.347739
3693.548290,995.924147,-1702.473667,10807.006753
3693.548605,-536.266849,-2812.782580,12435.459826
3693.548919,-1455.581446,-2516.700203,13249.686362
3693.549234,-1838.629195,-1480.411884,12731.542202
3693.549548,-2145.067394,-296.082377,11769.274478
3693.549862,-1455.581446,1258.350101,10732.986159
3693.550177,-689.485948,2072.576638,8586.388927
3693.550491,383.047749,3182.885551,6513.812290
3693.550806,1532.190996,2368.659014,6143.709319
3693.551120,2374.896044,1480.411884,6143.709319
3693.551435,2528.115143,222.061783,7254.018232
3693.551749,2298.286494,-666.185348,9252.574275
3693.552064,766.095498,-1776.494261,11325.150913
3693.552378,-229.828649,-1998.556043,12361.439231
3693.552693,-1608.800546,-2146.597232,13323.706956
3693.553007,-2451.505594,-888.247130,12879.583391
3693.553321,-2145.067394,-0.000000,11843.295072
3693.553636,-1302.362347,1110.308913,10140.821405
3693.553950,-229.828649,2368.659014,7846.182985
3693.554265,536.266849,2664.741391,6883.915261
3693.554579,1762.019645,2442.679609,5995.668130
3693.554894,2145.067394,1258.350101,6365.771101
3693.555208,2451.505594,-0.000000,7254.018232
3693.555523,1685.410096,-1110.308913,9474.636058
3693.555837,459.657299,-1998.556043,11547.212695
3693.556152,-536.266849,-2442.679609,12879.583391
3693.556466,-1455.581446,-1850.514855,13323.706956
3693.556781,-2068.457845,-592.164754,12731.542202
3693.557095,-1762.019645,740.205942,11695.253884
3693.557409,-1532.190996,1258.350101,9992.780217
3693.557724,-689.485948,2220.617826,7550.100608
3693.558038,612.876398,2294.638420,6439.791695
3693.558353,1455.581446,1998.556043,5995.668130
3693.558667,1838.629195,666.185348,6735.874072
3693.558982,1685.410096,-518.144159,7994.224174
3693.559296,919.314598,-1480.411884,10066.800811
3693.559611,-229.828649,-2368.659014,11399.171507
3693.559925,-1302.362347,-2960.823768,12879.583391
3693.560240,-2068.457845,-2146.597232,13397.727550
3693.560554,-2374.896044,-1184.329507,12509.480420
3693.560868,-1685.410096,370.102971,11103.089130
3693.561183,-1149.143247,1702.473667,9252.574275
3693.561497,0.000000,2442.679609,7328.038826
3693.561812,1225.752797,2590.720797,5995.668130
3693.562126,2374.896044,1406.391290,6069.688724
3693.562441,2681.334243,666.185348,6365.771101
3693.562755,2681.334243,-370.102971,7846.182985
3693.563070,1685.410096,-1702.473667,9548.656652
3693.563384,459.657299,-2368.659014,12065.356855
3693.563699,-612.876398,-2516.700203,13027.624579
3693.564013,-1532.190996,-2146.597232,13027.624579
3693.564327,-1378.971896,-740.205942,12361.439231
3693.564642,-995.924147,962.267725,10658.965565
3693.564956,-383.047749,1850.514855,8882.471304
3693.565271,153.219100,2590.720797,7105.977043
3693.565585,1378.971896,2368.659014,5847.626942
3693.565900,2451.505594,1702.473667,6069.688724
3693.566214,2604.724693,148.041188,7031.956449
3693.566529,1991.848295,-814.226536,8734.430116
3693.566843,995.924147,-1702.473667,10807.006753
3693.567158,-383.047749,-2146.597232,12731.542202
3693.567472,-1532.190996,-2294.638420,13841.851115
3693.567787,-2298.286494,-1110.308913,13323.706956
3693.568101,-2221.676944,-148.041188,12879.583391
3693.568415,-2068.457845,1036.288319,11251.130318
3693.568730,-995.924147,2294.638420,8808.450710
3693.569044,76.609550,3108.864956,6957.935855
3693.569359,1532.190996,2960.823768,6069.688724
3693.569673,1915.238745,1776.494261,6365.771101
3693.569988,2298.286494,296.082377,7179.997637
3693.570302,1991.848295,-666.185348,8216.285956
3693.570617,1149.143247,-1702.473667,10362.883188
3693.570931,0.000000,-2294.638420,12213.398043
3693.571246,-919.314598,-2442.679609,12879.583391
3693.571560,-2298.286494,-1332.370696,12657.521608
3693.571874,-1685.410096,-0.000000,11843.295072
3693.572189,-1378.971896,1184.329507,9918.759623
3693.572503,-612.876398,2294.638420,8142.265362
3693.572818,459.657299,2664.741391,6661.853478
3693.573132,1838.629195,2590.720797,5995.668130
3693.573447,2374.896044,1702.473667,6439.791695
3693.573761,2374.896044,370.102971,7254.018232
3693.574076,1685.410096,-740.205942,9326.594869
3693.574390,536.266849,-1924.535449,11399.171507
3693.574705,-842.705048,-2664.741391,12287.418637
3693.575019,-1608.800546,-1850.514855,13767.830521
3693.575334,-2298.286494,-592.164754,12879.583391
3693.575648,-2068.457845,666.185348,12139.377449
3693.575962,-1378.971896,2146.597232,9992.780217
3693.576277,-306.438199,2960.823768,8142.265362
3693.576591,766.095498,3256.906145,6217.729913
3693.576906,1991.848295,2442.679609,6069.688724
3693.577220,2604.724693,1480.411884,6365.771101
3693.577535,2451.505594,-0.000000,7550.100608
3693.577849,1685.410096,-666.185348,9326.594869
3693.578164,689.485948,-1628.453072,11251.130318
3693.578478,-612.876398,-2146.597232,12731.542202
3693.578793,-1762.019645,-1998.556043,12953.603985
3693.579107,-2068.457845,-962.267725,12583.501014
3693.579421,-1915.238745,444.123565,11547.212695
3693.579736,-995.924147,1554.432478,9474.636058
3693.580050,-306.438199,2516.700203,7624.121203
3693.580365,842.705048,2516.700203,6735.874072
3693.580679,1991.848295,2220.617826,5921.647536
3693.580994,2298.286494,740.205942,6587.832884
3693.581308,2145.067394,-0.000000,7550.100608
3693.581623,1302.362347,-1332.370696,9622.677246
3693.581937,76.609550,-2072.576638,11843.295072
3693.582252,-842.705048,-2664.741391,13249.686362
3693.582566,-2221.676944,-1998.556043,13545.768739
3693.582880,-2604.724693,-888.247130,12731.542202
3693.583195,-1991.848295,518.144159,11621.233289
3693.583509,-766.095498,1702.473667,9548.656652
3693.583824,-536.266849,2368.659014,7254.018232
3693.584138,995.924147,2368.659014,6217.729913
3693.584453,2221.676944,2294.638420,5847.626942
3693.584767,2528.115143,592.164754,6365.771101
3693.585082,2145.067394,-518.144159,7772.162391
3693.585396,1378.971896,-1702.473667,9548.656652
3693.585711,0.000000,-2294.638420,11769.274478
3693.586025,-1149.143247,-2590.720797,12953.603985
3693.586340,-1838.629195,-1702.473667,12953.603985
3693.586654,-2145.067394,-444.123565,12731.542202
3693.586968,-1762.019645,1184.329507,11473.192101
3693.587283,-1072.533697,2072.576638,9178.553681
3693.587597,0.000000,2368.659014,7105.977043
3693.587912,1378.971896,2442.679609,6883.915261
3693.588226,2298.286494,1628.453072,5995.668130
3693.588541,2604.724693,444.123565,6809.894666
3693.588855,1991.848295,-222.061783,8364.327145
3693.589170,1072.533697,-1480.411884,10510.924376
3693.589484,0.000000,-2220.617826,12287.418637
3693.589799,-1378.971896,-2368.659014,13101.645173
3693.590113,-1915.238745,-2072.576638,13471.748144
3693.590427,-2221.676944,-592.164754,12731.542202
3693.590742,-1532.190996,962.267725,10955.047942
3693.591056,-766.095498,2146.597232,8956.491898
3693.591371,689.485948,1924.535449,6661.853478
3693.591685,1991.848295,2368.659014,5699.585753
3693.592000,2528.115143,1702.473667,5329.482782
3693.592314,2757.943793,-0.000000,6735.874072
3693.592629,2298.286494,-962.267725,8216.285956
3693.592943,536.266849,-2072.576638,10658.965565
3693.593258,-306.438199,-2960.823768,12509.480420
3693.593572,-1302.362347,-2590.720797,13323.706956
3693.593886,-1991.848295,-1850.514855,12509.480420
3693.594201,-1838.629195,-148.041188,11769.274478
3693.594515,-1149.143247,1184.329507,10510.924376
3693.594830,-383.047749,1850.514855,8216.285956
3693.595144,612.876398,2590.720797,6143.709319
3693.595459,1762.019645,2368.659014,6291.750507
3693.595773,2451.505594,1776.494261,6069.688724
3693.596088,2145.067394,-296.082377,7402.059420
3693.596402,1378.971896,-1258.350101,9474.636058
3693.596717,229.828649,-2146.597232,11399.171507
3693.597031,-689.485948,-2368.659014,12879.583391
3693.597346,-1532.190996,-2294.638420,13693.809927
3693.597660,-1991.848295,-1036.288319,13471.748144
3693.597974,-1762.019645,814.226536,11695.253884
3693.598289,-1225.752797,2220.617826,9548.656652
3693.598603,-229.828649,3182.885551,7920.203579
3693.598918,1072.533697,2960.823768,6513.812290
3693.599232,1838.629195,2590.720797,5847.626942
3693.599547,2145.067394,1480.411884,6069.688724
3693.599861,1991.848295,-0.000000,7846.182985
3693.600176,1685.410096,-962.267725,9844.739029
3693.600490,306.438199,-1406.391290,11769.274478
3693.600805,-1149.143247,-2294.638420,13323.706956
3693.601119,-1762.019645,-1924.535449,13471.748144
3693.601433,-2221.676944,-444.123565,13027.624579
3693.601748,-1762.019645,1036.288319,11843.295072
3693.602062,-1149.143247,1998.556043,9918.759623
3693.602377,153.219100,2886.803174,7698.141797
3693.602691,1685.410096,3034.844362,5847.626942
3693.603006,2374.896044,2886.803174,5773.606348
3693.603320,2528.115143,1480.411884,6069.688724
3693.603635,2451.505594,-0.000000,7550.100608
3693.603949,1685.410096,-740.205942,9548.656652
3693.604264,0.000000,-1998.556043,11695.253884
3693.604578,-995.924147,-2812.782580,13693.809927
3693.604893,-2068.457845,-2072.576638,13767.830521
3693.605207,-2374.896044,-962.267725,12805.562797
3693.605521,-2145.067394,444.123565,11843.295072
3693.605836,-1455.581446,1628.453072,9252.574275
3693.606150,-459.657299,2886.803174,7476.080014
3693.606465,1302.362347,2886.803174,6069.688724
3693.606779,2298.286494,2220.617826,5625.565159
3693.607094,2604.724693,962.267725,6217.729913
3693.607408,2451.505594,-296.082377,7846.182985
3693.607723,1455.581446,-1332.370696,9992.780217
3693.608037,153.219100,-2294.638420,12213.398043
3693.608352,-383.047749,-2812.782580,13323.706956
3693.608666,-842.705048,-1924.535449,12731.542202
3693.608980,-1685.410096,-592.164754,12213.398043
3693.609295,-1302.362347,962.267725,11547.212695
3693.609609,-1149.143247,2442.679609,8808.450710
3693.609924,383.047749,2368.659014,7254.018232
3693.610238,1149.143247,2886.803174,6513.812290
3693.610553,2145.067394,1924.535449,5847.626942
3693.610867,2451.505594,222.061783,6957.935855
3693.611182,1915.238745,-666.185348,8586.388927
3693.611496,1302.362347,-1406.391290,10362.883188
3693.611811,0.000000,-2738.761985,11843.295072
3693.612125,-1072.533697,-2294.638420,12879.583391
3693.612439,-1915.238745,-1480.411884,13249.686362
3693.612754,-2145.067394,-74.020594,11991.336260
3693.613068,-1302.362347,740.205942,10436.903782
3693.613383,-689.485948,2220.617826,8068.244768
3693.613697,459.657299,2664.741391,6809.894666
3693.614012,1532.190996,2442.679609,5995.668130
3693.614326,1838.629195,1332.370696,6143.709319
3693.614641,1762.019645,-0.000000,7105.977043
3693.614955,1455.581446,-962.267725,8586.388927
3693.615270,536.266849,-1998.556043,10807.006753
3693.615584,-842.705048,-2590.720797,12361.439231
3693.615899,-1532.190996,-2368.659014,13323.706956
3693.616213,-1762.019645,-1332.370696,12805.562797
3693.616527,-2068.457845,148.041188,11695.253884
3693.616842,-1149.143247,1554.432478,10732.986159
3693.617156,-383.047749,2146.597232,8142.265362
3693.617471,1302.362347,2812.782580,6291.750507
3693.617785,1915.238745,2368.659014,5995.668130
3693.618100,2451.505594,1406.391290,5995.668130
3693.618414,2451.505594,-74.020594,7476.080014
3693.618729,1685.410096,-1110.308913,9104.533087
3693.619043,383.047749,-2220.617826,11547.212695
3693.619358,-1302.362347,-2516.700203,12953.603985
3693.619672,-2221.676944,-2516.700203,13397.727550
3693.619986,-2374.896044,-1702.473667,13397.727550
3693.620301,-2221.676944,-0.000000,12213.398043
3693.620615,-919.314598,1628.453072,10362.883188
3693.620930,-383.047749,2886.803174,7920.203579
3693.621244,766.095498,3330.926739,6217.729913
3693.621559,1685.410096,2886.803174,5995.668130
3693.621873,2451.505594,1850.514855,6513.812290
3693.622188,2528.115143,-0.000000,7772.162391
3693.622502,1915.238745,-962.267725,9252.574275
3693.622817,459.657299,-1924.535449,11621.233289
3693.623131,-383.047749,-2220.617826,13101.645173
3693.623446,-1302.362347,-2368.659014,13323.706956
3693.623760,-1838.629195,-1036.288319,12657.521608
3693.624074,-1608.800546,148.041188,11473.192101
3693.624389,-919.314598,1258.350101,9918.759623
3693.624703,-229.828649,2294.638420,7105.977043
3693.625018,1225.752797,2590.720797,5773.606348
3693.625332,1838.629195,2442.679609,5921.647536
3693.625647,2528.115143,1110.308913,5995.668130
3693.625961,2298.286494,-296.082377,7994.224174
3693.626276,1608.800546,-1184.329507,9770.718434
3693.626590,229.828649,-2294.638420,11695.253884
3693.626904,-459.657299,-2368.659014,12879.583391
3693.627219,-1532.190996,-1776.494261,13175.665768
3693.627533,-1838.629195,-370.102971,12805.562797
3693.627848,-1608.800546,814.226536,11325.150913
3693.628162,-919.314598,1480.411884,9178.553681
3693.628477,0.000000,2442.679609,7476.080014
3693.628791,1149.143247,2442.679609,5995.668130
3693.629105,2298.286494,1776.494261,5921.647536
3693.629420,2145.067394,444.123565,6735.874072
3693.629734,2374.896044,-1036.288319,8142.265362
3693.630049,1149.143247,-1776.494261,9696.697840
3693.630363,0.000000,-2220.617826,11769.274478
3693.630678,-842.705048,-2146.597232,12953.603985
3693.630992,-1455.581446,-1406.391290,13027.624579
3693.631306,-1838.629195,-74.020594,12213.398043
3693.631621,-1378.971896,1110.308913,10807.006753
3693.631935,-459.657299,2220.617826,8808.450710
3693.632250,76.609550,3034.844362,6883.915261
3693.632564,1378.971896,2738.761985,6291.750507
3693.632878,1915.238745,1998.556043,6143.709319
3693.633193,1685.410096,518.144159,7179.997637
3693.633507,1685.410096,-592.164754,8956.491898
3693.633822,153.219100,-1554.432478,10955.047942
3693.634136,-842.705048,-1702.473667,13175.665768
3693.634451,-1685.410096,-2146.597232,13915.871710
3693.634765,-2068.457845,-1258.350101,13249.686362
3693.635079,-1991.848295,-0.000000,12657.521608
3693.635394,-1455.581446,1628.453072,10658.965565
3693.635708,-766.095498,2590.720797,8068.244768
3693.636023,306.438199,3108.864956,6439.791695
3693.636337,1762.019645,2664.741391,5921.647536
3693.636652,2221.676944,1850.514855,5773.606348
3693.636966,2221.676944,-0.000000,7105.977043
3693.637280,1532.190996,-962.267725,8956.491898
3693.637595,383.047749,-2368.659014,10584.944971
3693.637909,-995.924147,-2590.720797,12509.480420
3693.638224,-1608.800546,-2590.720797,13841.851115
3693.638538,-2451.505594,-1406.391290,13471.748144
3693.638852,-2298.286494,-148.041188,12065.356855
3693.639167,-1608.800546,1258.350101,10288.862594
3693.639481,-459.657299,2294.638420,8216.285956
3693.639796,766.095498,2960.823768,6143.709319
3693.640110,2145.067394,2294.638420,5921.647536
3693.640425,2451.505594,1406.391290,5995.668130
3693.640739,2528.115143,-0.000000,7328.038826
3693.641053,1991.848295,-1036.288319,9030.512492
3693.641368,842.705048,-1924.535449,11251.130318
3693.641682,-536.266849,-2590.720797,12879.583391
3693.641997,-1532.190996,-2294.638420,13323.706956
3693.642311,-2221.676944,-1628.453072,13027.624579
3693.642626,-1838.629195,-0.000000,12287.418637
3693.642940,-1378.971896,1036.288319,9992.780217
3693.643254,-306.438199,2368.659014,8216.285956
3693.643569,689.485948,2738.761985,6661.853478
3693.643883,2451.505594,2368.659014,5773.606348
3693.644198,2451.505594,1258.350101,5699.585753
3693.644512,2528.115143,-0.000000,7476.080014
3693.644827,1991.848295,-1036.288319,9474.636058
3693.645141,306.438199,-1998.556043,11695.253884
3693.645455,-229.828649,-2442.679609,12879.583391
3693.645770,-1378.971896,-2072.576638,13619.789333
3693.646084,-1838.629195,-740.205942,12879.583391
3693.646399,-1532.190996,592.164754,11547.212695
3693.646713,-1455.581446,1628.453072,9104.533087
3693.647027,0.000000,2590.720797,7624.121203
3693.647342,1149.143247,3256.906145,5847.626942
3693.647656,1838.629195,2220.617826,5847.626942
3693.647971,2221.676944,1036.288319,6291.750507
3693.648285,2145.067394,-518.144159,7846.182985
3693.648600,1455.581446,-1702.473667,9548.656652
3693.648914,306.438199,-2368.659014,11991.336260
3693.649228,-842.705048,-2368.659014,13915.871710
3693.649543,-1762.019645,-1924.535449,13249.686362
3693.649857,-1762.019645,-0.000000,12657.521608
3693.650172,-1302.362347,1110.308913,11399.171507
3693.650486,-995.924147,2368.659014,8956.491898
3693.650801,0.000000,3034.844362,7254.018232
3693.651115,995.924147,2738.761985,6069.688724
3693.651429,1838.629195,1554.432478,5921.647536
3693.651744,1991.848295,814.226536,6883.915261
3693.652058,1608.800546,-222.061783,8364.327145
3693.652373,919.314598,-1332.370696,10658.965565
3693.652687,-995.924147,-1850.514855,12731.542202
3693.653002,-1532.190996,-2590.720797,13841.851115
3693.653316,-2221.676944,-1776.494261,13397.727550
3693.653630,-2298.286494,-148.041188,12805.562797
3693.653945,-1685.410096,1406.391290,11177.109724
3693.654259,-1072.533697,2442.679609,8734.430116
3693.654574,0.000000,2960.823768,6809.894666
3693.654888,1608.800546,2590.720797,5625.565159
3693.655202,2298.286494,1924.535449,5329.482782
3693.655517,2451.505594,518.144159,6809.894666
3693.655831,1608.800546,-740.205942,8364.327145
3693.656146,1149.143247,-1702.473667,10066.800811
3693.656460,-306.438199,-2664.741391,12435.459826
3693.656775,-1302.362347,-2590.720797,13619.789333
3693.657089,-2145.067394,-1628.453072,13767.830521
3693.657403,-2145.067394,-0.000000,11843.295072
3693.657718,-1302.362347,1554.432478,11029.068536
3693.658032,-459.657299,2812.782580,8290.306550
3693.658347,612.876398,3330.926739,6143.709319
3693.658661,2068.457845,2886.803174,5477.523971
3693.658976,2528.115143,1628.453072,5551.544565
3693.659290,2298.286494,-0.000000,6957.935855
3693.659604,1991.848295,-1258.350101,8586.388927
3693.659919,919.314598,-2368.659014,10881.027347
3693.660233,-689.485948,-3034.844362,12805.562797
3693.660548,-1608.800546,-2590.720797,13619.789333
3693.660862,-2145.067394,-1554.432478,13175.665768
3693.661177,-1685.410096,-74.020594,12139.377449
3693.661491,-842.705048,962.267725,10214.842000
3693.661805,-229.828649,2368.659014,7772.162391
3693.662120,766.095498,2738.761985,5847.626942
3693.662434,2604.724693,2738.761985,5551.544565
3693.662749,2681.334243,1332.370696,5625.565159
3693.663063,2911.162892,222.061783,7254.018232
3693.663377,1915.238745,-1184.329507,9030.512492
3693.663692,766.095498,-2368.659014,10955.047942
3693.664006,-536.266849,-2960.823768,13101.645173
3693.664321,-1532.190996,-2590.720797,13693.809927
3693.664635,-2221.676944,-888.247130,13471.748144
3693.664950,-2221.676944,444.123565,11695.253884
3693.665264,-1378.971896,1554.432478,9992.780217
3693.665578,76.609550,2516.700203,8068.244768
3693.665893,842.705048,2886.803174,5921.647536
3693.666207,1915.238745,2220.617826,5625.565159
3693.666522,2221.676944,1332.370696,6143.709319
3693.666836,1991.848295,-0.000000,7624.121203
3693.667151,1378.971896,-1480.411884,9252.574275
3693.667465,0.000000,-2442.679609,11843.295072
3693.667779,-1149.143247,-2886.803174,13989.892304
3693.668094,-2298.286494,-2368.659014,13693.809927
3693.668408,-2451.505594,-1110.308913,13027.624579
3693.668723,-2221.676944,444.123565,11473.192101
3693.669037,-1685.410096,1776.494261,9474.636058
3693.669352,-306.438199,2960.823768,7254.018232
3693.669666,995.924147,2664.741391,5921.647536
3693.669980,2298.286494,2072.576638,5773.606348
3693.670295,2451.505594,740.205942,6291.750507
3693.670609,1838.629195,-518.144159,7624.121203
3693.670924,1378.971896,-1850.514855,9696.697840
3693.671238,0.000000,-2368.659014,11991.336260
3693.671552,-919.314598,-2738.761985,13249.686362
3693.671867,-1991.848295,-2294.638420,13397.727550
3693.672181,-2451.505594,-1110.308913,12509.480420
3693.672496,-2145.067394,962.267725,10881.027347
3693.672810,-1149.143247,2294.638420,8882.471304
3693.673125,0.000000,2960.823768,6365.771101
3693.673439,1455.581446,2886.803174,5551.544565
3693.673753,2221.676944,2368.659014,5773.606348
3693.674068,2145.067394,592.164754,6809.894666
3693.674382,2068.457845,-444.123565,8660.409521
3693.674697,995.924147,-1406.391290,9918.759623
3693.675011,-383.047749,-2072.576638,12213.398043
3693.675326,-995.924147,-2590.720797,14211.954086
3693.675640,-1915.238745,-1554.432478,13471.748144
3693.675954,-2068.457845,-518.144159,12361.439231
3693.676269,-1302.362347,1110.308913,11103.089130
3693.676583,-536.266849,2664.741391,8734.430116
3693.676898,306.438199,3478.967927,6587.832884
3693.677212,1455.581446,2886.803174,5773.606348
3693.677526,2604.724693,1850.514855,5551.544565
3693.677841,2757.943793,296.082377,6735.874072
3693.678155,2298.286494,-666.185348,8216.285956
3693.678470,995.924147,-1702.473667,10881.027347
3693.678784,-383.047749,-2294.638420,12583.501014
3693.679099,-1608.800546,-2664.741391,13471.748144
3693.679413,-2068.457845,-1628.453072,13471.748144
3693.679727,-2145.067394,-0.000000,12731.542202
3693.680042,-1149.143247,1480.411884,10807.006753
3693.680356,-536.266849,2812.782580,8438.347739
3693.680671,1072.533697,3627.009116,6661.853478
3693.680985,1991.848295,2886.803174,5477.523971
3693.681300,2528.115143,1850.514855,5773.606348
3693.681614,3294.210641,-0.000000,7179.997637
3693.681928,2681.334243,-1480.411884,8882.471304
3693.682243,995.924147,-1776.494261,11103.089130
3693.682557,76.609550,-2442.679609,12953.603985
3693.682872,-1302.362347,-2368.659014,13249.686362
3693.683186,-1685.410096,-1554.432478,13027.624579
3693.683501,-1608.800546,-74.020594,12509.480420
3693.683815,-1378.971896,1702.473667,10066.800811
3693.684129,0.000000,2664.741391,7994.224174
3693.684444,919.314598,3182.885551,6143.709319
3693.684758,1915.238745,2220.617826,6069.688724
3693.685073,2221.676944,1480.411884,5995.668130
3693.685387,2221.676944,-74.020594,7476.080014
3693.685701,1532.190996,-1036.288319,9548.656652
3693.686016,153.219100,-2146.597232,11843.295072
3693.686330,-919.314598,-2664.741391,13471.748144
3693.686645,-1991.848295,-2220.617826,13693.809927
3693.686959,-2528.115143,-1110.308913,13545.768739
3693.687274,-2298.286494,296.082377,12065.356855
3693.687588,-1685.410096,1406.391290,9992.780217
3693.687902,-229.828649,2590.720797,7550.100608
3693.688217,919.314598,2960.823768,5551.544565
3693.688531,1915.238745,2146.597232,5033.400406
3693.688846,2374.896044,962.267725,5477.523971
3693.689160,2374.896044,-518.144159,7698.141797
3693.689475,1455.581446,-1406.391290,9252.574275
3693.689789,153.219100,-2368.659014,11251.130318
3693.690103,-842.705048,-2812.782580,13101.645173
3693.690418,-1762.019645,-2368.659014,13027.624579
3693.690732,-2374.896044,-1184.329507,12583.501014
3693.691047,-2145.067394,444.123565,11843.295072
3693.691361,-1455.581446,1628.453072,9474.636058
3693.691676,-153.219100,2738.761985,7105.977043
3693.691990,995.924147,2738.761985,5847.626942
3693.692304,1838.629195,1850.514855,5773.606348
3693.692619,2298.286494,888.247130,6143.709319
3693.692933,2145.067394,-296.082377,8068.244768
3693.693248,1302.362347,-1554.432478,9770.718434
3693.693562,0.000000,-2294.638420,11843.295072
3693.693876,-766.095498,-2664.741391,13249.686362
3693.694191,-1532.190996,-1850.514855,13545.768739
3693.694505,-2068.457845,-740.205942,12805.562797
3693.694820,-1378.971896,814.226536,11399.171507
3693.695134,-1149.143247,1702.473667,9474.636058
3693.695449,-689.485948,2960.823768,7254.018232
3693.695763,1149.143247,2590.720797,6143.709319
3693.696077,2298.286494,2220.617826,5773.606348
3693.696392,1991.848295,444.123565,6735.874072
3693.696706,2068.457845,-592.164754,8512.368333
3693.697021,1149.143247,-1258.350101,10214.842000
3693.697335,153.219100,-1998.556043,11621.233289
3693.697650,-383.047749,-2812.782580,13693.809927
3693.697964,-1455.581446,-1776.494261,13619.789333
3693.698278,-1838.629195,-296.082377,12509.480420
3693.698593,-766.095498,1258.350101,11473.192101
3693.698907,-842.705048,2590.720797,8882.471304
3693.699222,306.438199,3330.926739,6735.874072
3693.699536,1762.019645,2960.823768,5477.523971
3693.699851,2528.115143,1998.556043,5625.565159
3693.700165,2451.505594,222.061783,6957.935855
3693.700479,2068.457845,-666.185348,8734.430116
3693.700794,919.314598,-1924.535449,10881.027347
3693.701108,0.000000,-2590.720797,12731.542202
3693.701423,-1225.752797,-2738.761985,13841.851115
3693.701737,-1685.410096,-1184.329507,13323.706956
3693.702051,-1991.848295,-74.020594,12509.480420
3693.702366,-1302.362347,1554.432478,10288.862594
3693.702680,-689.485948,2812.782580,8438.347739
3693.702995,153.219100,3330.926739,6365.771101
3693.703309,2068.457845,2590.720797,5477.523971
3693.703624,2221.676944,1850.514855,5921.647536
3693.703938,2451.505594,222.061783,7105.977043
3693.704252,1838.629195,-814.226536,8660.409521
3693.704567,229.828649,-1702.473667,11029.068536
3693.704881,-919.314598,-2368.659014,12657.521608
3693.705196,-1685.410096,-2442.679609,13471.748144
3693.705510,-2221.676944,-1480.411884,13693.809927
3693.705825,-2298.286494,-0.000000,12139.377449
3693.706139,-1915.238745,1258.350101,10288.862594
3693.706453,-536.266849,2516.700203,7994.224174
3693.706768,612.876398,3404.947333,5921.647536
3693.707082,1685.410096,2960.823768,5699.585753
3693.707397,2145.067394,1406.391290,6069.688724
3693.707711,2681.334243,-370.102971,7920.203579
3693.708026,1608.800546,-1036.288319,9030.512492
3693.708340,229.828649,-2146.597232,11251.130318
3693.708654,-995.924147,-2590.720797,13249.686362
3693.708969,-2145.067394,-2368.659014,13693.809927
3693.709283,-2298.286494,-1258.350101,13175.665768
3693.709598,-2221.676944,148.041188,11917.315666
3693.709912,-1149.143247,1480.411884,9770.718434
3693.710226,-153.219100,2590.720797,7772.162391
3693.710541,919.314598,3182.885551,5921.647536
3693.710855,1991.848295,2368.659014,5403.503377
3693.711170,2221.676944,1554.432478,6143.709319
3693.711484,2374.896044,-0.000000,7550.100608
3693.711799,1762.019645,-1184.329507,9326.594869
3693.712113,0.000000,-2516.700203,11621.233289
3693.712427,-306.438199,-2960.823768,13323.706956
3693.712742,-1455.581446,-2368.659014,13545.768739
3693.713056,-2221.676944,-1258.350101,12879.583391
3693.713371,-2374.896044,444.123565,11769.274478
3693.713685,-1072.533697,1332.370696,9844.739029
3693.714000,0.000000,2590.720797,7476.080014
3693.714314,766.095498,2442.679609,6291.750507
3693.714628,1991.848295,1998.556043,5847.626942
3693.714943,2374.896044,518.144159,6587.832884
3693.715257,1991.848295,-370.102971,7994.224174
3693.715572,1532.190996,-1258.350101,9918.759623
3693.715886,306.438199,-1924.535449,12065.356855
3693.716200,-536.266849,-2368.659014,13175.665768
3693.716515,-1072.533697,-1628.453072,13767.830521
3693.716829,-1915.238745,-296.082377,12879.583391
3693.717144,-1072.533697,1110.308913,11251.130318
3693.717458,-612.876398,2368.659014,8882.471304
3693.717773,153.219100,2960.823768,7031.956449
3693.718087,1378.971896,2590.720797,5847.626942
3693.718401,2528.115143,2146.597232,5847.626942
3693.718716,2221.676944,444.123565,6587.832884
3693.719030,1608.800546,-666.185348,8142.265362
3693.719345,842.705048,-1776.494261,9992.780217
3693.719659,229.828649,-2220.617826,12213.398043
3693.719974,-1302.362347,-2664.741391,13323.706956
3693.720288,-1762.019645,-1406.391290,13101.645173
3693.720602,-1608.800546,-222.061783,12065.356855
3693.720917,-1225.752797,1406.391290,10807.006753
3693.721231,-459.657299,1998.556043,8734.430116
3693.721546,153.219100,3330.926739,6735.874072
3693.721860,1225.752797,2886.803174,5551.544565
3693.722175,2145.067394,1924.535449,6069.688724
3693.722489,1991.848295,222.061783,7031.956449
3693.722803,1302.362347,-1184.329507,8512.368333
3693.723118,459.657299,-1776.494261,11103.089130
3693.723432,-919.314598,-2738.761985,13027.624579
3693.723747,-2145.067394,-2590.720797,13767.830521
3693.724061,-2681.334243,-1628.453072,14063.912898
3693.724375,-2145.067394,-296.082377,12139.377449
3693.724690,-1455.581446,1332.370696,10214.842000
3693.725004,-153.219100,3034.844362,7772.162391
3693.725319,919.314598,3552.988522,5995.668130
3693.725633,2221.676944,2886.803174,5181.441594
3693.725948,2451.505594,1776.494261,5699.585753
3693.726262,2451.505594,74.020594,6957.935855
3693.726576,1685.410096,-740.205942,8364.327145
3693.726892,536.266849,-1776.494261,11103.089130
3693.727207,-459.657299,-2664.741391,13027.624579
3693.727521,-1762.019645,-2368.659014,13471.748144
3693.727836,-2298.286494,-1480.411884,13175.665768
3693.728150,-2145.067394,-74.020594,11769.274478
3693.728465,-1302.362347,1776.494261,10288.862594
3693.728780,-689.485948,2220.617826,8142.265362
3693.729094,383.047749,2960.823768,6735.874072
3693.729409,1762.019645,2812.782580,6513.812290
3693.729723,1915.238745,1776.494261,5773.606348
3693.730038,2221.676944,74.020594,7550.100608
3693.730352,1838.629195,-1110.308913,9252.574275
3693.730667,153.219100,-2146.597232,11769.274478
3693.730981,-689.485948,-2664.741391,12879.583391
3693.731296,-1302.362347,-2294.638420,14137.933492
3693.731610,-1762.019645,-1036.288319,12805.562797
3693.731925,-2221.676944,-0.000000,11991.336260
3693.732239,-1378.971896,1554.432478,9622.677246
3693.732554,0.000000,2664.741391,7402.059420
3693.732868,1072.533697,2812.782580,6143.709319
3693.733183,2145.067394,1850.514855,5625.565159
3693.733497,2987.772442,666.185348,6217.729913
3693.733812,2298.286494,-666.185348,7624.121203
3693.734126,1378.971896,-1628.453072,9474.636058
3693.734441,229.828649,-2516.700203,11473.192101
3693.734755,-766.095498,-2738.761985,12953.603985
3693.735070,-1685.410096,-2516.700203,13545.768739
3693.735384,-1915.238745,-1258.350101,13249.686362
3693.735699,-1532.190996,444.123565,11547.212695
3693.736013,-1225.752797,1628.453072,9474.636058
3693.736328,0.000000,2812.782580,7402.059420
3693.736642,842.705048,2738.761985,6069.688724
3693.736957,2145.067394,2220.617826,5625.565159
3693.737271,2374.896044,592.164754,6069.688724
3693.737586,2068.457845,-666.185348,7476.080014
3693.737900,1378.971896,-1332.370696,9918.759623
3693.738215,-229.828649,-2368.659014,12213.398043
3693.738529,-995.924147,-2886.803174,13471.748144
3693.738844,-1915.238745,-2294.638420,13471.748144
3693.739158,-2221.676944,-1258.350101,12583.501014
3693.739473,-1608.800546,518.144159,11251.130318
3693.739788,-1072.533697,2294.638420,9030.512492
3693.740102,0.000000,3108.864956,7031.956449
3693.740417,995.924147,2738.761985,5403.503377
3693.740731,2145.067394,1998.556043,5699.585753
3693.741046,2451.505594,592.164754,6513.812290
3693.741360,1838.629195,-740.205942,8068.244768
3693.741675,1302.362347,-1554.432478,10214.842000
3693.741989,-383.047749,-2442.679609,11991.336260
3693.742304,-995.924147,-2664.741391,13249.686362
3693.742618,-1915.238745,-1776.494261,13323.706956
3693.742933,-1915.238745,-296.082377,12657.521608
3693.743247,-1302.362347,1184.329507,10881.027347
3693.743562,-612.876398,2516.700203,8438.347739
3693.743876,76.609550,3108.864956,6365.771101
3693.744191,1455.581446,2738.761985,5181.441594
3693.744505,2068.457845,1776.494261,5403.503377
3693.744820,1991.848295,-0.000000,7179.997637
3693.745134,1838.629195,-962.267725,8808.450710
3693.745449,612.876398,-1850.514855,10955.047942
3693.745763,-536.266849,-2442.679609,13471.748144
3693.746078,-1915.238745,-2590.720797,13841.851115
3693.746392,-2145.067394,-1702.473667,13545.768739
3693.746707,-1915.238745,-222.061783,12583.501014
3693.747021,-1225.752797,1776.494261,11029.068536
3693.747336,-383.047749,2960.823768,9104.533087
3693.747650,459.657299,3701.029710,6735.874072
3693.747965,1532.190996,2886.803174,5403.503377
3693.748279,2604.724693,1628.453072,5699.585753
3693.748594,2528.115143,-74.020594,7402.059420
3693.748908,2221.676944,-1036.288319,9030.512492
3693.749223,536.266849,-1850.514855,11177.109724
3693.749537,-612.876398,-2368.659014,12805.562797
3693.749852,-1685.410096,-2442.679609,13619.789333
3693.750166,-2068.457845,-1406.391290,13471.748144
3693.750481,-2068.457845,296.082377,12213.398043
3693.750795,-1455.581446,1776.494261,10214.842000
3693.751110,-229.828649,2812.782580,7476.080014
3693.751425,689.485948,3552.988522,6217.729913
3693.751739,1608.800546,3108.864956,5773.606348
3693.752054,2298.286494,1480.411884,5699.585753
3693.752368,2451.505594,-444.123565,7328.038826
3693.752683,1762.019645,-1332.370696,9104.533087
3693.752997,383.047749,-2146.597232,11251.130318
3693.753312,-1149.143247,-2886.803174,12805.562797
3693.753626,-1685.410096,-2368.659014,14137.933492
3693.753941,-2451.505594,-1480.411884,13027.624579
3693.754255,-1991.848295,296.082377,11547.212695
3693.754570,-995.924147,1480.411884,10066.800811
3693.754884,76.609550,2664.741391,7624.121203
3693.755199,995.924147,3034.844362,5699.585753
3693.755513,2221.676944,2368.659014,5625.565159
3693.755828,2528.115143,1184.329507,6069.688724
3693.756142,2987.772442,-148.041188,7550.100608
3693.756457,2145.067394,-1332.370696,9104.533087
3693.756771,536.266849,-1850.514855,11325.150913
3693.757086,-612.876398,-2590.720797,13101.645173
3693.757400,-1455.581446,-1998.556043,13323.706956
3693.757715,-1991.848295,-1036.288319,12805.562797
3693.758029,-2145.067394,592.164754,11473.192101
3693.758344,-995.924147,1924.535449,9474.636058
3693.758658,-306.438199,2960.823768,7105.977043
3693.758973,766.095498,2886.803174,5921.647536
3693.759287,1762.019645,2294.638420,6143.709319
3693.759602,2145.067394,518.144159,6661.853478
3693.759916,1915.238745,-666.185348,8364.327145
3693.760231,689.485948,-1332.370696,10066.800811
3693.760545,-153.219100,-1850.514855,11917.315666
3693.760860,-1072.533697,-2590.720797,13693.809927
3693.761174,-2374.896044,-1924.535449,14359.995275
3693.761489,-2374.896044,-370.102971,13471.748144
3693.761803,-1685.410096,1184.329507,11177.109724
3693.762118,-1149.143247,2294.638420,9326.594869
3693.762433,0.000000,3775.050304,7105.977043
3693.762747,1608.800546,3182.885551,5403.503377
3693.763062,2145.067394,2146.597232,5181.441594
3693.763376,2451.505594,518.144159,6513.812290
3693.763691,2068.457845,-666.185348,7994.224174
3693.764005,536.266849,-1702.473667,10066.800811
3693.764320,-459.657299,-2442.679609,12287.418637
3693.764634,-1532.190996,-2590.720797,13027.624579
3693.764949,-2221.676944,-1998.556043,12953.603985
3693.765263,-2221.676944,-740.205942,12509.480420
3693.765578,-1455.581446,888.247130,11029.068536
3693.765892,-612.876398,2442.679609,8734.430116
3693.766207,76.609550,3108.864956,6809.894666
3693.766521,1378.971896,2812.782580,5921.647536
3693.766836,2145.067394,1776.494261,6069.688724
