#time,accel_x,accel_y,accel_z
3845.839240,153.219100,-0.000000,9696.697840
3845.839554,-76.609550,222.061783,9622.677246
3845.839869,0.000000,-0.000000,9474.636058
3845.840184,0.000000,-0.000000,9400.615463
3845.840498,0.000000,-0.000000,9770.718434
3845.840813,0.000000,-0.000000,9474.636058
3845.841128,76.609550,-222.061783,9474.636058
3845.841442,0.000000,-0.000000,9548.656652
3845.841757,0.000000,370.102971,9696.697840
3845.842072,306.438199,-0.000000,9696.697840
3845.842386,0.000000,-0.000000,9622.677246
3845.842701,0.000000,296.082377,9474.636058
3845.843015,612.876398,222.061783,9030.512492
3845.843330,229.828649,444.123565,9474.636058
3845.843645,459.657299,222.061783,9696.697840
3845.843959,0.000000,-0.000000,9326.594869
3845.844274,612.876398,-0.000000,9474.636058
3845.844589,76.609550,-0.000000,9622.677246
3845.844903,153.219100,296.082377,9622.677246
3845.845218,0.000000,296.082377,9918.759623
3845.845533,0.000000,370.102971,9696.697840
3845.845847,0.000000,148.041188,9918.759623
3845.846162,229.828649,-148.041188,9474.636058
3845.846477,229.828649,-0.000000,9104.533087
3845.846791,306.438199,-0.000000,9918.759623
3845.847106,153.219100,370.102971,9548.656652
3845.847421,229.828649,296.082377,9918.759623
3845.847735,229.828649,296.082377,9844.739029
3845.848050,383.047749,296.082377,9770.718434
3845.848365,76.609550,296.082377,9622.677246
3845.848679,0.000000,370.102971,9622.677246
3845.848994,153.219100,-0.000000,9770.718434
3845.849309,0.000000,296.082377,9548.656652
3845.849623,0.000000,148.041188,9548.656652
3845.849938,0.000000,-74.020594,9696.697840
3845.850252,0.000000,148.041188,9622.677246
3845.850567,-383.047749,-222.061783,9622.677246
3845.850882,0.000000,-0.000000,9770.718434
3845.851196,76.609550,222.061783,9844.739029
3845.851511,0.000000,296.082377,9696.697840
3845.851826,153.219100,-0.000000,9548.656652
3845.852140,153.219100,296.082377,9918.759623
3845.852455,0.000000,-0.000000,9770.718434
3845.852770,76.609550,296.082377,9622.677246
3845.853084,76.609550,148.041188,9770.718434
3845.853399,0.000000,222.061783,9548.656652
3845.853714,0.000000,-0.000000,9474.636058
3845.854028,76.609550,296.082377,9400.615463
3845.854343,76.609550,-0.000000,9770.718434
3845.854658,0.000000,-0.000000,9474.636058
3845.854972,0.000000,-74.020594,9326.594869
3845.855287,76.609550,-0.000000,9770.718434
3845.855602,76.609550,-0.000000,9474.636058
3845.855916,153.219100,370.102971,9400.615463
3845.856231,0.000000,222.061783,9474.636058
3845.856546,229.828649,-0.000000,9770.718434
3845.856860,306.438199,-0.000000,9252.574275
3845.857175,306.438199,-0.000000,9252.574275
3845.857489,76.609550,296.082377,9770.718434
3845.857804,229.828649,370.102971,9770.718434
3845.858119,306.438199,296.082377,10140.821405
3845.858433,0.000000,370.102971,9844.739029
3845.858748,383.047749,296.082377,9474.636058
3845.859063,229.828649,-0.000000,9400.615463
3845.859377,0.000000,296.082377,9622.677246
3845.859692,229.828649,-0.000000,9548.656652
3845.860007,0.000000,-0.000000,9622.677246
3845.860321,153.219100,-0.000000,9474.636058
3845.860636,0.000000,-0.000000,9474.636058
3845.860951,0.000000,-0.000000,9548.656652
3845.861265,76.609550,-0.000000,9918.759623
3845.861580,0.000000,-0.000000,9548.656652
3845.861895,0.000000,-0.000000,9696.697840
3845.862209,0.000000,222.061783,9474.636058
3845.862524,0.000000,-0.000000,9548.656652
3845.862839,76.609550,-0.000000,9770.718434
3845.863153,229.828649,296.082377,9770.718434
3845.863468,229.828649,-0.000000,9622.677246
3845.863783,76.609550,-0.000000,9474.636058
3845.864097,0.000000,222.061783,9696.697840
3845.864412,0.000000,-0.000000,9252.574275
3845.864726,76.609550,296.082377,9252.574275
3845.865041,383.047749,-0.000000,9770.718434
3845.865356,0.000000,148.041188,9696.697840
3845.865670,0.000000,-0.000000,9474.636058
3845.865985,229.828649,-222.061783,9252.574275
3845.866300,0.000000,-0.000000,9474.636058
3845.866614,383.047749,-74.020594,9696.697840
3845.866929,306.438199,148.041188,9696.697840
3845.867244,536.266849,-74.020594,9844.739029
3845.867558,383.047749,-0.000000,9622.677246
3845.867873,229.828649,518.144159,9400.615463
3845.868188,459.657299,444.123565,9548.656652
3845.868502,689.485948,962.267725,9696.697840
3845.868817,689.485948,962.267725,9030.512492
3845.869132,689.485948,518.144159,9178.553681
3845.869446,842.705048,666.185348,9326.594869
3845.869761,919.314598,518.144159,9474.636058
3845.870076,536.266849,370.102971,9992.780217
3845.870390,689.485948,296.082377,9918.759623
3845.870705,229.828649,370.102971,10140.821405
3845.871020,306.438199,666.185348,9696.697840
3845.871334,689.485948,888.247130,9696.697840
3845.871649,919.314598,814.226536,9844.739029
3845.871963,1225.752797,740.205942,9622.677246
3845.872278,1455.581446,592.164754,9474.636058
3845.872593,1762.019645,740.205942,10066.800811
3845.872907,2221.676944,1110.308913,10066.800811
3845.873222,2298.286494,1554.432478,9622.677246
3845.873537,2911.162892,1628.453072,9474.636058
3845.873851,3217.601092,2220.617826,9252.574275
3845.874166,3447.429741,2368.659014,8512.368333
3845.874481,3524.039291,2368.659014,8438.347739
3845.874795,3600.648841,2516.700203,8586.388927
3845.875110,3600.648841,2220.617826,8882.471304
3845.875425,3753.867940,2368.659014,8660.409521
3845.875739,3217.601092,2146.597232,8734.430116
3845.876054,3140.991542,2146.597232,9474.636058
3845.876369,2757.943793,2368.659014,9696.697840
3845.876683,2987.772442,2294.638420,9030.512492
3845.876998,2757.943793,2812.782580,9252.574275
3845.877313,3140.991542,3256.906145,9622.677246
3845.877627,2757.943793,3478.967927,9400.615463
3845.877942,2911.162892,3478.967927,8808.450710
3845.878257,2987.772442,3627.009116,8882.471304
3845.878571,2528.115143,3997.112087,9326.594869
3845.878886,2528.115143,3849.070898,9696.697840
3845.879200,2145.067394,4071.132681,10288.862594
3845.879515,1838.629195,3849.070898,10436.903782
3845.879830,1532.190996,3701.029710,10732.986159
3845.880144,1455.581446,3627.009116,11177.109724
3845.880459,1149.143247,3330.926739,11769.274478
3845.880774,1455.581446,3627.009116,11621.233289
3845.881088,1608.800546,3923.091493,11103.089130
3845.881403,2145.067394,3701.029710,10807.006753
3845.881718,2374.896044,4071.132681,10066.800811
3845.882032,2604.724693,4367.215058,9696.697840
3845.882347,2681.334243,4145.153275,9844.739029
3845.882662,2834.553343,3997.112087,9696.697840
3845.882976,2451.505594,3775.050304,9474.636058
3845.883291,2374.896044,3108.864956,9400.615463
3845.883606,1991.848295,2960.823768,9622.677246
3845.883920,1685.410096,2664.741391,10214.842000
3845.884235,1532.190996,2516.700203,10066.800811
3845.884550,1685.410096,2664.741391,10214.842000
3845.884864,1762.019645,2664.741391,10288.862594
3845.885179,1225.752797,2812.782580,9770.718434
3845.885494,1838.629195,3108.864956,9918.759623
3845.885808,1762.019645,3330.926739,9400.615463
3845.886123,2221.676944,3330.926739,9548.656652
3845.886437,1915.238745,2886.803174,9178.553681
3845.886752,1838.629195,2294.638420,9548.656652
3845.887067,2298.286494,1776.494261,10214.842000
3845.887381,1838.629195,1480.411884,10288.862594
3845.887696,1915.238745,1554.432478,10584.944971
3845.888011,1608.800546,1628.453072,10288.862594
3845.888325,2068.457845,1628.453072,10288.862594
3845.888640,1838.629195,1332.370696,9918.759623
3845.888955,2221.676944,1850.514855,8882.471304
3845.889269,2604.724693,2146.597232,8808.450710
3845.889584,2911.162892,1850.514855,8142.265362
3845.889899,2757.943793,1850.514855,8438.347739
3845.890213,2681.334243,1702.473667,8216.285956
3845.890528,2911.162892,1332.370696,8512.368333
3845.890843,2987.772442,1110.308913,9030.512492
3845.891157,2451.505594,1184.329507,9252.574275
3845.891472,2068.457845,1110.308913,9326.594869
3845.891787,2221.676944,370.102971,8734.430116
3845.892101,2068.457845,888.247130,9326.594869
3845.892416,1608.800546,518.144159,9548.656652
3845.892731,1685.410096,666.185348,9622.677246
3845.893045,2068.457845,148.041188,10436.903782
3845.893360,2068.457845,888.247130,10288.862594
3845.893674,2068.457845,1480.411884,9696.697840
3845.893989,2604.724693,1850.514855,9548.656652
3845.894304,3294.210641,2294.638420,8882.471304
3845.894618,3907.087040,2442.679609,8808.450710
3845.894933,3447.429741,1998.556043,7994.224174
3845.895248,3600.648841,2294.638420,7920.203579
3845.895562,3140.991542,1332.370696,8438.347739
3845.895877,2374.896044,888.247130,8808.450710
3845.896192,1455.581446,666.185348,9326.594869
3845.896506,459.657299,-148.041188,10436.903782
3845.896821,0.000000,-592.164754,11917.315666
3845.897136,0.000000,-296.082377,11917.315666
3845.897450,-229.828649,370.102971,12065.356855
3845.897765,612.876398,1036.288319,11917.315666
3845.898080,1762.019645,2146.597232,10732.986159
3845.898394,3294.210641,3108.864956,10066.800811
3845.898709,4290.134789,4515.256246,8438.347739
3845.899024,4749.792088,4811.338623,7105.977043
3845.899338,4979.620737,5033.400406,6661.853478
3845.899653,4673.182538,4293.194464,7328.038826
3845.899968,4213.525239,2886.803174,8364.327145
3845.900282,2604.724693,1850.514855,9622.677246
3845.900597,766.095498,962.267725,11103.089130
3845.900911,0.000000,444.123565,11843.295072
3845.901226,-1149.143247,296.082377,12435.459826
3845.901541,-1149.143247,962.267725,11991.336260
3845.901855,-383.047749,2146.597232,10955.047942
3845.902170,459.657299,3256.906145,9474.636058
3845.902485,1455.581446,3775.050304,8216.285956
3845.902799,3907.087040,4589.276840,7624.121203
3845.903114,4749.792088,4441.235652,7624.121203
3845.903429,4673.182538,4293.194464,8586.388927
3845.903743,4060.306139,4071.132681,9104.533087
3845.904058,3140.991542,3775.050304,10584.944971
3845.904373,2681.334243,3552.988522,11103.089130
3845.904687,1991.848295,3478.967927,11103.089130
3845.905002,842.705048,3849.070898,10214.842000
3845.905317,995.924147,3034.844362,10362.883188
3845.905631,1455.581446,2146.597232,10214.842000
3845.905946,1915.238745,2146.597232,9252.574275
3845.906261,2298.286494,2294.638420,8586.388927
3845.906575,2451.505594,2368.659014,8142.265362
3845.906890,2681.334243,2886.803174,8660.409521
3845.907205,3294.210641,2960.823768,9030.512492
3845.907519,3294.210641,3330.926739,8438.347739
3845.907834,2681.334243,3182.885551,8808.450710
3845.908148,2145.067394,2664.741391,10066.800811
3845.908463,1838.629195,1776.494261,11103.089130
3845.908778,1225.752797,1924.535449,11769.274478
3845.909092,1455.581446,1924.535449,11473.192101
3845.909407,1838.629195,2590.720797,10732.986159
3845.909722,2221.676944,3404.947333,10140.821405
3845.910036,2681.334243,4219.173869,8586.388927
3845.910351,3524.039291,3478.967927,7994.224174
3845.910666,3600.648841,3182.885551,8216.285956
3845.910980,3524.039291,2368.659014,8364.327145
3845.911295,2757.943793,1184.329507,9400.615463
3845.911610,2604.724693,296.082377,10732.986159
3845.911924,1915.238745,148.041188,11103.089130
3845.912239,1302.362347,1406.391290,10214.842000
3845.912554,1608.800546,1776.494261,10584.944971
3845.912868,1685.410096,2294.638420,10807.006753
3845.913183,2068.457845,2738.761985,9474.636058
3845.913498,3064.381992,3256.906145,8512.368333
3845.913813,3064.381992,3701.029710,7994.224174
3845.914127,3447.429741,2886.803174,7846.182985
3845.914442,3217.601092,2220.617826,8142.265362
3845.914757,2681.334243,1628.453072,8586.388927
3845.915072,2528.115143,814.226536,10214.842000
3845.915387,1608.800546,962.267725,10955.047942
3845.915702,842.705048,962.267725,11473.192101
3845.916017,229.828649,740.205942,11621.233289
3845.916331,-536.266849,1406.391290,11029.068536
3845.916646,0.000000,1406.391290,10436.903782
3845.916961,1149.143247,1036.288319,10288.862594
3845.917276,1915.238745,1850.514855,10066.800811
3845.917591,2451.505594,2294.638420,9178.553681
3845.917906,3600.648841,2294.638420,8512.368333
3845.918220,3983.696590,2960.823768,7476.080014
3845.918535,4213.525239,3256.906145,7476.080014
3845.918850,4213.525239,2072.576638,7772.162391
3845.919165,2911.162892,888.247130,9104.533087
3845.919480,1225.752797,-0.000000,9770.718434
3845.919795,229.828649,-370.102971,10955.047942
3845.920110,-536.266849,518.144159,10584.944971
3845.920424,-536.266849,592.164754,10881.027347
3845.920739,766.095498,666.185348,10807.006753
3845.921054,1455.581446,1036.288319,10510.924376
3845.921369,1149.143247,1628.453072,10288.862594
3845.921684,1915.238745,2146.597232,9474.636058
3845.921999,2834.553343,3997.112087,8660.409521
3845.922313,3600.648841,3330.926739,8216.285956
3845.922628,4826.401637,3478.967927,8290.306550
3845.922943,4596.572988,2368.659014,8438.347739
3845.923258,3907.087040,1850.514855,9178.553681
3845.923573,2374.896044,1554.432478,9844.739029
3845.923888,536.266849,1850.514855,10362.883188
3845.924203,842.705048,1480.411884,10288.862594
3845.924517,689.485948,1258.350101,9770.718434
3845.924832,306.438199,1406.391290,10436.903782
3845.925147,153.219100,1036.288319,9992.780217
3845.925462,153.219100,1554.432478,9252.574275
3845.925777,383.047749,1628.453072,8586.388927
3845.926092,2298.286494,1554.432478,9178.553681
3845.926406,2911.162892,1998.556043,9252.574275
3845.926721,2145.067394,1554.432478,9770.718434
3845.927036,1302.362347,2294.638420,9622.677246
3845.927351,919.314598,2960.823768,9770.718434
3845.927666,919.314598,2664.741391,10584.944971
3845.927981,1762.019645,2294.638420,10955.047942
3845.928296,1072.533697,2442.679609,9992.780217
3845.928610,612.876398,1332.370696,10732.986159
3845.928925,536.266849,2146.597232,9104.533087
3845.929240,536.266849,2146.597232,8882.471304
3845.929555,1532.190996,1776.494261,9030.512492
3845.929870,1455.581446,740.205942,9104.533087
3845.930185,919.314598,444.123565,8808.450710
3845.930499,689.485948,-0.000000,9252.574275
3845.930814,0.000000,814.226536,8142.265362
3845.931129,76.609550,-222.061783,11695.253884
3845.931444,153.219100,888.247130,10732.986159
3845.931759,0.000000,1036.288319,10732.986159
3845.932074,0.000000,1998.556043,10436.903782
3845.932389,-689.485948,2368.659014,9918.759623
3845.932703,229.828649,1406.391290,9622.677246
3845.933018,1838.629195,1776.494261,9918.759623
3845.933333,1455.581446,2146.597232,8734.430116
3845.933648,1225.752797,1702.473667,8956.491898
3845.933963,842.705048,1036.288319,8956.491898
3845.934278,919.314598,-148.041188,9474.636058
3845.934592,919.314598,-222.061783,10288.862594
3845.934907,-383.047749,-0.000000,9918.759623
3845.935222,-1149.143247,-74.020594,9844.739029
3845.935537,-1378.971896,296.082377,9474.636058
3845.935852,-1378.971896,-518.144159,9696.697840
3845.936167,-766.095498,-1184.329507,9844.739029
3845.936482,-536.266849,-888.247130,8734.430116
3845.936796,-689.485948,-888.247130,9474.636058
3845.937111,612.876398,-0.000000,9474.636058
3845.937426,612.876398,592.164754,8734.430116
3845.937741,1072.533697,-74.020594,8734.430116
3845.938056,1302.362347,74.020594,9104.533087
3845.938371,1225.752797,-592.164754,10288.862594
3845.938685,0.000000,-0.000000,10066.800811
3845.939000,0.000000,-444.123565,9696.697840
3845.939315,842.705048,-1036.288319,10510.924376
3845.939630,-153.219100,-0.000000,9030.512492
3845.939945,-536.266849,-0.000000,9548.656652
3845.940260,-1072.533697,-1258.350101,10140.821405
3845.940575,-536.266849,-1628.453072,9104.533087
3845.940889,536.266849,-1480.411884,9622.677246
3845.941204,459.657299,-1258.350101,8586.388927
3845.941519,612.876398,-1184.329507,9770.718434
3845.941834,306.438199,-1554.432478,9326.594869
3845.942149,0.000000,-1036.288319,9474.636058
3845.942464,766.095498,-1036.288319,9622.677246
3845.942778,383.047749,-1110.308913,10214.842000
3845.943093,306.438199,-148.041188,9474.636058
3845.943408,0.000000,666.185348,9696.697840
3845.943723,-842.705048,740.205942,9104.533087
3845.944038,306.438199,-370.102971,10066.800811
3845.944353,459.657299,-740.205942,9622.677246
3845.944668,0.000000,-814.226536,9918.759623
3845.944982,-689.485948,-592.164754,9770.718434
3845.945297,-842.705048,-444.123565,9696.697840
3845.945612,-383.047749,-1110.308913,10362.883188
3845.945927,383.047749,-1258.350101,9918.759623
3845.946242,0.000000,-1036.288319,10066.800811
3845.946557,-1302.362347,-1036.288319,10362.883188
3845.946871,-1378.971896,-518.144159,9770.718434
3845.947186,-459.657299,-592.164754,9474.636058
3845.947501,459.657299,-222.061783,9252.574275
3845.947816,76.609550,222.061783,8734.430116
3845.948131,306.438199,-0.000000,8956.491898
3845.948446,0.000000,666.185348,8068.244768
3845.948761,383.047749,-74.020594,8808.450710
3845.949075,842.705048,-0.000000,9178.553681
3845.949390,306.438199,-0.000000,9474.636058
3845.949705,-612.876398,-0.000000,10140.821405
3845.950020,-766.095498,-0.000000,9474.636058
3845.950335,-612.876398,-0.000000,9770.718434
3845.950650,-766.095498,-518.144159,10584.944971
3845.950964,-459.657299,222.061783,10214.842000
3845.951279,-1072.533697,888.247130,10066.800811
3845.951594,-1149.143247,1998.556043,9178.553681
3845.951909,-229.828649,1184.329507,8290.306550
3845.952224,1149.143247,740.205942,8808.450710
3845.952539,1225.752797,962.267725,9178.553681
3845.952854,76.609550,1184.329507,9770.718434
3845.953168,459.657299,1110.308913,8956.491898
3845.953483,306.438199,962.267725,8882.471304
3845.953798,842.705048,518.144159,9844.739029
3845.954113,612.876398,1332.370696,9696.697840
3845.954428,-689.485948,1110.308913,10732.986159
3845.954743,-842.705048,1406.391290,9918.759623
3845.955057,-842.705048,1702.473667,9548.656652
3845.955372,536.266849,1110.308913,9770.718434
3845.955687,536.266849,666.185348,9844.739029
3845.956002,842.705048,962.267725,10658.965565
3845.956317,153.219100,1036.288319,10066.800811
3845.956632,306.438199,1850.514855,9474.636058
3845.956947,1302.362347,1332.370696,10584.944971
3845.957261,1225.752797,1184.329507,9992.780217
3845.957576,689.485948,1258.350101,10510.924376
3845.957891,536.266849,1184.329507,10510.924376
3845.958206,306.438199,1258.350101,9548.656652
3845.958521,919.314598,666.185348,9918.759623
3845.958836,1685.410096,592.164754,9918.759623
3845.959150,919.314598,592.164754,9844.739029
3845.959465,76.609550,-0.000000,9548.656652
3845.959780,229.828649,296.082377,9474.636058
3845.960095,766.095498,-296.082377,9548.656652
3845.960410,1072.533697,-518.144159,9548.656652
3845.960725,229.828649,-148.041188,9770.718434
3845.961040,-306.438199,296.082377,9696.697840
3845.961354,-689.485948,-148.041188,9474.636058
3845.961669,0.000000,-666.185348,9696.697840
3845.961984,612.876398,-444.123565,9770.718434
3845.962299,536.266849,370.102971,9548.656652
3845.962614,0.000000,370.102971,9400.615463
3845.962929,0.000000,814.226536,8734.430116
3845.963243,919.314598,-444.123565,9474.636058
3845.963558,1455.581446,-296.082377,9326.594869
3845.963873,689.485948,-370.102971,9474.636058
3845.964188,-153.219100,-74.020594,9104.533087
3845.964503,-459.657299,-0.000000,9178.553681
3845.964818,-536.266849,-740.205942,9252.574275
3845.965133,229.828649,-962.267725,9548.656652
3845.965447,-536.266849,-1184.329507,9918.759623
3845.965762,-842.705048,-370.102971,9400.615463
3845.966077,-1455.581446,-666.185348,9030.512492
3845.966392,-766.095498,-592.164754,9104.533087
3845.966707,459.657299,-296.082377,10436.903782
3845.967022,229.828649,-0.000000,9400.615463
3845.967336,-383.047749,444.123565,8808.450710
3845.967651,-842.705048,370.102971,9400.615463
3845.967966,-689.485948,-74.020594,9252.574275
3845.968281,0.000000,-592.164754,9474.636058
3845.968596,229.828649,-666.185348,9474.636058
3845.968911,-536.266849,-814.226536,10214.842000
3845.969226,-1532.190996,-444.123565,9770.718434
3845.969540,-1302.362347,-666.185348,9918.759623
3845.969855,-919.314598,-888.247130,9770.718434
3845.970170,-612.876398,-592.164754,9992.780217
3845.970485,-689.485948,-666.185348,9918.759623
3845.970800,-766.095498,-0.000000,9400.615463
3845.971115,0.000000,-370.102971,8882.471304
3845.971429,612.876398,-296.082377,8808.450710
3845.971744,1302.362347,-0.000000,8808.450710
3845.972059,1072.533697,-0.000000,9400.615463
3845.972374,612.876398,296.082377,9104.533087
3845.972689,995.924147,-0.000000,8956.491898
3845.973004,995.924147,-592.164754,9696.697840
3845.973319,919.314598,-814.226536,10140.821405
3845.973633,76.609550,-518.144159,10362.883188
3845.973948,-689.485948,-0.000000,10436.903782
3845.974263,-995.924147,592.164754,10214.842000
3845.974578,0.000000,-0.000000,10066.800811
3845.974893,1149.143247,-0.000000,9622.677246
3845.975208,842.705048,1110.308913,10214.842000
3845.975522,383.047749,1332.370696,9474.636058
3845.975837,306.438199,1258.350101,9400.615463
3845.976152,1532.190996,444.123565,9992.780217
3845.976467,1991.848295,444.123565,9918.759623
3845.976782,1149.143247,1110.308913,10362.883188
3845.977097,229.828649,888.247130,9918.759623
3845.977412,153.219100,962.267725,9844.739029
3845.977726,766.095498,1406.391290,9474.636058
3845.978041,1378.971896,1110.308913,9326.594869
3845.978356,995.924147,1036.288319,9104.533087
3845.978671,383.047749,740.205942,10066.800811
3845.978986,-383.047749,1036.288319,9178.553681
3845.979301,0.000000,-148.041188,9326.594869
3845.979615,842.705048,-666.185348,9474.636058
3845.979930,229.828649,-444.123565,10066.800811
3845.980245,-459.657299,-0.000000,10881.027347
3845.980560,-1149.143247,1258.350101,9770.718434
3845.980875,-689.485948,1110.308913,9252.574275
3845.981190,536.266849,1184.329507,10510.924376
3845.981505,919.314598,962.267725,9474.636058
3845.981819,612.876398,1406.391290,9326.594869
3845.982134,153.219100,1110.308913,9474.636058
3845.982449,383.047749,592.164754,9474.636058
3845.982764,1072.533697,518.144159,9992.780217
3845.983079,383.047749,518.144159,9696.697840
3845.983394,-459.657299,814.226536,9696.697840
3845.983708,-1225.752797,740.205942,9992.780217
3845.984023,-766.095498,444.123565,8956.491898
3845.984338,153.219100,-444.123565,9474.636058
3845.984653,-459.657299,-296.082377,9548.656652
3845.984968,-1225.752797,-0.000000,9918.759623
3845.985283,-1608.800546,222.061783,9326.594869
3845.985598,-306.438199,-0.000000,8586.388927
3845.985912,153.219100,-74.020594,9992.780217
3845.986227,459.657299,296.082377,9474.636058
3845.986542,306.438199,814.226536,9548.656652
3845.986857,-766.095498,1850.514855,9326.594869
3845.987172,-459.657299,814.226536,9474.636058
3845.987487,689.485948,444.123565,9844.739029
3845.987801,1302.362347,370.102971,9326.594869
3845.988116,76.609550,370.102971,10140.821405
3845.988431,-536.266849,592.164754,9770.718434
3845.988746,-689.485948,518.144159,9548.656652
3845.989061,153.219100,-0.000000,9400.615463
3845.989376,0.000000,-148.041188,9622.677246
3845.989691,0.000000,-148.041188,9844.739029
3845.990005,-612.876398,-370.102971,9770.718434
3845.990320,-612.876398,-444.123565,9474.636058
3845.990635,76.609550,-1110.308913,9770.718434
3845.990950,612.876398,-592.164754,9770.718434
3845.991265,153.219100,-444.123565,9696.697840
3845.991580,383.047749,-0.000000,9622.677246
3845.991894,153.219100,-0.000000,9252.574275
3845.992209,842.705048,222.061783,9104.533087
3845.992524,1608.800546,-148.041188,9252.574275
3845.992839,766.095498,-0.000000,10140.821405
3845.993154,76.609550,-592.164754,10066.800811
3845.993469,0.000000,-592.164754,9992.780217
3845.993784,919.314598,-1036.288319,9992.780217
3845.994098,1608.800546,-1702.473667,9918.759623
3845.994413,229.828649,-592.164754,10288.862594
3845.994728,-153.219100,-74.020594,9548.656652
3845.995043,0.000000,-740.205942,9548.656652
3845.995358,536.266849,-518.144159,9400.615463
3845.995673,1149.143247,-1036.288319,9622.677246
3845.995987,689.485948,-222.061783,9104.533087
3845.996302,153.219100,-148.041188,9030.512492
3845.996617,229.828649,-0.000000,8956.491898
3845.996932,536.266849,-148.041188,9252.574275
3845.997247,1838.629195,-74.020594,9104.533087
3845.997562,842.705048,-148.041188,9622.677246
3845.997877,0.000000,-148.041188,9548.656652
3845.998191,-536.266849,-148.041188,9622.677246
3845.998506,-383.047749,-148.041188,9474.636058
3845.998821,0.000000,-1184.329507,9548.656652
3845.999136,-383.047749,-444.123565,9992.780217
3845.999451,-766.095498,-148.041188,9696.697840
3845.999766,-1225.752797,-0.000000,9622.677246
3846.000080,-1072.533697,370.102971,9622.677246
3846.000395,0.000000,444.123565,9400.615463
3846.000710,612.876398,962.267725,9252.574275
3846.001025,-306.438199,1036.288319,9400.615463
3846.001340,-612.876398,222.061783,9030.512492
3846.001655,-383.047749,-0.000000,9252.574275
3846.001970,919.314598,-148.041188,9474.636058
3846.002284,459.657299,370.102971,9400.615463
3846.002599,0.000000,1184.329507,9400.615463
3846.002914,-383.047749,1554.432478,8882.471304
3846.003229,-612.876398,1406.391290,8660.409521
3846.003544,0.000000,-370.102971,10214.842000
3846.003859,459.657299,148.041188,9770.718434
3846.004173,-153.219100,666.185348,10214.842000
3846.004488,-1225.752797,666.185348,9548.656652
3846.004803,-766.095498,-0.000000,9844.739029
3846.005118,0.000000,-444.123565,9770.718434
3846.005433,0.000000,-370.102971,10288.862594
3846.005748,-459.657299,666.185348,10288.862594
3846.006063,-689.485948,1036.288319,10510.924376
3846.006377,-229.828649,1702.473667,9844.739029
3846.006692,919.314598,740.205942,10140.821405
3846.007007,1225.752797,888.247130,9622.677246
3846.007322,1072.533697,666.185348,9474.636058
3846.007637,612.876398,592.164754,10066.800811
3846.007952,306.438199,740.205942,9770.718434
3846.008266,995.924147,888.247130,9252.574275
3846.008581,1762.019645,-74.020594,8956.491898
3846.008896,919.314598,370.102971,9696.697840
3846.009211,306.438199,-222.061783,9696.697840
3846.009526,-842.705048,-444.123565,9474.636058
3846.009841,0.000000,-0.000000,9918.759623
3846.010156,612.876398,-0.000000,9992.780217
3846.010470,766.095498,-0.000000,10066.800811
3846.010785,229.828649,444.123565,10584.944971
3846.011100,-306.438199,1110.308913,9696.697840
3846.011415,0.000000,1110.308913,9770.718434
3846.011730,1225.752797,740.205942,9474.636058
3846.012045,1455.581446,1480.411884,9400.615463
3846.012359,1072.533697,1554.432478,9178.553681
3846.012674,536.266849,666.185348,8142.265362
3846.012989,1072.533697,-370.102971,9104.533087
3846.013304,995.924147,-370.102971,9474.636058
3846.013619,459.657299,-148.041188,9030.512492
3846.013934,-153.219100,-296.082377,9548.656652
3846.014255,-1149.143247,-0.000000,9770.718434
3846.014570,-766.095498,-0.000000,9030.512492
3846.014884,306.438199,-1776.494261,10066.800811
3846.015199,76.609550,-148.041188,9992.780217
3846.015514,-995.924147,222.061783,9548.656652
3846.015829,-995.924147,-0.000000,9474.636058
3846.016144,-383.047749,-0.000000,9178.553681
3846.016459,612.876398,-0.000000,9992.780217
3846.016774,919.314598,-0.000000,9696.697840
3846.017089,612.876398,592.164754,9844.739029
3846.017404,-459.657299,370.102971,10066.800811
3846.017718,-536.266849,296.082377,10140.821405
3846.018033,0.000000,-444.123565,10140.821405
3846.018348,459.657299,-666.185348,10066.800811
3846.018663,0.000000,-740.205942,10584.944971
3846.018978,-766.095498,-222.061783,10288.862594
3846.019293,-1149.143247,-370.102971,9696.697840
3846.019608,0.000000,-1110.308913,9770.718434
3846.019923,0.000000,-814.226536,9622.677246
3846.020238,-306.438199,-0.000000,9696.697840
3846.020552,-612.876398,-0.000000,9622.677246
3846.020867,-536.266849,-74.020594,9474.636058
3846.021182,383.047749,-666.185348,9474.636058
3846.021497,689.485948,-444.123565,9474.636058
3846.021812,153.219100,296.082377,9474.636058
3846.022127,-229.828649,-0.000000,9770.718434
3846.022442,-459.657299,296.082377,9622.677246
3846.022757,0.000000,296.082377,9474.636058
3846.023072,612.876398,-444.123565,9844.739029
3846.023387,0.000000,222.061783,9474.636058
3846.023701,-995.924147,-0.000000,9400.615463
3846.024016,-995.924147,-148.041188,9474.636058
3846.024331,0.000000,-1258.350101,9918.759623
3846.024646,612.876398,-814.226536,9696.697840
3846.024961,153.219100,-222.061783,9696.697840
3846.025276,0.000000,666.185348,9326.594869
3846.025591,-612.876398,518.144159,8438.347739
3846.025906,306.438199,-148.041188,9104.533087
3846.026221,1532.190996,-296.082377,9252.574275
3846.026535,995.924147,-0.000000,9400.615463
3846.026850,153.219100,518.144159,8956.491898
3846.027165,0.000000,666.185348,8734.430116
3846.027480,919.314598,518.144159,8956.491898
3846.027795,1532.190996,-0.000000,9992.780217
3846.028110,995.924147,740.205942,9548.656652
3846.028425,766.095498,814.226536,9474.636058
3846.028740,-229.828649,296.082377,9252.574275
3846.029055,0.000000,740.205942,9030.512492
3846.029369,766.095498,-222.061783,9548.656652
3846.029684,229.828649,-0.000000,9696.697840
3846.029999,-383.047749,-0.000000,10214.842000
3846.030314,-919.314598,222.061783,9548.656652
3846.030629,-383.047749,518.144159,9622.677246
3846.030944,919.314598,296.082377,10214.842000
3846.031259,536.266849,1184.329507,10140.821405
3846.031574,153.219100,1480.411884,9474.636058
3846.031889,0.000000,1110.308913,9178.553681
3846.032203,229.828649,888.247130,9326.594869
3846.032518,766.095498,666.185348,9696.697840
3846.032833,612.876398,148.041188,9918.759623
3846.033148,0.000000,518.144159,9992.780217
3846.033463,-536.266849,814.226536,9696.697840
3846.033778,-766.095498,148.041188,10584.944971
3846.034093,0.000000,-370.102971,11325.150913
3846.034408,0.000000,-0.000000,10732.986159
3846.034723,-306.438199,1036.288319,9770.718434
3846.035037,-612.876398,814.226536,10362.883188
3846.035352,-229.828649,1036.288319,9474.636058
3846.035667,919.314598,518.144159,9178.553681
3846.035982,1685.410096,814.226536,9844.739029
3846.036297,689.485948,1184.329507,9030.512492
3846.036612,229.828649,1184.329507,9548.656652
3846.036927,76.609550,666.185348,9696.697840
3846.037242,0.000000,-296.082377,9696.697840
3846.037557,383.047749,-666.185348,10732.986159
3846.037871,-306.438199,-518.144159,9992.780217
3846.038186,-919.314598,-148.041188,10807.006753
3846.038501,-995.924147,1258.350101,10288.862594
3846.038816,0.000000,-0.000000,9104.533087
3846.039131,459.657299,296.082377,8808.450710
3846.039446,306.438199,-222.061783,9696.697840
3846.039761,536.266849,222.061783,8882.471304
3846.040076,0.000000,-0.000000,9400.615463
3846.040391,536.266849,-296.082377,9696.697840
3846.040706,766.095498,-0.000000,9770.718434
3846.041020,-229.828649,370.102971,9252.574275
3846.041335,-766.095498,-0.000000,10436.903782
3846.041650,-1608.800546,222.061783,9326.594869
3846.041965,-995.924147,-1258.350101,9918.759623
3846.042280,0.000000,-1554.432478,10140.821405
3846.042595,76.609550,-1036.288319,9770.718434
3846.042910,-612.876398,-296.082377,9696.697840
3846.043225,-459.657299,-0.000000,9400.615463
3846.043540,383.047749,-148.041188,9252.574275
3846.043854,1149.143247,-222.061783,8734.430116
3846.044169,1378.971896,444.123565,8364.327145
3846.044484,766.095498,-0.000000,9400.615463
3846.044799,0.000000,444.123565,8660.409521
3846.045114,229.828649,-74.020594,8586.388927
3846.045429,995.924147,-296.082377,8734.430116
3846.045744,459.657299,-814.226536,9400.615463
3846.046059,-383.047749,-666.185348,9548.656652
3846.046374,-612.876398,-814.226536,9474.636058
3846.046688,-612.876398,-0.000000,9178.553681
3846.047003,76.609550,-1036.288319,9548.656652
3846.047318,229.828649,-222.061783,9178.553681
3846.047633,-459.657299,-222.061783,10584.944971
3846.047948,-383.047749,148.041188,9696.697840
3846.048263,0.000000,-0.000000,10140.821405
3846.048578,1149.143247,-0.000000,9104.533087
3846.048893,1608.800546,222.061783,9474.636058
3846.049208,995.924147,740.205942,8956.491898
3846.049522,76.609550,1036.288319,9474.636058
3846.049837,0.000000,740.205942,9030.512492
3846.050152,842.705048,-0.000000,9326.594869
3846.050467,995.924147,-0.000000,9696.697840
3846.050782,153.219100,-0.000000,10584.944971
3846.051097,-766.095498,-0.000000,10436.903782
3846.051412,-1225.752797,-444.123565,9918.759623
3846.051727,-306.438199,-222.061783,10288.862594
3846.052042,306.438199,-222.061783,10066.800811
3846.052356,0.000000,222.061783,10066.800811
3846.052671,-153.219100,740.205942,9474.636058
3846.052986,0.000000,888.247130,8808.450710
3846.053301,919.314598,518.144159,9770.718434
3846.053616,842.705048,296.082377,9844.739029
3846.053931,919.314598,-0.000000,10584.944971
3846.054246,-383.047749,222.061783,10732.986159
3846.054561,-383.047749,666.185348,10214.842000
3846.054876,459.657299,370.102971,9400.615463
3846.055190,1225.752797,-222.061783,9622.677246
3846.055505,0.000000,888.247130,9474.636058
3846.055820,-383.047749,740.205942,9326.594869
3846.056135,-919.314598,666.185348,7920.203579
3846.056450,153.219100,-222.061783,8734.430116
3846.056765,1915.238745,-1628.453072,9474.636058
3846.057080,306.438199,-0.000000,9474.636058
3846.057395,-1455.581446,592.164754,10510.924376
3846.057710,-995.924147,666.185348,9474.636058
3846.058025,0.000000,370.102971,9844.739029
3846.058339,2068.457845,740.205942,9474.636058
3846.058654,919.314598,370.102971,8808.450710
3846.058969,0.000000,962.267725,9474.636058
3846.059284,-229.828649,962.267725,9992.780217
3846.059599,229.828649,1184.329507,8734.430116
3846.059914,1302.362347,-0.000000,10362.883188
3846.060229,842.705048,592.164754,9474.636058
3846.060544,0.000000,-0.000000,10214.842000
3846.060859,-612.876398,1184.329507,8882.471304
3846.061173,-383.047749,444.123565,9696.697840
3846.061488,0.000000,-0.000000,9622.677246
3846.061803,76.609550,-0.000000,9178.553681
3846.062118,-229.828649,-0.000000,9918.759623
3846.062433,-689.485948,-0.000000,9252.574275
3846.062748,-306.438199,296.082377,9030.512492
3846.063063,229.828649,-148.041188,9474.636058
3846.063378,459.657299,-0.000000,10214.842000
3846.063693,0.000000,370.102971,10658.965565
3846.064007,-306.438199,962.267725,9474.636058
3846.064322,0.000000,666.185348,9548.656652
3846.064637,842.705048,592.164754,9622.677246
3846.064952,612.876398,222.061783,10066.800811
3846.065267,-229.828649,370.102971,9474.636058
3846.065582,-536.266849,-222.061783,10140.821405
3846.065897,0.000000,-666.185348,9400.615463
3846.066212,459.657299,-592.164754,9844.739029
3846.066527,383.047749,-444.123565,10066.800811
3846.066841,-153.219100,-222.061783,10140.821405
3846.067156,-689.485948,444.123565,10066.800811
3846.067471,-689.485948,592.164754,9622.677246
3846.067786,383.047749,-370.102971,9770.718434
3846.068101,1608.800546,-370.102971,9844.739029
3846.068416,1149.143247,-0.000000,9474.636058
3846.068731,306.438199,518.144159,9622.677246
3846.069046,612.876398,518.144159,9474.636058
3846.069361,306.438199,-0.000000,9474.636058
3846.069675,995.924147,222.061783,9474.636058
3846.069990,842.705048,-74.020594,10066.800811
3846.070305,-459.657299,-518.144159,10140.821405
3846.070620,-842.705048,-74.020594,10214.842000
3846.070935,0.000000,-518.144159,9992.780217
3846.071250,0.000000,-592.164754,9844.739029
3846.071565,0.000000,-370.102971,10140.821405
3846.071880,-383.047749,-222.061783,10214.842000
3846.072195,0.000000,222.061783,9770.718434
3846.072509,306.438199,74.020594,9030.512492
3846.072824,842.705048,-0.000000,8808.450710
3846.073139,1072.533697,-0.000000,9030.512492
3846.073454,306.438199,-0.000000,9326.594869
3846.073769,0.000000,222.061783,9178.553681
3846.074084,0.000000,-814.226536,9918.759623
3846.074399,689.485948,-518.144159,9992.780217
3846.074714,-153.219100,-0.000000,9178.553681
3846.075029,-689.485948,-148.041188,9696.697840
3846.075344,-612.876398,222.061783,9400.615463
3846.075658,0.000000,-666.185348,9178.553681
3846.075973,306.438199,-296.082377,8956.491898
3846.076288,459.657299,-296.082377,9474.636058
3846.076603,76.609550,-0.000000,8586.388927
3846.076918,0.000000,-0.000000,9178.553681
3846.077233,-306.438199,518.144159,9326.594869
3846.077548,459.657299,-370.102971,9474.636058
3846.077863,306.438199,370.102971,9252.574275
3846.078178,229.828649,-0.000000,9548.656652
3846.078492,-612.876398,148.041188,9548.656652
3846.078807,-919.314598,-74.020594,9548.656652
3846.079122,0.000000,-222.061783,9548.656652
3846.079437,0.000000,-0.000000,9622.677246
3846.079752,0.000000,370.102971,9548.656652
3846.080067,-1072.533697,518.144159,9844.739029
3846.080382,-919.314598,518.144159,10140.821405
3846.080697,0.000000,296.082377,9918.759623
3846.081012,459.657299,888.247130,9104.533087
3846.081326,306.438199,444.123565,9696.697840
3846.081641,0.000000,814.226536,9770.718434
3846.081956,-229.828649,1258.350101,9400.615463
3846.082271,612.876398,962.267725,9400.615463
3846.082586,1149.143247,814.226536,9696.697840
3846.082901,536.266849,740.205942,10510.924376
3846.083216,76.609550,666.185348,10732.986159
3846.083531,0.000000,888.247130,9548.656652
3846.083846,459.657299,444.123565,9992.780217
3846.084160,995.924147,592.164754,10288.862594
3846.084475,306.438199,814.226536,10288.862594
3846.084790,-383.047749,592.164754,10510.924376
3846.085105,0.000000,814.226536,10140.821405
3846.085420,612.876398,592.164754,9474.636058
3846.085735,1149.143247,592.164754,9696.697840
3846.086050,1225.752797,740.205942,9844.739029
3846.086365,0.000000,740.205942,10732.986159
3846.086680,0.000000,888.247130,9844.739029
3846.086994,383.047749,-0.000000,9696.697840
3846.087309,1302.362347,-0.000000,9696.697840
3846.087624,612.876398,370.102971,10214.842000
3846.087939,0.000000,592.164754,10140.821405
3846.088254,-459.657299,370.102971,9474.636058
3846.088569,76.609550,-0.000000,9400.615463
3846.088884,1072.533697,-740.205942,9474.636058
3846.089199,766.095498,-592.164754,9474.636058
3846.089514,459.657299,-370.102971,9770.718434
3846.089829,0.000000,222.061783,9104.533087
3846.090143,153.219100,-222.061783,8882.471304
3846.090458,766.095498,-814.226536,9400.615463
3846.090773,536.266849,-444.123565,9548.656652
3846.091088,229.828649,-370.102971,9548.656652
3846.091403,-689.485948,222.061783,9104.533087
3846.091718,459.657299,-296.082377,9030.512492
3846.092033,1378.971896,-592.164754,9178.553681
3846.092348,766.095498,-74.020594,9252.574275
3846.092663,153.219100,222.061783,9400.615463
3846.092977,-766.095498,-0.000000,8808.450710
3846.093292,-153.219100,-444.123565,9252.574275
3846.093607,536.266849,-740.205942,9548.656652
3846.093922,76.609550,-444.123565,9548.656652
3846.094237,-1072.533697,-222.061783,9696.697840
3846.094552,-1302.362347,-222.061783,9844.739029
3846.094867,-1149.143247,-222.061783,9252.574275
3846.095182,-306.438199,-0.000000,9252.574275
3846.095497,-229.828649,296.082377,8142.265362
3846.095811,0.000000,-222.061783,9696.697840
3846.096126,-612.876398,962.267725,9474.636058
3846.096441,-919.314598,370.102971,8364.327145
3846.096756,0.000000,-666.185348,9696.697840
3846.097071,0.000000,-518.144159,9992.780217
3846.097386,-383.047749,296.082377,9400.615463
3846.097701,-1149.143247,-74.020594,9474.636058
3846.098016,-612.876398,296.082377,10140.821405
3846.098331,-229.828649,222.061783,9770.718434
3846.098645,76.609550,-0.000000,9400.615463
3846.098960,-536.266849,296.082377,9770.718434
3846.099275,-536.266849,-0.000000,10140.821405
3846.099590,0.000000,-222.061783,9326.594869
3846.099905,153.219100,-148.041188,9696.697840
3846.100220,766.095498,370.102971,9844.739029
3846.100535,153.219100,-592.164754,10436.903782
3846.100850,-153.219100,518.144159,10066.800811
3846.101165,0.000000,1110.308913,9548.656652
3846.101479,306.438199,814.226536,9770.718434
3846.101794,1225.752797,296.082377,10066.800811
3846.102109,383.047749,740.205942,10288.862594
3846.102424,229.828649,518.144159,10436.903782
3846.102739,-229.828649,1110.308913,9844.739029
3846.103054,689.485948,296.082377,10436.903782
3846.103369,1302.362347,-370.102971,10362.883188
3846.103684,1149.143247,-222.061783,10362.883188
3846.103999,995.924147,740.205942,9770.718434
3846.104313,-229.828649,518.144159,9326.594869
3846.104628,459.657299,74.020594,9474.636058
3846.104943,689.485948,-148.041188,9622.677246
3846.105258,689.485948,-74.020594,9548.656652
3846.105573,229.828649,-0.000000,9992.780217
3846.105888,0.000000,814.226536,9696.697840
3846.106203,383.047749,-0.000000,9326.594869
3846.106518,1149.143247,-0.000000,9474.636058
3846.106833,1378.971896,-74.020594,10066.800811
3846.107148,536.266849,222.061783,9696.697840
3846.107462,153.219100,370.102971,8956.491898
3846.107777,229.828649,888.247130,9104.533087
3846.108092,1072.533697,-0.000000,8808.450710
3846.108407,766.095498,296.082377,9104.533087
3846.108722,612.876398,518.144159,9326.594869
3846.109037,-766.095498,148.041188,9252.574275
3846.109352,0.000000,370.102971,8512.368333
3846.109667,229.828649,-296.082377,8734.430116
3846.109982,0.000000,-222.061783,9474.636058
3846.110296,-459.657299,-0.000000,9844.739029
3846.110611,-1225.752797,74.020594,9326.594869
3846.110926,-919.314598,-370.102971,9178.553681
3846.111241,-306.438199,-370.102971,9918.759623
3846.111556,76.609550,-0.000000,9474.636058
3846.111871,-842.705048,666.185348,9844.739029
3846.112186,-766.095498,1406.391290,9548.656652
3846.112501,-459.657299,962.267725,8808.450710
3846.112816,766.095498,518.144159,9030.512492
3846.113130,1072.533697,740.205942,9178.553681
3846.113445,459.657299,-148.041188,9770.718434
3846.113760,-536.266849,814.226536,9770.718434
3846.114075,-919.314598,888.247130,9696.697840
3846.114390,-536.266849,-518.144159,10732.986159
3846.114705,0.000000,-888.247130,10732.986159
3846.115020,-306.438199,-74.020594,10732.986159
3846.115334,-1685.410096,370.102971,10658.965565
3846.115649,-1685.410096,-74.020594,10362.883188
3846.115964,-1072.533697,-0.000000,10066.800811
3846.116279,-153.219100,-0.000000,9770.718434
3846.116593,153.219100,-74.020594,9474.636058
3846.116908,-153.219100,592.164754,10214.842000
3846.117223,153.219100,888.247130,9622.677246
3846.117538,536.266849,592.164754,9770.718434
3846.117852,1302.362347,444.123565,9622.677246
3846.118167,1149.143247,-0.000000,9918.759623
3846.118482,0.000000,-0.000000,9696.697840
3846.118796,0.000000,148.041188,9918.759623
3846.119111,612.876398,-370.102971,9178.553681
3846.119426,1072.533697,-1036.288319,9548.656652
3846.119741,153.219100,-666.185348,9770.718434
3846.120055,-306.438199,-592.164754,9548.656652
3846.120370,-536.266849,-370.102971,9474.636058
3846.120685,153.219100,-1258.350101,9548.656652
3846.121000,1149.143247,-888.247130,9696.697840
3846.121314,842.705048,-148.041188,9548.656652
3846.121629,612.876398,296.082377,9622.677246
3846.121944,842.705048,444.123565,9030.512492
3846.122259,1225.752797,370.102971,8290.306550
3846.122573,2451.505594,444.123565,8068.244768
3846.122888,2145.067394,444.123565,9400.615463
3846.123203,1378.971896,-0.000000,9030.512492
3846.123518,689.485948,370.102971,8882.471304
3846.123832,689.485948,148.041188,8364.327145
3846.124147,1149.143247,-1184.329507,8882.471304
3846.124462,766.095498,-1258.350101,9622.677246
3846.124777,153.219100,-518.144159,9696.697840
3846.125091,-689.485948,-148.041188,9474.636058
3846.125406,-612.876398,222.061783,9252.574275
3846.125721,306.438199,-444.123565,8956.491898
3846.126035,842.705048,-444.123565,9030.512492
3846.126350,383.047749,296.082377,9696.697840
3846.126665,0.000000,666.185348,9178.553681
3846.126980,76.609550,1258.350101,9030.512492
3846.127294,689.485948,740.205942,9770.718434
3846.127609,689.485948,1036.288319,10066.800811
3846.127924,0.000000,814.226536,9918.759623
3846.128239,-536.266849,444.123565,10510.924376
3846.128553,-919.314598,666.185348,9548.656652
3846.128868,-459.657299,-0.000000,9696.697840
3846.129183,-153.219100,-74.020594,10140.821405
3846.129498,-842.705048,-74.020594,10584.944971
3846.129812,-1225.752797,74.020594,9696.697840
3846.130127,-919.314598,518.144159,9178.553681
3846.130442,-383.047749,-148.041188,9696.697840
3846.130757,383.047749,-0.000000,9992.780217
3846.131071,-229.828649,888.247130,9770.718434
3846.131386,-919.314598,1480.411884,9918.759623
3846.131701,-1532.190996,1480.411884,10362.883188
3846.132015,-229.828649,1258.350101,8956.491898
3846.132330,536.266849,962.267725,9252.574275
3846.132645,153.219100,1110.308913,9918.759623
3846.132960,-459.657299,1258.350101,9844.739029
3846.133274,-459.657299,1480.411884,9992.780217
3846.133589,-536.266849,814.226536,10140.821405
3846.133904,-306.438199,296.082377,10807.006753
3846.134219,-842.705048,222.061783,10288.862594
3846.134533,-1149.143247,370.102971,10436.903782
3846.134848,-919.314598,-0.000000,11621.233289
3846.135163,-383.047749,740.205942,10288.862594
3846.135478,0.000000,-0.000000,9992.780217
3846.135792,689.485948,444.123565,9770.718434
3846.136107,536.266849,1406.391290,9474.636058
3846.136422,689.485948,1258.350101,8882.471304
3846.136737,1149.143247,-0.000000,8660.409521
3846.137051,1915.238745,-962.267725,9178.553681
3846.137366,1302.362347,-592.164754,10066.800811
3846.137681,383.047749,-222.061783,10140.821405
3846.137995,-612.876398,-0.000000,9918.759623
3846.138310,0.000000,-370.102971,9770.718434
3846.138625,1072.533697,-518.144159,9844.739029
3846.138940,919.314598,-518.144159,9474.636058
3846.139254,612.876398,-222.061783,9844.739029
3846.139569,153.219100,296.082377,9104.533087
3846.139884,612.876398,-222.061783,8956.491898
3846.140199,1685.410096,-962.267725,9178.553681
3846.140513,1838.629195,-740.205942,8882.471304
3846.140828,1378.971896,-592.164754,9104.533087
3846.141143,919.314598,-0.000000,8808.450710
3846.141458,153.219100,444.123565,8438.347739
3846.141772,306.438199,-0.000000,8660.409521
3846.142087,842.705048,-962.267725,9326.594869
3846.142402,459.657299,-814.226536,8956.491898
3846.142717,0.000000,-1184.329507,9030.512492
3846.143031,-153.219100,-962.267725,8364.327145
3846.143346,-229.828649,-1628.453072,8734.430116
3846.143661,229.828649,-1110.308913,9548.656652
3846.143976,-306.438199,-444.123565,9918.759623
3846.144290,-459.657299,-222.061783,9548.656652
3846.144605,0.000000,-0.000000,9696.697840
3846.144920,153.219100,222.061783,9104.533087
3846.145234,1072.533697,-740.205942,9474.636058
3846.145549,0.000000,740.205942,9770.718434
3846.145864,-153.219100,666.185348,9844.739029
3846.146179,-229.828649,592.164754,9548.656652
3846.146493,459.657299,-0.000000,9326.594869
3846.146808,766.095498,370.102971,9548.656652
3846.147123,-153.219100,370.102971,10214.842000
3846.147438,-1455.581446,592.164754,10288.862594
3846.147752,-1608.800546,296.082377,10362.883188
3846.148067,-612.876398,-148.041188,10066.800811
3846.148382,0.000000,-222.061783,9770.718434
3846.148697,76.609550,148.041188,9844.739029
3846.149011,-536.266849,666.185348,9548.656652
3846.149326,-536.266849,962.267725,9844.739029
3846.149641,0.000000,888.247130,9326.594869
3846.149956,766.095498,444.123565,9844.739029
3846.150270,153.219100,962.267725,10066.800811
3846.150585,-766.095498,592.164754,10881.027347
3846.150900,-1608.800546,1036.288319,10362.883188
3846.151214,-766.095498,-0.000000,10510.924376
3846.151529,-612.876398,-370.102971,11177.109724
3846.151844,-919.314598,-222.061783,10955.047942
3846.152159,-842.705048,370.102971,10658.965565
3846.152473,-1225.752797,148.041188,10288.862594
3846.152788,-459.657299,-0.000000,9474.636058
3846.153103,536.266849,-0.000000,9474.636058
3846.153418,612.876398,592.164754,9474.636058
3846.153732,612.876398,592.164754,9918.759623
3846.154047,76.609550,814.226536,9622.677246
3846.154362,919.314598,592.164754,9104.533087
3846.154677,1455.581446,-0.000000,9696.697840
3846.154991,1455.581446,-0.000000,9104.533087
3846.155306,229.828649,-0.000000,9696.697840
3846.155621,153.219100,666.185348,9030.512492
3846.155936,76.609550,-0.000000,8882.471304
3846.156250,1302.362347,-0.000000,8660.409521
3846.156565,1302.362347,-296.082377,9104.533087
3846.156880,689.485948,370.102971,9474.636058
3846.157195,229.828649,296.082377,9474.636058
3846.157509,0.000000,666.185348,8734.430116
3846.157824,1532.190996,222.061783,9400.615463
3846.158139,1072.533697,666.185348,9474.636058
3846.158453,1072.533697,1184.329507,9252.574275
3846.158768,689.485948,1036.288319,9548.656652
3846.159083,229.828649,962.267725,8586.388927
3846.159398,995.924147,1036.288319,8882.471304
3846.159712,1302.362347,444.123565,8734.430116
3846.160027,919.314598,-74.020594,9474.636058
3846.160342,383.047749,222.061783,9474.636058
3846.160657,-229.828649,518.144159,9622.677246
3846.160971,0.000000,-0.000000,9548.656652
3846.161286,153.219100,-370.102971,10362.883188
3846.161601,0.000000,-0.000000,9696.697840
3846.161916,-536.266849,370.102971,9474.636058
3846.162230,-306.438199,370.102971,9326.594869
3846.162545,306.438199,-0.000000,9326.594869
3846.162860,689.485948,-0.000000,9844.739029
3846.163175,0.000000,222.061783,10436.903782
3846.163489,-306.438199,444.123565,10214.842000
3846.163804,-459.657299,518.144159,10066.800811
3846.164119,0.000000,-74.020594,9770.718434
3846.164433,689.485948,-0.000000,10584.944971
3846.164748,0.000000,1110.308913,9622.677246
3846.165063,-536.266849,148.041188,9474.636058
3846.165378,-689.485948,-444.123565,10288.862594
3846.165692,-383.047749,-814.226536,9770.718434
3846.166007,536.266849,-962.267725,9474.636058
3846.166322,-612.876398,-666.185348,9992.780217
3846.166637,-1302.362347,-222.061783,10140.821405
3846.166951,-919.314598,-0.000000,10140.821405
3846.167266,-995.924147,-0.000000,9474.636058
3846.167581,229.828649,-592.164754,10510.924376
3846.167896,153.219100,-148.041188,9400.615463
3846.168210,-383.047749,-444.123565,9696.697840
3846.168525,-766.095498,-0.000000,9770.718434
3846.168840,-229.828649,-0.000000,9474.636058
3846.169155,-229.828649,-370.102971,9622.677246
3846.169469,229.828649,-666.185348,9474.636058
3846.169784,-153.219100,-0.000000,9844.739029
3846.170099,-383.047749,-0.000000,9104.533087
3846.170414,76.609550,-0.000000,9104.533087
3846.170728,0.000000,-370.102971,9326.594869
3846.171043,0.000000,-148.041188,9844.739029
3846.171358,-459.657299,-74.020594,9622.677246
3846.171672,-153.219100,-592.164754,9696.697840
3846.171987,-306.438199,-222.061783,9104.533087
3846.172302,153.219100,-666.185348,8808.450710
3846.172617,842.705048,-296.082377,9178.553681
3846.172931,306.438199,-0.000000,9030.512492
3846.173246,-383.047749,370.102971,8734.430116
3846.173561,153.219100,-0.000000,8364.327145
3846.173876,1072.533697,-148.041188,8956.491898
3846.174190,1072.533697,-296.082377,9474.636058
3846.174505,459.657299,-222.061783,9030.512492
3846.174820,-536.266849,-0.000000,9326.594869
3846.175135,0.000000,-0.000000,9400.615463
3846.175449,383.047749,-0.000000,9548.656652
3846.175764,612.876398,-74.020594,9474.636058
3846.176079,1149.143247,370.102971,9844.739029
3846.176394,536.266849,444.123565,9770.718434
3846.176708,-536.266849,222.061783,9622.677246
3846.177023,76.609550,-0.000000,9844.739029
3846.177338,1072.533697,-0.000000,10214.842000
3846.177652,689.485948,-222.061783,10066.800811
3846.177967,-306.438199,222.061783,10140.821405
3846.178282,383.047749,1406.391290,9474.636058
3846.178597,1302.362347,370.102971,9474.636058
3846.178911,1608.800546,1258.350101,9474.636058
3846.179226,1302.362347,1480.411884,10140.821405
3846.179541,0.000000,1036.288319,10140.821405
3846.179856,0.000000,1332.370696,10288.862594
3846.180170,612.876398,814.226536,9622.677246
3846.180485,919.314598,-0.000000,10436.903782
3846.180800,383.047749,-0.000000,10658.965565
3846.181115,-153.219100,666.185348,10881.027347
3846.181429,-1455.581446,1036.288319,10732.986159
3846.181744,-612.876398,1332.370696,10066.800811
3846.182059,459.657299,1110.308913,10140.821405
3846.182374,229.828649,444.123565,10288.862594
3846.182688,383.047749,296.082377,9696.697840
3846.183003,-919.314598,888.247130,10140.821405
3846.183318,-766.095498,518.144159,9770.718434
3846.183633,-306.438199,222.061783,9696.697840
3846.183947,306.438199,1036.288319,9770.718434
3846.184262,306.438199,740.205942,9474.636058
3846.184577,0.000000,740.205942,9400.615463
3846.184891,-153.219100,-74.020594,9696.697840
3846.185206,76.609550,-444.123565,9918.759623
3846.185521,76.609550,-0.000000,10214.842000
3846.185836,0.000000,-74.020594,9548.656652
3846.186150,-383.047749,370.102971,9178.553681
3846.186465,0.000000,-74.020594,8734.430116
3846.186780,766.095498,-592.164754,9252.574275
3846.187095,995.924147,-296.082377,9178.553681
3846.187409,76.609550,148.041188,9030.512492
3846.187724,-689.485948,-0.000000,9252.574275
3846.188039,-1072.533697,-296.082377,9326.594869
3846.188354,0.000000,-592.164754,9252.574275
3846.188668,229.828649,-1332.370696,9622.677246
3846.188983,0.000000,-222.061783,9844.739029
3846.189298,-689.485948,-0.000000,9104.533087
3846.189613,-766.095498,222.061783,8438.347739
3846.189927,229.828649,-592.164754,8882.471304
3846.190242,1225.752797,-74.020594,9400.615463
3846.190557,612.876398,296.082377,9030.512492
3846.190871,-153.219100,-0.000000,9474.636058
3846.191186,76.609550,-74.020594,9548.656652
3846.191501,612.876398,-296.082377,9622.677246
3846.191816,1149.143247,148.041188,8808.450710
3846.192130,689.485948,-0.000000,10066.800811
3846.192445,0.000000,296.082377,9548.656652
3846.192760,0.000000,-0.000000,9326.594869
3846.193075,766.095498,-0.000000,8734.430116
3846.193389,995.924147,-370.102971,9622.677246
3846.193704,229.828649,666.185348,9474.636058
3846.194019,-383.047749,222.061783,10140.821405
3846.194334,-536.266849,740.205942,9474.636058
3846.194648,383.047749,-74.020594,9992.780217
3846.194963,1378.971896,222.061783,10807.006753
3846.195278,995.924147,222.061783,10214.842000
3846.195593,-153.219100,1406.391290,10214.842000
3846.195907,0.000000,1332.370696,9622.677246
3846.196222,153.219100,888.247130,9104.533087
3846.196537,1302.362347,-370.102971,9104.533087
3846.196852,689.485948,-370.102971,9104.533087
3846.197166,689.485948,-370.102971,9252.574275
3846.197481,229.828649,-444.123565,9622.677246
3846.197796,383.047749,-666.185348,8808.450710
3846.198110,612.876398,-1332.370696,10584.944971
3846.198425,153.219100,-370.102971,10658.965565
3846.198740,-306.438199,-296.082377,10584.944971
3846.199055,-383.047749,370.102971,10140.821405
3846.199369,0.000000,370.102971,9918.759623
3846.199684,306.438199,-0.000000,9770.718434
3846.199999,536.266849,-0.000000,10140.821405
3846.200314,153.219100,-0.000000,9400.615463
3846.200628,-229.828649,296.082377,9400.615463
3846.200943,383.047749,-74.020594,9696.697840
3846.201258,229.828649,-444.123565,10066.800811
3846.201573,153.219100,-222.061783,9992.780217
3846.201887,-306.438199,370.102971,10140.821405
3846.202202,-995.924147,444.123565,9474.636058
3846.202517,0.000000,-148.041188,8734.430116
3846.202832,306.438199,-1184.329507,9252.574275
3846.203146,459.657299,-1110.308913,9326.594869
3846.203461,76.609550,-444.123565,9326.594869
3846.203776,-766.095498,444.123565,9030.512492
3846.204090,-383.047749,518.144159,9104.533087
3846.204405,459.657299,-148.041188,8956.491898
3846.204720,536.266849,-148.041188,9030.512492
3846.205035,306.438199,-0.000000,9104.533087
3846.205349,-383.047749,814.226536,9474.636058
3846.205664,-766.095498,444.123565,9548.656652
3846.205979,0.000000,592.164754,8956.491898
3846.206294,0.000000,296.082377,8808.450710
3846.206608,76.609550,222.061783,9474.636058
3846.206923,0.000000,296.082377,9178.553681
3846.207238,-459.657299,444.123565,8882.471304
3846.207553,229.828649,-222.061783,9104.533087
3846.207867,229.828649,-0.000000,9474.636058
3846.208182,0.000000,592.164754,9474.636058
3846.208497,0.000000,296.082377,9474.636058
3846.208812,-536.266849,888.247130,9548.656652
3846.209126,0.000000,-0.000000,9474.636058
3846.209441,1072.533697,222.061783,8882.471304
3846.209756,153.219100,296.082377,9622.677246
3846.210071,612.876398,1554.432478,9474.636058
3846.210385,459.657299,1110.308913,9696.697840
3846.210700,689.485948,1184.329507,9622.677246
3846.211015,1378.971896,518.144159,10288.862594
3846.211329,1072.533697,814.226536,9918.759623
3846.211644,0.000000,370.102971,11029.068536
3846.211959,-689.485948,1480.411884,10510.924376
3846.212274,-383.047749,1036.288319,10288.862594
3846.212588,689.485948,592.164754,10066.800811
3846.212903,459.657299,-148.041188,10436.903782
3846.213218,306.438199,666.185348,9622.677246
3846.213533,0.000000,296.082377,9918.759623
3846.213847,76.609550,370.102971,9918.759623
3846.214162,689.485948,296.082377,10288.862594
3846.214477,229.828649,-74.020594,10214.842000
3846.214792,0.000000,-296.082377,10066.800811
3846.215106,-459.657299,-0.000000,10510.924376
3846.215421,-229.828649,222.061783,10066.800811
3846.215736,306.438199,222.061783,8882.471304
3846.216050,306.438199,-74.020594,9770.718434
3846.216365,76.609550,-0.000000,9696.697840
3846.216680,-842.705048,-666.185348,9474.636058
3846.216994,-229.828649,-296.082377,8808.450710
3846.217309,612.876398,-814.226536,9326.594869
3846.217624,153.219100,-962.267725,9400.615463
3846.217939,0.000000,-888.247130,10066.800811
3846.218253,-612.876398,-370.102971,9474.636058
3846.218568,-306.438199,-444.123565,9400.615463
3846.218883,306.438199,-592.164754,9178.553681
3846.219197,306.438199,-518.144159,9326.594869
3846.219512,153.219100,-296.082377,8956.491898
3846.219827,-536.266849,-74.020594,8808.450710
3846.220141,0.000000,-0.000000,8216.285956
3846.220456,689.485948,-1036.288319,8660.409521
3846.220771,689.485948,-740.205942,8956.491898
3846.221085,612.876398,-148.041188,9696.697840
3846.221400,0.000000,1036.288319,9252.574275
3846.221715,-536.266849,888.247130,8734.430116
3846.222029,76.609550,-148.041188,8882.471304
3846.222344,919.314598,-518.144159,8734.430116
3846.222659,0.000000,-222.061783,9918.759623
3846.222974,-1149.143247,-222.061783,9548.656652
3846.223288,-995.924147,-0.000000,9326.594869
3846.223603,-306.438199,-296.082377,9400.615463
3846.223918,306.438199,-0.000000,9918.759623
3846.224232,-536.266849,-0.000000,9770.718434
3846.224547,-383.047749,-0.000000,10066.800811
3846.224862,-612.876398,1110.308913,9622.677246
3846.225176,0.000000,370.102971,9992.780217
3846.225491,1378.971896,518.144159,9696.697840
3846.225806,689.485948,666.185348,9622.677246
3846.226120,-153.219100,888.247130,9770.718434
3846.226435,0.000000,592.164754,9918.759623
3846.226750,229.828649,814.226536,9474.636058
3846.227064,842.705048,148.041188,10436.903782
3846.227379,919.314598,518.144159,10066.800811
3846.227694,76.609550,666.185348,9992.780217
3846.228009,-459.657299,518.144159,9696.697840
3846.228323,-229.828649,370.102971,9992.780217
3846.228638,0.000000,-0.000000,9770.718434
3846.228953,76.609550,-74.020594,10140.821405
3846.229267,0.000000,296.082377,9918.759623
3846.229582,0.000000,888.247130,9918.759623
3846.229897,229.828649,666.185348,9474.636058
3846.230211,612.876398,-74.020594,10140.821405
3846.230526,612.876398,518.144159,10214.842000
3846.230841,229.828649,888.247130,10140.821405
3846.231155,-306.438199,1036.288319,9992.780217
3846.231470,153.219100,1184.329507,9474.636058
3846.231785,612.876398,222.061783,10140.821405
3846.232099,612.876398,-0.000000,10214.842000
3846.232414,229.828649,-370.102971,10288.862594
3846.232729,0.000000,444.123565,9474.636058
3846.233043,76.609550,814.226536,9030.512492
3846.233358,919.314598,-0.000000,9474.636058
3846.233673,1149.143247,-0.000000,9104.533087
3846.233988,383.047749,-222.061783,9326.594869
3846.234302,0.000000,-0.000000,9178.553681
3846.234617,-306.438199,-0.000000,8734.430116
3846.234932,612.876398,-148.041188,9474.636058
3846.235246,1072.533697,-74.020594,9622.677246
3846.235561,306.438199,518.144159,9252.574275
3846.235876,-383.047749,222.061783,9474.636058
3846.236190,-459.657299,296.082377,9326.594869
3846.236505,-229.828649,-444.123565,9622.677246
3846.236820,919.314598,-296.082377,9474.636058
3846.237134,229.828649,-222.061783,9178.553681
3846.237449,0.000000,-0.000000,8512.368333
3846.237764,-459.657299,222.061783,8882.471304
3846.238078,0.000000,-0.000000,8956.491898
3846.238393,153.219100,-0.000000,9400.615463
3846.238708,-306.438199,-222.061783,9326.594869
3846.239023,-612.876398,-592.164754,9400.615463
3846.239337,-689.485948,-0.000000,8808.450710
3846.239652,-383.047749,-296.082377,9400.615463
3846.239967,306.438199,-444.123565,9474.636058
3846.240281,0.000000,-296.082377,9696.697840
3846.240596,-306.438199,370.102971,9178.553681
3846.240911,0.000000,-296.082377,10066.800811
3846.241225,0.000000,666.185348,8808.450710
3846.241540,306.438199,-740.205942,9918.759623
3846.241855,612.876398,518.144159,9252.574275
3846.242169,0.000000,296.082377,10732.986159
3846.242484,-306.438199,1110.308913,9252.574275
3846.242799,229.828649,222.061783,10214.842000
3846.243113,689.485948,-0.000000,9844.739029
3846.243428,536.266849,-74.020594,10066.800811
3846.243743,0.000000,740.205942,9696.697840
3846.244058,-306.438199,370.102971,9918.759623
3846.244372,-536.266849,962.267725,9992.780217
3846.244687,536.266849,-74.020594,10288.862594
3846.245002,229.828649,-74.020594,10066.800811
3846.245316,76.609550,222.061783,9918.759623
3846.245631,459.657299,148.041188,10436.903782
3846.245946,-383.047749,222.061783,10140.821405
3846.246260,383.047749,148.041188,9770.718434
3846.246575,612.876398,-0.000000,9548.656652
3846.246890,383.047749,-222.061783,10066.800811
3846.247204,0.000000,222.061783,10140.821405
3846.247519,0.000000,296.082377,9918.759623
3846.247834,229.828649,222.061783,9400.615463
3846.248148,383.047749,-74.020594,10214.842000
3846.248463,306.438199,-0.000000,10510.924376
3846.248778,229.828649,-74.020594,10214.842000
3846.249092,-459.657299,518.144159,9696.697840
3846.249407,153.219100,-0.000000,9622.677246
3846.249722,842.705048,-0.000000,9326.594869
3846.250037,76.609550,-74.020594,9474.636058
3846.250351,153.219100,148.041188,9548.656652
3846.250666,-153.219100,-0.000000,9326.594869
3846.250981,229.828649,-222.061783,8808.450710
3846.251295,689.485948,-518.144159,9326.594869
3846.251610,536.266849,-592.164754,9548.656652
3846.251925,0.000000,-0.000000,9548.656652
3846.252239,-76.609550,444.123565,8364.327145
3846.252554,536.266849,-0.000000,8734.430116
3846.252869,612.876398,-0.000000,9252.574275
3846.253183,766.095498,-0.000000,8734.430116
3846.253498,842.705048,222.061783,8808.450710
3846.253813,-612.876398,444.123565,8512.368333
3846.254127,0.000000,296.082377,8142.265362
3846.254442,459.657299,-74.020594,9474.636058
3846.254757,0.000000,-592.164754,10510.924376
3846.255072,-766.095498,-0.000000,10436.903782
3846.255386,-1149.143247,444.123565,9696.697840
3846.255701,-919.314598,-222.061783,9844.739029
3846.256016,-306.438199,-0.000000,10362.883188
3846.256330,0.000000,-0.000000,10066.800811
3846.256645,-612.876398,148.041188,10214.842000
3846.256960,-995.924147,444.123565,9400.615463
3846.257274,-229.828649,222.061783,9030.512492
3846.257589,612.876398,-148.041188,9030.512492
3846.257904,536.266849,518.144159,9770.718434
3846.258218,306.438199,666.185348,10510.924376
3846.258533,-383.047749,888.247130,9400.615463
3846.258848,0.000000,444.123565,9696.697840
3846.259162,536.266849,222.061783,9992.780217
3846.259477,0.000000,-148.041188,10140.821405
3846.259792,-383.047749,-0.000000,10362.883188
3846.260107,-995.924147,222.061783,10362.883188
3846.260421,-612.876398,370.102971,10140.821405
3846.260736,383.047749,-0.000000,10140.821405
3846.261051,76.609550,296.082377,10510.924376
3846.261365,153.219100,518.144159,10510.924376
3846.261680,-306.438199,888.247130,9474.636058
3846.261995,306.438199,740.205942,9400.615463
3846.262309,842.705048,370.102971,9474.636058
3846.262624,842.705048,222.061783,9918.759623
3846.262939,306.438199,592.164754,10362.883188
3846.263253,0.000000,592.164754,9104.533087
3846.263568,229.828649,740.205942,9474.636058
3846.263883,995.924147,-0.000000,9474.636058
3846.264197,1149.143247,-74.020594,9326.594869
3846.264512,612.876398,-370.102971,9992.780217
3846.264827,-766.095498,-0.000000,9030.512492
3846.265141,-919.314598,-0.000000,9696.697840
3846.265456,229.828649,-0.000000,9252.574275
3846.265771,459.657299,-740.205942,9770.718434
3846.266086,459.657299,-370.102971,9992.780217
3846.266400,0.000000,222.061783,9400.615463
3846.266715,-459.657299,370.102971,8956.491898
3846.267030,536.266849,-74.020594,9474.636058
3846.267344,1072.533697,-0.000000,9178.553681
3846.267659,1149.143247,-74.020594,9400.615463
3846.267974,383.047749,296.082377,8882.471304
3846.268288,0.000000,592.164754,8956.491898
3846.268603,306.438199,-444.123565,9252.574275
3846.268918,383.047749,-740.205942,9400.615463
3846.269232,0.000000,-148.041188,9474.636058
3846.269547,0.000000,-444.123565,9474.636058
3846.269862,-229.828649,-74.020594,9104.533087
3846.270176,0.000000,-222.061783,9252.574275
3846.270491,306.438199,-518.144159,9252.574275
3846.270806,306.438199,-666.185348,9400.615463
3846.271121,-766.095498,74.020594,9178.553681
3846.271435,-766.095498,296.082377,9474.636058
3846.271750,0.000000,-74.020594,9326.594869
3846.272065,383.047749,-222.061783,9918.759623
3846.272379,0.000000,-518.144159,10214.842000
3846.272694,-689.485948,222.061783,10510.924376
3846.273009,-995.924147,740.205942,9474.636058
3846.273323,-612.876398,296.082377,9178.553681
3846.273638,153.219100,-148.041188,9474.636058
3846.273953,919.314598,-296.082377,9178.553681
3846.274267,-383.047749,-74.020594,9992.780217
3846.274582,-689.485948,222.061783,9918.759623
3846.274897,-383.047749,592.164754,9622.677246
3846.275211,0.000000,-0.000000,9474.636058
3846.275526,383.047749,-148.041188,9844.739029
3846.275841,383.047749,222.061783,9770.718434
3846.276156,-383.047749,222.061783,9844.739029
3846.276470,-383.047749,518.144159,9474.636058
3846.276785,536.266849,592.164754,10140.821405
3846.277100,229.828649,518.144159,9548.656652
3846.277414,153.219100,666.185348,9474.636058
3846.277729,0.000000,222.061783,10140.821405
3846.278044,383.047749,148.041188,9548.656652
3846.278358,0.000000,148.041188,10436.903782
3846.278673,229.828649,518.144159,9696.697840
3846.278988,-306.438199,222.061783,10510.924376
3846.279302,-612.876398,592.164754,10510.924376
3846.279617,-459.657299,-0.000000,9992.780217
3846.279932,766.095498,-592.164754,9770.718434
3846.280246,842.705048,-740.205942,9696.697840
3846.280561,153.219100,296.082377,9548.656652
3846.280876,153.219100,370.102971,9474.636058
3846.281191,229.828649,592.164754,8956.491898
3846.281505,995.924147,-0.000000,9474.636058
3846.281820,1072.533697,-74.020594,9696.697840
3846.282135,612.876398,-148.041188,10436.903782
3846.282449,-306.438199,222.061783,10140.821405
3846.282764,-306.438199,222.061783,9400.615463
3846.283079,0.000000,-0.000000,9696.697840
3846.283393,459.657299,-444.123565,9918.759623
3846.283708,536.266849,-296.082377,9622.677246
3846.284023,306.438199,-222.061783,9474.636058
3846.284337,0.000000,-0.000000,9030.512492
3846.284652,459.657299,296.082377,9030.512492
3846.284967,1532.190996,370.102971,8956.491898
3846.285281,919.314598,666.185348,8882.471304
3846.285596,995.924147,888.247130,9252.574275
3846.285911,766.095498,518.144159,8956.491898
3846.286225,689.485948,370.102971,8438.347739
3846.286540,689.485948,-74.020594,8734.430116
3846.286855,76.609550,-222.061783,9474.636058
3846.287170,-536.266849,-0.000000,9918.759623
3846.287484,-919.314598,296.082377,8660.409521
3846.287799,-842.705048,148.041188,9696.697840
3846.288114,0.000000,-0.000000,9474.636058
3846.288428,0.000000,-222.061783,10140.821405
3846.288743,-459.657299,444.123565,10140.821405
3846.289058,-919.314598,1036.288319,9918.759623
3846.289372,-459.657299,962.267725,9252.574275
3846.289687,536.266849,370.102971,9104.533087
3846.290002,536.266849,888.247130,9548.656652
3846.290316,229.828649,518.144159,9400.615463
3846.290631,-153.219100,962.267725,9474.636058
3846.290946,-383.047749,592.164754,9622.677246
3846.291260,0.000000,222.061783,10066.800811
3846.291575,-306.438199,-740.205942,10436.903782
3846.291890,0.000000,-962.267725,11251.130318
3846.292205,-459.657299,-0.000000,10881.027347
3846.292519,-995.924147,-592.164754,10288.862594
3846.292834,0.000000,-0.000000,9844.739029
3846.293149,0.000000,296.082377,10584.944971
3846.293463,0.000000,666.185348,9474.636058
3846.293778,0.000000,444.123565,9474.636058
3846.294093,229.828649,740.205942,9104.533087
3846.294407,919.314598,-0.000000,9844.739029
3846.294722,1225.752797,148.041188,9178.553681
3846.295037,766.095498,148.041188,10140.821405
3846.295351,0.000000,666.185348,10214.842000
3846.295666,-459.657299,666.185348,9770.718434
3846.295981,0.000000,444.123565,9918.759623
3846.296295,383.047749,-518.144159,9992.780217
3846.296610,-306.438199,-0.000000,9770.718434
3846.296925,-919.314598,-444.123565,9474.636058
3846.297240,-1302.362347,-1036.288319,9548.656652
3846.297554,-689.485948,-1184.329507,9474.636058
3846.297869,76.609550,-1406.391290,10140.821405
3846.298184,0.000000,-1110.308913,9992.780217
3846.298498,-306.438199,-518.144159,9622.677246
3846.298813,0.000000,296.082377,9030.512492
3846.299128,536.266849,370.102971,8734.430116
3846.299442,1455.581446,444.123565,8586.388927
3846.299757,1838.629195,444.123565,8068.244768
3846.300072,842.705048,370.102971,8068.244768
3846.300386,459.657299,-222.061783,7772.162391
3846.300701,612.876398,-962.267725,8956.491898
3846.301016,842.705048,-888.247130,8882.471304
3846.301330,536.266849,-222.061783,9474.636058
3846.301645,0.000000,-148.041188,9548.656652
3846.301960,-459.657299,296.082377,9252.574275
3846.302274,306.438199,-0.000000,9474.636058
3846.302589,612.876398,-1036.288319,9474.636058
3846.302904,229.828649,-666.185348,10140.821405
3846.303219,76.609550,148.041188,9696.697840
3846.303533,-383.047749,518.144159,8882.471304
3846.303848,76.609550,296.082377,9104.533087
3846.304163,1532.190996,666.185348,9252.574275
3846.304477,1225.752797,-0.000000,9474.636058
3846.304792,689.485948,222.061783,9622.677246
3846.305107,229.828649,1110.308913,9844.739029
3846.305421,0.000000,1258.350101,9548.656652
3846.305736,689.485948,444.123565,9252.574275
3846.306051,76.609550,444.123565,9844.739029
3846.306365,153.219100,-370.102971,10362.883188
3846.306680,-229.828649,-0.000000,10288.862594
3846.306995,-306.438199,666.185348,9992.780217
3846.307309,459.657299,444.123565,10955.047942
3846.307624,229.828649,962.267725,10732.986159
3846.307939,0.000000,1110.308913,10510.924376
3846.308254,-153.219100,1184.329507,10362.883188
3846.308568,0.000000,518.144159,10584.944971
3846.308883,229.828649,518.144159,10436.903782
3846.309198,536.266849,888.247130,10362.883188
3846.309512,229.828649,1332.370696,9770.718434
3846.309827,-153.219100,740.205942,9548.656652
3846.310142,76.609550,666.185348,9696.697840
3846.310456,229.828649,-222.061783,9770.718434
3846.310771,229.828649,-222.061783,9696.697840
3846.311086,0.000000,-444.123565,10140.821405
3846.311400,-842.705048,222.061783,9918.759623
3846.311715,-1532.190996,1036.288319,9548.656652
3846.312030,0.000000,-1036.288319,9474.636058
3846.312344,689.485948,-740.205942,9474.636058
3846.312659,-153.219100,-0.000000,9548.656652
3846.312974,153.219100,740.205942,9474.636058
3846.313289,0.000000,592.164754,8068.244768
3846.313603,153.219100,518.144159,9474.636058
3846.313918,919.314598,-74.020594,8956.491898
3846.314233,306.438199,-148.041188,8882.471304
3846.314547,536.266849,-0.000000,9548.656652
3846.314862,0.000000,222.061783,9178.553681
3846.315177,0.000000,-0.000000,9104.533087
3846.315491,306.438199,-74.020594,8660.409521
3846.315806,229.828649,-222.061783,9030.512492
3846.316121,0.000000,-592.164754,10362.883188
3846.316436,-383.047749,-74.020594,9104.533087
3846.316750,76.609550,-0.000000,7402.059420
3846.317065,842.705048,-518.144159,8808.450710
3846.317380,689.485948,-0.000000,8956.491898
3846.317695,0.000000,148.041188,8882.471304
3846.318010,-229.828649,592.164754,9474.636058
3846.318325,76.609550,-296.082377,9474.636058
3846.318639,842.705048,-0.000000,9400.615463
3846.318954,536.266849,518.144159,9474.636058
3846.319269,229.828649,444.123565,9992.780217
3846.319584,0.000000,518.144159,10288.862594
3846.319899,0.000000,222.061783,9474.636058
3846.320214,306.438199,-0.000000,9178.553681
3846.320528,306.438199,444.123565,9474.636058
3846.320843,0.000000,222.061783,9770.718434
3846.321158,-766.095498,370.102971,9918.759623
3846.321473,-459.657299,-0.000000,9992.780217
3846.321788,-459.657299,-370.102971,9770.718434
3846.322103,76.609550,-962.267725,10732.986159
3846.322418,76.609550,740.205942,10140.821405
3846.322732,-306.438199,814.226536,9474.636058
3846.323047,0.000000,518.144159,9918.759623
3846.323362,383.047749,444.123565,9918.759623
3846.323677,612.876398,-148.041188,10436.903782
3846.323992,0.000000,518.144159,10140.821405
3846.324307,-1072.533697,666.185348,9844.739029
3846.324621,-536.266849,-0.000000,10658.965565
3846.324936,0.000000,-148.041188,10584.944971
3846.325251,536.266849,370.102971,10066.800811
3846.325566,0.000000,-148.041188,10288.862594
3846.325881,0.000000,518.144159,9622.677246
3846.326196,-536.266849,370.102971,9548.656652
3846.326510,459.657299,-74.020594,9178.553681
3846.326825,766.095498,-518.144159,9992.780217
3846.327140,306.438199,-296.082377,9770.718434
3846.327455,0.000000,-296.082377,9622.677246
3846.327770,-153.219100,-74.020594,9622.677246
3846.328085,0.000000,-74.020594,9844.739029
3846.328400,536.266849,-222.061783,9992.780217
3846.328714,536.266849,-444.123565,10140.821405
3846.329029,153.219100,296.082377,10288.862594
3846.329344,229.828649,-296.082377,9474.636058
3846.329659,383.047749,-222.061783,9252.574275
3846.329974,919.314598,-148.041188,9548.656652
3846.330289,612.876398,-0.000000,9622.677246
3846.330603,1072.533697,518.144159,9400.615463
3846.330918,689.485948,518.144159,7920.203579
3846.331233,919.314598,-74.020594,9178.553681
3846.331548,1608.800546,148.041188,9178.553681
3846.331863,842.705048,-0.000000,9770.718434
3846.332178,536.266849,666.185348,9474.636058
3846.332492,-229.828649,444.123565,9030.512492
3846.332807,0.000000,-74.020594,9326.594869
3846.333122,229.828649,-296.082377,9474.636058
3846.333437,-153.219100,-370.102971,9326.594869
3846.333752,-689.485948,-222.061783,9030.512492
3846.334067,-1072.533697,-518.144159,9326.594869
3846.334382,-995.924147,-444.123565,9622.677246
3846.334696,-459.657299,-296.082377,9400.615463
3846.335011,-459.657299,-148.041188,9326.594869
3846.335326,-383.047749,-222.061783,9622.677246
3846.335641,-766.095498,-0.000000,9326.594869
3846.335956,-229.828649,296.082377,9474.636058
3846.336271,153.219100,740.205942,8956.491898
3846.336585,0.000000,740.205942,9104.533087
3846.336900,0.000000,444.123565,9030.512492
3846.337215,0.000000,740.205942,8808.450710
3846.337530,229.828649,444.123565,9252.574275
3846.337845,76.609550,-0.000000,9696.697840
3846.338160,0.000000,-0.000000,9622.677246
3846.338475,-153.219100,-0.000000,9918.759623
3846.338789,-536.266849,666.185348,9918.759623
3846.339104,-612.876398,592.164754,10140.821405
3846.339419,229.828649,814.226536,10066.800811
3846.339734,383.047749,370.102971,10288.862594
3846.340049,306.438199,1110.308913,10510.924376
3846.340364,229.828649,1776.494261,9696.697840
3846.340678,0.000000,1850.514855,9622.677246
3846.340993,1149.143247,1332.370696,10584.944971
3846.341308,1302.362347,814.226536,10510.924376
3846.341623,459.657299,1184.329507,10510.924376
3846.341938,153.219100,1036.288319,9622.677246
3846.342253,0.000000,1036.288319,9992.780217
3846.342567,383.047749,296.082377,10658.965565
3846.342882,536.266849,-370.102971,11103.089130
3846.343197,0.000000,-0.000000,10288.862594
3846.343512,-306.438199,-0.000000,10510.924376
3846.343827,-612.876398,370.102971,9918.759623
3846.344142,0.000000,666.185348,9696.697840
3846.344457,766.095498,296.082377,9770.718434
3846.344771,842.705048,-222.061783,9696.697840
3846.345086,612.876398,-666.185348,9992.780217
3846.345401,383.047749,-222.061783,9474.636058
3846.345716,383.047749,-222.061783,9474.636058
3846.346031,842.705048,-0.000000,9696.697840
3846.346346,536.266849,-148.041188,9548.656652
3846.346660,306.438199,-444.123565,9400.615463
3846.346975,0.000000,-666.185348,9104.533087
3846.347290,0.000000,-888.247130,9326.594869
3846.347605,842.705048,-962.267725,8956.491898
3846.347920,459.657299,-666.185348,8660.409521
3846.348235,76.609550,-962.267725,9400.615463
3846.348549,-306.438199,-962.267725,9030.512492
3846.348864,76.609550,-1110.308913,8364.327145
3846.349179,689.485948,-1258.350101,8734.430116
3846.349494,612.876398,-592.164754,8660.409521
3846.349809,383.047749,-370.102971,9252.574275
3846.350124,-153.219100,-0.000000,8808.450710
3846.350439,0.000000,-0.000000,8142.265362
3846.350753,383.047749,-296.082377,8734.430116
3846.351068,229.828649,-740.205942,8882.471304
3846.351383,-383.047749,-444.123565,9548.656652
3846.351698,-842.705048,-0.000000,9178.553681
3846.352013,-766.095498,-740.205942,9622.677246
3846.352328,-383.047749,-0.000000,9474.636058
3846.352642,-229.828649,370.102971,10510.924376
3846.352957,-689.485948,370.102971,9696.697840
3846.353272,-1225.752797,148.041188,9770.718434
3846.353587,-919.314598,296.082377,9696.697840
3846.353902,306.438199,222.061783,9104.533087
3846.354217,536.266849,518.144159,9030.512492
3846.354531,153.219100,518.144159,9400.615463
3846.354846,0.000000,740.205942,9696.697840
3846.355161,-459.657299,888.247130,9474.636058
3846.355476,0.000000,592.164754,9178.553681
3846.355791,383.047749,592.164754,10214.842000
3846.356106,0.000000,444.123565,10807.006753
3846.356421,0.000000,888.247130,10214.842000
3846.356735,-229.828649,1184.329507,9770.718434
3846.357050,229.828649,1258.350101,9844.739029
3846.357365,459.657299,888.247130,10214.842000
3846.357680,76.609550,1036.288319,9844.739029
3846.357995,0.000000,1110.308913,10362.883188
3846.358310,0.000000,814.226536,10066.800811
3846.358624,76.609550,592.164754,10214.842000
3846.358939,919.314598,444.123565,10732.986159
3846.359254,153.219100,666.185348,10658.965565
3846.359569,-306.438199,740.205942,11029.068536
3846.359884,0.000000,592.164754,10362.883188
3846.360199,153.219100,888.247130,9844.739029
3846.360513,1149.143247,-0.000000,9696.697840
3846.360828,689.485948,-0.000000,10214.842000
3846.361143,383.047749,-74.020594,9474.636058
3846.361458,153.219100,-74.020594,9474.636058
3846.361773,459.657299,-74.020594,9474.636058
3846.362088,842.705048,370.102971,9474.636058
3846.362403,153.219100,-0.000000,10510.924376
3846.362717,383.047749,296.082377,9474.636058
3846.363032,0.000000,-0.000000,9548.656652
3846.363347,229.828649,-0.000000,9548.656652
3846.363662,766.095498,-0.000000,9474.636058
3846.363977,536.266849,518.144159,9696.697840
3846.364292,306.438199,-0.000000,9400.615463
3846.364606,76.609550,296.082377,8586.388927
3846.364921,383.047749,-222.061783,9400.615463
3846.365236,842.705048,-0.000000,8956.491898
3846.365551,612.876398,-148.041188,9104.533087
3846.365866,-383.047749,-296.082377,9326.594869
3846.366181,-536.266849,-148.041188,9104.533087
3846.366495,-536.266849,-0.000000,8660.409521
3846.366810,0.000000,-222.061783,8438.347739
3846.367125,306.438199,296.082377,8956.491898
3846.367440,0.000000,-370.102971,8364.327145
3846.367755,0.000000,370.102971,7846.182985
3846.368070,153.219100,-222.061783,8216.285956
3846.368385,612.876398,148.041188,8734.430116
3846.368699,0.000000,814.226536,8734.430116
3846.369014,-536.266849,-0.000000,9548.656652
3846.369329,-1149.143247,296.082377,9992.780217
3846.369644,-1225.752797,666.185348,9992.780217
3846.369959,-612.876398,296.082377,9622.677246
3846.370274,-459.657299,-0.000000,10510.924376
3846.370588,-1072.533697,370.102971,10584.944971
3846.370903,-919.314598,-74.020594,10436.903782
3846.371218,-1072.533697,-74.020594,10362.883188
3846.371533,-383.047749,-592.164754,10658.965565
3846.371848,76.609550,-0.000000,10288.862594
3846.372163,76.609550,-0.000000,10214.842000
3846.372478,76.609550,888.247130,9992.780217
3846.372792,76.609550,740.205942,9474.636058
3846.373107,689.485948,814.226536,9548.656652
3846.373422,1378.971896,-222.061783,9622.677246
3846.373737,459.657299,-74.020594,9696.697840
3846.374052,0.000000,222.061783,9400.615463
3846.374367,-383.047749,148.041188,9474.636058
3846.374681,229.828649,-370.102971,10214.842000
3846.374996,459.657299,-666.185348,10362.883188
3846.375311,-229.828649,-1184.329507,10658.965565
3846.375626,-459.657299,222.061783,11103.089130
3846.375941,-1149.143247,370.102971,10288.862594
3846.376256,-612.876398,-0.000000,10881.027347
3846.376570,689.485948,296.082377,9918.759623
3846.376885,1225.752797,444.123565,10214.842000
3846.377200,689.485948,666.185348,9178.553681
3846.377515,612.876398,666.185348,9178.553681
3846.377830,1608.800546,370.102971,9474.636058
3846.378145,1378.971896,148.041188,8808.450710
3846.378460,1455.581446,296.082377,8956.491898
3846.378774,766.095498,-0.000000,9104.533087
3846.379089,76.609550,-296.082377,8734.430116
3846.379404,229.828649,-1332.370696,9474.636058
3846.379719,842.705048,-888.247130,8808.450710
3846.380034,306.438199,-888.247130,8956.491898
3846.380349,0.000000,-148.041188,8956.491898
3846.380663,0.000000,-148.041188,8660.409521
3846.380978,459.657299,-444.123565,8882.471304
3846.381293,1225.752797,-296.082377,8512.368333
3846.381608,842.705048,-148.041188,9474.636058
3846.381923,689.485948,444.123565,9178.553681
3846.382238,1072.533697,1110.308913,9474.636058
3846.382552,76.609550,1184.329507,9030.512492
3846.382867,536.266849,518.144159,8956.491898
3846.383182,842.705048,-148.041188,9770.718434
3846.383497,612.876398,-296.082377,9918.759623
3846.383812,-153.219100,-222.061783,9252.574275
3846.384127,-76.609550,-148.041188,9474.636058
3846.384442,-536.266849,-296.082377,9030.512492
3846.384756,-229.828649,-518.144159,9696.697840
3846.385071,-383.047749,-518.144159,10510.924376
3846.385386,-1072.533697,-222.061783,10732.986159
3846.385701,-1072.533697,222.061783,9548.656652
3846.386016,-306.438199,1036.288319,9104.533087
3846.386331,76.609550,444.123565,9918.759623
3846.386645,153.219100,888.247130,10066.800811
3846.386960,-229.828649,1332.370696,10140.821405
3846.387275,-689.485948,1184.329507,9622.677246
3846.387590,0.000000,1184.329507,9844.739029
3846.387905,76.609550,1036.288319,10214.842000
3846.388220,-459.657299,1258.350101,10584.944971
3846.388534,-1225.752797,1332.370696,10732.986159
3846.388849,-919.314598,814.226536,10362.883188
3846.389164,-229.828649,444.123565,10658.965565
3846.389479,306.438199,814.226536,10066.800811
3846.389794,-229.828649,888.247130,10288.862594
3846.390109,-689.485948,1184.329507,10436.903782
3846.390424,-306.438199,962.267725,9770.718434
3846.390738,459.657299,444.123565,9622.677246
3846.391053,766.095498,814.226536,9252.574275
3846.391368,383.047749,148.041188,9918.759623
3846.391683,0.000000,370.102971,10140.821405
3846.391998,-536.266849,962.267725,9622.677246
3846.392313,0.000000,592.164754,9770.718434
3846.392627,612.876398,-0.000000,10288.862594
3846.392942,0.000000,148.041188,10214.842000
3846.393257,229.828649,-148.041188,9622.677246
3846.393572,0.000000,222.061783,9030.512492
3846.393887,0.000000,-592.164754,9474.636058
3846.394202,842.705048,-74.020594,9474.636058
3846.394516,612.876398,-740.205942,9992.780217
3846.394831,229.828649,-444.123565,9770.718434
3846.395146,0.000000,-740.205942,9622.677246
3846.395461,383.047749,-1184.329507,9474.636058
3846.395776,919.314598,-814.226536,9252.574275
3846.396091,536.266849,-444.123565,9474.636058
3846.396406,459.657299,-666.185348,9326.594869
3846.396720,-153.219100,-666.185348,8512.368333
3846.397035,689.485948,-296.082377,8438.347739
3846.397350,1378.971896,-444.123565,8734.430116
3846.397665,1378.971896,-518.144159,8882.471304
3846.397980,766.095498,-148.041188,9030.512492
3846.398295,383.047749,-444.123565,9104.533087
3846.398609,306.438199,-0.000000,8364.327145
3846.398924,766.095498,-296.082377,9400.615463
3846.399239,229.828649,-592.164754,9252.574275
3846.399554,0.000000,-370.102971,9030.512492
3846.399869,-459.657299,-444.123565,8882.471304
3846.400184,-995.924147,-296.082377,8808.450710
3846.400498,0.000000,-518.144159,9400.615463
3846.400813,306.438199,-666.185348,8882.471304
3846.401128,-153.219100,-518.144159,9178.553681
3846.401443,-229.828649,-222.061783,9548.656652
3846.401758,-612.876398,-0.000000,8808.450710
3846.402073,76.609550,222.061783,9326.594869
3846.402388,153.219100,-0.000000,9770.718434
3846.402702,-153.219100,444.123565,9326.594869
3846.403017,-689.485948,518.144159,8734.430116
3846.403332,-766.095498,370.102971,9474.636058
3846.403647,0.000000,222.061783,10436.903782
3846.403962,0.000000,592.164754,10436.903782
3846.404277,0.000000,814.226536,10140.821405
3846.404591,-919.314598,740.205942,11177.109724
3846.404906,-766.095498,1110.308913,10288.862594
3846.405221,76.609550,296.082377,10658.965565
3846.405536,612.876398,222.061783,10140.821405
3846.405851,0.000000,370.102971,10955.047942
3846.406166,0.000000,962.267725,10658.965565
3846.406481,-995.924147,518.144159,10362.883188
3846.406795,-383.047749,222.061783,10288.862594
3846.407110,153.219100,-518.144159,10732.986159
3846.407425,-153.219100,-0.000000,10510.924376
3846.407740,-536.266849,-0.000000,10955.047942
3846.408055,-919.314598,1036.288319,9992.780217
3846.408370,-459.657299,296.082377,11029.068536
3846.408684,229.828649,518.144159,10362.883188
3846.408999,383.047749,148.041188,9992.780217
3846.409314,383.047749,222.061783,10362.883188
3846.409629,0.000000,-0.000000,9844.739029
3846.409944,153.219100,148.041188,9622.677246
3846.410259,766.095498,222.061783,9326.594869
3846.410573,995.924147,148.041188,9104.533087
3846.410888,536.266849,370.102971,9474.636058
3846.411203,229.828649,-222.061783,8660.409521
3846.411518,306.438199,-148.041188,8734.430116
3846.411833,612.876398,-222.061783,9104.533087
3846.412148,459.657299,-814.226536,9252.574275
3846.412463,153.219100,-148.041188,8882.471304
3846.412777,0.000000,-0.000000,9252.574275
3846.413092,383.047749,222.061783,8660.409521
3846.413407,995.924147,296.082377,8142.265362
3846.413722,2145.067394,296.082377,8068.244768
3846.414037,1225.752797,222.061783,8068.244768
3846.414352,766.095498,814.226536,8364.327145
3846.414666,383.047749,666.185348,8586.388927
3846.414981,1302.362347,148.041188,8882.471304
3846.415296,1225.752797,-0.000000,8660.409521
3846.415611,306.438199,-296.082377,9474.636058
3846.415926,0.000000,-444.123565,10214.842000
3846.416241,-766.095498,-0.000000,9400.615463
3846.416555,229.828649,-0.000000,9104.533087
3846.416870,306.438199,222.061783,9178.553681
3846.417185,-306.438199,-296.082377,9696.697840
3846.417500,-229.828649,-0.000000,9696.697840
3846.417815,-306.438199,-0.000000,9770.718434
3846.418130,76.609550,592.164754,9474.636058
3846.418445,612.876398,-0.000000,9770.718434
3846.418759,229.828649,444.123565,10214.842000
3846.419074,-383.047749,370.102971,9918.759623
3846.419389,-536.266849,888.247130,10362.883188
3846.419704,-306.438199,740.205942,10658.965565
3846.420019,383.047749,592.164754,9992.780217
3846.420333,76.609550,370.102971,11177.109724
3846.420648,-153.219100,888.247130,10288.862594
3846.420963,-1149.143247,370.102971,9992.780217
3846.421278,0.000000,-74.020594,9844.739029
3846.421592,229.828649,222.061783,10436.903782
3846.421907,76.609550,-0.000000,10436.903782
3846.422222,-459.657299,962.267725,10510.924376
3846.422537,-1072.533697,740.205942,9844.739029
3846.422851,-229.828649,296.082377,10066.800811
3846.423166,306.438199,296.082377,10066.800811
3846.423481,0.000000,296.082377,10066.800811
3846.423795,0.000000,518.144159,9474.636058
3846.424110,0.000000,518.144159,9252.574275
3846.424425,0.000000,370.102971,9474.636058
3846.424740,229.828649,296.082377,8734.430116
3846.425054,229.828649,-222.061783,9918.759623
3846.425369,-383.047749,-296.082377,10436.903782
3846.425684,-459.657299,-0.000000,10140.821405
3846.425999,0.000000,-444.123565,9770.718434
3846.426313,536.266849,-0.000000,9622.677246
3846.426628,153.219100,222.061783,10140.821405
3846.426943,153.219100,148.041188,9770.718434
3846.427257,0.000000,296.082377,9548.656652
3846.427572,306.438199,-222.061783,9104.533087
3846.427887,1302.362347,-74.020594,8808.450710
3846.428202,919.314598,-148.041188,9178.553681
3846.428516,306.438199,-74.020594,9474.636058
3846.428831,306.438199,-0.000000,9104.533087
3846.429146,-153.219100,-518.144159,9104.533087
3846.429461,229.828649,-740.205942,9326.594869
3846.429775,689.485948,-592.164754,9622.677246
3846.430090,229.828649,-296.082377,9252.574275
3846.430405,76.609550,-148.041188,9104.533087
3846.430719,0.000000,-148.041188,8808.450710
3846.431034,536.266849,-370.102971,9400.615463
3846.431349,919.314598,-74.020594,9178.553681
3846.431664,612.876398,-444.123565,9178.553681
3846.431978,-306.438199,-74.020594,9326.594869
3846.432293,0.000000,-222.061783,8956.491898
3846.432608,689.485948,-74.020594,9548.656652
3846.432922,919.314598,-370.102971,9992.780217
3846.433237,229.828649,-74.020594,9696.697840
3846.433552,-306.438199,740.205942,9178.553681
3846.433867,-612.876398,444.123565,9548.656652
3846.434181,153.219100,740.205942,9252.574275
3846.434496,459.657299,148.041188,8808.450710
3846.434811,153.219100,370.102971,8956.491898
3846.435126,-459.657299,-0.000000,9326.594869
3846.435440,-1149.143247,-0.000000,9252.574275
3846.435755,-1378.971896,-0.000000,9548.656652
3846.436070,-1149.143247,-222.061783,10436.903782
3846.436384,-1378.971896,-814.226536,11473.192101
3846.436699,-2298.286494,-0.000000,10658.965565
3846.437014,-2528.115143,-0.000000,10066.800811
3846.437329,-2374.896044,-0.000000,10658.965565
3846.437643,-1608.800546,-0.000000,9252.574275
3846.437958,-1149.143247,-1258.350101,10955.047942
3846.438273,-1302.362347,1184.329507,9696.697840
3846.438588,-2451.505594,-74.020594,10066.800811
3846.438902,-1915.238745,-740.205942,10658.965565
3846.439217,-1378.971896,-592.164754,10288.862594
3846.439532,-1455.581446,-666.185348,9770.718434
3846.439846,-1991.848295,-1110.308913,10362.883188
3846.440161,-1685.410096,-888.247130,10510.924376
3846.440476,-1915.238745,-1036.288319,9696.697840
3846.440791,-1991.848295,-1184.329507,9474.636058
3846.441105,-1685.410096,-1702.473667,9696.697840
3846.441420,-1915.238745,-2294.638420,9770.718434
3846.441735,-1991.848295,-2072.576638,10214.842000
3846.442050,-2068.457845,-1850.514855,9770.718434
3846.442364,-2374.896044,-1850.514855,9400.615463
3846.442679,-1302.362347,-2146.597232,9548.656652
3846.442994,-1225.752797,-2220.617826,9548.656652
3846.443308,-1608.800546,-2220.617826,9696.697840
3846.443623,-1991.848295,-2294.638420,9622.677246
3846.443938,-2145.067394,-2220.617826,9104.533087
3846.444253,-1991.848295,-1998.556043,8364.327145
3846.444567,-1072.533697,-2368.659014,9474.636058
3846.444882,-1225.752797,-2294.638420,9622.677246
3846.445197,-1838.629195,-2664.741391,9548.656652
3846.445512,-1608.800546,-2442.679609,9474.636058
3846.445826,-2068.457845,-2220.617826,9326.594869
3846.446141,-1455.581446,-2294.638420,9104.533087
3846.446456,-919.314598,-2590.720797,9548.656652
3846.446770,-689.485948,-2664.741391,9104.533087
3846.447085,-229.828649,-3256.906145,9474.636058
3846.447400,-1072.533697,-3108.864956,8216.285956
3846.447715,-1455.581446,-1850.514855,7698.141797
3846.448029,-1225.752797,-1776.494261,8438.347739
3846.448344,-842.705048,-2072.576638,7772.162391
3846.448659,-229.828649,-2516.700203,8216.285956
3846.448974,-1149.143247,-3108.864956,8808.450710
3846.449288,-1915.238745,-2590.720797,9030.512492
3846.449603,-2451.505594,-2294.638420,9178.553681
3846.449918,-2451.505594,-2516.700203,9400.615463
3846.450232,-2221.676944,-2738.761985,9696.697840
3846.450547,-1532.190996,-2960.823768,9770.718434
3846.450862,-1762.019645,-2442.679609,9622.677246
3846.451177,-2528.115143,-1998.556043,9844.739029
3846.451491,-2987.772442,-2072.576638,10140.821405
3846.451806,-2451.505594,-1332.370696,9326.594869
3846.452121,-2221.676944,-1480.411884,9326.594869
3846.452436,-1455.581446,-1998.556043,9622.677246
3846.452750,-2221.676944,-2368.659014,9178.553681
3846.453065,-2604.724693,-2960.823768,9696.697840
3846.453380,-3064.381992,-2886.803174,10584.944971
3846.453694,-2911.162892,-2220.617826,9918.759623
3846.454009,-2528.115143,-1628.453072,9770.718434
3846.454324,-2451.505594,-1924.535449,10066.800811
3846.454639,-2298.286494,-2294.638420,10584.944971
3846.454953,-2145.067394,-2368.659014,9918.759623
3846.455268,-2451.505594,-2146.597232,10140.821405
3846.455583,-2451.505594,-1702.473667,10881.027347
3846.455897,-2221.676944,-888.247130,9548.656652
3846.456212,-2068.457845,-370.102971,8734.430116
3846.456527,-1685.410096,-518.144159,8586.388927
3846.456842,-2068.457845,-1258.350101,9104.533087
3846.457156,-2298.286494,-2294.638420,9844.739029
3846.457471,-2757.943793,-2590.720797,10214.842000
3846.457786,-3140.991542,-2516.700203,10955.047942
3846.458101,-3064.381992,-2368.659014,11325.150913
3846.458415,-3140.991542,-1628.453072,10584.944971
3846.458730,-2911.162892,-1258.350101,10732.986159
3846.459045,-2681.334243,-1480.411884,10510.924376
3846.459359,-2068.457845,-1554.432478,10140.821405
3846.459674,-1915.238745,-1332.370696,10214.842000
3846.459989,-1378.971896,-1110.308913,8956.491898
3846.460304,-1072.533697,-1036.288319,9104.533087
3846.460618,-689.485948,-1406.391290,9474.636058
3846.460933,-842.705048,-1702.473667,9178.553681
3846.461248,-1225.752797,-1480.411884,8882.471304
3846.461563,-1072.533697,-1554.432478,8956.491898
3846.461877,-1302.362347,-1998.556043,8734.430116
3846.462192,-1455.581446,-2072.576638,9178.553681
3846.462507,-1532.190996,-2738.761985,9696.697840
3846.462821,-2374.896044,-2886.803174,10214.842000
3846.463136,-2298.286494,-2960.823768,10881.027347
3846.463451,-2374.896044,-2442.679609,10288.862594
3846.463766,-2298.286494,-1480.411884,9252.574275
3846.464080,-1378.971896,-962.267725,8882.471304
3846.464395,-919.314598,-888.247130,8142.265362
3846.464710,-612.876398,-1036.288319,7920.203579
3846.465025,-306.438199,-1850.514855,8586.388927
3846.465339,-919.314598,-2590.720797,9030.512492
3846.465654,-1378.971896,-2664.741391,9548.656652
3846.465969,-1455.581446,-2442.679609,10510.924376
3846.466283,-1915.238745,-2220.617826,10955.047942
3846.466598,-2451.505594,-1406.391290,10288.862594
3846.466913,-2528.115143,-1110.308913,9178.553681
3846.467228,-2374.896044,-1776.494261,8956.491898
3846.467542,-1838.629195,-2146.597232,8734.430116
3846.467857,-1762.019645,-2516.700203,8956.491898
3846.468172,-2221.676944,-3108.864956,8660.409521
3846.468487,-2145.067394,-3627.009116,9622.677246
3846.468801,-1762.019645,-2812.782580,10288.862594
3846.469116,-1915.238745,-1924.535449,10436.903782
3846.469431,-1685.410096,-1480.411884,10881.027347
3846.469745,-1225.752797,-222.061783,10214.842000
3846.470060,-612.876398,148.041188,9400.615463
3846.470375,-1149.143247,-0.000000,8734.430116
3846.470690,-1455.581446,-740.205942,8142.265362
3846.471004,-1838.629195,-1628.453072,8364.327145
3846.471319,-2068.457845,-2442.679609,8734.430116
3846.471634,-2374.896044,-3256.906145,9178.553681
3846.471949,-2911.162892,-3330.926739,10288.862594
3846.472263,-2911.162892,-2886.803174,10436.903782
3846.472578,-3447.429741,-2368.659014,11251.130318
3846.472893,-3140.991542,-2368.659014,11843.295072
3846.473207,-3370.820191,-2294.638420,11547.212695
3846.473522,-2911.162892,-1776.494261,10807.006753
3846.473837,-2451.505594,-1258.350101,9548.656652
3846.474152,-1915.238745,-814.226536,8808.450710
3846.474466,-1072.533697,-888.247130,8142.265362
3846.474781,-1302.362347,-888.247130,7624.121203
3846.475096,-919.314598,-888.247130,8068.244768
3846.475411,-1149.143247,-1332.370696,9104.533087
3846.475725,-1838.629195,-2294.638420,10140.821405
3846.476040,-2451.505594,-2738.761985,11399.171507
3846.476355,-3294.210641,-3108.864956,11695.253884
3846.476669,-3524.039291,-2886.803174,11695.253884
3846.476984,-3524.039291,-2886.803174,11547.212695
3846.477299,-2604.724693,-2368.659014,10732.986159
3846.477614,-2451.505594,-1332.370696,9178.553681
3846.477928,-1991.848295,-888.247130,7624.121203
3846.478243,-919.314598,-296.082377,7105.977043
3846.478558,-459.657299,-888.247130,7031.956449
3846.478872,-229.828649,-1332.370696,7698.141797
3846.479187,-1072.533697,-2516.700203,8956.491898
3846.479502,-1685.410096,-2960.823768,10436.903782
3846.479817,-2451.505594,-3182.885551,11695.253884
3846.480131,-2911.162892,-3256.906145,11843.295072
3846.480446,-3064.381992,-2812.782580,12583.501014
3846.480761,-2604.724693,-2220.617826,11473.192101
3846.481076,-2298.286494,-1184.329507,10140.821405
3846.481390,-1762.019645,-740.205942,8734.430116
3846.481705,-1225.752797,-666.185348,7920.203579
3846.482020,-306.438199,-740.205942,7550.100608
3846.482334,306.438199,-1406.391290,6735.874072
3846.482649,76.609550,-2072.576638,7328.038826
3846.482964,0.000000,-2516.700203,8068.244768
3846.483279,-306.438199,-2886.803174,9326.594869
3846.483593,-919.314598,-3108.864956,10214.842000
3846.483908,-2298.286494,-2590.720797,10214.842000
3846.484223,-2834.553343,-2368.659014,10510.924376
3846.484538,-3064.381992,-2368.659014,10214.842000
3846.484852,-3370.820191,-2072.576638,9696.697840
3846.485167,-2374.896044,-1850.514855,9104.533087
3846.485482,-2604.724693,-1924.535449,8512.368333
3846.485796,-2298.286494,-1702.473667,8734.430116
3846.486111,-1685.410096,-1776.494261,9326.594869
3846.486426,-1302.362347,-1702.473667,9548.656652
3846.486741,-1225.752797,-1554.432478,10584.944971
3846.487055,-1225.752797,-1628.453072,10658.965565
3846.487370,-1225.752797,-1480.411884,10732.986159
3846.487685,-1302.362347,-1628.453072,11103.089130
3846.488000,-1685.410096,-1406.391290,10140.821405
3846.488314,-2145.067394,-518.144159,9104.533087
3846.488629,-1915.238745,-814.226536,7920.203579
3846.488944,-1685.410096,-962.267725,7772.162391
3846.489258,-1685.410096,-1480.411884,8068.244768
3846.489573,-2221.676944,-2442.679609,8290.306550
3846.489888,-2681.334243,-2812.782580,9030.512492
3846.490203,-2681.334243,-2886.803174,10066.800811
3846.490517,-2604.724693,-2960.823768,10807.006753
3846.490832,-2528.115143,-2812.782580,11769.274478
3846.491147,-2911.162892,-2294.638420,12065.356855
3846.491462,-2451.505594,-1702.473667,11325.150913
3846.491776,-2145.067394,-518.144159,10510.924376
3846.492091,-1532.190996,444.123565,9696.697840
3846.492406,-1072.533697,666.185348,9326.594869
3846.492720,-842.705048,296.082377,8290.306550
3846.493035,-766.095498,-370.102971,7994.224174
3846.493350,-995.924147,-1480.411884,8660.409521
3846.493665,-1302.362347,-2220.617826,9400.615463
3846.493979,-2145.067394,-2738.761985,9918.759623
3846.494294,-2451.505594,-3404.947333,10436.903782
3846.494609,-2681.334243,-3478.967927,10732.986159
3846.494924,-2911.162892,-3404.947333,10732.986159
3846.495238,-3294.210641,-2738.761985,9992.780217
3846.495553,-2987.772442,-2146.597232,9918.759623
3846.495868,-2451.505594,-1332.370696,9326.594869
3846.496182,-1838.629195,-1184.329507,8586.388927
3846.496497,-995.924147,-740.205942,8660.409521
3846.496812,-306.438199,-74.020594,8660.409521
3846.497127,0.000000,-74.020594,8660.409521
3846.497441,612.876398,-370.102971,8956.491898
3846.497756,383.047749,-814.226536,9770.718434
3846.498071,459.657299,-1258.350101,9992.780217
3846.498386,76.609550,-1406.391290,10066.800811
3846.498700,-459.657299,-1628.453072,9992.780217
3846.499015,-1149.143247,-1628.453072,9474.636058
3846.499330,-1072.533697,-1332.370696,8808.450710
3846.499644,-1072.533697,-1554.432478,8290.306550
3846.499959,-1072.533697,-1702.473667,8216.285956
3846.500274,-1072.533697,-1628.453072,7994.224174
3846.500589,-1149.143247,-2072.576638,8142.265362
3846.500903,-995.924147,-2146.597232,8512.368333
3846.501218,-1455.581446,-1924.535449,9474.636058
3846.501533,-1762.019645,-2072.576638,9474.636058
3846.501847,-1991.848295,-1554.432478,9770.718434
3846.502162,-1991.848295,-1110.308913,10955.047942
3846.502477,-2451.505594,-740.205942,10881.027347
3846.502792,-2298.286494,-370.102971,11029.068536
3846.503106,-2374.896044,-0.000000,10510.924376
3846.503421,-2604.724693,-148.041188,10510.924376
3846.503736,-2681.334243,-370.102971,9622.677246
3846.504051,-2987.772442,-1258.350101,9992.780217
3846.504365,-2604.724693,-1628.453072,9844.739029
3846.504680,-2528.115143,-2146.597232,9622.677246
3846.504995,-2987.772442,-2220.617826,9696.697840
3846.505309,-3600.648841,-2294.638420,9992.780217
3846.505624,-3983.696590,-2590.720797,10140.821405
3846.505939,-4290.134789,-2886.803174,10288.862594
3846.506254,-4213.525239,-2960.823768,10510.924376
3846.506568,-4060.306139,-2812.782580,10807.006753
3846.506883,-4136.915689,-2960.823768,10214.842000
3846.507198,-3830.477490,-3108.864956,10066.800811
3846.507513,-3677.258390,-2812.782580,9992.780217
3846.507827,-2987.772442,-2664.741391,9918.759623
3846.508142,-2451.505594,-1924.535449,9770.718434
3846.508457,-2374.896044,-1924.535449,9770.718434
3846.508771,-1915.238745,-2146.597232,9474.636058
3846.509086,-1532.190996,-2146.597232,9474.636058
3846.509401,-2221.676944,-2664.741391,9992.780217
3846.509716,-2681.334243,-2960.823768,9992.780217
3846.510030,-2834.553343,-3404.947333,10214.842000
3846.510345,-2834.553343,-3775.050304,9770.718434
3846.510660,-2911.162892,-4145.153275,10140.821405
3846.510975,-3217.601092,-4367.215058,10214.842000
3846.511289,-3217.601092,-3849.070898,9770.718434
3846.511604,-2834.553343,-3775.050304,9178.553681
3846.511919,-2221.676944,-3997.112087,8808.450710
3846.512233,-1762.019645,-3627.009116,7994.224174
3846.512548,-995.924147,-3256.906145,7920.203579
3846.512863,-919.314598,-3256.906145,7846.182985
3846.513178,-919.314598,-2664.741391,7476.080014
3846.513492,-612.876398,-2590.720797,7476.080014
3846.513807,-1455.581446,-2442.679609,7920.203579
3846.514122,-1378.971896,-2738.761985,8586.388927
3846.514437,-1455.581446,-2812.782580,9252.574275
3846.514751,-1685.410096,-3404.947333,9770.718434
3846.515066,-1991.848295,-3182.885551,10214.842000
3846.515381,-1915.238745,-3034.844362,10214.842000
3846.515695,-1991.848295,-2960.823768,10140.821405
3846.516010,-1225.752797,-2812.782580,9474.636058
3846.516325,-689.485948,-2146.597232,8512.368333
3846.516640,0.000000,-1258.350101,6957.935855
3846.516954,0.000000,-888.247130,6439.791695
3846.517269,0.000000,-1258.350101,7624.121203
3846.517584,0.000000,-1702.473667,7179.997637
3846.517899,-383.047749,-1850.514855,7105.977043
3846.518213,-612.876398,-2516.700203,8290.306550
3846.518528,-1915.238745,-3034.844362,9104.533087
3846.518843,-2451.505594,-3034.844362,10288.862594
3846.519157,-3064.381992,-2738.761985,10955.047942
3846.519472,-3294.210641,-2146.597232,11251.130318
3846.519787,-3370.820191,-2072.576638,11325.150913
3846.520102,-2681.334243,-1184.329507,10955.047942
3846.520416,-2298.286494,-592.164754,10881.027347
3846.520731,-2145.067394,-0.000000,9696.697840
3846.521046,-1915.238745,370.102971,9400.615463
3846.521361,-919.314598,370.102971,9030.512492
3846.521675,-1072.533697,222.061783,9844.739029
3846.521990,-1685.410096,-0.000000,9918.759623
3846.522305,-2221.676944,-518.144159,10362.883188
3846.522619,-2757.943793,-888.247130,11325.150913
3846.522934,-2681.334243,-1258.350101,12435.459826
3846.523249,-3830.477490,-1702.473667,13323.706956
3846.523564,-3983.696590,-1332.370696,12731.542202
3846.523878,-3753.867940,-962.267725,11769.274478
3846.524193,-2834.553343,-370.102971,11103.089130
3846.524508,-2298.286494,740.205942,9992.780217
3846.524823,-1455.581446,1554.432478,8438.347739
3846.525137,-612.876398,1258.350101,7772.162391
3846.525452,-306.438199,666.185348,7550.100608
3846.525767,-459.657299,-222.061783,8512.368333
3846.526082,-1149.143247,-1332.370696,9770.718434
3846.526396,-2451.505594,-2294.638420,11177.109724
3846.526711,-2987.772442,-2664.741391,12583.501014
3846.527026,-3140.991542,-2368.659014,13397.727550
3846.527340,-3294.210641,-1110.308913,12657.521608
3846.527655,-3294.210641,-740.205942,11695.253884
3846.527970,-2451.505594,-222.061783,10658.965565
3846.528285,-1532.190996,-296.082377,8734.430116
3846.528599,-612.876398,-148.041188,7105.977043
3846.528914,0.000000,-592.164754,6069.688724
3846.529229,-536.266849,-1332.370696,6513.812290
3846.529544,0.000000,-2590.720797,7772.162391
3846.529858,-383.047749,-3478.967927,8660.409521
3846.530173,-1762.019645,-3849.070898,10214.842000
3846.530488,-3294.210641,-3256.906145,11103.089130
3846.530803,-3447.429741,-3108.864956,11251.130318
3846.531117,-3217.601092,-2812.782580,11103.089130
3846.531432,-2911.162892,-2294.638420,9992.780217
3846.531747,-2834.553343,-2220.617826,8660.409521
3846.532062,-2374.896044,-2368.659014,7698.141797
3846.532376,-766.095498,-3034.844362,7994.224174
3846.532691,-306.438199,-3182.885551,7550.100608
3846.533006,-229.828649,-2590.720797,7476.080014
3846.533320,-995.924147,-2442.679609,7772.162391
3846.533635,-612.876398,-2442.679609,9178.553681
3846.533950,-919.314598,-2072.576638,10066.800811
3846.534265,-1838.629195,-2664.741391,10140.821405
3846.534579,-2451.505594,-3108.864956,10288.862594
3846.534894,-2221.676944,-3627.009116,10140.821405
3846.535209,-2221.676944,-3701.029710,10288.862594
3846.535524,-2528.115143,-2960.823768,9474.636058
3846.535838,-2374.896044,-2146.597232,8142.265362
3846.536153,-1608.800546,-1628.453072,6661.853478
3846.536468,-919.314598,-2072.576638,7105.977043
3846.536783,-766.095498,-1850.514855,7476.080014
3846.537097,-1532.190996,-2590.720797,7920.203579
3846.537412,-1762.019645,-3997.112087,8882.471304
3846.537727,-2145.067394,-4959.379811,10955.047942
3846.538041,-3447.429741,-3775.050304,11325.150913
3846.538356,-3370.820191,-3552.988522,11547.212695
3846.538671,-3370.820191,-2516.700203,10584.944971
3846.538986,-3447.429741,-2072.576638,10436.903782
3846.539300,-3064.381992,-1258.350101,9178.553681
3846.539615,-2451.505594,-1332.370696,8734.430116
3846.539930,-2221.676944,-1924.535449,8660.409521
3846.540245,-2145.067394,-2294.638420,8734.430116
3846.540559,-1608.800546,-2442.679609,8660.409521
3846.540874,-1532.190996,-2664.741391,9770.718434
3846.541189,-1762.019645,-2590.720797,10214.842000
3846.541504,-2298.286494,-2664.741391,10881.027347
3846.541818,-2681.334243,-2738.761985,11399.171507
3846.542133,-2757.943793,-2368.659014,11621.233289
3846.542448,-3294.210641,-1258.350101,10214.842000
3846.542763,-2145.067394,-1924.535449,9326.594869
3846.543077,-2528.115143,-1628.453072,9474.636058
3846.543392,-2451.505594,-1702.473667,8512.368333
3846.543707,-2145.067394,-1998.556043,8438.347739
3846.544021,-1838.629195,-2516.700203,8734.430116
3846.544336,-2604.724693,-1850.514855,9400.615463
3846.544651,-2068.457845,-1554.432478,9474.636058
3846.544966,-1608.800546,-2146.597232,10140.821405
3846.545280,-1762.019645,-2072.576638,10881.027347
3846.545595,-1991.848295,-2368.659014,11695.253884
3846.545910,-1838.629195,-2072.576638,11917.315666
3846.546225,-2451.505594,-1184.329507,11399.171507
3846.546539,-2298.286494,370.102971,9844.739029
3846.546854,-1225.752797,518.144159,8660.409521
3846.547169,0.000000,518.144159,7476.080014
3846.547484,153.219100,-370.102971,8142.265362
3846.547798,229.828649,-1554.432478,8660.409521
3846.548113,-842.705048,-1702.473667,8586.388927
3846.548428,-1762.019645,-1628.453072,9474.636058
3846.548742,-1608.800546,-2072.576638,9548.656652
3846.549057,-1685.410096,-2368.659014,10288.862594
3846.549372,-1762.019645,-2146.597232,11103.089130
3846.549687,-2221.676944,-2294.638420,10881.027347
3846.550001,-3064.381992,-1258.350101,10436.903782
3846.550316,-2528.115143,-0.000000,9474.636058
3846.550631,-1991.848295,296.082377,8586.388927
3846.550946,-1149.143247,-0.000000,7846.182985
3846.551260,229.828649,-1184.329507,8364.327145
3846.551575,-306.438199,-1628.453072,9178.553681
3846.551890,-1608.800546,-1480.411884,9548.656652
3846.552205,-766.095498,-1554.432478,9918.759623
3846.552519,-689.485948,-1036.288319,9918.759623
3846.552834,-459.657299,-1332.370696,11103.089130
3846.553149,229.828649,-1258.350101,10658.965565
3846.553464,-1762.019645,-592.164754,10288.862594
3846.553778,-1915.238745,-666.185348,9992.780217
3846.554093,-1608.800546,-888.247130,9474.636058
3846.554408,-1225.752797,222.061783,8216.285956
3846.554722,-459.657299,-296.082377,7254.018232
3846.555037,-306.438199,-1036.288319,7476.080014
3846.555352,-919.314598,-962.267725,8364.327145
3846.555667,-536.266849,-1628.453072,9474.636058
3846.555981,-306.438199,-1406.391290,9918.759623
3846.556296,-842.705048,-1406.391290,11251.130318
3846.556611,-1072.533697,-1406.391290,11917.315666
3846.556926,-1302.362347,-370.102971,10658.965565
3846.557240,-1302.362347,666.185348,10807.006753
3846.557555,-383.047749,1184.329507,9844.739029
3846.557870,612.876398,1924.535449,8364.327145
3846.558185,689.485948,1628.453072,7920.203579
3846.558499,612.876398,1776.494261,7624.121203
3846.558814,306.438199,1110.308913,7476.080014
3846.559129,612.876398,-740.205942,8438.347739
3846.559443,383.047749,-1258.350101,9548.656652
3846.559758,-229.828649,-1776.494261,11251.130318
3846.560073,-1762.019645,-1480.411884,11473.192101
3846.560388,-2451.505594,-1332.370696,11695.253884
3846.560702,-2145.067394,-222.061783,11103.089130
3846.561017,-1532.190996,370.102971,10584.944971
3846.561332,-1072.533697,666.185348,9844.739029
3846.561647,-383.047749,444.123565,9548.656652
3846.561961,0.000000,1110.308913,8512.368333
3846.562276,919.314598,740.205942,7402.059420
3846.562591,1149.143247,518.144159,8882.471304
3846.562906,1608.800546,-148.041188,9770.718434
3846.563220,1608.800546,-666.185348,10066.800811
3846.563535,1072.533697,-0.000000,9474.636058
3846.563850,459.657299,-0.000000,10066.800811
3846.564165,0.000000,-296.082377,10362.883188
3846.564479,306.438199,-74.020594,10510.924376
3846.564794,-766.095498,-222.061783,9548.656652
3846.565109,-689.485948,-1036.288319,10510.924376
3846.565423,-306.438199,-666.185348,8660.409521
3846.565738,0.000000,-444.123565,8660.409521
3846.566053,842.705048,-148.041188,9548.656652
3846.566368,306.438199,148.041188,9770.718434
3846.566682,153.219100,-148.041188,9918.759623
3846.566997,919.314598,-592.164754,9548.656652
3846.567312,1455.581446,-222.061783,10066.800811
3846.567627,1378.971896,518.144159,9622.677246
3846.567941,689.485948,740.205942,9178.553681
3846.568256,76.609550,1036.288319,9252.574275
3846.568571,0.000000,1332.370696,8290.306550
3846.568886,229.828649,962.267725,8364.327145
3846.569200,229.828649,518.144159,9030.512492
3846.569515,-383.047749,-0.000000,9474.636058
3846.569830,-1532.190996,-370.102971,9474.636058
3846.570144,-1532.190996,-592.164754,9844.739029
3846.570459,-1225.752797,-1406.391290,10436.903782
3846.570774,-383.047749,-1406.391290,11029.068536
3846.571089,-306.438199,-444.123565,10214.842000
3846.571403,-153.219100,444.123565,9474.636058
3846.571718,229.828649,1406.391290,8882.471304
3846.572033,1072.533697,1850.514855,8512.368333
3846.572348,1072.533697,2442.679609,8142.265362
3846.572662,1455.581446,2072.576638,8438.347739
3846.572977,689.485948,1998.556043,8438.347739
3846.573292,536.266849,1406.391290,8586.388927
3846.573607,153.219100,370.102971,9622.677246
3846.573921,153.219100,-518.144159,10140.821405
3846.574236,229.828649,-1332.370696,11029.068536
3846.574551,-766.095498,-888.247130,10584.944971
3846.574866,-306.438199,-148.041188,10436.903782
3846.575180,153.219100,740.205942,9548.656652
3846.575495,766.095498,888.247130,9474.636058
3846.575810,919.314598,1406.391290,9548.656652
3846.576124,306.438199,1036.288319,9474.636058
3846.576439,153.219100,1406.391290,8734.430116
3846.576754,842.705048,814.226536,9104.533087
3846.577069,995.924147,888.247130,10066.800811
3846.577383,1072.533697,296.082377,10436.903782
3846.577698,0.000000,666.185348,11103.089130
3846.578013,153.219100,-0.000000,11473.192101
3846.578328,-306.438199,814.226536,9770.718434
3846.578642,0.000000,-296.082377,11177.109724
3846.578957,1072.533697,-0.000000,10584.944971
3846.579272,0.000000,740.205942,9326.594869
3846.579587,-306.438199,888.247130,9474.636058
3846.579901,-306.438199,666.185348,9474.636058
3846.580216,0.000000,518.144159,9474.636058
3846.580531,383.047749,222.061783,9696.697840
3846.580845,76.609550,222.061783,9770.718434
3846.581160,-306.438199,148.041188,10288.862594
3846.581475,153.219100,592.164754,9474.636058
3846.581790,459.657299,148.041188,9104.533087
3846.582104,612.876398,666.185348,9844.739029
3846.582419,306.438199,-0.000000,9474.636058
3846.582734,76.609550,370.102971,9030.512492
3846.583049,229.828649,962.267725,8660.409521
3846.583363,612.876398,962.267725,8956.491898
3846.583678,306.438199,592.164754,8734.430116
3846.583993,536.266849,-0.000000,9326.594869
3846.584308,-689.485948,-370.102971,9548.656652
3846.584622,-842.705048,-592.164754,9696.697840
3846.584937,-383.047749,-444.123565,9474.636058
3846.585252,0.000000,-1258.350101,9918.759623
3846.585567,0.000000,-592.164754,9622.677246
3846.585881,-689.485948,-518.144159,10066.800811
3846.586196,-612.876398,-444.123565,9474.636058
3846.586511,0.000000,-666.185348,9030.512492
3846.586825,612.876398,-148.041188,9104.533087
3846.587140,153.219100,518.144159,9104.533087
3846.587455,-689.485948,444.123565,9178.553681
3846.587770,-842.705048,-0.000000,9918.759623
3846.588084,-306.438199,-1036.288319,9548.656652
3846.588399,0.000000,-1406.391290,9918.759623
3846.588714,153.219100,-1036.288319,9622.677246
3846.589029,-612.876398,-1110.308913,9918.759623
3846.589343,-919.314598,-222.061783,9918.759623
3846.589658,-612.876398,-148.041188,9326.594869
3846.589973,0.000000,-518.144159,9770.718434
3846.590288,0.000000,-74.020594,9548.656652
3846.590602,-459.657299,296.082377,9474.636058
3846.590917,-689.485948,-0.000000,9696.697840
3846.591232,76.609550,370.102971,9770.718434
3846.591546,76.609550,370.102971,9622.677246
3846.591861,229.828649,-0.000000,10140.821405
3846.592176,0.000000,444.123565,10214.842000
3846.592491,0.000000,-222.061783,9844.739029
3846.592805,766.095498,518.144159,9178.553681
3846.593120,689.485948,518.144159,9030.512492
3846.593435,842.705048,814.226536,9030.512492
3846.593750,383.047749,-0.000000,9696.697840
3846.594064,-459.657299,-0.000000,10214.842000
3846.594379,-306.438199,-74.020594,9474.636058
3846.594694,383.047749,148.041188,10214.842000
3846.595009,612.876398,296.082377,10362.883188
3846.595323,153.219100,1480.411884,10214.842000
3846.595638,0.000000,888.247130,10510.924376
3846.595953,536.266849,1332.370696,8882.471304
3846.596268,1455.581446,-0.000000,9548.656652
3846.596582,2298.286494,370.102971,9178.553681
3846.596897,1762.019645,-0.000000,9326.594869
3846.597212,153.219100,444.123565,9400.615463
3846.597526,612.876398,370.102971,9252.574275
3846.597841,459.657299,222.061783,9474.636058
3846.598156,919.314598,-222.061783,10436.903782
3846.598471,229.828649,-148.041188,10584.944971
3846.598785,0.000000,-222.061783,10214.842000
3846.599100,-689.485948,-0.000000,9474.636058
3846.599415,229.828649,370.102971,9326.594869
3846.599730,689.485948,-0.000000,9770.718434
3846.600044,612.876398,-222.061783,10214.842000
3846.600359,306.438199,-296.082377,9622.677246
3846.600674,459.657299,518.144159,9178.553681
3846.600989,919.314598,814.226536,9252.574275
3846.601303,536.266849,666.185348,9474.636058
3846.601618,-76.609550,962.267725,9622.677246
3846.601933,-842.705048,148.041188,10288.862594
3846.602247,-995.924147,148.041188,9104.533087
3846.602562,-306.438199,-814.226536,9474.636058
3846.602877,-459.657299,-740.205942,10214.842000
3846.603192,-612.876398,-148.041188,9326.594869
3846.603506,-1378.971896,-222.061783,9474.636058
3846.603821,-1072.533697,-222.061783,8956.491898
3846.604136,-383.047749,-0.000000,9252.574275
3846.604451,0.000000,222.061783,8956.491898
3846.604765,459.657299,444.123565,8586.388927
3846.605080,-383.047749,592.164754,8808.450710
3846.605395,-536.266849,814.226536,8956.491898
3846.605710,0.000000,1036.288319,7994.224174
3846.606024,0.000000,148.041188,9548.656652
3846.606339,0.000000,-74.020594,9326.594869
3846.606654,-842.705048,-444.123565,10066.800811
3846.606969,-766.095498,444.123565,10066.800811
3846.607283,-766.095498,444.123565,9104.533087
3846.607598,-612.876398,-74.020594,9770.718434
3846.607913,229.828649,-148.041188,9696.697840
3846.608227,-612.876398,-0.000000,9696.697840
3846.608542,-919.314598,-0.000000,9622.677246
3846.608857,-153.219100,148.041188,9400.615463
3846.609172,229.828649,-0.000000,9770.718434
3846.609486,689.485948,-148.041188,9696.697840
3846.609801,153.219100,-0.000000,9770.718434
3846.610116,-153.219100,-0.000000,10214.842000
3846.610431,76.609550,370.102971,9696.697840
3846.610745,842.705048,-0.000000,10584.944971
3846.611060,1072.533697,-518.144159,10288.862594
3846.611375,536.266849,-0.000000,10510.924376
3846.611690,-153.219100,-0.000000,9770.718434
3846.612004,153.219100,-0.000000,9030.512492
3846.612319,1072.533697,-518.144159,10066.800811
3846.612634,1302.362347,-148.041188,9918.759623
3846.612948,1072.533697,148.041188,9474.636058
3846.613263,306.438199,-296.082377,9622.677246
3846.613578,306.438199,-74.020594,10362.883188
3846.613893,1225.752797,-370.102971,9696.697840
3846.614207,1915.238745,-888.247130,9992.780217
3846.614522,842.705048,-0.000000,9844.739029
3846.614837,689.485948,370.102971,9844.739029
3846.615152,612.876398,1110.308913,8512.368333
3846.615466,689.485948,1036.288319,8956.491898
3846.615781,1532.190996,666.185348,9104.533087
3846.616096,1225.752797,370.102971,9400.615463
3846.616411,459.657299,518.144159,8512.368333
3846.616725,76.609550,-222.061783,9400.615463
3846.617040,459.657299,-148.041188,9548.656652
3846.617355,612.876398,-1110.308913,10140.821405
3846.617670,0.000000,-592.164754,10436.903782
3846.617984,-689.485948,-148.041188,10732.986159
3846.618299,-612.876398,1110.308913,9400.615463
3846.618614,76.609550,1110.308913,8438.347739
3846.618929,842.705048,962.267725,8290.306550
3846.619243,842.705048,518.144159,8586.388927
3846.619558,-153.219100,296.082377,8882.471304
3846.619873,-612.876398,370.102971,9326.594869
3846.620188,0.000000,-0.000000,9326.594869
3846.620503,766.095498,296.082377,9770.718434
3846.620818,76.609550,296.082377,9474.636058
3846.621132,-612.876398,370.102971,10510.924376
3846.621447,-995.924147,-0.000000,10214.842000
3846.621762,-1072.533697,222.061783,9474.636058
3846.622077,-383.047749,-0.000000,9992.780217
3846.622392,-995.924147,222.061783,9696.697840
3846.622707,-1225.752797,370.102971,9474.636058
3846.623021,-1378.971896,518.144159,9770.718434
3846.623336,-842.705048,370.102971,9548.656652
3846.623651,0.000000,-0.000000,9918.759623
3846.623966,383.047749,296.082377,9770.718434
3846.624281,229.828649,592.164754,9918.759623
3846.624596,-229.828649,666.185348,10362.883188
3846.624910,459.657299,888.247130,9622.677246
3846.625225,919.314598,666.185348,9030.512492
3846.625540,689.485948,666.185348,8512.368333
3846.625855,919.314598,-370.102971,9696.697840
3846.626170,0.000000,370.102971,9400.615463
3846.626485,-76.609550,-0.000000,9178.553681
3846.626799,459.657299,-592.164754,10436.903782
3846.627114,-229.828649,-370.102971,9918.759623
3846.627429,-536.266849,-888.247130,10436.903782
3846.627744,-766.095498,-592.164754,11177.109724
3846.628059,-306.438199,-222.061783,10362.883188
3846.628374,1225.752797,444.123565,10288.862594
3846.628688,1532.190996,1036.288319,9622.677246
3846.629003,1685.410096,1702.473667,9474.636058
3846.629318,1455.581446,1850.514855,9326.594869
3846.629633,2068.457845,1924.535449,8142.265362
3846.629948,2681.334243,1184.329507,8216.285956
3846.630263,2221.676944,1036.288319,9474.636058
3846.630577,1302.362347,370.102971,9252.574275
3846.630892,0.000000,-148.041188,9548.656652
3846.631207,0.000000,-592.164754,9178.553681
3846.631522,-536.266849,-740.205942,9622.677246
3846.631837,0.000000,-962.267725,10066.800811
3846.632152,0.000000,-814.226536,9696.697840
3846.632466,-689.485948,-814.226536,9474.636058
3846.632781,-229.828649,-0.000000,9326.594869
3846.633096,229.828649,-666.185348,8808.450710
3846.633411,383.047749,-0.000000,9326.594869
3846.633726,229.828649,-0.000000,9844.739029
3846.634041,-306.438199,148.041188,10584.944971
3846.634355,-229.828649,518.144159,9992.780217
3846.634670,0.000000,518.144159,9030.512492
3846.634985,306.438199,-0.000000,9918.759623
3846.635300,-153.219100,-0.000000,10510.924376
3846.635615,-842.705048,-222.061783,10066.800811
3846.635930,-1072.533697,-370.102971,9622.677246
3846.636244,-689.485948,-666.185348,9252.574275
3846.636559,-842.705048,-888.247130,9474.636058
3846.636874,-842.705048,-888.247130,9548.656652
3846.637189,-1149.143247,-888.247130,9474.636058
3846.637504,-1302.362347,-962.267725,9918.759623
3846.637819,-766.095498,-74.020594,9474.636058
3846.638133,-383.047749,148.041188,9104.533087
3846.638448,-229.828649,-0.000000,9844.739029
3846.638763,-229.828649,592.164754,9104.533087
3846.639078,0.000000,518.144159,8660.409521
3846.639393,306.438199,444.123565,8068.244768
3846.639708,153.219100,518.144159,9400.615463
3846.640022,76.609550,888.247130,9252.574275
3846.640337,0.000000,888.247130,9474.636058
3846.640652,-1455.581446,814.226536,9770.718434
