#time,accel_x,accel_y,accel_z
4139.393136,306.438199,-0.000000,9474.636058
4139.393452,0.000000,222.061783,9548.656652
4139.393767,153.219100,-370.102971,9548.656652
4139.394082,229.828649,-0.000000,9400.615463
4139.394397,76.609550,222.061783,9474.636058
4139.394713,229.828649,-0.000000,9918.759623
4139.395028,153.219100,296.082377,9696.697840
4139.395343,0.000000,370.102971,9992.780217
4139.395659,0.000000,148.041188,9696.697840
4139.395974,153.219100,444.123565,9622.677246
4139.396289,0.000000,148.041188,9622.677246
4139.396605,153.219100,-0.000000,9844.739029
4139.396920,306.438199,148.041188,9622.677246
4139.397235,76.609550,-0.000000,9474.636058
4139.397550,153.219100,-0.000000,9548.656652
4139.397866,0.000000,222.061783,9474.636058
4139.398181,-229.828649,-148.041188,9918.759623
4139.398496,612.876398,-0.000000,9696.697840
4139.398812,0.000000,-74.020594,9844.739029
4139.399127,229.828649,-0.000000,9992.780217
4139.399442,-229.828649,-0.000000,9474.636058
4139.399757,0.000000,-0.000000,9178.553681
4139.400073,0.000000,-0.000000,9252.574275
4139.400388,76.609550,-0.000000,9622.677246
4139.400703,459.657299,74.020594,9326.594869
4139.401019,229.828649,-0.000000,9622.677246
4139.401334,459.657299,-0.000000,9474.636058
4139.401649,0.000000,-296.082377,9474.636058
4139.401965,76.609550,148.041188,9178.553681
4139.402280,306.438199,222.061783,9474.636058
4139.402595,76.609550,-0.000000,9770.718434
4139.402910,153.219100,-0.000000,9474.636058
4139.403226,0.000000,-0.000000,9474.636058
4139.403541,76.609550,296.082377,9474.636058
4139.403856,229.828649,222.061783,9474.636058
4139.404172,76.609550,-0.000000,9548.656652
4139.404487,0.000000,-0.000000,9844.739029
4139.404802,306.438199,296.082377,9622.677246
4139.405118,306.438199,222.061783,9474.636058
4139.405433,383.047749,296.082377,9770.718434
4139.405748,153.219100,296.082377,9844.739029
4139.406063,0.000000,-0.000000,9844.739029
4139.406379,0.000000,222.061783,9770.718434
4139.406694,306.438199,148.041188,9696.697840
4139.407009,0.000000,-0.000000,9400.615463
4139.407325,0.000000,148.041188,10066.800811
4139.407640,0.000000,-296.082377,9548.656652
4139.407955,153.219100,-0.000000,9918.759623
4139.408271,459.657299,370.102971,9474.636058
4139.408586,0.000000,444.123565,9696.697840
4139.408901,-153.219100,-0.000000,9622.677246
4139.409216,0.000000,-74.020594,9474.636058
4139.409532,76.609550,-0.000000,9622.677246
4139.409847,153.219100,-0.000000,9548.656652
4139.410162,76.609550,296.082377,9548.656652
4139.410478,0.000000,148.041188,9622.677246
4139.410793,153.219100,-0.000000,9400.615463
4139.411108,306.438199,-0.000000,9548.656652
4139.411423,0.000000,-74.020594,9326.594869
4139.411739,0.000000,222.061783,9548.656652
4139.412054,153.219100,-0.000000,9622.677246
4139.412369,0.000000,222.061783,9326.594869
4139.412685,306.438199,370.102971,9400.615463
4139.413000,306.438199,-0.000000,9474.636058
4139.413315,229.828649,-74.020594,9622.677246
4139.413631,0.000000,-0.000000,9918.759623
4139.413946,229.828649,-0.000000,9696.697840
4139.414261,306.438199,-0.000000,9622.677246
4139.414576,536.266849,296.082377,9622.677246
4139.414892,229.828649,-0.000000,9696.697840
4139.415207,153.219100,296.082377,9992.780217
4139.415522,153.219100,-0.000000,9474.636058
4139.415838,76.609550,370.102971,9474.636058
4139.416153,229.828649,222.061783,9696.697840
4139.416468,76.609550,296.082377,9992.780217
4139.416784,0.000000,-0.000000,9696.697840
4139.417099,459.657299,518.144159,9548.656652
4139.417414,306.438199,296.082377,9622.677246
4139.417729,0.000000,296.082377,9474.636058
4139.418045,76.609550,148.041188,9844.739029
4139.418360,-766.095498,-0.000000,9474.636058
4139.418675,0.000000,222.061783,9474.636058
4139.418991,0.000000,296.082377,9696.697840
4139.419306,0.000000,-0.000000,9918.759623
4139.419621,153.219100,148.041188,9992.780217
4139.419936,153.219100,-0.000000,9548.656652
4139.420252,-153.219100,-0.000000,9548.656652
4139.420567,153.219100,-0.000000,9400.615463
4139.420882,0.000000,222.061783,9548.656652
4139.421198,0.000000,148.041188,9474.636058
4139.421513,-153.219100,518.144159,9178.553681
4139.421828,-229.828649,518.144159,9252.574275
4139.422144,-306.438199,222.061783,9474.636058
4139.422459,-842.705048,518.144159,9548.656652
4139.422774,-612.876398,-0.000000,9696.697840
4139.423089,-689.485948,222.061783,9474.636058
4139.423405,-459.657299,740.205942,9400.615463
4139.423720,0.000000,592.164754,9474.636058
4139.424035,-229.828649,444.123565,9548.656652
4139.424351,-689.485948,740.205942,9474.636058
4139.424666,-612.876398,1036.288319,9178.553681
4139.424981,-383.047749,1110.308913,9104.533087
4139.425297,-536.266849,1406.391290,9104.533087
4139.425612,-612.876398,1036.288319,8956.491898
4139.425927,-1608.800546,1258.350101,9030.512492
4139.426242,-2145.067394,1110.308913,9030.512492
4139.426558,-2298.286494,1258.350101,9326.594869
4139.426873,-2298.286494,1110.308913,9548.656652
4139.427188,-2757.943793,1110.308913,9918.759623
4139.427504,-2604.724693,1480.411884,9844.739029
4139.427819,-3064.381992,1554.432478,9474.636058
4139.428134,-2911.162892,1998.556043,9770.718434
4139.428450,-2681.334243,2220.617826,9696.697840
4139.428765,-2834.553343,2442.679609,10066.800811
4139.429080,-2911.162892,2738.761985,9326.594869
4139.429395,-2451.505594,2812.782580,9178.553681
4139.429711,-2221.676944,3034.844362,9400.615463
4139.430026,-2604.724693,2960.823768,9696.697840
4139.430341,-2451.505594,2368.659014,9622.677246
4139.430657,-2528.115143,2368.659014,9992.780217
4139.430972,-2374.896044,2442.679609,10140.821405
4139.431287,-2374.896044,2220.617826,9992.780217
4139.431602,-1991.848295,2220.617826,10584.944971
4139.431918,-1915.238745,2368.659014,10436.903782
4139.432233,-1302.362347,2368.659014,9474.636058
4139.432548,-995.924147,3256.906145,8882.471304
4139.432864,-919.314598,3404.947333,8364.327145
4139.433179,-766.095498,3923.091493,8586.388927
4139.433494,-919.314598,3923.091493,8734.430116
4139.433810,-1455.581446,3775.050304,8956.491898
4139.434125,-1762.019645,3256.906145,9400.615463
4139.434440,-2374.896044,2812.782580,9918.759623
4139.434755,-2757.943793,2072.576638,10658.965565
4139.435071,-2834.553343,2368.659014,11103.089130
4139.435386,-2681.334243,2590.720797,11399.171507
4139.435701,-2374.896044,2960.823768,10955.047942
4139.436017,-2221.676944,3330.926739,10288.862594
4139.436332,-1838.629195,4515.256246,9696.697840
4139.436647,-1455.581446,4885.359217,8586.388927
4139.436963,-1532.190996,4811.338623,8660.409521
4139.437278,-1455.581446,4589.276840,8734.430116
4139.437593,-2145.067394,3923.091493,8660.409521
4139.437908,-1838.629195,3182.885551,9622.677246
4139.438224,-2374.896044,2664.741391,10510.924376
4139.438539,-2451.505594,1998.556043,11103.089130
4139.438854,-2757.943793,1628.453072,11547.212695
4139.439170,-2221.676944,1850.514855,11103.089130
4139.439485,-2068.457845,1998.556043,11251.130318
4139.439800,-995.924147,2442.679609,10140.821405
4139.440115,0.000000,2664.741391,9252.574275
4139.440431,459.657299,3256.906145,8882.471304
4139.440746,536.266849,3256.906145,8216.285956
4139.441061,383.047749,3552.988522,7994.224174
4139.441377,-306.438199,3701.029710,7772.162391
4139.441692,-1149.143247,3182.885551,8068.244768
4139.442007,-1991.848295,2516.700203,8290.306550
4139.442323,-2604.724693,1554.432478,9030.512492
4139.442638,-3677.258390,814.226536,10584.944971
4139.442953,-4673.182538,296.082377,11399.171507
4139.443268,-4596.572988,-0.000000,10732.986159
4139.443584,-4826.401637,-0.000000,10732.986159
4139.443899,-4213.525239,148.041188,11029.068536
4139.444214,-3217.601092,888.247130,11177.109724
4139.444530,-2145.067394,1628.453072,10510.924376
4139.444845,-536.266849,2368.659014,9918.759623
4139.445160,459.657299,3182.885551,8586.388927
4139.445476,766.095498,3775.050304,8512.368333
4139.445791,1072.533697,3701.029710,8142.265362
4139.446106,0.000000,2960.823768,7920.203579
4139.446421,-689.485948,2664.741391,7772.162391
4139.446737,-1608.800546,1628.453072,7994.224174
4139.447052,-2757.943793,-0.000000,8438.347739
4139.447367,-4060.306139,-148.041188,8956.491898
4139.447683,-5362.668486,-740.205942,9918.759623
4139.447998,-5592.497135,-1406.391290,11695.253884
4139.448313,-5439.278036,-1628.453072,10732.986159
4139.448628,-4366.744339,-1036.288319,11917.315666
4139.448944,-3294.210641,-296.082377,11547.212695
4139.449259,-1762.019645,-148.041188,11695.253884
4139.449574,459.657299,1702.473667,10436.903782
4139.449890,1762.019645,3330.926739,9252.574275
4139.450205,2298.286494,5329.482782,7550.100608
4139.450520,2374.896044,6069.688724,6143.709319
4139.450836,1991.848295,6217.729913,4959.379811
4139.451151,689.485948,5181.441594,5551.544565
4139.451466,-1991.848295,3701.029710,6587.832884
4139.451781,-4443.353888,1332.370696,9030.512492
4139.452097,-6435.202183,-1998.556043,12509.480420
4139.452412,-7354.516781,-3849.070898,12805.562797
4139.452727,-8044.002729,-4737.318029,13841.851115
4139.453043,-6894.859482,-4145.153275,15470.304188
4139.453358,-4903.011187,-2442.679609,14063.912898
4139.453673,-2298.286494,1184.329507,10955.047942
4139.453989,459.657299,4219.173869,7624.121203
4139.454304,2298.286494,7624.121203,5033.400406
4139.454619,3217.601092,9622.677246,4515.256246
4139.454934,2681.334243,10510.924376,3775.050304
4139.455250,995.924147,8438.347739,5181.441594
4139.455565,0.000000,5699.585753,8290.306550
4139.455880,-1762.019645,2294.638420,11399.171507
4139.456196,-3753.867940,-1702.473667,13915.871710
4139.456511,-5592.497135,-3478.967927,15914.427753
4139.456826,-5209.449386,-3478.967927,15840.407159
4139.457142,-4519.963438,-2886.803174,13249.686362
4139.457457,-3140.991542,-148.041188,11029.068536
4139.457772,-1838.629195,2738.761985,9992.780217
4139.458087,-229.828649,5773.606348,6143.709319
4139.458403,612.876398,7179.997637,4219.173869
4139.458718,1608.800546,8364.327145,3997.112087
4139.459033,459.657299,7179.997637,5847.626942
4139.459349,-383.047749,4737.318029,8660.409521
4139.459664,-1149.143247,2368.659014,10066.800811
4139.459979,-1225.752797,666.185348,11917.315666
4139.460294,-1378.971896,-0.000000,13249.686362
4139.460610,-1915.238745,-0.000000,13323.706956
4139.460925,-1838.629195,-0.000000,13471.748144
4139.461240,-2068.457845,1110.308913,11843.295072
4139.461556,-1838.629195,2442.679609,10362.883188
4139.461871,-1225.752797,3330.926739,8512.368333
4139.462186,-1302.362347,2886.803174,7550.100608
4139.462502,-1072.533697,2812.782580,7402.059420
4139.462817,0.000000,2886.803174,7105.977043
4139.463132,0.000000,2812.782580,7624.121203
4139.463447,-459.657299,2590.720797,8956.491898
4139.463763,-1072.533697,962.267725,10955.047942
4139.464078,-383.047749,148.041188,12953.603985
4139.464393,-459.657299,-444.123565,13101.645173
4139.464709,-459.657299,-1184.329507,12657.521608
4139.465024,0.000000,-1036.288319,11177.109724
4139.465339,536.266849,-74.020594,9548.656652
4139.465655,1302.362347,1924.535449,8142.265362
4139.465970,153.219100,3478.967927,6883.915261
4139.466285,536.266849,3923.091493,6291.750507
4139.466600,153.219100,3701.029710,7179.997637
4139.466916,-1225.752797,1924.535449,8216.285956
4139.467231,-2451.505594,-666.185348,10066.800811
4139.467546,-2451.505594,-2886.803174,11917.315666
4139.467862,-1762.019645,-3775.050304,12435.459826
4139.468177,-919.314598,-3701.029710,12731.542202
4139.468492,0.000000,-2886.803174,12435.459826
4139.468807,612.876398,-1036.288319,11103.089130
4139.469123,1685.410096,962.267725,9844.739029
4139.469441,1991.848295,2664.741391,7920.203579
4139.469757,2145.067394,3034.844362,6809.894666
4139.470072,2298.286494,2664.741391,6291.750507
4139.470387,1378.971896,1036.288319,6291.750507
4139.470703,1149.143247,-0.000000,6809.894666
4139.471018,0.000000,-1184.329507,8882.471304
4139.471333,-1225.752797,-1850.514855,10288.862594
4139.471648,-2145.067394,-3034.844362,11547.212695
4139.471964,-2374.896044,-4071.132681,11843.295072
4139.472279,-1991.848295,-4145.153275,12065.356855
4139.472594,-995.924147,-4293.194464,11769.274478
4139.472910,0.000000,-2442.679609,10658.965565
4139.473225,-306.438199,-1036.288319,9400.615463
4139.473540,153.219100,1332.370696,7624.121203
4139.473855,1149.143247,3034.844362,6587.832884
4139.474171,612.876398,3478.967927,6291.750507
4139.474486,306.438199,1406.391290,7105.977043
4139.474801,842.705048,-74.020594,8216.285956
4139.475117,612.876398,-1332.370696,9252.574275
4139.475432,-459.657299,-2368.659014,10807.006753
4139.475747,-1532.190996,-2442.679609,12287.418637
4139.476062,-1915.238745,-2738.761985,12213.398043
4139.476378,-1072.533697,-2812.782580,12509.480420
4139.476693,-766.095498,-2368.659014,11103.089130
4139.477008,0.000000,-1406.391290,9030.512492
4139.477324,383.047749,-666.185348,7994.224174
4139.477639,2068.457845,1036.288319,7179.997637
4139.477954,306.438199,1776.494261,6291.750507
4139.478269,919.314598,1998.556043,6661.853478
4139.478585,766.095498,1924.535449,7920.203579
4139.478900,306.438199,148.041188,9252.574275
4139.479215,919.314598,-1554.432478,10362.883188
4139.479531,766.095498,-2072.576638,10881.027347
4139.479846,919.314598,-2516.700203,11547.212695
4139.480161,306.438199,-1628.453072,11621.233289
4139.480477,306.438199,-148.041188,11177.109724
4139.480792,1149.143247,1036.288319,9844.739029
4139.481107,919.314598,2442.679609,8882.471304
4139.481422,919.314598,3330.926739,7179.997637
4139.481738,689.485948,2368.659014,7254.018232
4139.482053,1532.190996,1258.350101,8142.265362
4139.482368,842.705048,518.144159,8142.265362
4139.482684,0.000000,-148.041188,10288.862594
4139.482999,0.000000,148.041188,11325.150913
4139.483314,-689.485948,444.123565,11843.295072
4139.483629,-689.485948,-148.041188,11917.315666
4139.483945,76.609550,-518.144159,11991.336260
4139.484260,0.000000,370.102971,10436.903782
4139.484575,689.485948,962.267725,9104.533087
4139.484891,919.314598,1924.535449,8586.388927
4139.485206,689.485948,2664.741391,8068.244768
4139.485521,612.876398,2590.720797,8586.388927
4139.485836,306.438199,2812.782580,8660.409521
4139.486152,-612.876398,1924.535449,9770.718434
4139.486467,-536.266849,518.144159,10807.006753
4139.486782,-536.266849,-0.000000,11103.089130
4139.487098,-842.705048,-740.205942,11917.315666
4139.487413,-842.705048,-1406.391290,12361.439231
4139.487728,-919.314598,-370.102971,11769.274478
4139.488043,-689.485948,666.185348,11029.068536
4139.488359,-76.609550,1184.329507,9696.697840
4139.488674,0.000000,2442.679609,8586.388927
4139.488989,459.657299,2220.617826,7698.141797
4139.489305,995.924147,2146.597232,7698.141797
4139.489620,1072.533697,1554.432478,7402.059420
4139.489935,383.047749,370.102971,8882.471304
4139.490250,0.000000,666.185348,9548.656652
4139.490566,-1225.752797,370.102971,10807.006753
4139.490881,-1532.190996,-444.123565,11473.192101
4139.491196,-1225.752797,-888.247130,11991.336260
4139.491512,-689.485948,-1480.411884,11769.274478
4139.491827,-536.266849,-1036.288319,10658.965565
4139.492142,0.000000,-0.000000,9548.656652
4139.492458,153.219100,814.226536,8734.430116
4139.492773,919.314598,1924.535449,8364.327145
4139.493088,536.266849,1850.514855,7698.141797
4139.493403,1072.533697,2516.700203,7402.059420
4139.493719,306.438199,1184.329507,8364.327145
4139.494034,536.266849,-222.061783,8512.368333
4139.494349,689.485948,-1036.288319,9104.533087
4139.494665,229.828649,-1702.473667,10140.821405
4139.494980,-459.657299,-1406.391290,10436.903782
4139.495295,-689.485948,-1110.308913,10807.006753
4139.495610,-612.876398,-1110.308913,10510.924376
4139.495926,-383.047749,-740.205942,9770.718434
4139.496241,842.705048,-962.267725,9474.636058
4139.496556,1225.752797,-370.102971,7846.182985
4139.496872,1149.143247,-0.000000,7772.162391
4139.497187,536.266849,740.205942,8068.244768
4139.497502,919.314598,518.144159,8512.368333
4139.497817,536.266849,592.164754,9474.636058
4139.498133,306.438199,-0.000000,9992.780217
4139.498448,76.609550,-1480.411884,10732.986159
4139.498763,229.828649,-1776.494261,10214.842000
4139.499079,306.438199,-2146.597232,10732.986159
4139.499394,306.438199,-1628.453072,10807.006753
4139.499709,-229.828649,-666.185348,9622.677246
4139.500024,153.219100,74.020594,9178.553681
4139.500340,536.266849,814.226536,9326.594869
4139.500655,536.266849,962.267725,8364.327145
4139.500970,459.657299,296.082377,8956.491898
4139.501286,766.095498,-0.000000,8956.491898
4139.501601,459.657299,-0.000000,8808.450710
4139.501916,153.219100,-444.123565,9622.677246
4139.502231,0.000000,-444.123565,10955.047942
4139.502547,-612.876398,-222.061783,11177.109724
4139.502862,-689.485948,-148.041188,11399.171507
4139.503177,-612.876398,-222.061783,10732.986159
4139.503493,76.609550,-444.123565,10066.800811
4139.503808,766.095498,-0.000000,9548.656652
4139.504123,612.876398,1036.288319,8512.368333
4139.504439,153.219100,1480.411884,8734.430116
4139.504754,229.828649,1702.473667,8956.491898
4139.505069,76.609550,1702.473667,9104.533087
4139.505384,0.000000,666.185348,9696.697840
4139.505700,-383.047749,-148.041188,10362.883188
4139.506015,-306.438199,-740.205942,10214.842000
4139.506330,0.000000,-814.226536,10066.800811
4139.506646,-76.609550,-666.185348,10288.862594
4139.506961,-459.657299,-74.020594,10288.862594
4139.507276,0.000000,518.144159,9770.718434
4139.507591,76.609550,814.226536,9770.718434
4139.507907,229.828649,1332.370696,9104.533087
4139.508222,536.266849,222.061783,8586.388927
4139.508537,919.314598,370.102971,8808.450710
4139.508853,689.485948,740.205942,8882.471304
4139.509168,0.000000,666.185348,9178.553681
4139.509483,-229.828649,814.226536,9252.574275
4139.509798,-766.095498,-0.000000,10658.965565
4139.510114,-689.485948,-296.082377,10436.903782
4139.510429,-766.095498,-592.164754,10732.986159
4139.510744,-536.266849,-1258.350101,10288.862594
4139.511060,0.000000,-1406.391290,9918.759623
4139.511375,153.219100,296.082377,9548.656652
4139.511690,229.828649,1554.432478,9104.533087
4139.512005,383.047749,1924.535449,8882.471304
4139.512321,306.438199,2072.576638,8660.409521
4139.512636,0.000000,1554.432478,8364.327145
4139.512951,0.000000,148.041188,9400.615463
4139.513267,0.000000,-0.000000,10066.800811
4139.513582,0.000000,-296.082377,9844.739029
4139.513897,-459.657299,-0.000000,10140.821405
4139.514212,-306.438199,-0.000000,11103.089130
4139.514528,-383.047749,148.041188,10584.944971
4139.514843,-229.828649,666.185348,10214.842000
4139.515158,0.000000,962.267725,9992.780217
4139.515474,459.657299,592.164754,8882.471304
4139.515789,1608.800546,1110.308913,8660.409521
4139.516104,689.485948,1480.411884,8364.327145
4139.516420,459.657299,1628.453072,8586.388927
4139.516735,229.828649,1332.370696,9104.533087
4139.517050,229.828649,1480.411884,9400.615463
4139.517365,459.657299,518.144159,9918.759623
4139.517681,76.609550,-74.020594,10066.800811
4139.517996,536.266849,-740.205942,10214.842000
4139.518311,306.438199,-814.226536,10214.842000
4139.518627,306.438199,-444.123565,10510.924376
4139.518942,306.438199,-74.020594,9844.739029
4139.519257,919.314598,518.144159,9474.636058
4139.519572,919.314598,1184.329507,9326.594869
4139.519888,612.876398,962.267725,8882.471304
4139.520203,1149.143247,222.061783,8956.491898
4139.520518,1608.800546,-74.020594,9622.677246
4139.520834,1302.362347,-370.102971,9178.553681
4139.521149,459.657299,-148.041188,9696.697840
4139.521464,383.047749,-0.000000,9844.739029
4139.521779,153.219100,-222.061783,9844.739029
4139.522095,383.047749,-222.061783,10658.965565
4139.522410,306.438199,-814.226536,10436.903782
4139.522725,689.485948,-1332.370696,10436.903782
4139.523041,689.485948,-888.247130,9474.636058
4139.523356,459.657299,-444.123565,9030.512492
4139.523671,0.000000,222.061783,9622.677246
4139.523986,229.828649,518.144159,9770.718434
4139.524302,0.000000,518.144159,9548.656652
4139.524617,-383.047749,-0.000000,9696.697840
4139.524932,76.609550,-740.205942,9548.656652
4139.525248,153.219100,-1184.329507,10362.883188
4139.525563,153.219100,-962.267725,9770.718434
4139.525878,0.000000,-740.205942,10288.862594
4139.526193,-229.828649,-148.041188,10288.862594
4139.526509,0.000000,296.082377,9548.656652
4139.526824,0.000000,370.102971,9622.677246
4139.527139,-229.828649,296.082377,9178.553681
4139.527455,0.000000,-148.041188,8882.471304
4139.527770,612.876398,-666.185348,8512.368333
4139.528085,842.705048,-518.144159,8734.430116
4139.528401,0.000000,-74.020594,8956.491898
4139.528716,-919.314598,-0.000000,9030.512492
4139.529031,-842.705048,-0.000000,10066.800811
4139.529346,-689.485948,-148.041188,10066.800811
4139.529662,-536.266849,-962.267725,9770.718434
4139.529977,0.000000,-1036.288319,9326.594869
4139.530292,229.828649,-592.164754,8956.491898
4139.530608,0.000000,296.082377,8290.306550
4139.530923,0.000000,1036.288319,8216.285956
4139.531238,229.828649,1110.308913,9104.533087
4139.531553,-306.438199,1110.308913,8734.430116
4139.531869,-229.828649,666.185348,8808.450710
4139.532184,-229.828649,-444.123565,9474.636058
4139.532499,0.000000,-1110.308913,9548.656652
4139.532815,0.000000,-814.226536,9696.697840
4139.533130,-995.924147,-518.144159,10510.924376
4139.533445,-1532.190996,-444.123565,10881.027347
4139.533760,-919.314598,222.061783,10362.883188
4139.534076,-229.828649,740.205942,9918.759623
4139.534391,0.000000,148.041188,9622.677246
4139.534706,459.657299,518.144159,9770.718434
4139.535022,842.705048,592.164754,9104.533087
4139.535337,536.266849,740.205942,8660.409521
4139.535652,-229.828649,814.226536,9030.512492
4139.535967,306.438199,1110.308913,9770.718434
4139.536283,-306.438199,1110.308913,10362.883188
4139.536598,-459.657299,592.164754,9696.697840
4139.536913,-229.828649,-74.020594,10288.862594
4139.537229,-153.219100,-370.102971,10214.842000
4139.537544,153.219100,-222.061783,9992.780217
4139.537859,306.438199,-0.000000,10288.862594
4139.538175,0.000000,1036.288319,9696.697840
4139.538490,229.828649,962.267725,9918.759623
4139.538805,383.047749,1332.370696,10288.862594
4139.539120,612.876398,1850.514855,9252.574275
4139.539436,842.705048,1184.329507,9030.512492
4139.539751,1302.362347,592.164754,8956.491898
4139.540066,1302.362347,1184.329507,9030.512492
4139.540382,689.485948,1332.370696,9918.759623
4139.540697,766.095498,1110.308913,9622.677246
4139.541012,612.876398,740.205942,9918.759623
4139.541327,459.657299,-0.000000,10066.800811
4139.541643,612.876398,-0.000000,9474.636058
4139.541958,0.000000,-666.185348,10214.842000
4139.542273,995.924147,-74.020594,9474.636058
4139.542589,842.705048,814.226536,8586.388927
4139.542904,842.705048,962.267725,9104.533087
4139.543219,612.876398,1110.308913,8660.409521
4139.543534,536.266849,1110.308913,9844.739029
4139.543850,459.657299,370.102971,9326.594869
4139.544165,459.657299,-518.144159,10362.883188
4139.544480,919.314598,-962.267725,9770.718434
4139.544796,842.705048,-444.123565,9844.739029
4139.545111,459.657299,-296.082377,9770.718434
4139.545426,536.266849,370.102971,10140.821405
4139.545741,76.609550,814.226536,9992.780217
4139.546057,229.828649,592.164754,9474.636058
4139.546372,0.000000,-0.000000,9696.697840
4139.546687,306.438199,-74.020594,9104.533087
4139.547003,306.438199,-1332.370696,9326.594869
4139.547318,-306.438199,-962.267725,9474.636058
4139.547633,-766.095498,-518.144159,9400.615463
4139.547948,-842.705048,-296.082377,9474.636058
4139.548264,-229.828649,-222.061783,9770.718434
4139.548579,-689.485948,-444.123565,10436.903782
4139.548894,-612.876398,-888.247130,9992.780217
4139.549210,-459.657299,-962.267725,9474.636058
4139.549525,0.000000,-1036.288319,9474.636058
4139.549840,0.000000,-370.102971,9326.594869
4139.550156,-689.485948,-0.000000,9326.594869
4139.550471,-612.876398,518.144159,9474.636058
4139.550786,-689.485948,1036.288319,9474.636058
4139.551101,-383.047749,-0.000000,9252.574275
4139.551417,0.000000,-148.041188,9622.677246
4139.551732,0.000000,-518.144159,9474.636058
4139.552047,-229.828649,-888.247130,9770.718434
4139.552363,-689.485948,-222.061783,9474.636058
4139.552678,-919.314598,-814.226536,10584.944971
4139.552993,0.000000,-370.102971,10140.821405
4139.553308,-383.047749,-0.000000,9918.759623
4139.553624,76.609550,-296.082377,9400.615463
4139.553939,1149.143247,-518.144159,8882.471304
4139.554254,1302.362347,-0.000000,8882.471304
4139.554570,689.485948,518.144159,8364.327145
4139.554885,536.266849,666.185348,8734.430116
4139.555200,383.047749,814.226536,9104.533087
4139.555515,153.219100,296.082377,9696.697840
4139.555831,-153.219100,-74.020594,9622.677246
4139.556146,0.000000,-962.267725,10140.821405
4139.556461,76.609550,-1184.329507,10288.862594
4139.556777,536.266849,-592.164754,9992.780217
4139.557092,0.000000,518.144159,9770.718434
4139.557407,76.609550,962.267725,9696.697840
4139.557722,383.047749,1332.370696,10140.821405
4139.558038,306.438199,1184.329507,9992.780217
4139.558353,612.876398,444.123565,9474.636058
4139.558668,995.924147,666.185348,9474.636058
4139.558984,536.266849,370.102971,9326.594869
4139.559299,229.828649,222.061783,9400.615463
4139.559614,0.000000,444.123565,9844.739029
4139.559929,0.000000,370.102971,9844.739029
4139.560245,-536.266849,444.123565,9992.780217
4139.560560,-536.266849,370.102971,10510.924376
4139.560875,0.000000,-0.000000,9918.759623
4139.561191,-229.828649,-0.000000,9622.677246
4139.561506,0.000000,-0.000000,9622.677246
4139.561821,0.000000,740.205942,9252.574275
4139.562137,0.000000,888.247130,9622.677246
4139.562452,229.828649,1924.535449,9696.697840
4139.562767,153.219100,1702.473667,9770.718434
4139.563082,842.705048,1258.350101,9474.636058
4139.563398,689.485948,370.102971,9696.697840
4139.563713,1072.533697,222.061783,9400.615463
4139.564028,229.828649,444.123565,9622.677246
4139.564344,0.000000,814.226536,9474.636058
4139.564659,76.609550,814.226536,10066.800811
4139.564974,0.000000,740.205942,9696.697840
4139.565289,0.000000,962.267725,10066.800811
4139.565605,-612.876398,370.102971,9622.677246
4139.565920,0.000000,518.144159,9326.594869
4139.566235,689.485948,370.102971,9178.553681
4139.566551,536.266849,518.144159,9252.574275
4139.566866,766.095498,740.205942,9696.697840
4139.567181,459.657299,1036.288319,9474.636058
4139.567496,306.438199,1110.308913,9844.739029
4139.567812,536.266849,296.082377,9548.656652
4139.568127,1072.533697,-0.000000,9474.636058
4139.568442,766.095498,-444.123565,9474.636058
4139.568758,76.609550,-740.205942,9474.636058
4139.569073,-612.876398,-444.123565,9548.656652
4139.569388,-459.657299,-148.041188,9696.697840
4139.569703,-612.876398,-74.020594,9918.759623
4139.570019,-766.095498,444.123565,10214.842000
4139.570334,-1072.533697,-518.144159,9844.739029
4139.570649,-459.657299,-888.247130,9622.677246
4139.570965,0.000000,-962.267725,9548.656652
4139.571280,383.047749,-370.102971,9844.739029
4139.571595,-383.047749,-0.000000,9622.677246
4139.571910,0.000000,222.061783,9474.636058
4139.572226,76.609550,666.185348,9844.739029
4139.572541,229.828649,-148.041188,9622.677246
4139.572856,306.438199,-592.164754,9474.636058
4139.573171,612.876398,-666.185348,9104.533087
4139.573487,766.095498,-518.144159,8438.347739
4139.573802,536.266849,-444.123565,8660.409521
4139.574117,0.000000,-370.102971,9178.553681
4139.574432,76.609550,-814.226536,9548.656652
4139.574748,-766.095498,-0.000000,9844.739029
4139.575063,-306.438199,-518.144159,9696.697840
4139.575378,-383.047749,-1332.370696,9770.718434
4139.575693,536.266849,-1258.350101,9696.697840
4139.576009,766.095498,-962.267725,9400.615463
4139.576324,229.828649,-0.000000,9326.594869
4139.576639,306.438199,814.226536,9178.553681
4139.576954,766.095498,1406.391290,9400.615463
4139.577270,536.266849,1332.370696,9252.574275
4139.577585,689.485948,222.061783,9474.636058
4139.577900,919.314598,-222.061783,9474.636058
4139.578215,306.438199,-814.226536,8956.491898
4139.578531,0.000000,-592.164754,9622.677246
4139.578846,-536.266849,-444.123565,9918.759623
4139.579161,-306.438199,-222.061783,10140.821405
4139.579476,-842.705048,222.061783,10066.800811
4139.579792,-612.876398,-518.144159,9622.677246
4139.580107,229.828649,-740.205942,9696.697840
4139.580422,306.438199,-592.164754,9622.677246
4139.580737,306.438199,-74.020594,9178.553681
4139.581053,383.047749,370.102971,9400.615463
4139.581368,306.438199,888.247130,9104.533087
4139.581683,459.657299,814.226536,9474.636058
4139.581998,459.657299,814.226536,9622.677246
4139.582314,0.000000,518.144159,10214.842000
4139.582629,0.000000,-222.061783,9844.739029
4139.582944,229.828649,-370.102971,9696.697840
4139.583259,0.000000,-74.020594,9696.697840
4139.583575,-612.876398,-148.041188,9474.636058
4139.583890,-459.657299,296.082377,9918.759623
4139.584205,-306.438199,814.226536,10510.924376
4139.584521,-229.828649,518.144159,9474.636058
4139.584836,-153.219100,-148.041188,9474.636058
4139.585151,153.219100,-74.020594,9030.512492
4139.585466,306.438199,370.102971,9030.512492
4139.585782,0.000000,666.185348,8956.491898
4139.586097,0.000000,518.144159,9770.718434
4139.586412,-153.219100,1258.350101,9622.677246
4139.586727,153.219100,740.205942,10288.862594
4139.587043,76.609550,888.247130,9770.718434
4139.587358,76.609550,666.185348,9992.780217
4139.587673,919.314598,444.123565,9696.697840
4139.587988,306.438199,666.185348,9178.553681
4139.588304,153.219100,1480.411884,9474.636058
4139.588619,-153.219100,1258.350101,9696.697840
4139.588934,-306.438199,1258.350101,10140.821405
4139.589249,0.000000,1332.370696,9770.718434
4139.589565,0.000000,518.144159,10066.800811
4139.589880,76.609550,148.041188,10214.842000
4139.590195,459.657299,148.041188,9770.718434
4139.590510,383.047749,444.123565,9400.615463
4139.590826,0.000000,740.205942,10066.800811
4139.591141,612.876398,1036.288319,9844.739029
4139.591456,459.657299,592.164754,9844.739029
4139.591771,76.609550,444.123565,9474.636058
4139.592087,306.438199,-74.020594,10066.800811
4139.592402,842.705048,-74.020594,9030.512492
4139.592717,1072.533697,-0.000000,9030.512492
4139.593032,0.000000,-0.000000,9918.759623
4139.593348,76.609550,-0.000000,9696.697840
4139.593663,459.657299,-296.082377,9770.718434
4139.593978,0.000000,-74.020594,9622.677246
4139.594293,383.047749,-888.247130,9622.677246
4139.594609,919.314598,-518.144159,9326.594869
4139.594924,689.485948,-370.102971,9326.594869
4139.595239,536.266849,-370.102971,9104.533087
4139.595554,306.438199,-296.082377,9252.574275
4139.595870,229.828649,-296.082377,9696.697840
4139.596185,76.609550,222.061783,9844.739029
4139.596500,0.000000,-0.000000,9548.656652
4139.596816,0.000000,-222.061783,9400.615463
4139.597131,612.876398,-666.185348,9474.636058
4139.597446,842.705048,-666.185348,9252.574275
4139.597761,0.000000,-370.102971,8660.409521
4139.598077,-76.609550,-222.061783,9548.656652
4139.598392,153.219100,-0.000000,9548.656652
4139.598707,306.438199,518.144159,9400.615463
4139.599022,0.000000,-0.000000,9770.718434
4139.599338,0.000000,-740.205942,9548.656652
4139.599653,76.609550,-962.267725,9400.615463
4139.599968,229.828649,-444.123565,8734.430116
4139.600283,0.000000,-0.000000,9104.533087
4139.600599,0.000000,296.082377,9548.656652
4139.600914,-306.438199,888.247130,9548.656652
4139.601229,-306.438199,666.185348,9400.615463
4139.601544,0.000000,-0.000000,9696.697840
4139.601860,306.438199,-296.082377,9770.718434
4139.602175,383.047749,-518.144159,9548.656652
4139.602490,76.609550,-74.020594,9696.697840
4139.602805,-229.828649,444.123565,9622.677246
4139.603121,0.000000,444.123565,9474.636058
4139.603436,0.000000,740.205942,9844.739029
4139.603751,0.000000,148.041188,9918.759623
4139.604066,0.000000,-0.000000,9696.697840
4139.604382,153.219100,-296.082377,9326.594869
4139.604697,459.657299,-222.061783,9474.636058
4139.605012,306.438199,-370.102971,9178.553681
4139.605327,0.000000,296.082377,9918.759623
4139.605643,0.000000,-0.000000,10140.821405
4139.605958,-229.828649,296.082377,10214.842000
4139.606273,153.219100,-0.000000,9844.739029
4139.606588,229.828649,-0.000000,9548.656652
4139.606904,0.000000,-444.123565,10066.800811
4139.607219,0.000000,-0.000000,9548.656652
4139.607534,-153.219100,592.164754,9252.574275
4139.607849,0.000000,444.123565,9548.656652
4139.608165,0.000000,-0.000000,10288.862594
4139.608480,-459.657299,222.061783,9844.739029
4139.608795,-612.876398,-222.061783,10140.821405
4139.609110,0.000000,-0.000000,9770.718434
4139.609426,76.609550,-222.061783,9696.697840
4139.609741,459.657299,-74.020594,9548.656652
4139.610056,306.438199,666.185348,9918.759623
4139.610372,76.609550,518.144159,9474.636058
4139.610687,306.438199,518.144159,9548.656652
4139.611002,459.657299,592.164754,9400.615463
4139.611317,919.314598,-296.082377,9992.780217
4139.611633,842.705048,370.102971,9252.574275
4139.611948,689.485948,296.082377,9030.512492
4139.612263,76.609550,740.205942,9104.533087
4139.612578,153.219100,592.164754,9474.636058
4139.612894,229.828649,148.041188,9844.739029
4139.613209,0.000000,592.164754,9770.718434
4139.613524,-76.609550,-0.000000,9474.636058
4139.613839,306.438199,-148.041188,9400.615463
4139.614155,459.657299,-0.000000,9178.553681
4139.614470,229.828649,370.102971,9474.636058
4139.614785,0.000000,740.205942,9104.533087
4139.615100,229.828649,1258.350101,9326.594869
4139.615416,383.047749,1702.473667,9030.512492
4139.615731,766.095498,1184.329507,8882.471304
4139.616046,306.438199,444.123565,9326.594869
4139.616361,306.438199,-518.144159,9474.636058
4139.616677,306.438199,-296.082377,9178.553681
4139.616992,229.828649,-0.000000,9178.553681
4139.617307,0.000000,518.144159,9474.636058
4139.617622,-306.438199,222.061783,9844.739029
4139.617938,-612.876398,814.226536,9844.739029
4139.618253,-383.047749,-0.000000,9696.697840
4139.618568,0.000000,-444.123565,9696.697840
4139.618883,0.000000,-592.164754,10066.800811
4139.619199,0.000000,-148.041188,9104.533087
4139.619514,-383.047749,740.205942,9918.759623
4139.619829,0.000000,666.185348,10140.821405
4139.620144,0.000000,888.247130,10362.883188
4139.620460,-383.047749,518.144159,10658.965565
4139.620775,0.000000,296.082377,10140.821405
4139.621090,689.485948,-296.082377,9918.759623
4139.621405,1225.752797,-296.082377,9696.697840
4139.621721,536.266849,296.082377,9548.656652
4139.622036,0.000000,444.123565,9770.718434
4139.622351,612.876398,740.205942,9918.759623
4139.622667,153.219100,740.205942,9696.697840
4139.622982,153.219100,296.082377,9622.677246
4139.623297,76.609550,-666.185348,9844.739029
4139.623612,153.219100,-962.267725,9844.739029
4139.623928,76.609550,-444.123565,9844.739029
4139.624243,-229.828649,296.082377,9918.759623
4139.624558,0.000000,370.102971,9844.739029
4139.624873,0.000000,592.164754,10288.862594
4139.625189,-229.828649,666.185348,10214.842000
4139.625504,153.219100,-0.000000,9622.677246
4139.625819,536.266849,-74.020594,9622.677246
4139.626134,842.705048,-222.061783,9326.594869
4139.626450,612.876398,-222.061783,9030.512492
4139.626765,76.609550,148.041188,9474.636058
4139.627080,-229.828649,296.082377,9622.677246
4139.627395,0.000000,222.061783,9548.656652
4139.627711,-306.438199,-444.123565,9474.636058
4139.628026,-229.828649,-1036.288319,9770.718434
4139.628341,229.828649,-1332.370696,9696.697840
4139.628656,0.000000,-888.247130,8956.491898
4139.628972,0.000000,-592.164754,9474.636058
4139.629287,-306.438199,-666.185348,9696.697840
4139.629602,0.000000,-74.020594,9992.780217
4139.629917,229.828649,-0.000000,9400.615463
4139.630233,76.609550,-0.000000,9474.636058
4139.630548,459.657299,-296.082377,9178.553681
4139.630863,842.705048,-296.082377,9030.512492
4139.631178,306.438199,-296.082377,9030.512492
4139.631494,-612.876398,-222.061783,9400.615463
4139.631809,-995.924147,-666.185348,9548.656652
4139.632124,-919.314598,-222.061783,9844.739029
4139.632439,-1072.533697,-740.205942,9992.780217
4139.632755,-1072.533697,-1184.329507,9770.718434
4139.633070,-536.266849,-962.267725,9696.697840
4139.633385,0.000000,-370.102971,9178.553681
4139.633700,0.000000,-0.000000,8586.388927
4139.634016,0.000000,222.061783,9474.636058
4139.634331,0.000000,888.247130,9030.512492
4139.634646,-306.438199,1184.329507,9548.656652
4139.634962,153.219100,962.267725,9474.636058
4139.635277,0.000000,222.061783,9474.636058
4139.635592,383.047749,-0.000000,9400.615463
4139.635907,612.876398,-74.020594,9326.594869
4139.636223,-689.485948,-0.000000,9844.739029
4139.636538,-459.657299,370.102971,9696.697840
4139.636853,-306.438199,1110.308913,9696.697840
4139.637168,0.000000,962.267725,9770.718434
4139.637484,0.000000,888.247130,9548.656652
4139.637799,306.438199,518.144159,9622.677246
4139.638114,766.095498,222.061783,9548.656652
4139.638429,459.657299,888.247130,9548.656652
4139.638745,536.266849,1406.391290,9474.636058
4139.639060,766.095498,1184.329507,9844.739029
4139.639375,459.657299,2072.576638,9992.780217
4139.639690,842.705048,1406.391290,9474.636058
4139.640006,1149.143247,814.226536,9474.636058
4139.640321,1225.752797,444.123565,10140.821405
4139.640636,1072.533697,666.185348,9474.636058
4139.640951,689.485948,814.226536,9844.739029
4139.641267,459.657299,1110.308913,9770.718434
4139.641582,383.047749,888.247130,10510.924376
4139.641897,76.609550,962.267725,10510.924376
4139.642212,-153.219100,222.061783,10362.883188
4139.642528,306.438199,-0.000000,10658.965565
4139.642843,383.047749,-0.000000,9844.739029
4139.643158,306.438199,148.041188,9474.636058
4139.643473,0.000000,444.123565,9992.780217
4139.643789,0.000000,740.205942,9992.780217
4139.644104,76.609550,1406.391290,10288.862594
4139.644419,306.438199,1184.329507,9548.656652
4139.644734,-229.828649,-148.041188,9992.780217
4139.645050,229.828649,-222.061783,9548.656652
4139.645365,-306.438199,-814.226536,9178.553681
4139.645680,-153.219100,148.041188,9178.553681
4139.645995,-306.438199,444.123565,9696.697840
4139.646311,-689.485948,666.185348,9474.636058
4139.646626,-995.924147,-0.000000,9992.780217
4139.646941,-1915.238745,296.082377,9770.718434
4139.647256,-1225.752797,-1480.411884,10288.862594
4139.647572,-229.828649,-1406.391290,9770.718434
4139.647887,0.000000,-666.185348,9252.574275
4139.648202,-536.266849,-74.020594,9326.594869
4139.648518,-536.266849,-222.061783,9400.615463
4139.648833,229.828649,666.185348,9178.553681
4139.649148,842.705048,740.205942,8882.471304
4139.649463,689.485948,222.061783,8734.430116
4139.649779,1072.533697,-148.041188,8364.327145
4139.650094,1072.533697,-518.144159,8364.327145
4139.650409,612.876398,-148.041188,8734.430116
4139.650724,153.219100,-148.041188,8956.491898
4139.651040,306.438199,-518.144159,9474.636058
4139.651355,766.095498,-74.020594,9770.718434
4139.651670,-383.047749,-592.164754,9844.739029
4139.651985,-229.828649,-1258.350101,9474.636058
4139.652301,153.219100,-1554.432478,9104.533087
4139.652616,306.438199,-1036.288319,9326.594869
4139.652931,0.000000,-370.102971,9548.656652
4139.653246,76.609550,-296.082377,9474.636058
4139.653562,76.609550,-0.000000,9696.697840
4139.653877,153.219100,-0.000000,9548.656652
4139.654192,76.609550,-518.144159,10066.800811
4139.654507,383.047749,-888.247130,9622.677246
4139.654823,689.485948,-888.247130,9474.636058
4139.655138,383.047749,-740.205942,9326.594869
4139.655453,0.000000,-0.000000,9104.533087
4139.655768,0.000000,148.041188,9252.574275
4139.656084,-306.438199,444.123565,9474.636058
4139.656399,-536.266849,296.082377,9918.759623
4139.656714,-766.095498,-518.144159,9474.636058
4139.657029,153.219100,-740.205942,9844.739029
4139.657345,536.266849,-592.164754,9770.718434
4139.657660,-383.047749,-0.000000,9992.780217
4139.657975,-306.438199,740.205942,10214.842000
4139.658290,0.000000,1184.329507,9992.780217
4139.658606,306.438199,1480.411884,9918.759623
4139.658921,306.438199,1258.350101,9622.677246
4139.659236,842.705048,666.185348,9548.656652
4139.659551,995.924147,592.164754,9326.594869
4139.659867,689.485948,962.267725,9326.594869
4139.660182,-383.047749,1258.350101,9696.697840
4139.660497,-536.266849,444.123565,10066.800811
4139.660813,-229.828649,1406.391290,9992.780217
4139.661128,-459.657299,666.185348,10362.883188
4139.661443,383.047749,296.082377,9548.656652
4139.661758,153.219100,-0.000000,10214.842000
4139.662074,383.047749,-0.000000,9400.615463
4139.662389,0.000000,592.164754,9474.636058
4139.662704,-383.047749,1184.329507,9252.574275
4139.663019,0.000000,666.185348,9474.636058
4139.663335,459.657299,1184.329507,9918.759623
4139.663650,76.609550,888.247130,9474.636058
4139.663965,0.000000,444.123565,10140.821405
4139.664280,76.609550,-0.000000,9622.677246
4139.664596,229.828649,-0.000000,9474.636058
4139.664911,-306.438199,444.123565,9548.656652
4139.665226,0.000000,518.144159,9918.759623
4139.665541,-153.219100,518.144159,9844.739029
4139.665857,-383.047749,370.102971,9770.718434
4139.666172,-689.485948,-0.000000,9770.718434
4139.666487,-536.266849,-370.102971,9918.759623
4139.666802,383.047749,-740.205942,9622.677246
4139.667118,459.657299,-0.000000,9104.533087
4139.667433,153.219100,-0.000000,9178.553681
4139.667748,383.047749,296.082377,9400.615463
4139.668063,0.000000,666.185348,9474.636058
4139.668379,383.047749,740.205942,9178.553681
4139.668694,0.000000,518.144159,9252.574275
4139.669009,766.095498,-74.020594,9400.615463
4139.669324,1072.533697,-444.123565,9400.615463
4139.669640,612.876398,-518.144159,9178.553681
4139.669955,229.828649,222.061783,9770.718434
4139.670270,153.219100,518.144159,9178.553681
4139.670585,0.000000,1036.288319,9326.594869
4139.670901,383.047749,518.144159,9844.739029
4139.671216,229.828649,-0.000000,9474.636058
4139.671531,919.314598,-148.041188,9474.636058
4139.671846,229.828649,-0.000000,9178.553681
4139.672162,0.000000,296.082377,9178.553681
4139.672477,-229.828649,444.123565,9918.759623
4139.672792,153.219100,666.185348,9992.780217
4139.673107,459.657299,-0.000000,10288.862594
4139.673422,306.438199,-74.020594,9844.739029
4139.673738,536.266849,-222.061783,9474.636058
4139.674053,536.266849,-370.102971,9030.512492
4139.674368,995.924147,222.061783,9474.636058
4139.674683,229.828649,518.144159,9474.636058
4139.674999,153.219100,518.144159,9178.553681
4139.675314,536.266849,444.123565,9474.636058
4139.675629,0.000000,-0.000000,9696.697840
4139.675944,0.000000,-592.164754,9770.718434
4139.676259,0.000000,-814.226536,10288.862594
4139.676575,0.000000,-1036.288319,9770.718434
4139.676890,-383.047749,-592.164754,9844.739029
4139.677205,-459.657299,-444.123565,9992.780217
4139.677520,-383.047749,-444.123565,10510.924376
4139.677836,-689.485948,-148.041188,10436.903782
4139.678151,-919.314598,-518.144159,9770.718434
4139.678466,-229.828649,-888.247130,9696.697840
4139.678781,229.828649,-666.185348,9622.677246
4139.679096,76.609550,-148.041188,9326.594869
4139.679412,0.000000,-222.061783,9400.615463
4139.679727,0.000000,-0.000000,9474.636058
4139.680042,-153.219100,592.164754,9474.636058
4139.680357,-536.266849,370.102971,9548.656652
4139.680673,-612.876398,-518.144159,9696.697840
4139.680988,459.657299,-740.205942,9252.574275
4139.681303,0.000000,-518.144159,8882.471304
4139.681618,-306.438199,-0.000000,9400.615463
4139.681933,-766.095498,-74.020594,9770.718434
4139.682249,-459.657299,518.144159,9548.656652
4139.682564,-612.876398,814.226536,9696.697840
4139.682879,-536.266849,518.144159,9474.636058
4139.683194,76.609550,-74.020594,9252.574275
4139.683510,383.047749,-74.020594,9030.512492
4139.683825,689.485948,592.164754,9178.553681
4139.684140,76.609550,962.267725,9030.512492
4139.684455,306.438199,1184.329507,9252.574275
4139.684770,766.095498,1110.308913,9548.656652
4139.685086,383.047749,1258.350101,9474.636058
4139.685401,153.219100,370.102971,9548.656652
4139.685716,0.000000,-222.061783,9326.594869
4139.686031,766.095498,-296.082377,9030.512492
4139.686347,689.485948,296.082377,9030.512492
4139.686662,0.000000,592.164754,9696.697840
4139.686977,0.000000,666.185348,10140.821405
4139.687292,229.828649,592.164754,9844.739029
4139.687607,153.219100,222.061783,9992.780217
4139.687923,536.266849,-148.041188,9770.718434
4139.688238,842.705048,-148.041188,9918.759623
4139.688553,1378.971896,444.123565,9622.677246
4139.688868,76.609550,740.205942,9400.615463
4139.689184,612.876398,1332.370696,9326.594869
4139.689499,766.095498,1110.308913,10140.821405
4139.689814,383.047749,1110.308913,9992.780217
4139.690129,612.876398,370.102971,10140.821405
4139.690444,0.000000,222.061783,9474.636058
4139.690760,383.047749,-592.164754,9992.780217
4139.691075,0.000000,-370.102971,9992.780217
4139.691390,-612.876398,296.082377,9918.759623
4139.691705,-536.266849,222.061783,10584.944971
4139.692020,76.609550,1036.288319,10140.821405
4139.692336,0.000000,666.185348,9992.780217
4139.692651,0.000000,-0.000000,10362.883188
4139.692966,612.876398,148.041188,9696.697840
4139.693281,1149.143247,370.102971,9548.656652
4139.693597,689.485948,666.185348,9104.533087
4139.693912,766.095498,962.267725,9770.718434
4139.694227,766.095498,1406.391290,9326.594869
4139.694542,229.828649,1332.370696,9548.656652
4139.694857,306.438199,666.185348,9474.636058
4139.695173,0.000000,-0.000000,9622.677246
4139.695488,229.828649,-444.123565,9474.636058
4139.695803,0.000000,-518.144159,9622.677246
4139.696118,-612.876398,-222.061783,9622.677246
4139.696434,-612.876398,-222.061783,9622.677246
4139.696749,-306.438199,296.082377,9696.697840
4139.697064,-229.828649,518.144159,9474.636058
4139.697379,0.000000,-74.020594,9622.677246
4139.697694,536.266849,-296.082377,9548.656652
4139.698010,766.095498,-296.082377,8956.491898
4139.698325,689.485948,-0.000000,8734.430116
4139.698640,153.219100,444.123565,8660.409521
4139.698955,0.000000,-0.000000,9400.615463
4139.699271,-383.047749,-0.000000,9992.780217
4139.699586,-536.266849,-370.102971,9548.656652
4139.699901,-689.485948,-1184.329507,9548.656652
4139.700216,-306.438199,-1184.329507,9622.677246
4139.700531,-766.095498,-1258.350101,9548.656652
4139.700847,-1455.581446,-1184.329507,9622.677246
4139.701162,-1302.362347,-888.247130,8956.491898
4139.701477,-536.266849,-222.061783,9696.697840
4139.701792,-536.266849,-222.061783,9548.656652
4139.702108,-306.438199,-0.000000,9696.697840
4139.702423,-306.438199,-592.164754,9622.677246
4139.702738,689.485948,-740.205942,9326.594869
4139.703053,536.266849,-518.144159,8956.491898
4139.703368,0.000000,-296.082377,9474.636058
4139.703684,229.828649,-370.102971,10066.800811
4139.703999,-536.266849,666.185348,9400.615463
4139.704314,0.000000,444.123565,9252.574275
4139.704629,459.657299,-222.061783,9770.718434
4139.704945,229.828649,-0.000000,8882.471304
4139.705260,306.438199,-518.144159,9030.512492
4139.705575,0.000000,-370.102971,9400.615463
4139.705890,-383.047749,296.082377,9770.718434
4139.706205,-306.438199,592.164754,10362.883188
4139.706521,-306.438199,1258.350101,10214.842000
4139.706836,0.000000,1036.288319,10288.862594
4139.707151,536.266849,296.082377,10140.821405
4139.707466,919.314598,666.185348,9326.594869
4139.707782,1225.752797,1036.288319,9474.636058
4139.708097,536.266849,1480.411884,9548.656652
4139.708412,612.876398,1184.329507,9400.615463
4139.708727,766.095498,1406.391290,9326.594869
4139.709042,383.047749,1258.350101,9770.718434
4139.709358,0.000000,666.185348,9918.759623
4139.709673,-153.219100,-222.061783,9918.759623
4139.709988,0.000000,-444.123565,9622.677246
4139.710303,0.000000,-74.020594,9992.780217
4139.710619,0.000000,-74.020594,9696.697840
4139.710934,76.609550,444.123565,10214.842000
4139.711249,153.219100,962.267725,10214.842000
4139.711564,612.876398,814.226536,9918.759623
4139.711879,459.657299,444.123565,9770.718434
4139.712195,1608.800546,296.082377,9474.636058
4139.712510,1455.581446,444.123565,9474.636058
4139.712825,1225.752797,962.267725,9326.594869
4139.713140,919.314598,666.185348,9622.677246
4139.713456,766.095498,814.226536,9844.739029
4139.713771,536.266849,888.247130,10066.800811
4139.714086,0.000000,296.082377,9844.739029
4139.714401,0.000000,-592.164754,10362.883188
4139.714716,306.438199,-1036.288319,10140.821405
4139.715032,229.828649,-666.185348,9400.615463
4139.715347,-229.828649,-444.123565,10066.800811
4139.715662,-153.219100,-296.082377,10066.800811
4139.715977,-383.047749,518.144159,9918.759623
4139.716292,-153.219100,888.247130,9844.739029
4139.716608,0.000000,148.041188,9474.636058
4139.716923,383.047749,-0.000000,9252.574275
4139.717238,842.705048,444.123565,9178.553681
4139.717553,536.266849,370.102971,9326.594869
4139.717869,0.000000,740.205942,9030.512492
4139.718184,0.000000,592.164754,9622.677246
4139.718499,0.000000,814.226536,9474.636058
4139.718814,-306.438199,-74.020594,9918.759623
4139.719129,-1072.533697,-370.102971,9104.533087
4139.719445,-306.438199,-814.226536,9104.533087
4139.719760,-153.219100,-296.082377,9104.533087
4139.720075,-612.876398,-296.082377,9178.553681
4139.720390,-689.485948,-0.000000,9326.594869
4139.720706,-536.266849,-0.000000,9474.636058
4139.721021,0.000000,222.061783,9178.553681
4139.721336,0.000000,-370.102971,8660.409521
4139.721651,383.047749,-296.082377,8882.471304
4139.721966,919.314598,-74.020594,9252.574275
4139.722282,459.657299,-74.020594,8956.491898
4139.722597,306.438199,-0.000000,9104.533087
4139.722912,229.828649,222.061783,9178.553681
4139.723227,536.266849,518.144159,9252.574275
4139.723543,0.000000,148.041188,9326.594869
4139.723858,-229.828649,-296.082377,9622.677246
4139.724173,229.828649,-888.247130,9548.656652
4139.724488,0.000000,-888.247130,9400.615463
4139.724803,-383.047749,-814.226536,9474.636058
4139.725119,0.000000,-888.247130,9992.780217
4139.725434,-306.438199,-0.000000,10066.800811
4139.725749,-153.219100,-0.000000,9992.780217
4139.726064,-229.828649,-296.082377,9844.739029
4139.726380,229.828649,-370.102971,9918.759623
4139.726695,919.314598,-370.102971,9622.677246
4139.727010,689.485948,-0.000000,9474.636058
4139.727325,153.219100,444.123565,9548.656652
4139.727640,-229.828649,740.205942,10066.800811
4139.727956,-383.047749,1110.308913,10510.924376
4139.728271,0.000000,-0.000000,10584.944971
4139.728586,-383.047749,-148.041188,10658.965565
4139.728901,153.219100,-740.205942,10214.842000
4139.729217,689.485948,-518.144159,9548.656652
4139.729532,612.876398,370.102971,9918.759623
4139.729847,766.095498,1258.350101,9992.780217
4139.730162,612.876398,1554.432478,9474.636058
4139.730477,919.314598,1628.453072,9178.553681
4139.730793,995.924147,888.247130,9178.553681
4139.731108,919.314598,592.164754,9030.512492
4139.731423,995.924147,-74.020594,8734.430116
4139.731738,766.095498,-296.082377,9030.512492
4139.732054,-229.828649,370.102971,9326.594869
4139.732369,-689.485948,740.205942,9474.636058
4139.732684,0.000000,444.123565,9844.739029
4139.732999,-766.095498,-0.000000,10288.862594
4139.733314,-383.047749,444.123565,10288.862594
4139.733630,0.000000,-222.061783,9474.636058
4139.733945,612.876398,-148.041188,9474.636058
4139.734260,459.657299,814.226536,9400.615463
4139.734575,0.000000,1332.370696,8808.450710
4139.734891,459.657299,1110.308913,9474.636058
4139.735206,766.095498,1406.391290,9104.533087
4139.735521,306.438199,814.226536,9104.533087
4139.735836,383.047749,370.102971,9178.553681
4139.736151,0.000000,-148.041188,9474.636058
4139.736467,0.000000,-0.000000,9474.636058
4139.736782,-383.047749,-370.102971,9622.677246
4139.737097,-612.876398,-222.061783,10436.903782
4139.737412,-1072.533697,-74.020594,10436.903782
4139.737728,-689.485948,-0.000000,10066.800811
4139.738043,-842.705048,592.164754,10140.821405
4139.738358,-229.828649,444.123565,9918.759623
4139.738673,536.266849,666.185348,9400.615463
4139.738988,459.657299,296.082377,9548.656652
4139.739304,153.219100,518.144159,10436.903782
4139.739619,0.000000,888.247130,10140.821405
4139.739934,76.609550,962.267725,10288.862594
4139.740249,-229.828649,1036.288319,10362.883188
4139.740564,-229.828649,888.247130,10288.862594
4139.740880,153.219100,-0.000000,9474.636058
4139.741195,689.485948,-370.102971,9400.615463
4139.741510,0.000000,-222.061783,9474.636058
4139.741825,-383.047749,-0.000000,9548.656652
4139.742141,-536.266849,370.102971,9770.718434
4139.742456,-459.657299,296.082377,9326.594869
4139.742771,0.000000,-0.000000,9622.677246
4139.743086,612.876398,-0.000000,9400.615463
4139.743401,842.705048,-148.041188,9474.636058
4139.743717,919.314598,-0.000000,9474.636058
4139.744032,766.095498,518.144159,9178.553681
4139.744347,689.485948,888.247130,9104.533087
4139.744662,919.314598,814.226536,9622.677246
4139.744978,459.657299,740.205942,9696.697840
4139.745293,612.876398,-74.020594,9474.636058
4139.745608,1532.190996,-666.185348,9696.697840
4139.745923,1225.752797,-740.205942,9178.553681
4139.746238,689.485948,-370.102971,9252.574275
4139.746554,0.000000,-592.164754,9474.636058
4139.746869,0.000000,-296.082377,9622.677246
4139.747184,0.000000,-296.082377,9548.656652
4139.747499,459.657299,-296.082377,9844.739029
4139.747815,689.485948,-814.226536,9622.677246
4139.748130,612.876398,-740.205942,9548.656652
4139.748445,995.924147,-666.185348,9030.512492
4139.748760,689.485948,-222.061783,9400.615463
4139.749075,459.657299,-0.000000,9844.739029
4139.749391,536.266849,296.082377,9844.739029
4139.749706,0.000000,222.061783,9992.780217
4139.750021,76.609550,-518.144159,9770.718434
4139.750336,0.000000,-1036.288319,9622.677246
4139.750652,0.000000,-888.247130,9622.677246
4139.750967,-689.485948,-814.226536,9474.636058
4139.751282,-766.095498,-518.144159,9770.718434
4139.751597,-689.485948,-0.000000,10066.800811
4139.751912,-1072.533697,296.082377,9400.615463
4139.752228,-612.876398,148.041188,9622.677246
4139.752543,-766.095498,-148.041188,9696.697840
4139.752858,-229.828649,-444.123565,9326.594869
4139.753173,76.609550,-444.123565,8882.471304
4139.753489,0.000000,148.041188,8734.430116
4139.753804,0.000000,518.144159,9030.512492
4139.754119,-383.047749,814.226536,9400.615463
4139.754434,-766.095498,814.226536,9844.739029
4139.754749,-689.485948,-0.000000,9474.636058
4139.755065,-153.219100,-0.000000,9326.594869
4139.755380,-306.438199,-370.102971,9326.594869
4139.755695,-383.047749,-0.000000,9474.636058
4139.756010,-689.485948,-0.000000,9474.636058
4139.756326,-689.485948,-0.000000,9770.718434
4139.756641,-459.657299,962.267725,9474.636058
4139.756956,-383.047749,1406.391290,9696.697840
4139.757271,-229.828649,814.226536,9474.636058
4139.757586,229.828649,296.082377,9252.574275
4139.757902,995.924147,-0.000000,8660.409521
4139.758217,919.314598,-370.102971,9474.636058
4139.758532,459.657299,962.267725,9918.759623
4139.758847,383.047749,1332.370696,9992.780217
4139.759163,76.609550,1110.308913,9696.697840
4139.759478,459.657299,962.267725,9770.718434
4139.759793,842.705048,370.102971,9844.739029
4139.760108,1072.533697,-296.082377,9918.759623
4139.760423,689.485948,296.082377,9770.718434
4139.760739,0.000000,444.123565,9622.677246
4139.761054,612.876398,962.267725,9696.697840
4139.761369,536.266849,962.267725,10362.883188
4139.761684,0.000000,1110.308913,10510.924376
4139.762000,383.047749,740.205942,10362.883188
4139.762315,612.876398,518.144159,10214.842000
4139.762630,536.266849,370.102971,9770.718434
4139.762945,459.657299,296.082377,9548.656652
4139.763260,0.000000,666.185348,9844.739029
4139.763576,-153.219100,518.144159,10214.842000
4139.763891,153.219100,592.164754,9770.718434
4139.764206,153.219100,444.123565,10140.821405
4139.764521,306.438199,444.123565,9622.677246
4139.764836,459.657299,-74.020594,9622.677246
4139.765152,766.095498,-0.000000,9030.512492
4139.765467,0.000000,444.123565,9252.574275
4139.765782,383.047749,666.185348,9326.594869
4139.766097,612.876398,296.082377,9844.739029
4139.766413,229.828649,518.144159,9400.615463
4139.766728,0.000000,-0.000000,9622.677246
4139.767043,229.828649,-222.061783,9474.636058
4139.767358,689.485948,-518.144159,9474.636058
4139.767673,842.705048,-0.000000,9030.512492
4139.767989,76.609550,-0.000000,9252.574275
4139.768304,76.609550,-0.000000,9178.553681
4139.768619,0.000000,-0.000000,9474.636058
4139.768934,153.219100,296.082377,9104.533087
4139.769250,459.657299,-370.102971,9326.594869
4139.769565,383.047749,-222.061783,9548.656652
4139.769880,536.266849,-370.102971,9030.512492
4139.770195,0.000000,-296.082377,8956.491898
4139.770510,-229.828649,-0.000000,8882.471304
4139.770826,153.219100,-0.000000,9770.718434
4139.771141,-306.438199,296.082377,9918.759623
4139.771456,-919.314598,-370.102971,9992.780217
4139.771771,-995.924147,-1036.288319,10362.883188
4139.772087,-153.219100,-1036.288319,9844.739029
4139.772402,-153.219100,-888.247130,9696.697840
4139.772717,-612.876398,-444.123565,9474.636058
4139.773032,-689.485948,296.082377,10214.842000
4139.773348,-689.485948,-74.020594,9770.718434
4139.773663,-383.047749,74.020594,9696.697840
4139.773978,-383.047749,-444.123565,9696.697840
4139.774294,-229.828649,-888.247130,9474.636058
4139.774609,383.047749,-814.226536,9548.656652
4139.774924,-153.219100,-888.247130,9252.574275
4139.775239,-229.828649,-222.061783,9326.594869
4139.775555,-306.438199,222.061783,9844.739029
4139.775870,-766.095498,444.123565,9992.780217
4139.776185,-536.266849,-0.000000,9992.780217
4139.776500,-536.266849,-148.041188,9696.697840
4139.776816,-153.219100,-518.144159,9622.677246
4139.777131,76.609550,-444.123565,9474.636058
4139.777446,0.000000,-74.020594,9400.615463
4139.777761,0.000000,296.082377,9400.615463
4139.778077,153.219100,740.205942,9622.677246
4139.778392,383.047749,1110.308913,9326.594869
4139.778707,306.438199,888.247130,8882.471304
4139.779023,612.876398,592.164754,8956.491898
4139.779338,1149.143247,222.061783,9252.574275
4139.779653,842.705048,222.061783,8808.450710
4139.779968,383.047749,592.164754,9400.615463
4139.780284,-229.828649,666.185348,9548.656652
4139.780599,0.000000,814.226536,10140.821405
4139.780914,612.876398,592.164754,9918.759623
4139.781229,229.828649,-0.000000,9548.656652
4139.781545,459.657299,-74.020594,9770.718434
4139.781860,612.876398,-0.000000,9696.697840
4139.782175,689.485948,370.102971,9622.677246
4139.782491,766.095498,888.247130,9844.739029
4139.782806,919.314598,1036.288319,9622.677246
4139.783121,1072.533697,2072.576638,9622.677246
4139.783436,1302.362347,1406.391290,9622.677246
4139.783752,1149.143247,296.082377,9844.739029
4139.784067,919.314598,-0.000000,9696.697840
4139.784382,1072.533697,518.144159,9548.656652
4139.784697,306.438199,740.205942,9622.677246
4139.785013,153.219100,814.226536,9770.718434
4139.785328,0.000000,370.102971,10140.821405
4139.785643,0.000000,296.082377,10510.924376
4139.785958,-153.219100,-148.041188,10140.821405
4139.786274,0.000000,-592.164754,9696.697840
4139.786589,0.000000,-0.000000,9918.759623
4139.786904,-153.219100,296.082377,9770.718434
4139.787220,0.000000,444.123565,9696.697840
4139.787535,0.000000,666.185348,9844.739029
4139.787850,76.609550,1036.288319,9622.677246
4139.788165,306.438199,962.267725,9622.677246
4139.788481,306.438199,148.041188,9326.594869
4139.788796,612.876398,-0.000000,9326.594869
4139.789111,689.485948,-0.000000,9326.594869
4139.789426,0.000000,-0.000000,9252.574275
4139.789742,-689.485948,222.061783,9622.677246
4139.790057,-536.266849,-0.000000,9770.718434
4139.790372,-612.876398,370.102971,9548.656652
4139.790688,-689.485948,-74.020594,9696.697840
4139.791003,-919.314598,-444.123565,9548.656652
4139.791318,-383.047749,-814.226536,9474.636058
4139.791633,-459.657299,-370.102971,9474.636058
4139.791949,-689.485948,222.061783,9474.636058
4139.792264,-306.438199,592.164754,9548.656652
4139.792579,0.000000,666.185348,9918.759623
4139.792894,0.000000,222.061783,9474.636058
4139.793210,229.828649,-0.000000,9696.697840
4139.793525,536.266849,-74.020594,9104.533087
4139.793840,459.657299,-74.020594,9252.574275
4139.794156,0.000000,296.082377,9474.636058
4139.794471,-383.047749,-0.000000,9400.615463
4139.794786,-536.266849,-222.061783,9548.656652
4139.795101,-612.876398,-148.041188,10066.800811
4139.795417,-459.657299,-518.144159,9844.739029
4139.795732,-459.657299,-962.267725,9770.718434
4139.796047,-229.828649,-1258.350101,9770.718434
4139.796362,306.438199,-1110.308913,9400.615463
4139.796678,306.438199,-296.082377,9474.636058
4139.796993,383.047749,296.082377,9326.594869
4139.797308,536.266849,-0.000000,9400.615463
4139.797623,612.876398,814.226536,9474.636058
4139.797939,995.924147,592.164754,9326.594869
4139.798254,995.924147,-0.000000,8586.388927
4139.798569,995.924147,-148.041188,9400.615463
4139.798885,536.266849,-666.185348,9252.574275
4139.799200,0.000000,-296.082377,9400.615463
4139.799515,0.000000,-0.000000,10214.842000
4139.799830,-536.266849,-74.020594,10066.800811
4139.800146,-536.266849,-444.123565,10362.883188
4139.800461,-612.876398,-740.205942,10881.027347
4139.800776,-153.219100,-814.226536,9918.759623
4139.801091,536.266849,-518.144159,9474.636058
4139.801407,459.657299,-0.000000,9030.512492
4139.801722,459.657299,666.185348,9474.636058
4139.802037,766.095498,962.267725,9400.615463
4139.802353,612.876398,1480.411884,8956.491898
4139.802668,459.657299,1036.288319,9770.718434
4139.802983,536.266849,444.123565,9622.677246
4139.803298,612.876398,370.102971,9474.636058
4139.803614,229.828649,-518.144159,9326.594869
4139.803929,-229.828649,-0.000000,9474.636058
4139.804244,0.000000,370.102971,9622.677246
4139.804559,0.000000,222.061783,9770.718434
4139.804875,-459.657299,740.205942,10436.903782
4139.805190,0.000000,444.123565,9918.759623
4139.805505,76.609550,370.102971,9696.697840
4139.805820,306.438199,296.082377,9400.615463
4139.806136,459.657299,518.144159,9104.533087
4139.806451,229.828649,814.226536,9548.656652
4139.806766,229.828649,888.247130,10140.821405
4139.807082,383.047749,1628.453072,9400.615463
4139.807397,229.828649,1258.350101,9696.697840
4139.807712,306.438199,740.205942,9622.677246
4139.808027,383.047749,-0.000000,9696.697840
4139.808343,229.828649,-0.000000,8956.491898
4139.808658,153.219100,222.061783,9252.574275
4139.808973,-76.609550,370.102971,9548.656652
4139.809288,-536.266849,222.061783,10436.903782
4139.809604,-919.314598,592.164754,9918.759623
4139.809919,-842.705048,-0.000000,10066.800811
4139.810234,-306.438199,-370.102971,9844.739029
4139.810550,153.219100,-666.185348,9252.574275
4139.810865,229.828649,-814.226536,9104.533087
4139.811180,-383.047749,-0.000000,9474.636058
4139.811495,0.000000,370.102971,9548.656652
4139.811811,0.000000,814.226536,9770.718434
4139.812126,612.876398,666.185348,9992.780217
4139.812441,229.828649,-0.000000,9548.656652
4139.812756,536.266849,-518.144159,9104.533087
4139.813072,383.047749,-222.061783,8882.471304
4139.813387,0.000000,-148.041188,9474.636058
4139.813702,-306.438199,-148.041188,9770.718434
4139.814017,0.000000,-444.123565,9548.656652
4139.814333,-842.705048,222.061783,10066.800811
4139.814648,-383.047749,-0.000000,9992.780217
4139.814963,0.000000,-148.041188,9326.594869
4139.815279,919.314598,-296.082377,9252.574275
4139.815594,612.876398,-74.020594,9474.636058
4139.815909,306.438199,518.144159,8882.471304
4139.816224,459.657299,666.185348,8956.491898
4139.816540,842.705048,814.226536,9622.677246
4139.816855,689.485948,1258.350101,9696.697840
4139.817170,536.266849,666.185348,9622.677246
4139.817485,229.828649,-0.000000,9400.615463
4139.817801,383.047749,-148.041188,9622.677246
4139.818116,383.047749,-0.000000,9474.636058
4139.818431,-229.828649,-222.061783,9622.677246
4139.818747,0.000000,-296.082377,10140.821405
4139.819062,-842.705048,148.041188,10807.006753
4139.819377,-689.485948,-0.000000,10066.800811
4139.819692,0.000000,-370.102971,9622.677246
4139.820008,689.485948,-370.102971,9474.636058
4139.820323,919.314598,-296.082377,9030.512492
4139.820638,842.705048,-370.102971,8956.491898
4139.820953,1225.752797,-0.000000,9474.636058
4139.821269,612.876398,592.164754,9030.512492
4139.821584,459.657299,444.123565,9252.574275
4139.821899,76.609550,148.041188,9474.636058
4139.822215,229.828649,-888.247130,9474.636058
4139.822530,383.047749,-1332.370696,9696.697840
4139.822845,76.609550,-444.123565,9770.718434
4139.823160,-689.485948,-296.082377,9696.697840
4139.823476,-306.438199,-518.144159,10066.800811
4139.823791,-536.266849,-0.000000,10066.800811
4139.824106,-459.657299,-0.000000,10066.800811
4139.824421,-612.876398,-296.082377,10066.800811
4139.824737,-459.657299,-0.000000,9696.697840
4139.825052,76.609550,-222.061783,9622.677246
4139.825367,-229.828649,-0.000000,9326.594869
4139.825682,0.000000,370.102971,9474.636058
4139.825998,0.000000,518.144159,10140.821405
4139.826313,0.000000,666.185348,10140.821405
4139.826628,-229.828649,518.144159,9770.718434
4139.826944,0.000000,-0.000000,9474.636058
4139.827259,76.609550,-148.041188,9326.594869
4139.827574,536.266849,-0.000000,9400.615463
4139.827889,0.000000,222.061783,9474.636058
4139.828205,76.609550,370.102971,9548.656652
4139.828520,0.000000,740.205942,9696.697840
4139.828835,-306.438199,962.267725,9548.656652
4139.829150,-459.657299,370.102971,9178.553681
4139.829466,0.000000,-0.000000,9696.697840
4139.829781,612.876398,-370.102971,9474.636058
4139.830096,459.657299,370.102971,9252.574275
4139.830412,76.609550,592.164754,9622.677246
4139.830727,536.266849,962.267725,9474.636058
4139.831042,612.876398,1480.411884,9474.636058
4139.831357,153.219100,1036.288319,9474.636058
4139.831673,689.485948,370.102971,9474.636058
4139.831988,995.924147,-0.000000,9178.553681
4139.832303,536.266849,222.061783,8734.430116
4139.832618,76.609550,-0.000000,9178.553681
4139.832934,0.000000,370.102971,9474.636058
4139.833249,76.609550,222.061783,9622.677246
4139.833564,-153.219100,222.061783,9548.656652
4139.833879,0.000000,-0.000000,10288.862594
4139.834195,153.219100,-148.041188,10140.821405
4139.834510,229.828649,-296.082377,9548.656652
4139.834825,306.438199,-148.041188,9696.697840
4139.835141,459.657299,296.082377,9844.739029
4139.835456,306.438199,222.061783,9918.759623
4139.835771,383.047749,888.247130,10140.821405
4139.836086,229.828649,592.164754,10140.821405
4139.836402,76.609550,518.144159,9622.677246
4139.836717,842.705048,-0.000000,9474.636058
4139.837032,1455.581446,-592.164754,9474.636058
4139.837347,1072.533697,-0.000000,9474.636058
4139.837663,766.095498,666.185348,9104.533087
4139.837978,689.485948,296.082377,9474.636058
4139.838293,0.000000,296.082377,9474.636058
4139.838609,689.485948,296.082377,9992.780217
4139.838924,76.609550,-370.102971,9622.677246
4139.839239,0.000000,-592.164754,9622.677246
4139.839554,153.219100,-296.082377,9474.636058
4139.839870,-153.219100,-74.020594,9326.594869
4139.840185,0.000000,370.102971,9548.656652
4139.840500,-76.609550,518.144159,10362.883188
4139.840815,-383.047749,518.144159,10510.924376
4139.841131,-306.438199,148.041188,9696.697840
4139.841446,229.828649,148.041188,9622.677246
4139.841761,459.657299,-0.000000,9844.739029
4139.842076,842.705048,148.041188,9178.553681
4139.842392,153.219100,-0.000000,9252.574275
4139.842707,153.219100,-0.000000,9252.574275
4139.843022,76.609550,518.144159,9400.615463
4139.843338,229.828649,-148.041188,9104.533087
4139.843653,-612.876398,-444.123565,9178.553681
4139.843968,-383.047749,-1258.350101,9252.574275
4139.844283,-229.828649,-888.247130,9030.512492
4139.844599,-229.828649,-1110.308913,9548.656652
4139.844914,-842.705048,-666.185348,9474.636058
4139.845229,-612.876398,-592.164754,9992.780217
4139.845544,-612.876398,-74.020594,9400.615463
4139.845860,-766.095498,-444.123565,9844.739029
4139.846175,76.609550,-222.061783,9622.677246
4139.846490,153.219100,-444.123565,9622.677246
4139.846806,76.609550,74.020594,8956.491898
4139.847121,-306.438199,-222.061783,9178.553681
4139.847436,-459.657299,-0.000000,9400.615463
4139.847751,-153.219100,370.102971,9474.636058
4139.848067,-842.705048,-0.000000,9400.615463
4139.848382,-919.314598,-740.205942,9844.739029
4139.848697,-766.095498,-1110.308913,9326.594869
4139.849012,-459.657299,-1258.350101,9918.759623
4139.849328,-766.095498,-1110.308913,9548.656652
4139.849643,-689.485948,-370.102971,9474.636058
4139.849958,-383.047749,444.123565,9992.780217
4139.850274,0.000000,666.185348,9474.636058
4139.850589,153.219100,666.185348,9770.718434
4139.850904,612.876398,222.061783,9104.533087
4139.851219,766.095498,296.082377,8808.450710
4139.851535,1072.533697,962.267725,9178.553681
4139.851850,612.876398,1036.288319,9030.512492
4139.852165,1072.533697,888.247130,9548.656652
4139.852480,612.876398,740.205942,9770.718434
4139.852796,306.438199,962.267725,10066.800811
4139.853111,0.000000,-0.000000,9770.718434
4139.853426,383.047749,222.061783,9622.677246
4139.853741,919.314598,-74.020594,9696.697840
4139.854057,842.705048,-0.000000,9326.594869
4139.854372,383.047749,888.247130,9326.594869
4139.854687,842.705048,962.267725,9400.615463
4139.855003,766.095498,1554.432478,9400.615463
4139.855318,1225.752797,1480.411884,9992.780217
4139.855633,306.438199,1184.329507,9918.759623
4139.855948,1455.581446,740.205942,9548.656652
4139.856264,1685.410096,518.144159,9104.533087
4139.856579,766.095498,518.144159,9326.594869
4139.856894,306.438199,888.247130,10066.800811
4139.857209,383.047749,1110.308913,10436.903782
4139.857525,-229.828649,888.247130,10214.842000
4139.857840,-153.219100,370.102971,10066.800811
4139.858155,-229.828649,-222.061783,9770.718434
4139.858471,229.828649,-666.185348,9918.759623
4139.858786,0.000000,-222.061783,10214.842000
4139.859101,-383.047749,370.102971,10362.883188
4139.859416,-153.219100,296.082377,9992.780217
4139.859732,0.000000,740.205942,10066.800811
4139.860047,153.219100,370.102971,10140.821405
4139.860362,536.266849,-0.000000,10066.800811
4139.860677,536.266849,-0.000000,9622.677246
4139.860993,842.705048,-222.061783,9474.636058
4139.861308,1072.533697,296.082377,9326.594869
4139.861623,612.876398,444.123565,9104.533087
4139.861938,459.657299,222.061783,9548.656652
4139.862254,153.219100,888.247130,9918.759623
4139.862569,-229.828649,-0.000000,9178.553681
4139.862884,-229.828649,-740.205942,9548.656652
4139.863200,-229.828649,-518.144159,9770.718434
4139.863515,-76.609550,-444.123565,9104.533087
4139.863830,-612.876398,-222.061783,9474.636058
4139.864145,-459.657299,-74.020594,9770.718434
4139.864461,0.000000,-0.000000,9622.677246
4139.864776,153.219100,370.102971,9622.677246
4139.865091,-153.219100,592.164754,9252.574275
4139.865406,0.000000,-0.000000,8956.491898
4139.865722,383.047749,-0.000000,8734.430116
4139.866037,459.657299,-222.061783,8586.388927
4139.866352,-459.657299,-0.000000,8882.471304
4139.866668,-612.876398,-0.000000,9548.656652
4139.866983,-919.314598,-148.041188,9400.615463
4139.867298,-995.924147,-0.000000,9400.615463
4139.867613,-1149.143247,-1110.308913,9548.656652
4139.867929,-766.095498,-1184.329507,10066.800811
4139.868244,-306.438199,-1258.350101,9474.636058
4139.868559,-919.314598,-1184.329507,9622.677246
4139.868874,-612.876398,-592.164754,9770.718434
4139.869190,-612.876398,-0.000000,9252.574275
4139.869505,-383.047749,518.144159,9326.594869
4139.869820,-383.047749,-74.020594,9400.615463
4139.870135,-229.828649,-592.164754,9548.656652
4139.870451,766.095498,-666.185348,9104.533087
4139.870766,612.876398,-1258.350101,9474.636058
4139.871081,0.000000,-518.144159,9178.553681
4139.871397,76.609550,-0.000000,9548.656652
4139.871712,0.000000,296.082377,9548.656652
4139.872027,-306.438199,-74.020594,9918.759623
4139.872342,-229.828649,-370.102971,10066.800811
4139.872658,76.609550,-518.144159,9474.636058
4139.872973,459.657299,-370.102971,9252.574275
4139.873288,76.609550,296.082377,8882.471304
4139.873604,76.609550,-0.000000,9104.533087
4139.873919,383.047749,370.102971,9770.718434
4139.874234,536.266849,1332.370696,9844.739029
4139.874549,766.095498,814.226536,10066.800811
4139.874865,1225.752797,666.185348,9548.656652
4139.875180,1915.238745,518.144159,9326.594869
4139.875495,1762.019645,296.082377,9252.574275
4139.875811,919.314598,1258.350101,9178.553681
4139.876126,766.095498,1184.329507,9474.636058
4139.876441,1149.143247,1554.432478,9770.718434
4139.876757,919.314598,1184.329507,9622.677246
4139.877072,306.438199,888.247130,9252.574275
4139.877387,919.314598,444.123565,9696.697840
4139.877702,842.705048,518.144159,9474.636058
4139.878018,536.266849,370.102971,9474.636058
4139.878333,612.876398,370.102971,9770.718434
4139.878648,229.828649,518.144159,9992.780217
4139.878964,76.609550,740.205942,10510.924376
4139.879279,459.657299,814.226536,10362.883188
4139.879594,0.000000,814.226536,9918.759623
4139.879910,153.219100,592.164754,9770.718434
4139.880225,612.876398,518.144159,9622.677246
4139.880540,383.047749,814.226536,9030.512492
4139.880856,153.219100,222.061783,9474.636058
4139.881171,383.047749,740.205942,9696.697840
4139.881486,-536.266849,740.205942,9844.739029
4139.881801,-1225.752797,444.123565,10066.800811
4139.882117,-1072.533697,-148.041188,10584.944971
4139.882432,-919.314598,-592.164754,9770.718434
4139.882747,-689.485948,-1036.288319,9474.636058
4139.883063,-766.095498,-370.102971,9696.697840
4139.883378,-919.314598,-0.000000,10732.986159
4139.883693,-842.705048,-0.000000,9992.780217
4139.884009,-766.095498,592.164754,9770.718434
4139.884324,-306.438199,888.247130,9474.636058
4139.884639,0.000000,370.102971,9178.553681
4139.884954,612.876398,222.061783,8438.347739
4139.885270,229.828649,444.123565,8586.388927
4139.885585,0.000000,148.041188,8882.471304
4139.885900,-383.047749,148.041188,9178.553681
4139.886216,-919.314598,222.061783,9474.636058
4139.886531,-1225.752797,-74.020594,9844.739029
4139.886846,-1378.971896,-814.226536,9844.739029
4139.887162,-306.438199,-1258.350101,9622.677246
4139.887477,229.828649,-1184.329507,9474.636058
4139.887792,-536.266849,222.061783,9548.656652
4139.888107,-612.876398,444.123565,9474.636058
4139.888423,0.000000,1036.288319,9326.594869
4139.888738,1225.752797,1184.329507,9326.594869
4139.889053,995.924147,666.185348,9474.636058
4139.889369,995.924147,222.061783,9548.656652
4139.889684,1149.143247,-370.102971,9326.594869
4139.889999,1072.533697,-296.082377,9474.636058
4139.890315,842.705048,-444.123565,9474.636058
4139.890630,459.657299,-148.041188,9770.718434
4139.890945,536.266849,-296.082377,10066.800811
4139.891260,383.047749,-296.082377,9474.636058
4139.891576,459.657299,-592.164754,9252.574275
4139.891891,383.047749,-814.226536,9400.615463
4139.892206,842.705048,-888.247130,8956.491898
4139.892522,919.314598,-296.082377,9030.512492
4139.892837,842.705048,-0.000000,9548.656652
4139.893152,995.924147,-0.000000,9770.718434
4139.893468,995.924147,-0.000000,9474.636058
4139.893783,1149.143247,-74.020594,9696.697840
4139.894098,919.314598,-0.000000,9992.780217
4139.894413,689.485948,-222.061783,9844.739029
4139.894729,766.095498,-0.000000,9400.615463
4139.895044,153.219100,-370.102971,9326.594869
4139.895359,0.000000,-0.000000,9770.718434
4139.895675,0.000000,444.123565,9992.780217
4139.895990,-536.266849,296.082377,10362.883188
4139.896305,-1072.533697,-222.061783,9992.780217
4139.896621,-306.438199,-370.102971,9992.780217
4139.896936,383.047749,-518.144159,9104.533087
4139.897251,0.000000,-370.102971,9696.697840
4139.897566,0.000000,-0.000000,9696.697840
4139.897882,0.000000,518.144159,9918.759623
4139.898197,229.828649,1332.370696,10140.821405
4139.898512,153.219100,962.267725,9548.656652
4139.898828,76.609550,518.144159,9030.512492
4139.899143,383.047749,-0.000000,8660.409521
4139.899458,0.000000,370.102971,9326.594869
4139.899774,0.000000,-148.041188,9178.553681
4139.900089,-842.705048,666.185348,9770.718434
4139.900404,-842.705048,666.185348,10214.842000
4139.900720,-842.705048,592.164754,9992.780217
4139.901035,-612.876398,-0.000000,9844.739029
4139.901350,-766.095498,-222.061783,9696.697840
4139.901665,-153.219100,-518.144159,9844.739029
4139.901981,-76.609550,-0.000000,9474.636058
4139.902296,-459.657299,740.205942,9474.636058
4139.902611,-153.219100,888.247130,9252.574275
4139.902927,0.000000,1258.350101,9326.594869
4139.903242,0.000000,592.164754,9548.656652
4139.903557,0.000000,222.061783,9326.594869
4139.903873,0.000000,-222.061783,9400.615463
4139.904188,153.219100,-296.082377,9104.533087
4139.904503,0.000000,-296.082377,9326.594869
4139.904818,-459.657299,-370.102971,10140.821405
4139.905134,-766.095498,-222.061783,10066.800811
4139.905449,-689.485948,-0.000000,10288.862594
4139.905764,-153.219100,-0.000000,9622.677246
4139.906080,306.438199,-148.041188,9474.636058
4139.906395,383.047749,-148.041188,9326.594869
4139.906710,306.438199,518.144159,9326.594869
4139.907026,76.609550,592.164754,9030.512492
4139.907341,229.828649,814.226536,9252.574275
4139.907656,459.657299,1110.308913,9622.677246
4139.907971,536.266849,444.123565,9918.759623
4139.908287,383.047749,296.082377,9770.718434
4139.908602,766.095498,-0.000000,9696.697840
4139.908917,995.924147,-370.102971,9326.594869
4139.909233,1149.143247,-370.102971,9696.697840
4139.909548,612.876398,370.102971,9548.656652
4139.909863,536.266849,518.144159,9622.677246
4139.910179,536.266849,1036.288319,9474.636058
4139.910494,459.657299,888.247130,9770.718434
4139.910809,612.876398,518.144159,9474.636058
4139.911124,459.657299,444.123565,9178.553681
4139.911440,612.876398,370.102971,9326.594869
4139.911755,306.438199,444.123565,9622.677246
4139.912070,306.438199,444.123565,9918.759623
4139.912386,-153.219100,740.205942,9918.759623
4139.912701,-229.828649,740.205942,10214.842000
4139.913016,536.266849,666.185348,10140.821405
4139.913332,383.047749,-0.000000,9474.636058
4139.913647,689.485948,-296.082377,9622.677246
4139.913962,459.657299,-148.041188,9252.574275
4139.914277,459.657299,296.082377,9400.615463
4139.914593,153.219100,370.102971,9474.636058
4139.914908,0.000000,518.144159,9548.656652
4139.915223,0.000000,296.082377,9844.739029
4139.915539,-612.876398,-814.226536,9844.739029
4139.915854,-689.485948,-740.205942,9474.636058
4139.916169,-306.438199,-740.205942,9400.615463
4139.916485,-766.095498,-666.185348,9622.677246
4139.916800,-306.438199,-444.123565,9844.739029
4139.917115,-153.219100,-518.144159,10881.027347
4139.917431,-536.266849,222.061783,9918.759623
4139.917746,-459.657299,-370.102971,10140.821405
4139.918061,0.000000,-222.061783,9622.677246
4139.918376,0.000000,-370.102971,9474.636058
4139.918692,153.219100,-0.000000,8586.388927
4139.919007,-689.485948,-148.041188,9474.636058
4139.919322,-536.266849,296.082377,9474.636058
4139.919638,-612.876398,-0.000000,9474.636058
4139.919953,-536.266849,-0.000000,9844.739029
4139.920268,-459.657299,-592.164754,9844.739029
4139.920584,-536.266849,-962.267725,10140.821405
4139.920899,0.000000,-814.226536,9252.574275
4139.921214,-459.657299,-888.247130,9252.574275
4139.921529,-383.047749,-0.000000,9622.677246
4139.921845,-919.314598,814.226536,9696.697840
4139.922160,-229.828649,1258.350101,9622.677246
4139.922475,0.000000,814.226536,9474.636058
4139.922791,153.219100,222.061783,9548.656652
4139.923106,459.657299,-148.041188,9252.574275
4139.923421,1532.190996,-74.020594,8956.491898
4139.923737,383.047749,888.247130,9326.594869
4139.924052,153.219100,740.205942,9474.636058
4139.924367,459.657299,740.205942,9474.636058
4139.924682,229.828649,592.164754,9326.594869
4139.924998,306.438199,-222.061783,9622.677246
4139.925313,459.657299,-740.205942,9474.636058
4139.925628,995.924147,-666.185348,8734.430116
4139.925944,536.266849,-592.164754,8956.491898
4139.926259,-153.219100,-74.020594,9252.574275
4139.926574,153.219100,-148.041188,9918.759623
4139.926890,459.657299,444.123565,9474.636058
4139.927205,842.705048,592.164754,9252.574275
4139.927520,995.924147,518.144159,9622.677246
4139.927835,1455.581446,-0.000000,9400.615463
4139.928151,842.705048,-0.000000,9104.533087
4139.928466,1149.143247,370.102971,9474.636058
4139.928781,766.095498,740.205942,9844.739029
4139.929097,919.314598,888.247130,10066.800811
4139.929412,229.828649,1258.350101,9992.780217
4139.929727,153.219100,592.164754,9844.739029
4139.930043,0.000000,148.041188,9992.780217
4139.930358,383.047749,-222.061783,10066.800811
4139.930673,153.219100,-74.020594,9992.780217
4139.930988,-306.438199,444.123565,10288.862594
4139.931304,153.219100,296.082377,10140.821405
4139.931619,76.609550,1036.288319,10214.842000
4139.931934,383.047749,1332.370696,9474.636058
4139.932250,229.828649,222.061783,10140.821405
4139.932565,919.314598,296.082377,9622.677246
4139.932880,919.314598,518.144159,9474.636058
4139.933196,229.828649,740.205942,9030.512492
4139.933511,153.219100,962.267725,9548.656652
4139.933826,-383.047749,1110.308913,10066.800811
4139.934141,-383.047749,814.226536,10288.862594
4139.934457,-689.485948,740.205942,10288.862594
4139.934772,-536.266849,-0.000000,9992.780217
4139.935087,-229.828649,-222.061783,9770.718434
4139.935403,-306.438199,-0.000000,9696.697840
4139.935718,-459.657299,444.123565,9622.677246
4139.936033,-612.876398,-0.000000,9918.759623
4139.936349,-459.657299,370.102971,9770.718434
4139.936664,-153.219100,592.164754,9770.718434
4139.936979,0.000000,296.082377,9474.636058
4139.937295,76.609550,-0.000000,9178.553681
4139.937610,612.876398,-222.061783,9326.594869
4139.937925,306.438199,-0.000000,8808.450710
4139.938240,76.609550,-0.000000,9030.512492
4139.938556,-306.438199,-296.082377,9474.636058
4139.938871,-229.828649,-444.123565,9844.739029
4139.939186,0.000000,-814.226536,9104.533087
4139.939502,-229.828649,-1036.288319,9696.697840
4139.939817,0.000000,-888.247130,9770.718434
4139.940132,229.828649,-1110.308913,9400.615463
4139.940448,0.000000,-296.082377,8956.491898
4139.940763,0.000000,-222.061783,8956.491898
4139.941078,76.609550,-0.000000,9474.636058
4139.941393,612.876398,592.164754,9474.636058
4139.941709,153.219100,296.082377,9918.759623
4139.942024,229.828649,-148.041188,9548.656652
4139.942339,383.047749,-74.020594,9400.615463
4139.942655,459.657299,-222.061783,8438.347739
4139.942970,459.657299,-0.000000,9252.574275
4139.943285,229.828649,222.061783,9770.718434
4139.943601,-306.438199,370.102971,9696.697840
4139.943916,-383.047749,222.061783,9918.759623
4139.944231,0.000000,-148.041188,9918.759623
4139.944546,0.000000,-296.082377,9548.656652
4139.944862,229.828649,-222.061783,9474.636058
4139.945177,383.047749,-0.000000,9474.636058
4139.945492,153.219100,740.205942,9252.574275
4139.945808,689.485948,962.267725,9474.636058
4139.946123,842.705048,1406.391290,9474.636058
4139.946438,1072.533697,962.267725,9696.697840
4139.946754,842.705048,444.123565,9696.697840
4139.947069,1608.800546,-74.020594,9770.718434
4139.947384,995.924147,-0.000000,9252.574275
4139.947699,383.047749,148.041188,9918.759623
4139.948015,0.000000,592.164754,9770.718434
4139.948330,-153.219100,518.144159,9992.780217
4139.948645,-229.828649,740.205942,9770.718434
4139.948961,0.000000,222.061783,9770.718434
4139.949276,-306.438199,-296.082377,9918.759623
4139.949591,76.609550,-222.061783,10140.821405
4139.949907,306.438199,148.041188,9474.636058
4139.950222,0.000000,740.205942,9474.636058
4139.950537,229.828649,814.226536,10140.821405
4139.950852,383.047749,888.247130,10362.883188
4139.951168,459.657299,666.185348,9622.677246
4139.951483,153.219100,-148.041188,9474.636058
4139.951798,383.047749,370.102971,9474.636058
4139.952114,919.314598,296.082377,9474.636058
4139.952429,0.000000,370.102971,9474.636058
4139.952744,-383.047749,148.041188,9474.636058
4139.953060,-383.047749,296.082377,9770.718434
4139.953375,-766.095498,222.061783,10510.924376
4139.953690,-995.924147,-0.000000,9622.677246
4139.954006,-1072.533697,-592.164754,10066.800811
4139.954321,-612.876398,-296.082377,9474.636058
4139.954636,-536.266849,-666.185348,9770.718434
4139.954951,-689.485948,-0.000000,9474.636058
4139.955267,-383.047749,-0.000000,10140.821405
4139.955582,-536.266849,740.205942,9918.759623
4139.955897,-306.438199,1184.329507,9844.739029
4139.956213,0.000000,518.144159,8956.491898
4139.956528,76.609550,148.041188,9474.636058
4139.956843,383.047749,222.061783,9252.574275
4139.957159,306.438199,-0.000000,9030.512492
4139.957474,0.000000,-0.000000,9252.574275
4139.957789,-229.828649,-0.000000,9474.636058
4139.958104,-612.876398,222.061783,9770.718434
4139.958420,-306.438199,-296.082377,9770.718434
4139.958735,-459.657299,-518.144159,9400.615463
4139.959050,229.828649,-740.205942,9474.636058
4139.959366,306.438199,-740.205942,8734.430116
4139.959681,306.438199,-296.082377,8808.450710
4139.959996,0.000000,-0.000000,9326.594869
4139.960312,0.000000,444.123565,9474.636058
4139.960627,689.485948,666.185348,9548.656652
4139.960942,995.924147,-74.020594,9548.656652
4139.961257,1072.533697,-296.082377,9400.615463
4139.961573,1302.362347,-518.144159,9400.615463
4139.961888,1072.533697,-0.000000,9474.636058
4139.962203,383.047749,222.061783,9474.636058
4139.962519,689.485948,296.082377,9622.677246
4139.962834,995.924147,370.102971,9992.780217
4139.963149,229.828649,-0.000000,9918.759623
4139.963465,76.609550,-888.247130,9474.636058
4139.963780,153.219100,-740.205942,9548.656652
4139.964095,536.266849,-518.144159,9474.636058
4139.964410,306.438199,-222.061783,9326.594869
4139.964726,76.609550,-148.041188,9548.656652
4139.965041,-76.609550,-0.000000,10066.800811
4139.965356,0.000000,740.205942,9918.759623
4139.965672,76.609550,296.082377,9770.718434
4139.965987,383.047749,592.164754,9474.636058
4139.966302,689.485948,-0.000000,9474.636058
4139.966618,689.485948,518.144159,9400.615463
4139.966933,0.000000,370.102971,9252.574275
4139.967248,-306.438199,666.185348,9548.656652
4139.967563,-536.266849,1110.308913,10362.883188
4139.967879,-1225.752797,1110.308913,10066.800811
4139.968194,-1378.971896,-222.061783,10140.821405
4139.968509,-766.095498,-518.144159,10140.821405
4139.968825,-383.047749,-592.164754,9252.574275
4139.969140,-153.219100,-0.000000,8808.450710
4139.969455,0.000000,444.123565,9918.759623
4139.969771,-306.438199,962.267725,9474.636058
4139.970086,0.000000,1332.370696,9326.594869
4139.970401,153.219100,1184.329507,9696.697840
4139.970716,0.000000,518.144159,9326.594869
4139.971032,383.047749,-0.000000,9918.759623
4139.971347,536.266849,-0.000000,9474.636058
4139.971662,0.000000,740.205942,9548.656652
4139.971978,-459.657299,148.041188,9770.718434
4139.972293,-612.876398,-0.000000,10510.924376
4139.972608,0.000000,888.247130,10362.883188
4139.972924,-536.266849,-0.000000,10140.821405
4139.973239,153.219100,-0.000000,9770.718434
4139.973554,612.876398,-0.000000,9474.636058
4139.973870,689.485948,-0.000000,9474.636058
4139.974185,383.047749,370.102971,9400.615463
4139.974500,153.219100,444.123565,9622.677246
4139.974815,459.657299,1110.308913,9770.718434
4139.975131,536.266849,1110.308913,9696.697840
4139.975446,153.219100,592.164754,9548.656652
4139.975761,766.095498,222.061783,9474.636058
4139.976077,306.438199,-296.082377,9622.677246
4139.976392,229.828649,-444.123565,9474.636058
4139.976707,0.000000,-0.000000,9992.780217
4139.977022,-153.219100,148.041188,9992.780217
4139.977338,0.000000,740.205942,10214.842000
4139.977653,153.219100,222.061783,9770.718434
4139.977968,0.000000,-370.102971,9474.636058
4139.978283,383.047749,-592.164754,9474.636058
4139.978599,383.047749,-148.041188,9400.615463
4139.978914,0.000000,-0.000000,9252.574275
4139.979229,153.219100,592.164754,9326.594869
4139.979544,306.438199,740.205942,9326.594869
4139.979860,306.438199,592.164754,9400.615463
4139.980175,306.438199,-0.000000,9770.718434
4139.980490,229.828649,-666.185348,9992.780217
4139.980805,689.485948,-518.144159,9104.533087
4139.981120,459.657299,-148.041188,8660.409521
4139.981436,0.000000,222.061783,8882.471304
4139.981751,0.000000,370.102971,9252.574275
4139.982066,459.657299,666.185348,9474.636058
4139.982381,306.438199,370.102971,9696.697840
4139.982697,383.047749,-0.000000,9252.574275
4139.983012,689.485948,-296.082377,9252.574275
4139.983327,1225.752797,-888.247130,9104.533087
4139.983642,229.828649,-296.082377,9770.718434
4139.983958,76.609550,-74.020594,10140.821405
4139.984273,153.219100,518.144159,9918.759623
4139.984588,306.438199,444.123565,10288.862594
4139.984903,306.438199,-0.000000,10362.883188
4139.985218,306.438199,-0.000000,9622.677246
4139.985534,689.485948,-0.000000,9252.574275
4139.985849,766.095498,-518.144159,8808.450710
4139.986164,76.609550,-296.082377,9622.677246
4139.986479,-229.828649,-0.000000,9474.636058
4139.986795,76.609550,-222.061783,10066.800811
4139.987110,0.000000,-0.000000,9548.656652
4139.987425,0.000000,-666.185348,9696.697840
4139.987740,76.609550,-814.226536,10066.800811
4139.988056,0.000000,-370.102971,9548.656652
4139.988371,0.000000,-222.061783,9400.615463
4139.988686,-766.095498,-296.082377,9844.739029
4139.989001,-766.095498,518.144159,9474.636058
4139.989316,-383.047749,222.061783,10140.821405
4139.989632,-689.485948,296.082377,9622.677246
4139.989947,-612.876398,-370.102971,9474.636058
4139.990262,-306.438199,-444.123565,9326.594869
4139.990577,0.000000,-148.041188,9474.636058
4139.990893,-766.095498,74.020594,9474.636058
4139.991208,-76.609550,-0.000000,9622.677246
4139.991523,-459.657299,444.123565,9770.718434
4139.991838,-689.485948,518.144159,9326.594869
4139.992154,-766.095498,-0.000000,9474.636058
4139.992469,-612.876398,-0.000000,9104.533087
4139.992784,306.438199,-740.205942,9474.636058
4139.993099,153.219100,148.041188,8734.430116
4139.993415,0.000000,370.102971,9104.533087
4139.993730,0.000000,1036.288319,9104.533087
4139.994045,-766.095498,1110.308913,9474.636058
4139.994360,-689.485948,888.247130,9622.677246
4139.994675,229.828649,-0.000000,9474.636058
4139.994991,612.876398,444.123565,9104.533087
4139.995306,766.095498,-0.000000,9326.594869
4139.995621,536.266849,740.205942,9474.636058
4139.995936,0.000000,740.205942,9918.759623
4139.996252,76.609550,1184.329507,9770.718434
4139.996567,306.438199,1406.391290,9992.780217
4139.996882,0.000000,370.102971,10214.842000
4139.997197,459.657299,370.102971,10214.842000
4139.997513,689.485948,-444.123565,9918.759623
4139.997828,995.924147,-0.000000,9844.739029
4139.998143,229.828649,592.164754,9770.718434
4139.998458,459.657299,814.226536,9992.780217
4139.998773,1072.533697,962.267725,10658.965565
4139.999089,1072.533697,888.247130,10214.842000
4139.999404,1378.971896,444.123565,9696.697840
4139.999719,1532.190996,296.082377,9622.677246
4140.000034,1532.190996,-0.000000,9474.636058
4140.000350,842.705048,666.185348,8882.471304
4140.000665,459.657299,592.164754,9474.636058
4140.000980,689.485948,962.267725,9622.677246
4140.001295,459.657299,444.123565,10066.800811
4140.001611,0.000000,-0.000000,9770.718434
4140.001926,-153.219100,-518.144159,9548.656652
4140.002241,-153.219100,-666.185348,10362.883188
4140.002556,0.000000,-666.185348,9696.697840
4140.002871,-306.438199,-296.082377,9622.677246
4140.003187,0.000000,-444.123565,10214.842000
4140.003502,153.219100,148.041188,9992.780217
4140.003817,306.438199,740.205942,9474.636058
4140.004132,153.219100,666.185348,9252.574275
4140.004448,306.438199,370.102971,9104.533087
4140.004763,383.047749,370.102971,8660.409521
4140.005078,0.000000,-0.000000,8882.471304
4140.005393,0.000000,-0.000000,8956.491898
4140.005709,-459.657299,-148.041188,9548.656652
4140.006024,-689.485948,-74.020594,9992.780217
4140.006339,-1225.752797,-222.061783,10066.800811
4140.006654,-1608.800546,-370.102971,9992.780217
4140.006969,-383.047749,-592.164754,9474.636058
4140.007285,-383.047749,-888.247130,9252.574275
4140.007600,-689.485948,-444.123565,9622.677246
4140.007915,0.000000,-0.000000,9474.636058
4140.008230,-459.657299,370.102971,9622.677246
4140.008546,-306.438199,592.164754,9844.739029
4140.008861,0.000000,-148.041188,9252.574275
4140.009176,-76.609550,-592.164754,8882.471304
4140.009491,229.828649,-666.185348,9252.574275
4140.009807,0.000000,-518.144159,9474.636058
4140.010122,-153.219100,-74.020594,8956.491898
4140.010437,-536.266849,-0.000000,9622.677246
4140.010752,-689.485948,-222.061783,9844.739029
4140.011067,-919.314598,-592.164754,9844.739029
4140.011383,-842.705048,-1110.308913,9844.739029
4140.011698,-536.266849,-1554.432478,9696.697840
4140.012013,76.609550,-1406.391290,9844.739029
4140.012328,383.047749,-962.267725,9474.636058
4140.012644,-229.828649,-0.000000,9252.574275
4140.012959,229.828649,888.247130,9548.656652
4140.013274,536.266849,1036.288319,9622.677246
4140.013589,612.876398,296.082377,9400.615463
4140.013905,919.314598,-74.020594,9474.636058
4140.014220,995.924147,-148.041188,9252.574275
4140.014535,842.705048,-74.020594,8956.491898
4140.014850,612.876398,148.041188,9400.615463
4140.015165,229.828649,444.123565,9992.780217
4140.015481,0.000000,518.144159,9770.718434
4140.015796,-306.438199,444.123565,9770.718434
4140.016111,-306.438199,-148.041188,9770.718434
4140.016426,76.609550,-0.000000,9474.636058
4140.016742,842.705048,-814.226536,9178.553681
4140.017057,459.657299,-0.000000,9770.718434
4140.017372,76.609550,444.123565,10214.842000
4140.017687,383.047749,962.267725,9844.739029
4140.018003,689.485948,1406.391290,9918.759623
4140.018318,842.705048,1332.370696,9844.739029
4140.018633,1072.533697,1184.329507,9474.636058
4140.018948,1072.533697,888.247130,9104.533087
4140.019263,1149.143247,962.267725,9326.594869
4140.019579,612.876398,962.267725,9474.636058
4140.019894,0.000000,666.185348,9474.636058
4140.020209,0.000000,888.247130,9622.677246
4140.020524,0.000000,888.247130,10362.883188
4140.020840,-229.828649,148.041188,10362.883188
4140.021155,0.000000,-74.020594,9696.697840
4140.021470,459.657299,-296.082377,10066.800811
4140.021785,0.000000,-0.000000,9622.677246
4140.022101,0.000000,592.164754,9622.677246
4140.022416,306.438199,888.247130,9622.677246
4140.022731,612.876398,740.205942,9918.759623
4140.023046,306.438199,888.247130,9770.718434
4140.023362,153.219100,740.205942,9474.636058
4140.023677,383.047749,296.082377,9400.615463
4140.023992,153.219100,-0.000000,9030.512492
4140.024307,153.219100,296.082377,9252.574275
4140.024622,-536.266849,296.082377,9696.697840
4140.024938,-459.657299,296.082377,10362.883188
4140.025253,-536.266849,-0.000000,10214.842000
4140.025568,-995.924147,-74.020594,9992.780217
4140.025883,-229.828649,-666.185348,9770.718434
4140.026199,-459.657299,-296.082377,9770.718434
4140.026514,0.000000,-0.000000,9474.636058
4140.026829,-306.438199,-0.000000,9400.615463
4140.027144,-229.828649,518.144159,9252.574275
4140.027460,-153.219100,740.205942,9548.656652
4140.027775,0.000000,740.205942,9622.677246
4140.028090,-306.438199,148.041188,9844.739029
4140.028405,229.828649,-148.041188,9326.594869
4140.028720,306.438199,-370.102971,9326.594869
4140.029036,536.266849,222.061783,9104.533087
4140.029351,-383.047749,-0.000000,9622.677246
4140.029666,-229.828649,370.102971,9622.677246
4140.029981,0.000000,222.061783,9992.780217
4140.030297,0.000000,-370.102971,9474.636058
4140.030612,0.000000,-592.164754,9622.677246
4140.030927,153.219100,-222.061783,8882.471304
4140.031242,229.828649,-148.041188,9400.615463
4140.031558,76.609550,-148.041188,9474.636058
4140.031873,459.657299,-74.020594,9770.718434
4140.032188,612.876398,296.082377,9622.677246
4140.032503,0.000000,370.102971,10140.821405
4140.032818,153.219100,-74.020594,10140.821405
4140.033134,689.485948,-74.020594,9178.553681
4140.033449,919.314598,-518.144159,8956.491898
4140.033764,919.314598,-296.082377,9178.553681
4140.034079,76.609550,-0.000000,9326.594869
4140.034395,0.000000,-0.000000,9474.636058
4140.034710,76.609550,-148.041188,9770.718434
4140.035025,-306.438199,-296.082377,9622.677246
4140.035340,-612.876398,-592.164754,9548.656652
4140.035656,0.000000,-592.164754,9918.759623
4140.035971,153.219100,-592.164754,9474.636058
4140.036286,153.219100,-592.164754,9696.697840
4140.036601,76.609550,-222.061783,9622.677246
4140.036916,153.219100,-0.000000,9770.718434
4140.037232,306.438199,518.144159,9696.697840
4140.037547,383.047749,370.102971,9474.636058
4140.037862,612.876398,-0.000000,9252.574275
4140.038177,995.924147,222.061783,8956.491898
4140.038493,536.266849,-0.000000,9474.636058
4140.038808,76.609550,-740.205942,9474.636058
4140.039123,-536.266849,518.144159,9548.656652
4140.039438,0.000000,-0.000000,9844.739029
4140.039754,-383.047749,-0.000000,9622.677246
4140.040069,-689.485948,-74.020594,10140.821405
4140.040384,-842.705048,-962.267725,9918.759623
4140.040699,-383.047749,-370.102971,9548.656652
4140.041014,-459.657299,222.061783,9622.677246
4140.041330,-689.485948,370.102971,9696.697840
4140.041645,0.000000,962.267725,9918.759623
4140.041960,0.000000,1480.411884,9770.718434
4140.042275,0.000000,1480.411884,9622.677246
4140.042591,229.828649,814.226536,9696.697840
4140.042906,383.047749,592.164754,9474.636058
4140.043221,306.438199,370.102971,9474.636058
4140.043536,76.609550,666.185348,9696.697840
4140.043852,-229.828649,814.226536,9474.636058
4140.044167,-306.438199,888.247130,9918.759623
4140.044482,-766.095498,518.144159,10066.800811
4140.044797,-612.876398,-0.000000,10066.800811
4140.045112,-306.438199,-296.082377,9992.780217
4140.045428,229.828649,-0.000000,9474.636058
4140.045743,306.438199,444.123565,8956.491898
4140.046058,229.828649,444.123565,9400.615463
4140.046373,153.219100,1036.288319,9474.636058
4140.046689,766.095498,1480.411884,9844.739029
4140.047004,1149.143247,1628.453072,9326.594869
4140.047319,1608.800546,740.205942,9104.533087
4140.047634,1532.190996,592.164754,9178.553681
4140.047950,1225.752797,-0.000000,9326.594869
4140.048265,459.657299,-0.000000,9178.553681
4140.048580,459.657299,444.123565,9622.677246
4140.048895,229.828649,-0.000000,9696.697840
4140.049211,229.828649,-0.000000,9770.718434
4140.049526,-383.047749,296.082377,9696.697840
4140.049841,-306.438199,-444.123565,9474.636058
4140.050156,153.219100,-592.164754,9844.739029
4140.050471,612.876398,-888.247130,9992.780217
4140.050787,-229.828649,222.061783,9474.636058
4140.051102,-306.438199,-148.041188,10658.965565
4140.051417,536.266849,296.082377,10288.862594
4140.051732,459.657299,1184.329507,9548.656652
4140.052048,229.828649,518.144159,9992.780217
4140.052363,536.266849,-518.144159,9844.739029
4140.052678,459.657299,-0.000000,9400.615463
4140.052993,689.485948,-0.000000,9104.533087
4140.053309,229.828649,518.144159,9326.594869
4140.053624,0.000000,666.185348,9696.697840
4140.053939,0.000000,592.164754,10066.800811
4140.054254,0.000000,-0.000000,9992.780217
4140.054569,0.000000,-592.164754,9770.718434
4140.054885,612.876398,-740.205942,9326.594869
4140.055200,919.314598,-296.082377,8734.430116
4140.055515,306.438199,-0.000000,9252.574275
4140.055830,0.000000,148.041188,9252.574275
4140.056146,0.000000,296.082377,9918.759623
4140.056461,0.000000,814.226536,9548.656652
4140.056776,153.219100,148.041188,9918.759623
4140.057091,229.828649,148.041188,9474.636058
4140.057407,0.000000,-666.185348,9622.677246
4140.057722,229.828649,-296.082377,9400.615463
4140.058037,-153.219100,-0.000000,9474.636058
4140.058352,-612.876398,-0.000000,10288.862594
4140.058667,-842.705048,74.020594,9844.739029
4140.058983,-536.266849,296.082377,10214.842000
4140.059298,-459.657299,-148.041188,9992.780217
4140.059613,0.000000,-518.144159,9696.697840
4140.059928,306.438199,-592.164754,9474.636058
4140.060244,-383.047749,-0.000000,8734.430116
4140.060559,-383.047749,148.041188,9178.553681
4140.060874,-459.657299,148.041188,9548.656652
4140.061189,-612.876398,74.020594,9548.656652
4140.061505,-536.266849,-444.123565,10066.800811
4140.061820,-766.095498,-666.185348,9696.697840
4140.062135,-383.047749,-814.226536,9474.636058
4140.062450,-383.047749,-592.164754,9474.636058
4140.062765,-842.705048,-148.041188,9548.656652
4140.063081,-842.705048,-444.123565,9844.739029
4140.063396,-689.485948,-0.000000,10214.842000
4140.063711,-383.047749,592.164754,9548.656652
4140.064026,0.000000,-0.000000,9474.636058
4140.064342,-229.828649,148.041188,9400.615463
4140.064657,0.000000,-0.000000,9622.677246
4140.064972,153.219100,222.061783,8882.471304
4140.065287,153.219100,444.123565,9104.533087
4140.065603,0.000000,296.082377,9548.656652
4140.065918,383.047749,370.102971,9770.718434
4140.066233,0.000000,296.082377,9918.759623
4140.066548,0.000000,-0.000000,9844.739029
4140.066863,229.828649,-296.082377,9474.636058
4140.067179,995.924147,-0.000000,8882.471304
4140.067494,919.314598,148.041188,8808.450710
4140.067809,689.485948,592.164754,8882.471304
4140.068124,689.485948,814.226536,9178.553681
4140.068440,459.657299,666.185348,9178.553681
4140.068755,842.705048,1184.329507,9326.594869
4140.069070,689.485948,740.205942,9474.636058
4140.069385,842.705048,-0.000000,9474.636058
4140.069701,689.485948,148.041188,9548.656652
4140.070016,766.095498,222.061783,9992.780217
4140.070331,536.266849,592.164754,10066.800811
4140.070646,766.095498,1110.308913,10066.800811
4140.070961,766.095498,1110.308913,9918.759623
4140.071277,842.705048,740.205942,10436.903782
4140.071592,1225.752797,222.061783,9178.553681
4140.071907,1378.971896,-0.000000,9474.636058
4140.072222,1378.971896,370.102971,9474.636058
4140.072538,536.266849,888.247130,9474.636058
4140.072853,1149.143247,666.185348,9844.739029
4140.073168,229.828649,666.185348,10288.862594
4140.073483,153.219100,222.061783,10066.800811
4140.073799,306.438199,-0.000000,9548.656652
4140.074114,383.047749,-518.144159,9992.780217
4140.074429,383.047749,-74.020594,9548.656652
4140.074744,-306.438199,-0.000000,9474.636058
4140.075059,0.000000,296.082377,9474.636058
4140.075375,-306.438199,-0.000000,10066.800811
4140.075690,-383.047749,666.185348,9992.780217
4140.076005,-383.047749,-0.000000,10066.800811
4140.076320,0.000000,-0.000000,9548.656652
4140.076636,76.609550,-444.123565,9622.677246
4140.076951,-306.438199,-74.020594,9400.615463
4140.077266,-306.438199,-0.000000,9548.656652
4140.077581,-459.657299,370.102971,9918.759623
4140.077897,0.000000,444.123565,9844.739029
4140.078212,-612.876398,-0.000000,9474.636058
4140.078527,-689.485948,-148.041188,9622.677246
4140.078842,-689.485948,-148.041188,9474.636058
4140.079158,0.000000,-592.164754,8660.409521
4140.079473,-536.266849,-592.164754,8956.491898
4140.079788,-1072.533697,-444.123565,9770.718434
4140.080103,-995.924147,-0.000000,9622.677246
4140.080418,-612.876398,370.102971,9770.718434
4140.080734,-612.876398,-444.123565,9918.759623
4140.081049,0.000000,-74.020594,9474.636058
4140.081364,689.485948,-148.041188,9326.594869
4140.081679,766.095498,-0.000000,8956.491898
4140.081995,153.219100,74.020594,9622.677246
4140.082310,229.828649,-0.000000,8882.471304
4140.082625,153.219100,-0.000000,8956.491898
4140.082940,0.000000,-0.000000,9400.615463
4140.083256,0.000000,-444.123565,9844.739029
4140.083571,0.000000,-814.226536,9400.615463
4140.083886,229.828649,-1110.308913,9474.636058
4140.084201,0.000000,-962.267725,9474.636058
4140.084516,-306.438199,-814.226536,9844.739029
4140.084832,-306.438199,-518.144159,10066.800811
4140.085147,0.000000,-0.000000,9992.780217
4140.085462,459.657299,-222.061783,9548.656652
4140.085777,919.314598,-222.061783,9474.636058
4140.086093,1302.362347,-296.082377,9326.594869
4140.086408,1455.581446,296.082377,8808.450710
4140.086723,766.095498,592.164754,8660.409521
4140.087038,229.828649,518.144159,8660.409521
4140.087354,612.876398,-0.000000,9400.615463
4140.087669,153.219100,-0.000000,9548.656652
4140.087984,-459.657299,-444.123565,9696.697840
4140.088299,-612.876398,-740.205942,10214.842000
4140.088615,0.000000,-814.226536,9770.718434
4140.088930,-306.438199,-0.000000,9622.677246
4140.089245,-229.828649,-0.000000,10066.800811
4140.089560,-229.828649,666.185348,10140.821405
4140.089875,76.609550,1332.370696,9474.636058
4140.090191,766.095498,1110.308913,9178.553681
4140.090506,766.095498,962.267725,9770.718434
4140.090821,689.485948,1036.288319,9400.615463
4140.091136,919.314598,1258.350101,8734.430116
4140.091452,766.095498,1110.308913,9104.533087
4140.091767,766.095498,592.164754,9770.718434
4140.092082,766.095498,962.267725,10214.842000
4140.092397,153.219100,888.247130,10066.800811
4140.092713,-229.828649,222.061783,10584.944971
4140.093028,-229.828649,-0.000000,10288.862594
4140.093343,0.000000,222.061783,8882.471304
4140.093658,536.266849,-0.000000,9400.615463
4140.093973,0.000000,518.144159,9474.636058
4140.094289,0.000000,518.144159,9622.677246
4140.094604,459.657299,740.205942,10140.821405
4140.094919,383.047749,1480.411884,9696.697840
4140.095234,0.000000,1036.288319,9770.718434
4140.095550,76.609550,592.164754,9770.718434
4140.095865,536.266849,-74.020594,9696.697840
4140.096180,0.000000,-296.082377,9844.739029
4140.096495,-536.266849,-0.000000,9844.739029
4140.096811,-612.876398,-0.000000,10584.944971
4140.097126,-689.485948,1036.288319,9918.759623
4140.097441,-536.266849,444.123565,9696.697840
4140.097756,-229.828649,-0.000000,9400.615463
4140.098072,76.609550,-444.123565,9474.636058
4140.098387,0.000000,-518.144159,8734.430116
4140.098702,-383.047749,-222.061783,9104.533087
4140.099017,-689.485948,-0.000000,9770.718434
4140.099332,-306.438199,370.102971,9844.739029
4140.099648,0.000000,740.205942,9474.636058
4140.099963,153.219100,-0.000000,9696.697840
4140.100278,383.047749,-74.020594,9400.615463
4140.100593,1302.362347,-222.061783,9104.533087
4140.100909,919.314598,444.123565,8734.430116
4140.101224,842.705048,962.267725,8956.491898
4140.101539,383.047749,592.164754,9474.636058
4140.101854,383.047749,962.267725,9178.553681
4140.102170,-229.828649,-0.000000,9548.656652
4140.102485,76.609550,-296.082377,9474.636058
4140.102800,612.876398,-444.123565,9548.656652
4140.103115,153.219100,-296.082377,9326.594869
4140.103430,153.219100,-0.000000,9548.656652
4140.103746,0.000000,-296.082377,9474.636058
4140.104061,229.828649,-0.000000,9844.739029
4140.104376,612.876398,444.123565,9770.718434
4140.104691,229.828649,-0.000000,9696.697840
4140.105007,689.485948,-148.041188,9548.656652
4140.105322,1072.533697,-148.041188,8808.450710
4140.105637,1378.971896,-0.000000,8956.491898
4140.105952,995.924147,-0.000000,9326.594869
4140.106268,229.828649,-296.082377,9548.656652
4140.106583,383.047749,-370.102971,10510.924376
4140.106898,0.000000,-666.185348,10214.842000
4140.107213,-459.657299,-962.267725,10362.883188
4140.107529,-229.828649,-1628.453072,9844.739029
4140.107844,153.219100,-1184.329507,9844.739029
4140.108159,-229.828649,-1184.329507,9178.553681
4140.108474,-229.828649,-740.205942,9474.636058
4140.108789,0.000000,-740.205942,9622.677246
4140.109105,383.047749,-0.000000,9770.718434
4140.109420,383.047749,296.082377,9326.594869
4140.109735,689.485948,-74.020594,9178.553681
4140.110050,842.705048,-0.000000,8734.430116
4140.110366,612.876398,-370.102971,8808.450710
4140.110681,-153.219100,-0.000000,8956.491898
4140.110996,-153.219100,-740.205942,9696.697840
4140.111311,-383.047749,-592.164754,9918.759623
4140.111627,-919.314598,-148.041188,9844.739029
4140.111942,-1378.971896,-666.185348,10214.842000
4140.112257,-1455.581446,-740.205942,10140.821405
4140.112572,-919.314598,-518.144159,9918.759623
4140.112887,-612.876398,-0.000000,9474.636058
4140.113203,-689.485948,518.144159,9030.512492
4140.113518,-153.219100,1036.288319,9474.636058
4140.113833,-153.219100,1776.494261,9622.677246
4140.114148,76.609550,1258.350101,9548.656652
4140.114464,76.609550,962.267725,9622.677246
4140.114779,459.657299,1332.370696,9548.656652
4140.115094,689.485948,518.144159,8956.491898
4140.115409,153.219100,962.267725,9548.656652
4140.115725,0.000000,1110.308913,9696.697840
4140.116040,-459.657299,962.267725,9548.656652
4140.116355,-306.438199,962.267725,9844.739029
4140.116670,-842.705048,518.144159,9918.759623
4140.116986,-766.095498,-0.000000,9844.739029
4140.117301,-306.438199,-74.020594,9622.677246
4140.117616,0.000000,-592.164754,9844.739029
4140.117931,0.000000,-148.041188,9548.656652
4140.118246,-229.828649,296.082377,9918.759623
4140.118562,459.657299,814.226536,10140.821405
4140.118877,919.314598,888.247130,9770.718434
4140.119192,995.924147,444.123565,9474.636058
4140.119507,1225.752797,518.144159,9178.553681
4140.119823,1608.800546,370.102971,9030.512492
4140.120138,919.314598,592.164754,9918.759623
4140.120453,153.219100,740.205942,9696.697840
4140.120768,153.219100,592.164754,9474.636058
4140.121084,229.828649,814.226536,10066.800811
4140.121399,-306.438199,-296.082377,10066.800811
4140.121714,0.000000,-296.082377,10140.821405
4140.122029,153.219100,-444.123565,9696.697840
4140.122344,612.876398,-444.123565,10140.821405
4140.122660,383.047749,-148.041188,9326.594869
4140.122975,459.657299,296.082377,9326.594869
4140.123290,842.705048,814.226536,9918.759623
4140.123605,1685.410096,1110.308913,9104.533087
4140.123921,1378.971896,814.226536,9252.574275
4140.124236,1302.362347,444.123565,9178.553681
4140.124551,1762.019645,-0.000000,8660.409521
4140.124866,1149.143247,666.185348,8512.368333
4140.125182,459.657299,-0.000000,8882.471304
4140.125497,0.000000,518.144159,9844.739029
4140.125812,-229.828649,-0.000000,10288.862594
4140.126127,-612.876398,-74.020594,10584.944971
4140.126443,-766.095498,-74.020594,10510.924376
4140.126758,-842.705048,-888.247130,9918.759623
4140.127073,-306.438199,-888.247130,9992.780217
4140.127388,-306.438199,222.061783,9770.718434
4140.127703,-536.266849,370.102971,9548.656652
4140.128019,0.000000,740.205942,9770.718434
4140.128334,-306.438199,1110.308913,9252.574275
4140.128649,306.438199,592.164754,8956.491898
4140.128964,459.657299,148.041188,9400.615463
4140.129280,536.266849,-148.041188,9400.615463
4140.129595,153.219100,-370.102971,9104.533087
4140.129910,-153.219100,-666.185348,9474.636058
4140.130225,-383.047749,-888.247130,9326.594869
4140.130541,-612.876398,-518.144159,9770.718434
4140.130856,-1225.752797,-962.267725,10362.883188
4140.131171,-1149.143247,-1480.411884,10214.842000
4140.131486,-1225.752797,-1110.308913,9474.636058
4140.131801,-536.266849,-1036.288319,9400.615463
4140.132117,-536.266849,-962.267725,9548.656652
4140.132432,-536.266849,-370.102971,9622.677246
4140.132747,383.047749,-74.020594,9918.759623
4140.133062,-153.219100,666.185348,10140.821405
4140.133378,0.000000,740.205942,9474.636058
4140.133693,0.000000,74.020594,9178.553681
4140.134008,76.609550,-296.082377,9474.636058
4140.134323,383.047749,-814.226536,9030.512492
4140.134639,-536.266849,-370.102971,9696.697840
4140.134954,-766.095498,-148.041188,9474.636058
4140.135269,-766.095498,-74.020594,9770.718434
4140.135584,-919.314598,592.164754,9844.739029
4140.135900,-842.705048,-370.102971,9992.780217
4140.136215,-459.657299,-148.041188,9622.677246
4140.136530,0.000000,-0.000000,9178.553681
4140.136845,306.438199,592.164754,9326.594869
4140.137160,153.219100,1258.350101,9252.574275
4140.137476,1225.752797,1258.350101,9696.697840
4140.137791,1378.971896,1850.514855,9548.656652
4140.138106,1302.362347,1554.432478,9474.636058
4140.138421,612.876398,962.267725,9622.677246
4140.138737,995.924147,814.226536,9252.574275
4140.139052,1225.752797,740.205942,9178.553681
4140.139367,842.705048,1036.288319,9474.636058
4140.139682,612.876398,666.185348,9548.656652
4140.139998,0.000000,444.123565,10214.842000
4140.140313,-229.828649,370.102971,10066.800811
4140.140628,-229.828649,-296.082377,10066.800811
4140.140943,306.438199,-148.041188,9696.697840
4140.141258,766.095498,-222.061783,9622.677246
4140.141574,919.314598,222.061783,9178.553681
4140.141889,1455.581446,370.102971,9622.677246
4140.142204,1302.362347,592.164754,9474.636058
4140.142519,1532.190996,1036.288319,9622.677246
4140.142835,1838.629195,888.247130,9548.656652
4140.143150,1149.143247,666.185348,9474.636058
4140.143465,995.924147,-0.000000,10066.800811
4140.143780,842.705048,-222.061783,9474.636058
4140.144096,229.828649,-444.123565,9696.697840
4140.144411,0.000000,-148.041188,9844.739029
4140.144726,-689.485948,-592.164754,10510.924376
4140.145041,-229.828649,-222.061783,10214.842000
4140.145357,-306.438199,-666.185348,10066.800811
4140.145672,-383.047749,-222.061783,10066.800811
4140.145987,153.219100,-370.102971,9548.656652
4140.146302,306.438199,-74.020594,9104.533087
4140.146617,0.000000,592.164754,9178.553681
4140.146933,229.828649,444.123565,9474.636058
4140.147248,229.828649,1480.411884,9400.615463
4140.147563,459.657299,1480.411884,9252.574275
4140.147878,0.000000,888.247130,9474.636058
4140.148194,153.219100,-0.000000,9104.533087
4140.148509,306.438199,-222.061783,8956.491898
4140.148824,-459.657299,-0.000000,9622.677246
4140.149139,-1378.971896,148.041188,9474.636058
4140.149455,-1378.971896,-0.000000,9992.780217
4140.149770,-1378.971896,592.164754,10214.842000
4140.150085,-1302.362347,-0.000000,9696.697840
4140.150400,-919.314598,-74.020594,9992.780217
4140.150715,-689.485948,-222.061783,9548.656652
4140.151031,-766.095498,-148.041188,9474.636058
4140.151346,-229.828649,518.144159,9474.636058
4140.151661,0.000000,740.205942,9326.594869
4140.151976,689.485948,-0.000000,9770.718434
4140.152292,306.438199,370.102971,9474.636058
4140.152607,0.000000,-222.061783,9474.636058
4140.152922,306.438199,-444.123565,9696.697840
4140.153237,536.266849,-518.144159,9400.615463
4140.153553,536.266849,-666.185348,8882.471304
4140.153868,0.000000,-592.164754,9548.656652
4140.154183,0.000000,-814.226536,9770.718434
4140.154498,-76.609550,-518.144159,9548.656652
4140.154814,153.219100,-592.164754,9474.636058
4140.155129,0.000000,-1110.308913,10288.862594
4140.155444,0.000000,-814.226536,9400.615463
4140.155759,536.266849,-962.267725,9326.594869
4140.156074,612.876398,-296.082377,9474.636058
4140.156390,842.705048,-148.041188,9474.636058
4140.156705,842.705048,370.102971,9474.636058
4140.157020,689.485948,592.164754,9696.697840
4140.157335,612.876398,666.185348,9696.697840
4140.157651,306.438199,222.061783,9474.636058
4140.157966,1225.752797,-148.041188,9474.636058
4140.158281,766.095498,-296.082377,9400.615463
4140.158596,459.657299,814.226536,9548.656652
4140.158912,0.000000,592.164754,9548.656652
4140.159227,0.000000,370.102971,9844.739029
4140.159542,-229.828649,444.123565,10288.862594
4140.159857,-536.266849,-0.000000,9844.739029
4140.160172,0.000000,-0.000000,9548.656652
4140.160488,229.828649,-222.061783,9622.677246
4140.160803,76.609550,-592.164754,9622.677246
4140.161118,-306.438199,740.205942,9474.636058
4140.161433,0.000000,592.164754,9252.574275
4140.161749,0.000000,740.205942,9696.697840
4140.162064,153.219100,1184.329507,9548.656652
4140.162379,689.485948,1110.308913,9326.594869
4140.162694,1302.362347,592.164754,9104.533087
4140.163010,1685.410096,592.164754,9104.533087
4140.163325,1378.971896,518.144159,8882.471304
4140.163640,383.047749,1332.370696,9104.533087
4140.163955,612.876398,1110.308913,9252.574275
4140.164271,919.314598,666.185348,9474.636058
4140.164586,0.000000,-0.000000,9918.759623
4140.164901,153.219100,-222.061783,9918.759623
4140.165216,0.000000,-814.226536,9474.636058
4140.165531,-229.828649,-814.226536,9918.759623
4140.165847,-842.705048,-370.102971,9918.759623
4140.166162,-1072.533697,-0.000000,9992.780217
4140.166477,-536.266849,814.226536,10288.862594
4140.166792,-76.609550,962.267725,9770.718434
4140.167108,153.219100,370.102971,10140.821405
4140.167423,612.876398,444.123565,9474.636058
4140.167738,689.485948,370.102971,9474.636058
4140.168053,306.438199,592.164754,9400.615463
4140.168369,-153.219100,1036.288319,8808.450710
4140.168684,-229.828649,962.267725,9178.553681
4140.168999,-306.438199,740.205942,10288.862594
4140.169314,-919.314598,222.061783,10436.903782
4140.169629,-1302.362347,-0.000000,10066.800811
4140.169945,-1072.533697,-444.123565,9326.594869
4140.170260,-1225.752797,-296.082377,9844.739029
4140.170575,-1149.143247,296.082377,9548.656652
4140.170890,-919.314598,888.247130,9992.780217
4140.171206,-842.705048,1110.308913,10140.821405
4140.171521,0.000000,1036.288319,10288.862594
4140.171836,306.438199,814.226536,9844.739029
4140.172151,383.047749,1036.288319,9474.636058
4140.172467,766.095498,1110.308913,9104.533087
4140.172782,689.485948,1110.308913,8956.491898
4140.173097,153.219100,814.226536,9178.553681
4140.173412,383.047749,666.185348,9696.697840
4140.173728,229.828649,962.267725,9918.759623
4140.174043,0.000000,444.123565,9622.677246
4140.174358,0.000000,-74.020594,9770.718434
4140.174673,0.000000,-518.144159,9918.759623
4140.174988,0.000000,-962.267725,9474.636058
4140.175304,153.219100,-592.164754,9326.594869
4140.175619,0.000000,-814.226536,9844.739029
4140.175934,459.657299,-296.082377,9770.718434
4140.176250,995.924147,222.061783,9696.697840
4140.176565,919.314598,-0.000000,9474.636058
4140.176880,1302.362347,-296.082377,9918.759623
4140.177196,1915.238745,-296.082377,8882.471304
4140.177511,1455.581446,-444.123565,8734.430116
4140.177826,1378.971896,-518.144159,9104.533087
4140.178142,919.314598,-666.185348,9696.697840
4140.178457,459.657299,-888.247130,10214.842000
4140.178773,612.876398,-962.267725,10066.800811
4140.179088,0.000000,-1184.329507,9622.677246
4140.179403,306.438199,-1258.350101,9326.594869
4140.179719,383.047749,-1628.453072,9178.553681
4140.180034,0.000000,-1406.391290,9326.594869
4140.180349,153.219100,-888.247130,9548.656652
4140.180665,-229.828649,-370.102971,9696.697840
4140.180980,459.657299,518.144159,9474.636058
4140.181295,306.438199,148.041188,9178.553681
4140.181611,306.438199,-0.000000,9474.636058
4140.181926,1378.971896,-74.020594,8808.450710
4140.182241,842.705048,-74.020594,8512.368333
4140.182557,0.000000,-0.000000,8882.471304
4140.182872,-229.828649,296.082377,9030.512492
4140.183187,-536.266849,444.123565,9844.739029
4140.183503,-766.095498,370.102971,9548.656652
4140.183818,-1378.971896,-518.144159,9622.677246
4140.184133,-1149.143247,-1184.329507,9696.697840
4140.184449,-842.705048,-1184.329507,9770.718434
4140.184764,-536.266849,-148.041188,9252.574275
4140.185080,-1225.752797,-0.000000,9178.553681
4140.185395,-995.924147,666.185348,9400.615463
4140.185710,-536.266849,1036.288319,9696.697840
4140.186026,-383.047749,740.205942,9252.574275
4140.186341,459.657299,444.123565,9474.636058
4140.186656,229.828649,296.082377,9326.594869
4140.186972,459.657299,370.102971,9178.553681
4140.187287,383.047749,740.205942,9548.656652
4140.187602,-306.438199,444.123565,10140.821405
4140.187918,-383.047749,444.123565,10807.006753
4140.188233,-306.438199,740.205942,10214.842000
4140.188548,-306.438199,222.061783,10584.944971
4140.188864,-383.047749,222.061783,10658.965565
4140.189179,0.000000,-0.000000,9918.759623
4140.189494,0.000000,-148.041188,10140.821405
4140.189810,0.000000,-0.000000,10140.821405
4140.190125,0.000000,740.205942,10658.965565
4140.190440,536.266849,1110.308913,10807.006753
4140.190756,1149.143247,1480.411884,9992.780217
4140.191071,612.876398,518.144159,9844.739029
4140.191386,1225.752797,814.226536,9474.636058
4140.191702,1915.238745,888.247130,9474.636058
4140.192017,1455.581446,1406.391290,9178.553681
4140.192333,995.924147,814.226536,9696.697840
4140.192648,1072.533697,814.226536,9474.636058
4140.192963,766.095498,888.247130,9474.636058
4140.193279,229.828649,370.102971,9474.636058
4140.193594,0.000000,-74.020594,10288.862594
4140.193909,229.828649,-370.102971,9992.780217
4140.194225,306.438199,-518.144159,9770.718434
4140.194540,0.000000,-74.020594,9474.636058
4140.194855,76.609550,370.102971,9474.636058
4140.195171,383.047749,370.102971,9548.656652
4140.195486,306.438199,518.144159,9770.718434
4140.195801,689.485948,444.123565,9548.656652
4140.196117,459.657299,888.247130,9252.574275
4140.196432,1225.752797,296.082377,8438.347739
4140.196747,1225.752797,-0.000000,9104.533087
4140.197063,536.266849,222.061783,8364.327145
4140.197378,612.876398,518.144159,9178.553681
4140.197693,229.828649,518.144159,9326.594869
4140.198009,0.000000,-222.061783,9252.574275
4140.198324,-383.047749,-888.247130,9474.636058
4140.198640,0.000000,-1332.370696,9548.656652
4140.198955,0.000000,-1924.535449,9474.636058
4140.199270,-689.485948,-962.267725,9548.656652
4140.199586,-459.657299,-518.144159,9252.574275
4140.199901,306.438199,-444.123565,9992.780217
4140.200216,153.219100,518.144159,9918.759623
4140.200532,0.000000,222.061783,9400.615463
4140.200847,459.657299,-296.082377,9474.636058
4140.201162,919.314598,-666.185348,9474.636058
4140.201478,612.876398,-592.164754,9400.615463
4140.201793,0.000000,-296.082377,9104.533087
4140.202108,-536.266849,-296.082377,9622.677246
4140.202424,-536.266849,-148.041188,9770.718434
4140.202739,-842.705048,-148.041188,10140.821405
4140.203054,-1149.143247,-814.226536,10066.800811
4140.203370,-1302.362347,-666.185348,10214.842000
4140.203685,-842.705048,-814.226536,9548.656652
4140.204000,-1149.143247,-296.082377,9400.615463
4140.204316,-1072.533697,-0.000000,9400.615463
4140.204631,-1072.533697,222.061783,10140.821405
4140.204947,-842.705048,444.123565,9696.697840
4140.205262,-612.876398,-0.000000,9844.739029
4140.205577,-306.438199,518.144159,9474.636058
