#time,accel_x,accel_y,accel_z
4173.072602,76.609550,222.061783,9918.759623
4173.072917,0.000000,370.102971,9622.677246
4173.073232,0.000000,444.123565,10436.903782
4173.073547,153.219100,-0.000000,9548.656652
4173.073862,153.219100,222.061783,9400.615463
4173.074178,229.828649,370.102971,9770.718434
4173.074493,0.000000,-296.082377,9844.739029
4173.074808,0.000000,74.020594,9548.656652
4173.075123,-306.438199,-0.000000,9770.718434
4173.075438,76.609550,296.082377,9770.718434
4173.075754,0.000000,-0.000000,9474.636058
4173.076069,76.609550,-0.000000,9696.697840
4173.076384,0.000000,-0.000000,9622.677246
4173.076699,0.000000,222.061783,9474.636058
4173.077014,0.000000,296.082377,9474.636058
4173.077329,306.438199,-296.082377,9474.636058
4173.077645,153.219100,-0.000000,9474.636058
4173.077960,76.609550,296.082377,9622.677246
4173.078275,229.828649,222.061783,9696.697840
4173.078590,0.000000,222.061783,9770.718434
4173.078905,76.609550,370.102971,9030.512492
4173.079220,689.485948,-74.020594,9326.594869
4173.079536,153.219100,222.061783,9770.718434
4173.079851,0.000000,-0.000000,9474.636058
4173.080166,76.609550,-0.000000,9696.697840
4173.080481,76.609550,-222.061783,9474.636058
4173.080796,0.000000,296.082377,9696.697840
4173.081112,383.047749,222.061783,9252.574275
4173.081427,153.219100,296.082377,9104.533087
4173.081742,306.438199,222.061783,9918.759623
4173.082057,459.657299,-74.020594,9696.697840
4173.082372,229.828649,-0.000000,9622.677246
4173.082687,153.219100,296.082377,9548.656652
4173.083003,0.000000,296.082377,9474.636058
4173.083318,229.828649,222.061783,9474.636058
4173.083633,-229.828649,-0.000000,9770.718434
4173.083948,76.609550,-148.041188,9918.759623
4173.084263,0.000000,-0.000000,9548.656652
4173.084578,153.219100,222.061783,9474.636058
4173.084894,459.657299,74.020594,9992.780217
4173.085209,536.266849,-0.000000,9622.677246
4173.085524,153.219100,222.061783,9622.677246
4173.085839,229.828649,-0.000000,9474.636058
4173.086154,76.609550,-0.000000,9622.677246
4173.086470,0.000000,-0.000000,9474.636058
4173.086785,153.219100,-0.000000,9844.739029
4173.087100,76.609550,-0.000000,9770.718434
4173.087415,153.219100,-0.000000,9474.636058
4173.087730,76.609550,222.061783,9474.636058
4173.088045,306.438199,222.061783,9844.739029
4173.088361,383.047749,444.123565,9696.697840
4173.088676,76.609550,-0.000000,9400.615463
4173.088991,229.828649,-0.000000,9326.594869
4173.089306,0.000000,222.061783,10140.821405
4173.089621,76.609550,-0.000000,9178.553681
4173.089936,-306.438199,-74.020594,9400.615463
4173.090252,383.047749,222.061783,9770.718434
4173.090567,229.828649,-0.000000,9622.677246
4173.090882,0.000000,370.102971,9548.656652
4173.091197,76.609550,-0.000000,9622.677246
4173.091512,76.609550,-0.000000,9474.636058
4173.091828,0.000000,-0.000000,9474.636058
4173.092143,612.876398,296.082377,8956.491898
4173.092458,306.438199,148.041188,9548.656652
4173.092773,76.609550,222.061783,9770.718434
4173.093088,0.000000,222.061783,9622.677246
4173.093403,0.000000,222.061783,9622.677246
4173.093719,0.000000,-0.000000,9474.636058
4173.094034,229.828649,222.061783,9474.636058
4173.094349,76.609550,370.102971,9548.656652
4173.094664,0.000000,222.061783,9918.759623
4173.094979,153.219100,222.061783,9622.677246
4173.095294,0.000000,-0.000000,9474.636058
4173.095610,0.000000,296.082377,9622.677246
4173.095925,0.000000,370.102971,9696.697840
4173.096240,383.047749,-0.000000,9622.677246
4173.096555,76.609550,-0.000000,9696.697840
4173.096870,0.000000,-0.000000,9474.636058
4173.097185,153.219100,-0.000000,9400.615463
4173.097501,153.219100,-0.000000,9622.677246
4173.097816,76.609550,370.102971,9622.677246
4173.098131,0.000000,-0.000000,9474.636058
4173.098446,0.000000,592.164754,9178.553681
4173.098761,0.000000,-0.000000,9400.615463
4173.099077,-153.219100,296.082377,9474.636058
4173.099392,-153.219100,222.061783,8956.491898
4173.099707,-689.485948,444.123565,9474.636058
4173.100022,-459.657299,370.102971,9696.697840
4173.100337,-459.657299,222.061783,9400.615463
4173.100652,-612.876398,148.041188,9400.615463
4173.100968,-383.047749,444.123565,9770.718434
4173.101283,-306.438199,444.123565,9474.636058
4173.101598,-76.609550,740.205942,9474.636058
4173.101913,-383.047749,962.267725,9252.574275
4173.102228,-612.876398,962.267725,9326.594869
4173.102543,-612.876398,962.267725,8956.491898
4173.102859,-1225.752797,1406.391290,8734.430116
4173.103174,-1532.190996,1406.391290,9474.636058
4173.103489,-1838.629195,1184.329507,9178.553681
4173.103804,-2298.286494,1110.308913,9474.636058
4173.104119,-2757.943793,1258.350101,9474.636058
4173.104435,-2757.943793,1036.288319,9918.759623
4173.104750,-2681.334243,1406.391290,9770.718434
4173.105065,-2834.553343,1332.370696,9918.759623
4173.105380,-2987.772442,1776.494261,10140.821405
4173.105695,-2604.724693,2516.700203,9474.636058
4173.106010,-2681.334243,2368.659014,9400.615463
4173.106326,-2911.162892,2516.700203,9400.615463
4173.106641,-2451.505594,2812.782580,9400.615463
4173.106956,-2221.676944,2886.803174,9474.636058
4173.107271,-2604.724693,2516.700203,9326.594869
4173.107586,-2757.943793,2664.741391,9178.553681
4173.107901,-2528.115143,2368.659014,9474.636058
4173.108217,-2451.505594,2368.659014,10288.862594
4173.108532,-2528.115143,2294.638420,10066.800811
4173.108847,-2451.505594,2072.576638,10066.800811
4173.109162,-1762.019645,2368.659014,9770.718434
4173.109477,-1149.143247,2516.700203,9548.656652
4173.109793,-766.095498,2960.823768,9400.615463
4173.110108,-842.705048,3256.906145,9030.512492
4173.110423,-689.485948,3923.091493,8512.368333
4173.110738,-1149.143247,3997.112087,8956.491898
4173.111053,-1302.362347,4293.194464,8808.450710
4173.111368,-1608.800546,3182.885551,9178.553681
4173.111684,-2451.505594,2442.679609,9918.759623
4173.111999,-2757.943793,2442.679609,10436.903782
4173.112314,-2451.505594,2442.679609,10881.027347
4173.112629,-2451.505594,2664.741391,11547.212695
4173.112944,-2298.286494,2886.803174,11325.150913
4173.113259,-2298.286494,3701.029710,10807.006753
4173.113575,-1685.410096,4663.297435,9474.636058
4173.113890,-1302.362347,4737.318029,9178.553681
4173.114205,-995.924147,4737.318029,8882.471304
4173.114520,-1302.362347,4589.276840,8660.409521
4173.114835,-1762.019645,4071.132681,8586.388927
4173.115150,-2374.896044,3627.009116,9474.636058
4173.115466,-2451.505594,3034.844362,9992.780217
4173.115781,-2681.334243,2220.617826,10955.047942
4173.116096,-2604.724693,1702.473667,11621.233289
4173.116411,-2298.286494,1480.411884,11399.171507
4173.116726,-2068.457845,1850.514855,11177.109724
4173.117042,-995.924147,2072.576638,10584.944971
4173.117357,-306.438199,2812.782580,9918.759623
4173.117672,76.609550,3108.864956,9474.636058
4173.117987,0.000000,3552.988522,8512.368333
4173.118302,459.657299,3923.091493,7772.162391
4173.118617,0.000000,3849.070898,7476.080014
4173.118933,-766.095498,3478.967927,7476.080014
4173.119248,-1838.629195,2368.659014,9474.636058
4173.119563,-3370.820191,1776.494261,9400.615463
4173.119878,-4290.134789,1110.308913,9992.780217
4173.120193,-4290.134789,370.102971,11325.150913
4173.120508,-5056.230287,-148.041188,11399.171507
4173.120824,-4443.353888,-0.000000,11029.068536
4173.121139,-3753.867940,-0.000000,11547.212695
4173.121454,-3217.601092,518.144159,11399.171507
4173.121769,-2374.896044,1036.288319,10214.842000
4173.122084,-612.876398,1924.535449,9696.697840
4173.122400,0.000000,2664.741391,9178.553681
4173.122715,612.876398,3552.988522,8438.347739
4173.123030,1072.533697,3701.029710,8438.347739
4173.123345,766.095498,3256.906145,7550.100608
4173.123660,-229.828649,2664.741391,7624.121203
4173.123975,-1302.362347,2146.597232,7254.018232
4173.124291,-2681.334243,518.144159,7402.059420
4173.124606,-3753.867940,-444.123565,8808.450710
4173.124921,-4979.620737,-1036.288319,9548.656652
4173.125236,-5592.497135,-2072.576638,11991.336260
4173.125551,-5669.106685,-1554.432478,10584.944971
4173.125866,-5362.668486,-1554.432478,11547.212695
4173.126182,-3677.258390,-740.205942,11843.295072
4173.126497,-1991.848295,-370.102971,11843.295072
4173.126812,-306.438199,1258.350101,10807.006753
4173.127127,1455.581446,2664.741391,9474.636058
4173.127442,1991.848295,4885.359217,7624.121203
4173.127758,2451.505594,5995.668130,6365.771101
4173.128073,2221.676944,6143.709319,5255.462188
4173.128388,1225.752797,5699.585753,5181.441594
4173.128703,-766.095498,4811.338623,5847.626942
4173.129018,-3677.258390,2368.659014,8364.327145
4173.129333,-6205.373534,-1554.432478,10510.924376
4173.129649,-6971.469032,-3775.050304,13249.686362
4173.129964,-7737.564530,-4515.256246,13619.789333
4173.130279,-7354.516781,-4367.215058,14730.098246
4173.130594,-5515.887586,-3182.885551,14063.912898
4173.130909,-3294.210641,-148.041188,11399.171507
4173.131224,0.000000,3701.029710,8438.347739
4173.131540,1455.581446,6587.832884,6143.709319
4173.131855,2528.115143,9474.636058,4663.297435
4173.132170,2987.772442,10510.924376,4441.235652
4173.132485,1838.629195,8956.491898,4737.318029
4173.132800,153.219100,6587.832884,7402.059420
4173.133115,-1455.581446,3997.112087,11103.089130
4173.133431,-3677.258390,-518.144159,13619.789333
4173.133746,-4903.011187,-2812.782580,15470.304188
4173.134061,-5056.230287,-3330.926739,16062.468941
4173.134376,-4596.572988,-3404.947333,14730.098246
4173.134691,-3907.087040,-222.061783,10955.047942
4173.135007,-2451.505594,2516.700203,10436.903782
4173.135322,-995.924147,5551.544565,7105.977043
4173.135637,459.657299,6587.832884,4737.318029
4173.135952,1149.143247,7550.100608,4219.173869
4173.136267,229.828649,7179.997637,5255.462188
4173.136582,-1225.752797,5181.441594,7994.224174
4173.136898,-1225.752797,3256.906145,9474.636058
4173.137213,-1838.629195,1406.391290,11103.089130
4173.137528,-1532.190996,-0.000000,12583.501014
4173.137843,-2451.505594,518.144159,13175.665768
4173.138158,-2911.162892,962.267725,12879.583391
4173.138473,-3217.601092,1850.514855,12361.439231
4173.138789,-2911.162892,3552.988522,11103.089130
4173.139104,-2987.772442,3997.112087,8882.471304
4173.139419,-2987.772442,3404.947333,7772.162391
4173.139734,-1838.629195,3108.864956,7698.141797
4173.140049,-1915.238745,3182.885551,7105.977043
4173.140365,-1762.019645,3552.988522,7476.080014
4173.140680,-2221.676944,3404.947333,9030.512492
4173.140995,-2145.067394,3034.844362,10214.842000
4173.141310,-1915.238745,2516.700203,11399.171507
4173.141625,-1608.800546,962.267725,11103.089130
4173.141940,-1072.533697,-148.041188,10955.047942
4173.142256,-536.266849,-296.082377,10658.965565
4173.142571,-1302.362347,1332.370696,9400.615463
4173.142886,-1532.190996,3330.926739,8586.388927
4173.143201,-1608.800546,4145.153275,7105.977043
4173.143517,-1532.190996,4811.338623,7105.977043
4173.143832,-2757.943793,4885.359217,7624.121203
4173.144147,-3064.381992,2812.782580,8734.430116
4173.144463,-3217.601092,1036.288319,10362.883188
4173.144778,-2911.162892,-74.020594,11473.192101
4173.145094,-3217.601092,-1554.432478,12879.583391
4173.145409,-2834.553343,-1480.411884,13915.871710
4173.145724,-1378.971896,-222.061783,12805.562797
4173.146040,0.000000,1406.391290,11325.150913
4173.146355,1608.800546,3256.906145,8734.430116
4173.146671,2451.505594,4663.297435,6883.915261
4173.146986,2451.505594,5329.482782,6513.812290
4173.147301,2068.457845,4811.338623,5181.441594
4173.147617,919.314598,3404.947333,6217.729913
4173.147932,-612.876398,2220.617826,7772.162391
4173.148248,-2451.505594,-0.000000,9474.636058
4173.148563,-2834.553343,-2072.576638,11325.150913
4173.148878,-2911.162892,-3478.967927,12139.377449
4173.149194,-2451.505594,-3552.988522,12805.562797
4173.149509,-2221.676944,-3182.885551,13693.809927
4173.149825,-1991.848295,-1332.370696,13249.686362
4173.150140,-1532.190996,518.144159,11473.192101
4173.150455,0.000000,2664.741391,8808.450710
4173.150771,2068.457845,3330.926739,7105.977043
4173.151086,2911.162892,4219.173869,5847.626942
4173.151402,2757.943793,3108.864956,7031.956449
4173.151717,2068.457845,2146.597232,7846.182985
4173.152033,153.219100,1702.473667,9030.512492
4173.152348,-919.314598,-0.000000,10436.903782
4173.152663,-1225.752797,-2146.597232,11917.315666
4173.152979,-919.314598,-3478.967927,12509.480420
4173.153294,-1532.190996,-4441.235652,12583.501014
4173.153610,-1685.410096,-4145.153275,12731.542202
4173.153925,-1608.800546,-2516.700203,11547.212695
4173.154240,-1532.190996,-0.000000,9104.533087
4173.154556,-689.485948,1184.329507,7846.182985
4173.154871,842.705048,2146.597232,6809.894666
4173.155187,1915.238745,2368.659014,5699.585753
4173.155502,2068.457845,1628.453072,6661.853478
4173.155817,995.924147,1184.329507,8290.306550
4173.156133,-612.876398,592.164754,9104.533087
4173.156448,-1072.533697,-148.041188,10436.903782
4173.156764,-383.047749,-1258.350101,11177.109724
4173.157079,459.657299,-3108.864956,11843.295072
4173.157394,383.047749,-3478.967927,11917.315666
4173.157710,0.000000,-2442.679609,11325.150913
4173.158025,-919.314598,-222.061783,9252.574275
4173.158341,-1225.752797,1850.514855,7994.224174
4173.158656,-536.266849,2368.659014,5847.626942
4173.158972,536.266849,1998.556043,5699.585753
4173.159287,995.924147,1184.329507,6069.688724
4173.159602,153.219100,-370.102971,7254.018232
4173.159918,-1838.629195,-740.205942,9400.615463
4173.160233,-2834.553343,-666.185348,10584.944971
4173.160549,-2298.286494,-1036.288319,11769.274478
4173.160864,-1608.800546,-1850.514855,12139.377449
4173.161179,-229.828649,-2072.576638,11769.274478
4173.161495,153.219100,-1702.473667,11029.068536
4173.161810,459.657299,-0.000000,9918.759623
4173.162126,-459.657299,1998.556043,9178.553681
4173.162441,0.000000,3478.967927,7105.977043
4173.162756,1225.752797,4071.132681,6069.688724
4173.163072,1532.190996,2812.782580,6069.688724
4173.163387,1455.581446,-0.000000,7772.162391
4173.163703,153.219100,-370.102971,9252.574275
4173.164018,-1915.238745,-888.247130,10955.047942
4173.164333,-2221.676944,-1258.350101,12287.418637
4173.164649,-1455.581446,-1554.432478,12509.480420
4173.164964,0.000000,-1776.494261,12213.398043
4173.165280,995.924147,-1924.535449,11917.315666
4173.165595,1378.971896,-814.226536,11325.150913
4173.165910,1072.533697,2146.597232,9474.636058
4173.166226,1149.143247,4145.153275,8216.285956
4173.166541,2451.505594,4515.256246,7476.080014
4173.166857,3370.820191,4515.256246,7031.956449
4173.167172,3294.210641,2590.720797,7698.141797
4173.167488,2451.505594,962.267725,9474.636058
4173.167803,153.219100,592.164754,11103.089130
4173.168118,-1532.190996,296.082377,12361.439231
4173.168434,-1455.581446,-370.102971,12287.418637
4173.168749,-689.485948,-1406.391290,12731.542202
4173.169065,229.828649,-1776.494261,11695.253884
4173.169380,459.657299,-2294.638420,11473.192101
4173.169695,153.219100,-222.061783,10881.027347
4173.170011,-766.095498,1998.556043,8882.471304
4173.170326,383.047749,3330.926739,6957.935855
4173.170642,1838.629195,3478.967927,6735.874072
4173.170957,2757.943793,2368.659014,7550.100608
4173.171272,2451.505594,296.082377,8216.285956
4173.171588,766.095498,-74.020594,9030.512492
4173.171903,-995.924147,-74.020594,11103.089130
4173.172219,-1532.190996,-592.164754,11473.192101
4173.172534,-766.095498,-1258.350101,11399.171507
4173.172849,306.438199,-1258.350101,11177.109724
4173.173165,0.000000,-2294.638420,10510.924376
4173.173480,-229.828649,-1776.494261,9918.759623
4173.173796,-689.485948,-0.000000,9030.512492
4173.174111,-995.924147,1480.411884,7846.182985
4173.174427,536.266849,1924.535449,7179.997637
4173.174742,1455.581446,1406.391290,6661.853478
4173.175057,2068.457845,-0.000000,7920.203579
4173.175373,1072.533697,-1036.288319,8882.471304
4173.175688,-459.657299,-888.247130,10140.821405
4173.176004,-1685.410096,-1110.308913,10955.047942
4173.176319,-1149.143247,-962.267725,10881.027347
4173.176634,76.609550,-1110.308913,10362.883188
4173.176950,842.705048,-1554.432478,9844.739029
4173.177265,306.438199,-1776.494261,10214.842000
4173.177581,-383.047749,-444.123565,9770.718434
4173.177896,-1225.752797,1480.411884,8586.388927
4173.178211,-459.657299,1702.473667,7624.121203
4173.178527,536.266849,1184.329507,7402.059420
4173.178842,1302.362347,444.123565,8216.285956
4173.179158,-229.828649,-1332.370696,8882.471304
4173.179473,-1302.362347,-1628.453072,10732.986159
4173.179788,-1915.238745,-740.205942,10955.047942
4173.180104,-2221.676944,-888.247130,11547.212695
4173.180419,-766.095498,-740.205942,10732.986159
4173.180735,0.000000,-1036.288319,10288.862594
4173.181050,229.828649,-1036.288319,9918.759623
4173.181365,153.219100,-444.123565,10214.842000
4173.181681,-1072.533697,740.205942,9030.512492
4173.181996,-766.095498,1332.370696,8512.368333
4173.182312,0.000000,1776.494261,8438.347739
4173.182627,766.095498,962.267725,8068.244768
4173.182943,1072.533697,-444.123565,8882.471304
4173.183258,306.438199,-1702.473667,10288.862594
4173.183573,-1225.752797,-666.185348,11473.192101
4173.183889,-1838.629195,-518.144159,11621.233289
4173.184204,-689.485948,-0.000000,10732.986159
4173.184520,612.876398,-444.123565,10066.800811
4173.184835,1072.533697,-740.205942,9770.718434
4173.185150,1455.581446,-814.226536,10066.800811
4173.185466,612.876398,740.205942,9030.512492
4173.185781,229.828649,1924.535449,9104.533087
4173.186097,995.924147,2368.659014,7846.182985
4173.186412,1915.238745,1998.556043,7846.182985
4173.186727,1991.848295,1110.308913,8882.471304
4173.187043,1685.410096,-666.185348,9696.697840
4173.187358,153.219100,-740.205942,10807.006753
4173.187674,-1225.752797,-592.164754,11325.150913
4173.187989,-919.314598,-592.164754,10807.006753
4173.188304,536.266849,-518.144159,10510.924376
4173.188620,1685.410096,-0.000000,9474.636058
4173.188935,1915.238745,-222.061783,9696.697840
4173.189251,1302.362347,518.144159,9178.553681
4173.189566,153.219100,2294.638420,8956.491898
4173.189882,536.266849,2886.803174,7920.203579
4173.190197,1532.190996,2368.659014,7846.182985
4173.190512,1838.629195,1332.370696,7994.224174
4173.190828,1838.629195,-814.226536,9474.636058
4173.191143,689.485948,-1258.350101,10881.027347
4173.191459,-1455.581446,-0.000000,10807.006753
4173.191774,-1225.752797,-370.102971,10955.047942
4173.192089,-919.314598,888.247130,9992.780217
4173.192405,612.876398,-296.082377,9622.677246
4173.192720,1838.629195,-592.164754,9326.594869
4173.193036,1072.533697,-0.000000,9104.533087
4173.193351,-229.828649,814.226536,8808.450710
4173.193666,-612.876398,2442.679609,8068.244768
4173.193982,153.219100,2664.741391,7920.203579
4173.194297,536.266849,1776.494261,8364.327145
4173.194613,842.705048,370.102971,8808.450710
4173.194928,76.609550,-962.267725,9844.739029
4173.195243,-1149.143247,-1184.329507,10288.862594
4173.195559,-1762.019645,-962.267725,11029.068536
4173.195874,-2145.067394,222.061783,10955.047942
4173.196190,-459.657299,370.102971,9844.739029
4173.196505,689.485948,-0.000000,9474.636058
4173.196820,306.438199,-296.082377,9252.574275
4173.197136,-153.219100,148.041188,9104.533087
4173.197451,-1302.362347,2072.576638,9178.553681
4173.197767,-1532.190996,2368.659014,8586.388927
4173.198082,-766.095498,1332.370696,8734.430116
4173.198398,229.828649,592.164754,8808.450710
4173.198713,0.000000,-740.205942,10214.842000
4173.199028,-1149.143247,-1776.494261,10881.027347
4173.199344,-2451.505594,-444.123565,11843.295072
4173.199659,-2145.067394,370.102971,11251.130318
4173.199975,-612.876398,-74.020594,10436.903782
4173.200290,842.705048,-0.000000,9622.677246
4173.200605,766.095498,-666.185348,9770.718434
4173.200921,76.609550,-148.041188,9252.574275
4173.201236,-766.095498,888.247130,9104.533087
4173.201552,-1302.362347,1702.473667,8956.491898
4173.201867,-612.876398,1628.453072,9030.512492
4173.202182,842.705048,888.247130,8882.471304
4173.202498,766.095498,-1036.288319,9252.574275
4173.202813,766.095498,-1998.556043,10510.924376
4173.203129,-383.047749,-1406.391290,11473.192101
4173.203444,-995.924147,-592.164754,11103.089130
4173.203759,76.609550,-148.041188,10658.965565
4173.204075,1072.533697,-0.000000,9622.677246
4173.204390,1762.019645,-0.000000,8882.471304
4173.204706,2298.286494,-666.185348,8956.491898
4173.205021,1762.019645,-222.061783,8512.368333
4173.205336,76.609550,370.102971,9030.512492
4173.205652,-229.828649,1702.473667,8068.244768
4173.205967,842.705048,814.226536,8142.265362
4173.206283,2068.457845,-444.123565,8512.368333
4173.206598,1991.848295,-2220.617826,9918.759623
4173.206914,1072.533697,-1998.556043,10288.862594
4173.207229,-459.657299,-1184.329507,10807.006753
4173.207544,0.000000,-296.082377,10288.862594
4173.207860,995.924147,-0.000000,9992.780217
4173.208175,1991.848295,370.102971,8808.450710
4173.208491,2068.457845,-0.000000,8586.388927
4173.208806,1762.019645,518.144159,8882.471304
4173.209121,689.485948,962.267725,8586.388927
4173.209437,0.000000,1184.329507,8364.327145
4173.209752,229.828649,814.226536,8364.327145
4173.210068,995.924147,592.164754,8882.471304
4173.210383,536.266849,-888.247130,10140.821405
4173.210698,0.000000,-1998.556043,10881.027347
4173.211014,-1455.581446,-1406.391290,11473.192101
4173.211329,-1455.581446,-740.205942,11177.109724
4173.211645,-919.314598,-444.123565,10140.821405
4173.211960,689.485948,444.123565,9400.615463
4173.212275,1455.581446,444.123565,9104.533087
4173.212591,1302.362347,-0.000000,9696.697840
4173.212906,0.000000,1110.308913,9030.512492
4173.213222,-689.485948,2072.576638,8660.409521
4173.213537,-153.219100,1776.494261,9326.594869
4173.213853,536.266849,1702.473667,8882.471304
4173.214168,459.657299,-0.000000,9992.780217
4173.214483,-383.047749,-592.164754,11325.150913
4173.214799,-1302.362347,-962.267725,11473.192101
4173.215114,-2451.505594,-518.144159,11547.212695
4173.215430,-1915.238745,-0.000000,10955.047942
4173.215745,-612.876398,592.164754,10288.862594
4173.216060,229.828649,518.144159,9030.512492
4173.216376,766.095498,444.123565,8734.430116
4173.216691,0.000000,444.123565,8808.450710
4173.217007,-1149.143247,1850.514855,8734.430116
4173.217322,-995.924147,2294.638420,9474.636058
4173.217637,-536.266849,2072.576638,8956.491898
4173.217953,536.266849,814.226536,9104.533087
4173.218268,536.266849,-888.247130,10436.903782
4173.218584,-1149.143247,-1332.370696,11473.192101
4173.218899,-2451.505594,-370.102971,11325.150913
4173.219214,-2298.286494,-0.000000,11251.130318
4173.219530,-842.705048,666.185348,10140.821405
4173.219845,689.485948,518.144159,9474.636058
4173.220161,1225.752797,-0.000000,8882.471304
4173.220476,919.314598,-444.123565,9178.553681
4173.220791,229.828649,814.226536,8660.409521
4173.221107,-766.095498,1850.514855,8364.327145
4173.221422,-306.438199,1628.453072,8364.327145
4173.221738,766.095498,222.061783,8660.409521
4173.222053,842.705048,-962.267725,9178.553681
4173.222369,459.657299,-1998.556043,10066.800811
4173.222684,-536.266849,-1628.453072,10362.883188
4173.222999,-1608.800546,-518.144159,10732.986159
4173.223315,-689.485948,222.061783,10288.862594
4173.223630,1149.143247,370.102971,9252.574275
4173.223946,1991.848295,740.205942,8290.306550
4173.224261,2221.676944,-0.000000,8512.368333
4173.224576,1302.362347,-0.000000,9030.512492
4173.224892,383.047749,1628.453072,8956.491898
4173.225207,0.000000,1998.556043,8512.368333
4173.225523,536.266849,962.267725,8882.471304
4173.225838,1302.362347,-148.041188,8734.430116
4173.226153,1762.019645,-1480.411884,9622.677246
4173.226469,229.828649,-1702.473667,10807.006753
4173.226784,-1225.752797,-148.041188,10436.903782
4173.227100,-919.314598,666.185348,10955.047942
4173.227415,76.609550,518.144159,9548.656652
4173.227730,1608.800546,296.082377,9252.574275
4173.228046,2221.676944,592.164754,8586.388927
4173.228361,1915.238745,-0.000000,9030.512492
4173.228677,612.876398,1184.329507,9178.553681
4173.228992,-383.047749,1702.473667,8660.409521
4173.229308,0.000000,1184.329507,9474.636058
4173.229623,459.657299,1184.329507,9474.636058
4173.229938,689.485948,-370.102971,10510.924376
4173.230254,536.266849,-1850.514855,11251.130318
4173.230569,-459.657299,-1332.370696,12065.356855
4173.230885,-1991.848295,-74.020594,11251.130318
4173.231200,-1532.190996,222.061783,10510.924376
4173.231515,459.657299,444.123565,9622.677246
4173.231831,1378.971896,296.082377,9548.656652
4173.232146,1608.800546,-74.020594,9474.636058
4173.232462,919.314598,296.082377,9326.594869
4173.232777,-612.876398,1554.432478,9252.574275
4173.233092,-842.705048,1258.350101,9474.636058
4173.233408,0.000000,814.226536,9326.594869
4173.233723,689.485948,-444.123565,10362.883188
4173.234039,459.657299,-1924.535449,10658.965565
4173.234354,-536.266849,-2368.659014,11029.068536
4173.234669,-1302.362347,-666.185348,10807.006753
4173.234985,-1608.800546,-0.000000,10214.842000
4173.235300,-383.047749,370.102971,9770.718434
4173.235616,766.095498,814.226536,8808.450710
4173.235931,1455.581446,-74.020594,8660.409521
4173.236246,842.705048,-962.267725,9178.553681
4173.236562,-1072.533697,370.102971,8956.491898
4173.236877,-1532.190996,1036.288319,9104.533087
4173.237193,-766.095498,1110.308913,8956.491898
4173.237508,153.219100,370.102971,8882.471304
4173.237824,689.485948,-518.144159,9326.594869
4173.238139,229.828649,-1480.411884,10140.821405
4173.238454,-1149.143247,-592.164754,9992.780217
4173.238770,-1915.238745,222.061783,10436.903782
4173.239085,-1149.143247,296.082377,9622.677246
4173.239401,76.609550,592.164754,9104.533087
4173.239716,1302.362347,370.102971,7846.182985
4173.240031,1378.971896,-888.247130,8364.327145
4173.240347,153.219100,-0.000000,8734.430116
4173.240662,-766.095498,1036.288319,8216.285956
4173.240978,-689.485948,1406.391290,8216.285956
4173.241293,766.095498,592.164754,8956.491898
4173.241608,1149.143247,-0.000000,9104.533087
4173.241924,1149.143247,-1184.329507,9252.574275
4173.242239,383.047749,-888.247130,9770.718434
4173.242555,-689.485948,-222.061783,10584.944971
4173.242870,-766.095498,518.144159,10140.821405
4173.243185,766.095498,666.185348,9548.656652
4173.243501,2145.067394,1036.288319,9030.512492
4173.243816,1915.238745,370.102971,8512.368333
4173.244132,1302.362347,296.082377,9400.615463
4173.244447,0.000000,814.226536,9696.697840
4173.244762,-919.314598,1332.370696,9844.739029
4173.245078,0.000000,666.185348,9844.739029
4173.245393,536.266849,370.102971,9918.759623
4173.245708,995.924147,-74.020594,10066.800811
4173.246023,689.485948,-740.205942,11177.109724
4173.246339,229.828649,-0.000000,11547.212695
4173.246654,-689.485948,814.226536,10732.986159
4173.246969,229.828649,1554.432478,9992.780217
4173.247284,1991.848295,1554.432478,8956.491898
4173.247600,1915.238745,1184.329507,9030.512492
4173.247915,1991.848295,-444.123565,9918.759623
4173.248230,459.657299,148.041188,9252.574275
4173.248546,-919.314598,1036.288319,10658.965565
4173.248861,-1149.143247,962.267725,10140.821405
4173.249176,-229.828649,666.185348,9992.780217
4173.249491,612.876398,-74.020594,10140.821405
4173.249807,612.876398,-1554.432478,10732.986159
4173.250122,-536.266849,-1702.473667,11695.253884
4173.250437,-1685.410096,-370.102971,10362.883188
4173.250752,-1149.143247,-148.041188,10288.862594
4173.251068,229.828649,1110.308913,9992.780217
4173.251383,1532.190996,1184.329507,8290.306550
4173.251698,2221.676944,296.082377,8290.306550
4173.252014,1838.629195,-296.082377,8734.430116
4173.252329,229.828649,296.082377,8956.491898
4173.252644,-689.485948,444.123565,8882.471304
4173.252959,0.000000,296.082377,8438.347739
4173.253275,612.876398,-444.123565,9400.615463
4173.253590,766.095498,-1406.391290,9104.533087
4173.253905,0.000000,-2294.638420,10288.862594
4173.254220,-1608.800546,-1258.350101,10510.924376
4173.254536,-2221.676944,-962.267725,10066.800811
4173.254851,-1302.362347,-0.000000,9548.656652
4173.255166,459.657299,-0.000000,9178.553681
4173.255482,1149.143247,-296.082377,8956.491898
4173.255797,919.314598,-518.144159,9326.594869
4173.256112,76.609550,-222.061783,9178.553681
4173.256427,-995.924147,592.164754,9622.677246
4173.256743,-459.657299,1258.350101,9178.553681
4173.257058,536.266849,666.185348,9104.533087
4173.257373,383.047749,444.123565,8882.471304
4173.257688,689.485948,-962.267725,9326.594869
4173.258004,-459.657299,-1406.391290,9770.718434
4173.258319,-1915.238745,-888.247130,10510.924376
4173.258634,-2221.676944,-0.000000,9918.759623
4173.258950,-153.219100,-0.000000,9252.574275
4173.259265,459.657299,666.185348,8956.491898
4173.259580,689.485948,-296.082377,9030.512492
4173.259895,306.438199,-666.185348,9252.574275
4173.260211,-459.657299,518.144159,9326.594869
4173.260526,-995.924147,962.267725,9696.697840
4173.260841,0.000000,1184.329507,9178.553681
4173.261157,995.924147,666.185348,8586.388927
4173.261472,1302.362347,-74.020594,9178.553681
4173.261787,842.705048,-592.164754,10732.986159
4173.262102,-153.219100,-444.123565,10288.862594
4173.262418,-1072.533697,444.123565,10510.924376
4173.262733,229.828649,1110.308913,9770.718434
4173.263048,1302.362347,888.247130,9770.718434
4173.263363,1225.752797,888.247130,9030.512492
4173.263679,1225.752797,-148.041188,9326.594869
4173.263994,153.219100,296.082377,10214.842000
4173.264309,-995.924147,740.205942,9918.759623
4173.264625,-383.047749,1036.288319,10140.821405
4173.264940,689.485948,1036.288319,9474.636058
4173.265255,766.095498,518.144159,9622.677246
4173.265570,689.485948,-444.123565,9918.759623
4173.265886,306.438199,-148.041188,10881.027347
4173.266201,-766.095498,814.226536,10658.965565
4173.266516,-689.485948,1406.391290,10140.821405
4173.266831,842.705048,1998.556043,9326.594869
4173.267147,1685.410096,1480.411884,9252.574275
4173.267462,1149.143247,592.164754,9474.636058
4173.267777,536.266849,-0.000000,10510.924376
4173.268093,-842.705048,518.144159,10214.842000
4173.268408,-1532.190996,1110.308913,9992.780217
4173.268723,-536.266849,1036.288319,9622.677246
4173.269038,383.047749,296.082377,9918.759623
4173.269354,919.314598,-814.226536,9696.697840
4173.269669,0.000000,-1406.391290,10362.883188
4173.269984,-842.705048,-148.041188,10066.800811
4173.270299,-919.314598,444.123565,9844.739029
4173.270615,459.657299,1184.329507,9178.553681
4173.270930,1685.410096,888.247130,8660.409521
4173.271245,1915.238745,148.041188,8290.306550
4173.271561,1685.410096,-962.267725,9400.615463
4173.271876,459.657299,-296.082377,9400.615463
4173.272191,-306.438199,444.123565,9474.636058
4173.272506,-306.438199,814.226536,9252.574275
4173.272822,536.266849,296.082377,8734.430116
4173.273137,1072.533697,-1036.288319,9400.615463
4173.273452,766.095498,-1850.514855,10140.821405
4173.273767,-153.219100,-1480.411884,10288.862594
4173.274083,-995.924147,-148.041188,9696.697840
4173.274398,-459.657299,222.061783,9770.718434
4173.274713,995.924147,1036.288319,8882.471304
4173.275029,1608.800546,444.123565,8142.265362
4173.275344,1378.971896,-962.267725,9104.533087
4173.275659,76.609550,-740.205942,9622.677246
4173.275974,-383.047749,592.164754,9104.533087
4173.276290,-766.095498,370.102971,9400.615463
4173.276605,0.000000,740.205942,9252.574275
4173.276920,536.266849,-0.000000,9252.574275
4173.277235,459.657299,-1554.432478,9474.636058
4173.277551,-229.828649,-1850.514855,10955.047942
4173.277866,-1455.581446,-740.205942,10584.944971
4173.278181,-2068.457845,-74.020594,10510.924376
4173.278497,-1072.533697,740.205942,9696.697840
4173.278812,-153.219100,296.082377,9326.594869
4173.279127,459.657299,-740.205942,8956.491898
4173.279442,612.876398,-1480.411884,9326.594869
4173.279758,-1149.143247,148.041188,9622.677246
4173.280073,-1762.019645,666.185348,10288.862594
4173.280388,-766.095498,740.205942,9326.594869
4173.280704,919.314598,518.144159,9030.512492
4173.281019,1072.533697,-444.123565,9474.636058
4173.281334,995.924147,-1924.535449,10066.800811
4173.281649,-536.266849,-1184.329507,10214.842000
4173.281965,-1532.190996,-0.000000,10140.821405
4173.282280,-306.438199,740.205942,10140.821405
4173.282595,459.657299,1036.288319,9030.512492
4173.282910,1302.362347,444.123565,8512.368333
4173.283226,1302.362347,-592.164754,9178.553681
4173.283541,383.047749,-296.082377,9474.636058
4173.283856,-612.876398,518.144159,9400.615463
4173.284172,-919.314598,888.247130,9770.718434
4173.284487,383.047749,1406.391290,9252.574275
4173.284802,842.705048,888.247130,8956.491898
4173.285117,1149.143247,-296.082377,9252.574275
4173.285433,459.657299,-962.267725,10658.965565
4173.285748,-919.314598,444.123565,10066.800811
4173.286063,-1072.533697,888.247130,10288.862594
4173.286378,0.000000,1776.494261,9178.553681
4173.286694,1608.800546,1406.391290,8882.471304
4173.287009,1838.629195,444.123565,8734.430116
4173.287324,459.657299,-518.144159,10140.821405
4173.287640,-689.485948,592.164754,9992.780217
4173.287955,-1072.533697,1184.329507,9474.636058
4173.288270,-383.047749,1406.391290,10140.821405
4173.288585,689.485948,1184.329507,9918.759623
4173.288901,1149.143247,222.061783,9474.636058
4173.289216,919.314598,-518.144159,10658.965565
4173.289531,-383.047749,-74.020594,10658.965565
4173.289846,-842.705048,518.144159,10436.903782
4173.290162,306.438199,814.226536,9992.780217
4173.290477,1685.410096,1702.473667,9252.574275
4173.290792,2528.115143,1628.453072,8882.471304
4173.291108,1991.848295,444.123565,8882.471304
4173.291423,1378.971896,296.082377,9326.594869
4173.291738,229.828649,1332.370696,9622.677246
4173.292053,0.000000,1554.432478,9326.594869
4173.292369,689.485948,962.267725,9178.553681
4173.292684,766.095498,-0.000000,9474.636058
4173.292999,689.485948,-1036.288319,10807.006753
4173.293314,-536.266849,-1258.350101,9844.739029
4173.293630,-1915.238745,-444.123565,10732.986159
4173.293945,-1838.629195,444.123565,11177.109724
4173.294260,-612.876398,1332.370696,9622.677246
4173.294576,919.314598,1110.308913,9400.615463
4173.294891,995.924147,-0.000000,9178.553681
4173.295206,612.876398,-370.102971,9918.759623
4173.295521,-689.485948,814.226536,9474.636058
4173.295837,-1685.410096,1406.391290,9844.739029
4173.296152,-842.705048,1184.329507,9474.636058
4173.296467,0.000000,370.102971,8438.347739
4173.296783,153.219100,-1184.329507,9474.636058
4173.297098,-612.876398,-1554.432478,10510.924376
4173.297413,-2145.067394,-1184.329507,10807.006753
4173.297728,-2604.724693,-296.082377,10436.903782
4173.298044,-1762.019645,-0.000000,10214.842000
4173.298359,-306.438199,296.082377,9474.636058
4173.298674,0.000000,-148.041188,8956.491898
4173.298989,459.657299,-962.267725,9622.677246
4173.299305,-306.438199,-518.144159,9548.656652
4173.299620,-1532.190996,592.164754,9622.677246
4173.299935,-536.266849,1036.288319,9400.615463
4173.300251,76.609550,962.267725,9326.594869
4173.300566,612.876398,-740.205942,9400.615463
4173.300881,995.924147,-1998.556043,9696.697840
4173.301196,153.219100,-1702.473667,10140.821405
4173.301512,-1072.533697,-740.205942,10510.924376
4173.301827,-612.876398,-148.041188,9696.697840
4173.302142,536.266849,-74.020594,9252.574275
4173.302457,1685.410096,-222.061783,8068.244768
4173.302773,1608.800546,-1332.370696,8586.388927
4173.303088,995.924147,-740.205942,9400.615463
4173.303403,0.000000,-0.000000,9326.594869
4173.303719,-612.876398,-0.000000,9474.636058
4173.304034,612.876398,-0.000000,8882.471304
4173.304349,1149.143247,-0.000000,9104.533087
4173.304664,1378.971896,-1184.329507,9548.656652
4173.304980,995.924147,-1924.535449,10584.944971
4173.305295,-229.828649,-296.082377,10362.883188
4173.305610,-306.438199,296.082377,10140.821405
4173.305925,306.438199,888.247130,9622.677246
4173.306241,2068.457845,962.267725,8586.388927
4173.306556,2068.457845,518.144159,8512.368333
4173.306871,1915.238745,-370.102971,8882.471304
4173.307187,306.438199,222.061783,9104.533087
4173.307502,-919.314598,888.247130,9400.615463
4173.307817,-689.485948,222.061783,9622.677246
4173.308132,536.266849,-0.000000,9104.533087
4173.308448,1072.533697,-814.226536,9030.512492
4173.308763,842.705048,-1480.411884,9918.759623
4173.309078,-459.657299,-962.267725,10807.006753
4173.309393,-1072.533697,-0.000000,10436.903782
4173.309709,-459.657299,1036.288319,9844.739029
4173.310024,919.314598,1184.329507,9474.636058
4173.310339,1915.238745,1258.350101,8364.327145
4173.310655,1762.019645,-74.020594,9548.656652
4173.310970,842.705048,518.144159,9622.677246
4173.311285,-612.876398,1480.411884,9770.718434
4173.311600,-842.705048,1850.514855,9326.594869
4173.311916,153.219100,1628.453072,9474.636058
4173.312231,383.047749,444.123565,9548.656652
4173.312546,689.485948,-962.267725,10288.862594
4173.312862,-766.095498,-1480.411884,10955.047942
4173.313177,-1838.629195,-74.020594,10732.986159
4173.313492,-2145.067394,740.205942,10955.047942
4173.313807,-842.705048,1258.350101,9918.759623
4173.314123,383.047749,888.247130,9844.739029
4173.314438,1455.581446,814.226536,9104.533087
4173.314753,689.485948,444.123565,9178.553681
4173.315068,-306.438199,1332.370696,9178.553681
4173.315384,-1302.362347,1258.350101,10140.821405
4173.315699,-229.828649,1776.494261,9326.594869
4173.316014,0.000000,1110.308913,9548.656652
4173.316330,153.219100,370.102971,9104.533087
4173.316645,0.000000,-1036.288319,10807.006753
4173.316960,-1302.362347,-592.164754,11103.089130
4173.317275,-2528.115143,296.082377,10658.965565
4173.317591,-1915.238745,296.082377,10732.986159
4173.317906,-383.047749,370.102971,9770.718434
4173.318221,689.485948,-0.000000,9178.553681
4173.318536,766.095498,-888.247130,9548.656652
4173.318852,0.000000,-0.000000,9178.553681
4173.319167,-459.657299,1406.391290,8142.265362
4173.319482,-612.876398,1184.329507,8734.430116
4173.319798,536.266849,1036.288319,8882.471304
4173.320113,459.657299,444.123565,8660.409521
4173.320428,689.485948,-666.185348,8882.471304
4173.320743,0.000000,-1184.329507,10214.842000
4173.321059,-995.924147,-0.000000,10066.800811
4173.321374,-995.924147,296.082377,10288.862594
4173.321689,383.047749,740.205942,9548.656652
4173.322004,995.924147,148.041188,9252.574275
4173.322320,1762.019645,-74.020594,8734.430116
4173.322635,1225.752797,-518.144159,9178.553681
4173.322950,229.828649,814.226536,9622.677246
4173.323266,229.828649,1554.432478,9326.594869
4173.323581,153.219100,1776.494261,8512.368333
4173.323896,1072.533697,592.164754,9104.533087
4173.324211,1915.238745,-370.102971,9178.553681
4173.324527,1532.190996,-592.164754,9622.677246
4173.324842,-229.828649,-518.144159,9918.759623
4173.325157,-689.485948,-0.000000,10436.903782
4173.325472,-229.828649,592.164754,9770.718434
4173.325788,612.876398,518.144159,9104.533087
4173.326103,1608.800546,222.061783,9474.636058
4173.326418,1225.752797,-592.164754,9622.677246
4173.326734,153.219100,-148.041188,10066.800811
4173.327049,-842.705048,444.123565,9622.677246
4173.327364,-689.485948,1036.288319,9474.636058
4173.327679,612.876398,666.185348,9696.697840
4173.327995,689.485948,-74.020594,9548.656652
4173.328310,1072.533697,-740.205942,10362.883188
4173.328625,229.828649,-1258.350101,10658.965565
4173.328940,-689.485948,-148.041188,10658.965565
4173.329256,-612.876398,740.205942,10436.903782
4173.329571,459.657299,666.185348,9622.677246
4173.329886,1685.410096,370.102971,9326.594869
4173.330202,1915.238745,-74.020594,8956.491898
4173.330517,1149.143247,-592.164754,9696.697840
4173.330832,-536.266849,222.061783,9918.759623
4173.331147,-842.705048,740.205942,9400.615463
4173.331463,-306.438199,444.123565,9474.636058
4173.331778,842.705048,-74.020594,9178.553681
4173.332093,1072.533697,-666.185348,9844.739029
4173.332409,153.219100,-1332.370696,10436.903782
4173.332724,-689.485948,-740.205942,10288.862594
4173.333039,-1302.362347,-0.000000,10362.883188
4173.333354,-766.095498,518.144159,9548.656652
4173.333670,153.219100,-74.020594,9844.739029
4173.333985,612.876398,-444.123565,9474.636058
4173.334300,919.314598,-814.226536,9104.533087
4173.334615,76.609550,-74.020594,9252.574275
4173.334931,-1378.971896,814.226536,9030.512492
4173.335246,-1302.362347,740.205942,8734.430116
4173.335561,76.609550,-0.000000,8512.368333
4173.335877,612.876398,-444.123565,8956.491898
4173.336192,766.095498,-1998.556043,9178.553681
4173.336507,0.000000,-1628.453072,9548.656652
4173.336822,-2145.067394,-370.102971,9770.718434
4173.337138,-1608.800546,-518.144159,9696.697840
4173.337453,-995.924147,-0.000000,9252.574275
4173.337768,536.266849,-222.061783,8512.368333
4173.338083,842.705048,-1036.288319,9030.512492
4173.338399,0.000000,-740.205942,9474.636058
4173.338714,-1149.143247,888.247130,9030.512492
4173.339029,-1685.410096,1258.350101,9474.636058
4173.339345,-459.657299,1110.308913,9474.636058
4173.339660,842.705048,518.144159,9252.574275
4173.339975,1149.143247,-0.000000,9030.512492
4173.340290,536.266849,-1110.308913,9918.759623
4173.340606,-689.485948,-0.000000,10214.842000
4173.340921,-1685.410096,666.185348,10066.800811
4173.341236,-689.485948,740.205942,9326.594869
4173.341551,383.047749,370.102971,9326.594869
4173.341867,919.314598,-0.000000,8290.306550
4173.342182,1149.143247,-592.164754,9178.553681
4173.342497,0.000000,666.185348,9252.574275
4173.342813,-1378.971896,1406.391290,9622.677246
4173.343128,-919.314598,2072.576638,9696.697840
4173.343443,76.609550,1406.391290,9548.656652
4173.343758,995.924147,296.082377,9252.574275
4173.344074,1685.410096,-518.144159,10288.862594
4173.344389,306.438199,222.061783,10807.006753
4173.344704,-842.705048,888.247130,10584.944971
4173.345019,-842.705048,2146.597232,10584.944971
4173.345335,536.266849,1924.535449,10214.842000
4173.345650,1685.410096,1406.391290,9770.718434
4173.345965,2145.067394,222.061783,10066.800811
4173.346281,536.266849,-74.020594,10214.842000
4173.346596,-306.438199,1036.288319,10066.800811
4173.346911,-919.314598,1480.411884,9770.718434
4173.347226,0.000000,1554.432478,9548.656652
4173.347542,1149.143247,-0.000000,9770.718434
4173.347857,1838.629195,-592.164754,10362.883188
4173.348172,1149.143247,-1110.308913,10807.006753
4173.348488,-536.266849,-0.000000,10658.965565
4173.348803,-766.095498,962.267725,10881.027347
4173.349118,0.000000,1110.308913,9992.780217
4173.349434,1685.410096,666.185348,9178.553681
4173.349749,2374.896044,-0.000000,9474.636058
4173.350064,2068.457845,-370.102971,9622.677246
4173.350379,842.705048,-0.000000,9844.739029
4173.350695,-459.657299,1258.350101,9844.739029
4173.351010,-229.828649,962.267725,9696.697840
4173.351325,1302.362347,370.102971,9474.636058
4173.351641,1685.410096,-666.185348,9474.636058
4173.351956,1302.362347,-1406.391290,9696.697840
4173.352271,0.000000,-962.267725,10362.883188
4173.352587,-1302.362347,-148.041188,9770.718434
4173.352902,-1149.143247,-0.000000,9548.656652
4173.353217,536.266849,444.123565,8512.368333
4173.353533,1378.971896,-666.185348,8068.244768
4173.353848,919.314598,-1036.288319,8586.388927
4173.354163,0.000000,-1480.411884,9104.533087
4173.354479,-919.314598,-0.000000,8660.409521
4173.354794,-1378.971896,-0.000000,9030.512492
4173.355109,-306.438199,74.020594,8364.327145
4173.355425,229.828649,-370.102971,8586.388927
4173.355740,306.438199,-962.267725,8660.409521
4173.356055,-306.438199,-1998.556043,9696.697840
4173.356370,-2221.676944,-592.164754,9622.677246
4173.356686,-2451.505594,-370.102971,10362.883188
4173.357001,-1685.410096,-222.061783,9992.780217
4173.357316,-153.219100,-592.164754,9474.636058
4173.357632,306.438199,-1110.308913,9104.533087
4173.357947,0.000000,-1554.432478,9252.574275
4173.358262,-612.876398,-222.061783,9696.697840
4173.358578,-1838.629195,444.123565,9548.656652
4173.358893,-1072.533697,666.185348,8808.450710
4173.359208,612.876398,296.082377,8512.368333
4173.359524,1072.533697,-296.082377,8808.450710
4173.359839,689.485948,-1406.391290,9400.615463
4173.360154,-383.047749,-1184.329507,10066.800811
4173.360470,-1608.800546,-444.123565,9992.780217
4173.360785,-689.485948,-0.000000,10140.821405
4173.361100,536.266849,592.164754,9474.636058
4173.361416,995.924147,-0.000000,9252.574275
4173.361731,1072.533697,-296.082377,9770.718434
4173.362046,0.000000,-0.000000,9918.759623
4173.362362,-842.705048,1332.370696,9696.697840
4173.362677,-689.485948,1406.391290,9992.780217
4173.362992,306.438199,1480.411884,9992.780217
4173.363307,1072.533697,1110.308913,9474.636058
4173.363623,1455.581446,-0.000000,9770.718434
4173.363938,459.657299,-518.144159,10732.986159
4173.364253,-612.876398,222.061783,10436.903782
4173.364569,-1072.533697,1258.350101,10288.862594
4173.364884,0.000000,1480.411884,9474.636058
4173.365199,1378.971896,1258.350101,8956.491898
4173.365515,1838.629195,370.102971,9104.533087
4173.365830,1072.533697,-296.082377,9696.697840
4173.366145,-1225.752797,-0.000000,9844.739029
4173.366461,-995.924147,1924.535449,9474.636058
4173.366776,-306.438199,1554.432478,9622.677246
4173.367091,1149.143247,740.205942,9474.636058
4173.367407,1762.019645,-74.020594,9770.718434
4173.367722,1455.581446,-666.185348,10214.842000
4173.368037,383.047749,296.082377,10288.862594
4173.368353,-229.828649,1628.453072,9770.718434
4173.368668,306.438199,1998.556043,9252.574275
4173.368983,1532.190996,1110.308913,9178.553681
4173.369299,2298.286494,370.102971,9104.533087
4173.369614,1915.238745,-296.082377,9474.636058
4173.369929,919.314598,-0.000000,9548.656652
4173.370244,-459.657299,1258.350101,10066.800811
4173.370560,-459.657299,1332.370696,9770.718434
4173.370875,536.266849,962.267725,9104.533087
4173.371190,1302.362347,-148.041188,9474.636058
4173.371506,1149.143247,-1036.288319,9918.759623
4173.371821,153.219100,-814.226536,10807.006753
4173.372136,-995.924147,444.123565,10066.800811
4173.372452,-842.705048,1110.308913,9696.697840
4173.372767,76.609550,1258.350101,9030.512492
4173.373082,1302.362347,666.185348,9326.594869
4173.373398,1149.143247,-0.000000,9030.512492
4173.373713,766.095498,-592.164754,9474.636058
4173.374028,-689.485948,962.267725,9326.594869
4173.374344,-1302.362347,1036.288319,9474.636058
4173.374659,-995.924147,1110.308913,9252.574275
4173.374974,-306.438199,-222.061783,9474.636058
4173.375290,0.000000,-1110.308913,9622.677246
4173.375605,-919.314598,-1036.288319,10436.903782
4173.375920,-1991.848295,-518.144159,9844.739029
4173.376235,-2528.115143,-0.000000,10066.800811
4173.376551,-1762.019645,592.164754,9844.739029
4173.376866,-459.657299,-0.000000,9104.533087
4173.377181,153.219100,-148.041188,9326.594869
4173.377497,229.828649,-740.205942,9400.615463
4173.377812,-306.438199,592.164754,9474.636058
4173.378127,-1991.848295,444.123565,9918.759623
4173.378443,-1378.971896,518.144159,9474.636058
4173.378758,-306.438199,-148.041188,10066.800811
4173.379073,153.219100,-814.226536,10140.821405
4173.379389,76.609550,-1628.453072,9770.718434
4173.379704,-383.047749,-1628.453072,10658.965565
4173.380019,-1685.410096,-444.123565,9918.759623
4173.380335,-919.314598,-0.000000,9548.656652
4173.380650,306.438199,370.102971,9104.533087
4173.380965,1915.238745,-148.041188,8660.409521
4173.381281,2145.067394,-444.123565,8808.450710
4173.381596,1685.410096,-592.164754,9474.636058
4173.381911,76.609550,740.205942,9030.512492
4173.382227,-153.219100,666.185348,9326.594869
4173.382542,306.438199,444.123565,9696.697840
4173.382857,842.705048,-148.041188,9696.697840
4173.383172,536.266849,-1184.329507,9770.718434
4173.383488,383.047749,-1480.411884,11103.089130
4173.383803,-919.314598,-148.041188,10362.883188
4173.384118,-1685.410096,444.123565,10807.006753
4173.384434,-536.266849,592.164754,9548.656652
4173.384749,1608.800546,-0.000000,9030.512492
4173.385064,1608.800546,-0.000000,9178.553681
4173.385380,1302.362347,-592.164754,9474.636058
4173.385695,306.438199,518.144159,9474.636058
4173.386010,-842.705048,1554.432478,9326.594869
4173.386326,-459.657299,1406.391290,8882.471304
4173.386641,919.314598,370.102971,8882.471304
4173.386956,1915.238745,-370.102971,9030.512492
4173.387272,1608.800546,-1258.350101,9474.636058
4173.387587,459.657299,-888.247130,9770.718434
4173.387902,-689.485948,-74.020594,9918.759623
4173.388218,-383.047749,814.226536,9770.718434
4173.388533,842.705048,592.164754,9326.594869
4173.388848,1608.800546,518.144159,8586.388927
4173.389164,2068.457845,-0.000000,9178.553681
4173.389479,842.705048,-74.020594,10362.883188
4173.389794,-153.219100,1332.370696,9548.656652
4173.390109,-612.876398,1702.473667,9474.636058
4173.390425,-306.438199,1628.453072,9474.636058
4173.390740,1532.190996,962.267725,9770.718434
4173.391055,1608.800546,-74.020594,9918.759623
4173.391371,689.485948,-888.247130,10510.924376
4173.391686,-459.657299,-0.000000,10288.862594
4173.392001,-1455.581446,814.226536,10362.883188
4173.392317,-459.657299,1332.370696,9992.780217
4173.392632,766.095498,592.164754,9400.615463
4173.392947,1302.362347,-0.000000,8882.471304
4173.393263,612.876398,-740.205942,9400.615463
4173.393578,-612.876398,222.061783,9844.739029
4173.393893,-1685.410096,1258.350101,9992.780217
4173.394209,-1991.848295,814.226536,9918.759623
4173.394524,-536.266849,666.185348,9844.739029
4173.394839,76.609550,-0.000000,9770.718434
4173.395155,-229.828649,-962.267725,10881.027347
4173.395470,-536.266849,-444.123565,11399.171507
4173.395785,-1991.848295,1110.308913,10584.944971
4173.396100,-1302.362347,1480.411884,9992.780217
4173.396416,0.000000,1480.411884,9622.677246
4173.396731,1225.752797,1332.370696,8660.409521
4173.397046,1225.752797,-74.020594,8660.409521
4173.397362,459.657299,-518.144159,9178.553681
4173.397677,-1149.143247,222.061783,8956.491898
4173.397992,-1302.362347,962.267725,9178.553681
4173.398308,-1149.143247,444.123565,8734.430116
4173.398623,0.000000,-444.123565,8734.430116
4173.398938,919.314598,-1628.453072,8956.491898
4173.399254,0.000000,-2146.597232,10214.842000
4173.399569,-995.924147,-518.144159,9918.759623
4173.399884,-1225.752797,814.226536,9770.718434
4173.400200,-229.828649,1110.308913,9474.636058
4173.400515,1455.581446,1036.288319,8734.430116
4173.400830,2298.286494,740.205942,8290.306550
4173.401146,1455.581446,-0.000000,8734.430116
4173.401461,153.219100,888.247130,9178.553681
4173.401776,-1149.143247,1184.329507,9918.759623
4173.402092,-689.485948,1110.308913,9326.594869
4173.402407,229.828649,-0.000000,9770.718434
4173.402722,995.924147,-666.185348,9770.718434
4173.403037,536.266849,-2220.617826,11103.089130
4173.403353,-306.438199,-1480.411884,10436.903782
4173.403668,-1532.190996,-0.000000,10362.883188
4173.403983,-689.485948,518.144159,9844.739029
4173.404299,919.314598,962.267725,9030.512492
4173.404614,1915.238745,-0.000000,8882.471304
4173.404929,2298.286494,-370.102971,8586.388927
4173.405245,1072.533697,-370.102971,9104.533087
4173.405560,-306.438199,814.226536,9474.636058
4173.405875,-306.438199,888.247130,10066.800811
4173.406191,306.438199,666.185348,9696.697840
4173.406506,995.924147,-296.082377,10140.821405
4173.406821,1685.410096,-1406.391290,9992.780217
4173.407137,229.828649,-1924.535449,11029.068536
4173.407452,-919.314598,-518.144159,10881.027347
4173.407767,-995.924147,296.082377,10732.986159
4173.408083,229.828649,666.185348,9622.677246
4173.408398,1762.019645,592.164754,9326.594869
4173.408713,2068.457845,-0.000000,8734.430116
4173.409029,1532.190996,-814.226536,9252.574275
4173.409344,306.438199,-0.000000,9178.553681
4173.409659,-536.266849,592.164754,9178.553681
4173.409974,0.000000,444.123565,9252.574275
4173.410290,612.876398,-74.020594,8956.491898
4173.410605,766.095498,-1110.308913,9548.656652
4173.410920,612.876398,-1998.556043,9770.718434
4173.411236,-459.657299,-962.267725,10214.842000
4173.411551,-1378.971896,-222.061783,10955.047942
4173.411866,-766.095498,-0.000000,9770.718434
4173.412182,459.657299,370.102971,8808.450710
4173.412497,842.705048,444.123565,8586.388927
4173.412812,995.924147,-0.000000,9178.553681
4173.413128,0.000000,740.205942,9326.594869
4173.413443,-1149.143247,1628.453072,9474.636058
4173.413758,-1149.143247,1184.329507,9918.759623
4173.414074,0.000000,814.226536,8956.491898
4173.414389,459.657299,-518.144159,9622.677246
4173.414704,0.000000,-1480.411884,9844.739029
4173.415020,-1072.533697,-1332.370696,11029.068536
4173.415335,-1991.848295,-0.000000,10584.944971
4173.415650,-1685.410096,444.123565,9844.739029
4173.415966,306.438199,666.185348,9030.512492
4173.416281,1072.533697,370.102971,8660.409521
4173.416596,1302.362347,-0.000000,8364.327145
4173.416911,459.657299,-0.000000,9326.594869
4173.417227,-612.876398,518.144159,9104.533087
4173.417542,-1532.190996,1406.391290,9326.594869
4173.417857,-536.266849,1184.329507,9326.594869
4173.418173,76.609550,296.082377,9178.553681
4173.418488,229.828649,-518.144159,9696.697840
4173.418803,76.609550,-1036.288319,10362.883188
4173.419119,-1302.362347,-148.041188,10955.047942
4173.419434,-2221.676944,740.205942,9918.759623
4173.419749,-919.314598,1332.370696,9918.759623
4173.420065,612.876398,814.226536,9326.594869
4173.420380,1455.581446,666.185348,8364.327145
4173.420695,2068.457845,-74.020594,8882.471304
4173.421011,383.047749,740.205942,9326.594869
4173.421326,-919.314598,1628.453072,9030.512492
4173.421641,-536.266849,1628.453072,9178.553681
4173.421957,306.438199,962.267725,9178.553681
4173.422272,1378.971896,-0.000000,9474.636058
4173.422587,919.314598,-1332.370696,10066.800811
4173.422902,0.000000,-1036.288319,10881.027347
4173.423218,-1302.362347,222.061783,10288.862594
4173.423533,-1072.533697,814.226536,10584.944971
4173.423848,1302.362347,1776.494261,9918.759623
4173.424164,2298.286494,1258.350101,9326.594869
4173.424479,2834.553343,592.164754,9474.636058
4173.424794,2221.676944,592.164754,9622.677246
4173.425110,229.828649,1554.432478,9178.553681
4173.425425,76.609550,1924.535449,9474.636058
4173.425740,842.705048,1480.411884,9548.656652
4173.426056,1378.971896,222.061783,9104.533087
4173.426371,1455.581446,-1332.370696,9992.780217
4173.426686,1149.143247,-1776.494261,11029.068536
4173.427002,-842.705048,-888.247130,11177.109724
4173.427317,-2145.067394,-222.061783,10955.047942
4173.427632,-1225.752797,592.164754,9992.780217
4173.427948,612.876398,-0.000000,9400.615463
4173.428263,1378.971896,-148.041188,9400.615463
4173.428578,766.095498,-296.082377,9548.656652
4173.428894,612.876398,740.205942,9178.553681
4173.429209,-459.657299,1406.391290,9474.636058
4173.429524,-612.876398,1554.432478,9030.512492
4173.429839,612.876398,518.144159,9104.533087
4173.430155,1532.190996,-444.123565,9178.553681
4173.430470,842.705048,-1998.556043,9622.677246
4173.430785,-536.266849,-1702.473667,10807.006753
4173.431101,-1608.800546,-592.164754,10288.862594
4173.431416,-1762.019645,-74.020594,9992.780217
4173.431731,-306.438199,-296.082377,9178.553681
4173.432047,842.705048,-518.144159,8364.327145
4173.432362,612.876398,-1110.308913,8586.388927
4173.432677,536.266849,-740.205942,9104.533087
4173.432993,-1072.533697,222.061783,9622.677246
4173.433308,-1455.581446,962.267725,8956.491898
4173.433623,-536.266849,666.185348,8956.491898
4173.433939,766.095498,-0.000000,8882.471304
4173.434254,1225.752797,-1036.288319,9326.594869
4173.434569,306.438199,-1184.329507,10436.903782
4173.434885,-1149.143247,-74.020594,10436.903782
4173.435200,-1991.848295,740.205942,9918.759623
4173.435515,-995.924147,444.123565,9844.739029
4173.435831,383.047749,370.102971,9030.512492
4173.436146,842.705048,-888.247130,9104.533087
4173.436461,612.876398,-1258.350101,9696.697840
4173.436776,-1378.971896,-222.061783,9992.780217
4173.437092,-2145.067394,-0.000000,9844.739029
4173.437407,-1149.143247,814.226536,9178.553681
4173.437722,229.828649,222.061783,9104.533087
4173.438038,1225.752797,-370.102971,8882.471304
4173.438353,1149.143247,-888.247130,9622.677246
4173.438668,383.047749,-1110.308913,10510.924376
4173.438984,-766.095498,-148.041188,10584.944971
4173.439299,-766.095498,1184.329507,9770.718434
4173.439614,1072.533697,962.267725,8956.491898
4173.439930,1838.629195,888.247130,8734.430116
4173.440245,1991.848295,-74.020594,9326.594869
4173.440560,1302.362347,-592.164754,10140.821405
4173.440876,-383.047749,592.164754,9844.739029
4173.441191,-612.876398,1406.391290,9104.533087
4173.441506,306.438199,1480.411884,9696.697840
4173.441822,1378.971896,222.061783,9548.656652
4173.442137,1378.971896,-370.102971,9474.636058
4173.442452,536.266849,-1628.453072,10436.903782
4173.442767,-766.095498,-148.041188,10140.821405
4173.443083,-919.314598,888.247130,10066.800811
4173.443398,306.438199,1554.432478,9104.533087
4173.443713,1762.019645,814.226536,9326.594869
4173.444029,2068.457845,370.102971,8290.306550
4173.444344,1762.019645,-1036.288319,9474.636058
4173.444659,76.609550,666.185348,9104.533087
4173.444975,-612.876398,1628.453072,9844.739029
4173.445290,0.000000,2220.617826,9918.759623
4173.445605,995.924147,1036.288319,9474.636058
4173.445921,1072.533697,-74.020594,9474.636058
4173.446239,612.876398,-1480.411884,10436.903782
4173.446555,-536.266849,-666.185348,10881.027347
4173.446870,-1762.019645,222.061783,10732.986159
4173.447185,-1225.752797,1702.473667,10214.842000
4173.447501,153.219100,1480.411884,9474.636058
4173.447816,1302.362347,518.144159,8734.430116
4173.448131,2145.067394,-740.205942,9474.636058
4173.448447,536.266849,-296.082377,9548.656652
4173.448762,-536.266849,1184.329507,9548.656652
4173.449078,-842.705048,1258.350101,9696.697840
4173.449393,842.705048,888.247130,8586.388927
4173.449708,919.314598,370.102971,8956.491898
4173.450024,689.485948,-666.185348,9326.594869
4173.450339,-612.876398,-1628.453072,10510.924376
4173.450654,-1608.800546,-74.020594,10066.800811
4173.450970,-1915.238745,-0.000000,10214.842000
4173.451285,-842.705048,-0.000000,10066.800811
4173.451601,536.266849,-0.000000,9030.512492
4173.451916,689.485948,-444.123565,8660.409521
4173.452231,536.266849,-1110.308913,9696.697840
4173.452547,-536.266849,222.061783,9696.697840
4173.452862,-1225.752797,888.247130,9178.553681
4173.453177,0.000000,814.226536,9104.533087
4173.453493,842.705048,888.247130,8808.450710
4173.453808,1149.143247,-148.041188,8808.450710
4173.454124,995.924147,-1776.494261,9622.677246
4173.454439,-842.705048,-740.205942,10510.924376
4173.454754,-1685.410096,-518.144159,10288.862594
4173.455070,-995.924147,-0.000000,9992.780217
4173.455385,536.266849,222.061783,8660.409521
4173.455700,1762.019645,-518.144159,8660.409521
4173.456016,1072.533697,-518.144159,8882.471304
4173.456331,153.219100,-592.164754,9918.759623
4173.456646,-1072.533697,666.185348,9474.636058
4173.456962,-919.314598,666.185348,9178.553681
4173.457277,459.657299,518.144159,9326.594869
4173.457593,919.314598,370.102971,8882.471304
4173.457908,842.705048,-888.247130,9622.677246
4173.458223,0.000000,-1184.329507,10955.047942
4173.458539,-1532.190996,-444.123565,11177.109724
4173.458854,-1149.143247,518.144159,10140.821405
4173.459169,0.000000,888.247130,9548.656652
4173.459485,1149.143247,740.205942,8808.450710
4173.459800,1532.190996,-74.020594,9178.553681
4173.460116,919.314598,-740.205942,9992.780217
4173.460431,0.000000,-0.000000,9400.615463
4173.460746,-1378.971896,740.205942,9844.739029
4173.461062,153.219100,814.226536,9252.574275
4173.461377,689.485948,444.123565,9252.574275
4173.461692,1149.143247,-74.020594,9474.636058
4173.462008,995.924147,-1480.411884,10140.821405
4173.462323,-383.047749,-444.123565,10140.821405
4173.462639,-1608.800546,592.164754,9844.739029
4173.462954,-919.314598,888.247130,9548.656652
4173.463269,536.266849,740.205942,9400.615463
4173.463585,1838.629195,518.144159,8882.471304
4173.463900,1302.362347,-0.000000,9252.574275
4173.464215,-229.828649,444.123565,9622.677246
4173.464531,-1072.533697,1628.453072,9770.718434
4173.464846,-1302.362347,1332.370696,9474.636058
4173.465162,229.828649,1258.350101,9326.594869
4173.465477,995.924147,-0.000000,9474.636058
4173.465792,919.314598,-814.226536,9918.759623
4173.466108,0.000000,-888.247130,10584.944971
4173.466423,-1225.752797,-0.000000,10288.862594
4173.466738,-842.705048,888.247130,10510.924376
4173.467054,153.219100,666.185348,9548.656652
4173.467369,1378.971896,1036.288319,9770.718434
4173.467685,1455.581446,-0.000000,8956.491898
4173.468000,995.924147,-296.082377,9844.739029
4173.468315,383.047749,1110.308913,9770.718434
4173.468631,-229.828649,1480.411884,9474.636058
4173.468946,689.485948,962.267725,9178.553681
4173.469261,2068.457845,740.205942,9326.594869
4173.469577,2068.457845,-148.041188,9400.615463
4173.469892,1149.143247,-962.267725,10066.800811
4173.470207,229.828649,-0.000000,10214.842000
4173.470523,-995.924147,814.226536,9844.739029
4173.470838,0.000000,148.041188,10140.821405
4173.471154,1149.143247,592.164754,9548.656652
4173.471469,1072.533697,148.041188,9252.574275
4173.471784,459.657299,-592.164754,9622.677246
4173.472100,-612.876398,-0.000000,10066.800811
4173.472415,-1225.752797,814.226536,9548.656652
4173.472730,-919.314598,370.102971,9622.677246
4173.473046,229.828649,1406.391290,9548.656652
4173.473361,919.314598,-0.000000,9326.594869
4173.473677,153.219100,-888.247130,9696.697840
4173.473992,0.000000,-1184.329507,9918.759623
4173.474307,-1915.238745,370.102971,9696.697840
4173.474623,-1991.848295,518.144159,9696.697840
4173.474938,-536.266849,814.226536,8512.368333
4173.475253,306.438199,-0.000000,8290.306550
4173.475569,459.657299,-814.226536,9030.512492
4173.475884,-459.657299,-1332.370696,9770.718434
4173.476200,-2221.676944,-0.000000,9844.739029
4173.476515,-2528.115143,296.082377,10066.800811
4173.476830,-1762.019645,370.102971,9622.677246
4173.477146,0.000000,148.041188,9178.553681
4173.477461,612.876398,-888.247130,9104.533087
4173.477776,153.219100,-1110.308913,10140.821405
4173.478092,-995.924147,-0.000000,10140.821405
4173.478407,-1762.019645,1184.329507,10214.842000
4173.478723,-612.876398,1628.453072,9696.697840
4173.479038,919.314598,1184.329507,8660.409521
4173.479353,1532.190996,-444.123565,9104.533087
4173.479669,1225.752797,-1036.288319,9844.739029
4173.479984,-306.438199,-74.020594,9548.656652
4173.480299,-1532.190996,296.082377,9770.718434
4173.480615,-919.314598,888.247130,9770.718434
4173.480930,383.047749,666.185348,9474.636058
4173.481246,766.095498,-0.000000,9030.512492
4173.481561,1225.752797,-1554.432478,10066.800811
4173.481876,229.828649,-1184.329507,10881.027347
4173.482192,-919.314598,-0.000000,9992.780217
4173.482507,-766.095498,666.185348,9844.739029
4173.482822,306.438199,1258.350101,9474.636058
4173.483138,1455.581446,814.226536,8882.471304
4173.483453,2374.896044,-222.061783,8660.409521
4173.483768,1532.190996,-296.082377,9326.594869
4173.484084,-229.828649,814.226536,9770.718434
4173.484399,-995.924147,1110.308913,10066.800811
4173.484715,383.047749,1036.288319,9548.656652
4173.485030,1455.581446,-0.000000,9178.553681
4173.485345,1762.019645,-592.164754,9548.656652
4173.485661,995.924147,-1480.411884,10807.006753
4173.485976,306.438199,-0.000000,10510.924376
4173.486291,-459.657299,592.164754,10510.924376
4173.486607,919.314598,1110.308913,9696.697840
4173.486922,2298.286494,1258.350101,8882.471304
4173.487238,2911.162892,962.267725,8438.347739
4173.487553,2528.115143,-0.000000,8808.450710
4173.487868,919.314598,370.102971,9326.594869
4173.488184,153.219100,518.144159,9548.656652
4173.488499,0.000000,962.267725,9400.615463
4173.488814,842.705048,296.082377,9252.574275
4173.489130,919.314598,-518.144159,9030.512492
4173.489445,842.705048,-1258.350101,10288.862594
4173.489761,-306.438199,-740.205942,10288.862594
4173.490076,-1532.190996,-0.000000,10436.903782
4173.490391,-1149.143247,740.205942,10510.924376
4173.490707,0.000000,962.267725,9474.636058
4173.491022,1532.190996,740.205942,9104.533087
4173.491337,1302.362347,-0.000000,8808.450710
4173.491653,612.876398,-74.020594,10140.821405
4173.491968,-1302.362347,1110.308913,9844.739029
4173.492284,-1608.800546,1184.329507,9474.636058
4173.492599,-536.266849,1258.350101,10140.821405
4173.492914,-153.219100,444.123565,9474.636058
4173.493230,-383.047749,-814.226536,9770.718434
4173.493545,-995.924147,-1776.494261,10881.027347
4173.493860,-2451.505594,-1184.329507,10658.965565
4173.494176,-2757.943793,-814.226536,10732.986159
4173.494491,-1455.581446,-0.000000,10066.800811
4173.494807,-383.047749,-0.000000,9474.636058
4173.495122,229.828649,-296.082377,8290.306550
4173.495437,76.609550,-592.164754,9474.636058
4173.495753,-919.314598,222.061783,8882.471304
4173.496068,-1532.190996,592.164754,8956.491898
4173.496383,-919.314598,592.164754,8882.471304
4173.496699,842.705048,666.185348,8512.368333
4173.497014,612.876398,-148.041188,9178.553681
4173.497329,536.266849,-1776.494261,9622.677246
4173.497645,-995.924147,-1036.288319,9992.780217
4173.497960,-1915.238745,-370.102971,10436.903782
4173.498276,-995.924147,444.123565,9918.759623
4173.498591,306.438199,666.185348,9252.574275
4173.498906,1378.971896,296.082377,8216.285956
4173.499222,1455.581446,-518.144159,9104.533087
4173.499537,306.438199,-148.041188,9030.512492
4173.499852,-459.657299,740.205942,8586.388927
4173.500168,-306.438199,1258.350101,9474.636058
4173.500483,766.095498,1184.329507,9400.615463
4173.500799,1991.848295,296.082377,8808.450710
4173.501114,1915.238745,-740.205942,9474.636058
4173.501429,306.438199,-592.164754,10288.862594
4173.501745,-612.876398,-0.000000,10732.986159
4173.502060,-612.876398,888.247130,10436.903782
4173.502375,536.266849,1332.370696,10066.800811
4173.502691,1225.752797,666.185348,8808.450710
4173.503006,1915.238745,592.164754,8956.491898
4173.503322,919.314598,-444.123565,10214.842000
4173.503637,-153.219100,592.164754,10362.883188
4173.503952,-842.705048,1406.391290,10214.842000
4173.504268,0.000000,1406.391290,9770.718434
4173.504583,1991.848295,518.144159,9844.739029
4173.504898,2298.286494,-222.061783,9178.553681
4173.505214,1302.362347,-1850.514855,10807.006753
4173.505529,-76.609550,-666.185348,10658.965565
4173.505845,-1378.971896,296.082377,10807.006753
4173.506160,0.000000,1332.370696,9326.594869
4173.506475,1378.971896,962.267725,9252.574275
4173.506791,2298.286494,666.185348,8512.368333
4173.507106,1915.238745,-666.185348,9030.512492
4173.507421,536.266849,-370.102971,9474.636058
4173.507737,-766.095498,-0.000000,10214.842000
4173.508052,-766.095498,518.144159,9252.574275
4173.508368,0.000000,740.205942,9400.615463
4173.508683,459.657299,-0.000000,9178.553681
4173.508998,153.219100,-1110.308913,10066.800811
4173.509314,0.000000,-888.247130,10807.006753
4173.509629,-1072.533697,-296.082377,10658.965565
4173.509944,-1072.533697,888.247130,9992.780217
4173.510260,0.000000,1406.391290,9252.574275
4173.510575,1072.533697,888.247130,8956.491898
4173.510890,1378.971896,370.102971,8956.491898
4173.511206,612.876398,-296.082377,9474.636058
4173.511521,-842.705048,740.205942,9474.636058
4173.511837,-1302.362347,740.205942,9548.656652
4173.512152,-689.485948,962.267725,9178.553681
4173.512467,306.438199,518.144159,8586.388927
4173.512783,459.657299,-296.082377,9178.553681
4173.513098,-229.828649,-1332.370696,10732.986159
4173.513413,-1149.143247,-518.144159,10436.903782
4173.513729,-1455.581446,222.061783,9844.739029
4173.514044,-1072.533697,-0.000000,10140.821405
4173.514360,536.266849,444.123565,8882.471304
4173.514675,1149.143247,-0.000000,8512.368333
4173.514990,612.876398,-518.144159,9030.512492
4173.515306,-306.438199,-518.144159,9696.697840
4173.515621,-1455.581446,592.164754,9474.636058
4173.515936,-766.095498,814.226536,9178.553681
4173.516252,-383.047749,518.144159,9178.553681
4173.516567,459.657299,-666.185348,9474.636058
4173.516883,612.876398,-1258.350101,9548.656652
4173.517198,-459.657299,-1480.411884,10658.965565
4173.517513,-1378.971896,-296.082377,10436.903782
4173.517829,-1225.752797,296.082377,10140.821405
4173.518144,383.047749,1036.288319,9474.636058
4173.518459,1455.581446,444.123565,9178.553681
4173.518775,1608.800546,-74.020594,8512.368333
4173.519090,1072.533697,-444.123565,8956.491898
4173.519406,-306.438199,592.164754,9178.553681
4173.519721,-612.876398,1110.308913,9622.677246
4173.520036,76.609550,1702.473667,9178.553681
4173.520352,1072.533697,1110.308913,8956.491898
4173.520667,919.314598,-0.000000,9844.739029
4173.520982,76.609550,-962.267725,10955.047942
4173.521298,-1302.362347,-370.102971,10584.944971
4173.521613,-1915.238745,518.144159,11103.089130
4173.521929,-229.828649,888.247130,10584.944971
4173.522244,1225.752797,1110.308913,9474.636058
4173.522559,1608.800546,370.102971,8808.450710
4173.522875,1378.971896,-222.061783,9844.739029
4173.523190,536.266849,592.164754,9326.594869
4173.523505,-612.876398,1332.370696,9770.718434
4173.523821,0.000000,1480.411884,9252.574275
4173.524136,1072.533697,1480.411884,8882.471304
4173.524451,1378.971896,-74.020594,9030.512492
4173.524767,1302.362347,-1184.329507,10214.842000
4173.525082,-306.438199,-1184.329507,11177.109724
4173.525398,-1302.362347,-222.061783,10955.047942
4173.525713,-1302.362347,518.144159,10807.006753
4173.526028,459.657299,888.247130,9770.718434
4173.526344,1685.410096,592.164754,8734.430116
4173.526659,1762.019645,-370.102971,8882.471304
4173.526974,1378.971896,-666.185348,9770.718434
4173.527290,-306.438199,444.123565,9474.636058
4173.527605,-612.876398,814.226536,9770.718434
4173.527921,306.438199,740.205942,9252.574275
4173.528236,1225.752797,222.061783,8808.450710
4173.528551,1378.971896,-740.205942,9400.615463
4173.528867,766.095498,-1258.350101,10066.800811
4173.529182,-919.314598,-1110.308913,10214.842000
4173.529497,-1302.362347,-666.185348,10658.965565
4173.529813,-306.438199,222.061783,9474.636058
4173.530128,459.657299,-0.000000,9104.533087
4173.530444,1225.752797,370.102971,9030.512492
4173.530759,383.047749,-518.144159,9474.636058
4173.531074,-153.219100,518.144159,9474.636058
4173.531390,-1225.752797,1110.308913,9474.636058
4173.531705,-612.876398,1628.453072,9400.615463
4173.532020,383.047749,1406.391290,8660.409521
4173.532336,689.485948,370.102971,8956.491898
4173.532651,153.219100,-1110.308913,9844.739029
4173.532967,-1072.533697,-740.205942,10955.047942
4173.533282,-1915.238745,148.041188,10658.965565
4173.533597,-1915.238745,814.226536,9770.718434
4173.533913,0.000000,814.226536,9696.697840
4173.534228,536.266849,518.144159,8660.409521
4173.534543,995.924147,-74.020594,9178.553681
4173.534859,76.609550,-0.000000,9104.533087
4173.535174,-1302.362347,962.267725,9178.553681
4173.535490,-1072.533697,222.061783,9326.594869
4173.535805,0.000000,1258.350101,9030.512492
4173.536120,612.876398,666.185348,9104.533087
4173.536436,1072.533697,-518.144159,9252.574275
4173.536751,76.609550,-1332.370696,10214.842000
4173.537066,-1378.971896,-888.247130,10436.903782
4173.537382,-1608.800546,-444.123565,10584.944971
4173.537697,-766.095498,666.185348,9770.718434
4173.538012,306.438199,-0.000000,9252.574275
4173.538328,995.924147,-74.020594,9474.636058
4173.538643,919.314598,-666.185348,9696.697840
4173.538959,-153.219100,-0.000000,10214.842000
4173.539274,-995.924147,962.267725,10066.800811
4173.539589,0.000000,1258.350101,9918.759623
4173.539905,1149.143247,888.247130,9400.615463
4173.540220,1762.019645,-0.000000,9400.615463
4173.540535,1378.971896,-1184.329507,10214.842000
4173.540851,153.219100,-888.247130,9844.739029
4173.541166,-766.095498,-0.000000,10362.883188
4173.541482,-459.657299,-0.000000,10140.821405
4173.541797,995.924147,444.123565,9474.636058
4173.542112,1532.190996,518.144159,8956.491898
4173.542428,1225.752797,-0.000000,8956.491898
4173.542743,0.000000,-296.082377,10066.800811
4173.543058,-919.314598,740.205942,9548.656652
4173.543374,-536.266849,592.164754,9474.636058
4173.543689,1225.752797,740.205942,9918.759623
4173.544005,1455.581446,592.164754,9326.594869
4173.544320,2298.286494,-222.061783,9622.677246
4173.544635,766.095498,-296.082377,9770.718434
4173.544951,-306.438199,444.123565,10140.821405
4173.545266,-536.266849,814.226536,9844.739029
4173.545581,612.876398,592.164754,9178.553681
4173.545897,2145.067394,222.061783,8512.368333
4173.546212,1838.629195,-444.123565,8142.265362
4173.546528,842.705048,-888.247130,9326.594869
4173.546843,-842.705048,-296.082377,9622.677246
4173.547158,-1149.143247,296.082377,10066.800811
4173.547474,76.609550,370.102971,9400.615463
4173.547789,766.095498,-0.000000,8882.471304
4173.548104,1225.752797,-740.205942,8956.491898
4173.548420,612.876398,-1628.453072,9548.656652
4173.548735,-612.876398,-518.144159,10362.883188
4173.549050,-2068.457845,296.082377,10288.862594
4173.549366,-995.924147,888.247130,9400.615463
4173.549681,766.095498,518.144159,9400.615463
4173.549996,1149.143247,-0.000000,9104.533087
4173.550312,459.657299,-740.205942,9326.594869
4173.550627,-766.095498,-666.185348,9844.739029
4173.550942,-1685.410096,222.061783,10214.842000
4173.551258,-1378.971896,518.144159,9992.780217
4173.551573,-536.266849,370.102971,9474.636058
4173.551888,459.657299,-0.000000,9474.636058
4173.552204,536.266849,-962.267725,9474.636058
4173.552519,-536.266849,-1036.288319,10584.944971
4173.552834,-1762.019645,-0.000000,10214.842000
4173.553150,-1915.238745,962.267725,9992.780217
4173.553465,0.000000,1406.391290,9474.636058
4173.553780,842.705048,518.144159,8808.450710
4173.554096,1072.533697,-0.000000,8956.491898
4173.554411,459.657299,-148.041188,9844.739029
4173.554726,-1455.581446,1036.288319,10140.821405
4173.555042,-1225.752797,1776.494261,10362.883188
4173.555357,-459.657299,1184.329507,9622.677246
4173.555672,306.438199,888.247130,9474.636058
4173.555988,612.876398,-148.041188,9622.677246
4173.556303,0.000000,-888.247130,11029.068536
4173.556618,-1072.533697,-0.000000,10658.965565
4173.556934,-1762.019645,888.247130,10066.800811
4173.557249,0.000000,1554.432478,9474.636058
4173.557564,1915.238745,1406.391290,8364.327145
4173.557880,2604.724693,740.205942,8068.244768
4173.558195,2451.505594,518.144159,8734.430116
4173.558510,1608.800546,-0.000000,9326.594869
4173.558826,0.000000,1184.329507,9178.553681
4173.559141,-306.438199,888.247130,9104.533087
4173.559456,766.095498,666.185348,8808.450710
4173.559772,1149.143247,-222.061783,9474.636058
4173.560087,306.438199,-1554.432478,9548.656652
4173.560402,-689.485948,-1480.411884,10881.027347
4173.560718,-2145.067394,-370.102971,10807.006753
4173.561033,-1532.190996,814.226536,10510.924376
4173.561348,-153.219100,1258.350101,9548.656652
4173.561664,1302.362347,444.123565,9326.594869
4173.561979,2221.676944,-0.000000,9474.636058
4173.562294,995.924147,-0.000000,9622.677246
4173.562610,0.000000,1036.288319,9400.615463
4173.562925,-306.438199,1036.288319,9548.656652
4173.563240,689.485948,1554.432478,8956.491898
4173.563556,1685.410096,518.144159,9400.615463
4173.563871,1915.238745,-296.082377,9474.636058
4173.564186,459.657299,-1406.391290,10510.924376
4173.564502,-995.924147,-814.226536,10140.821405
4173.564817,-1608.800546,222.061783,10584.944971
4173.565132,-766.095498,518.144159,9918.759623
4173.565448,995.924147,-0.000000,9326.594869
4173.565763,1225.752797,-148.041188,8808.450710
4173.566078,1149.143247,-814.226536,9474.636058
4173.566394,229.828649,370.102971,9622.677246
4173.566709,-919.314598,1184.329507,9918.759623
4173.567024,-689.485948,1332.370696,10584.944971
4173.567340,995.924147,1332.370696,9030.512492
4173.567655,1455.581446,-0.000000,8808.450710
4173.567970,995.924147,-962.267725,9474.636058
4173.568286,0.000000,-1258.350101,10288.862594
4173.568601,-1225.752797,-148.041188,9622.677246
4173.568916,-1302.362347,-74.020594,9844.739029
4173.569232,-459.657299,222.061783,8808.450710
4173.569547,689.485948,-666.185348,8808.450710
4173.569862,459.657299,-1406.391290,8808.450710
4173.570178,-459.657299,-1702.473667,9474.636058
4173.570493,-2145.067394,-222.061783,9696.697840
4173.570808,-1685.410096,-296.082377,9696.697840
4173.571124,-306.438199,-0.000000,9474.636058
4173.571439,689.485948,-0.000000,9178.553681
4173.571754,1072.533697,-296.082377,9252.574275
4173.572070,229.828649,-888.247130,10140.821405
4173.572385,-766.095498,-222.061783,9918.759623
4173.572700,-1225.752797,222.061783,10362.883188
4173.573016,-459.657299,740.205942,9770.718434
4173.573331,842.705048,666.185348,9030.512492
4173.573646,842.705048,-296.082377,9030.512492
4173.573962,459.657299,-1184.329507,9178.553681
4173.574277,-766.095498,-666.185348,9844.739029
4173.574592,-1608.800546,296.082377,9696.697840
4173.574908,-766.095498,-0.000000,10658.965565
4173.575223,0.000000,1184.329507,8364.327145
4173.575538,1225.752797,-740.205942,8512.368333
4173.575854,1532.190996,-1110.308913,9992.780217
4173.576169,-76.609550,-518.144159,9474.636058
4173.576484,-842.705048,-148.041188,10362.883188
4173.576800,-306.438199,1110.308913,9326.594869
4173.577115,689.485948,1776.494261,8586.388927
4173.577430,1915.238745,1184.329507,9178.553681
4173.577746,1532.190996,888.247130,9326.594869
4173.578061,612.876398,222.061783,9548.656652
4173.578376,-229.828649,962.267725,9548.656652
4173.578692,-1149.143247,1036.288319,10066.800811
4173.579007,0.000000,1258.350101,9548.656652
4173.579322,459.657299,518.144159,9918.759623
4173.579638,842.705048,-296.082377,9326.594869
4173.579953,76.609550,-1332.370696,10955.047942
4173.580268,-536.266849,370.102971,10362.883188
4173.580584,-995.924147,1110.308913,10066.800811
4173.580899,0.000000,1480.411884,9030.512492
4173.581214,1455.581446,814.226536,8808.450710
4173.581530,1838.629195,518.144159,7772.162391
4173.581845,1685.410096,-370.102971,9400.615463
4173.582160,76.609550,962.267725,9474.636058
4173.582476,-766.095498,1480.411884,9992.780217
4173.582791,306.438199,1924.535449,9548.656652
4173.583106,766.095498,1258.350101,9844.739029
4173.583422,766.095498,-222.061783,10214.842000
4173.583737,383.047749,-1406.391290,11177.109724
4173.584052,-766.095498,-222.061783,11177.109724
4173.584368,-1302.362347,518.144159,10658.965565
4173.584683,-459.657299,814.226536,10288.862594
4173.584998,689.485948,888.247130,9622.677246
4173.585314,1608.800546,592.164754,9104.533087
4173.585629,1762.019645,-0.000000,9178.553681
4173.585944,1072.533697,-222.061783,9474.636058
4173.586260,-919.314598,814.226536,9400.615463
4173.586575,-995.924147,1110.308913,9622.677246
4173.586890,306.438199,814.226536,9474.636058
4173.587206,919.314598,-296.082377,9474.636058
4173.587521,536.266849,-1258.350101,9770.718434
4173.587836,76.609550,-1702.473667,10584.944971
4173.588152,-1685.410096,-222.061783,10362.883188
4173.588467,-1762.019645,740.205942,10362.883188
4173.588782,0.000000,1036.288319,9326.594869
4173.589098,766.095498,888.247130,9178.553681
4173.589413,1378.971896,296.082377,8808.450710
4173.589728,1072.533697,-444.123565,9474.636058
4173.590044,-766.095498,370.102971,9326.594869
4173.590359,-1838.629195,444.123565,9918.759623
4173.590674,-919.314598,814.226536,9474.636058
4173.590990,76.609550,222.061783,9104.533087
4173.591305,383.047749,-666.185348,9474.636058
4173.591620,0.000000,-1406.391290,9918.759623
4173.591936,-1762.019645,-1406.391290,10362.883188
4173.592251,-2374.896044,-296.082377,10140.821405
4173.592566,-1302.362347,148.041188,9770.718434
4173.592882,842.705048,222.061783,8438.347739
4173.593197,1838.629195,-0.000000,8586.388927
4173.593512,1532.190996,-888.247130,8438.347739
4173.593828,459.657299,-888.247130,8660.409521
4173.594143,-1072.533697,-0.000000,9400.615463
4173.594458,-1149.143247,296.082377,8882.471304
4173.594774,153.219100,296.082377,9178.553681
4173.595089,459.657299,-222.061783,8734.430116
4173.595404,1072.533697,-1776.494261,9844.739029
4173.595720,0.000000,-1924.535449,10658.965565
4173.596035,-1455.581446,-962.267725,10510.924376
4173.596350,-1302.362347,-0.000000,10584.944971
4173.596666,383.047749,962.267725,9622.677246
4173.596981,1608.800546,1036.288319,8956.491898
4173.597296,2298.286494,296.082377,8364.327145
4173.597612,1378.971896,148.041188,9400.615463
4173.597927,0.000000,814.226536,9548.656652
4173.598242,-536.266849,1406.391290,9474.636058
4173.598558,459.657299,1258.350101,9252.574275
4173.598873,1072.533697,370.102971,8956.491898
4173.599188,995.924147,-518.144159,9918.759623
4173.599504,-306.438199,-1332.370696,11177.109724
4173.599819,-1225.752797,-962.267725,11473.192101
4173.600134,-1838.629195,-0.000000,11029.068536
4173.600450,-612.876398,666.185348,10066.800811
4173.600765,1149.143247,814.226536,9696.697840
4173.601080,2145.067394,1258.350101,8438.347739
4173.601396,1685.410096,296.082377,8956.491898
4173.601711,689.485948,444.123565,9474.636058
4173.602026,0.000000,1998.556043,9400.615463
4173.602342,153.219100,2516.700203,9474.636058
4173.602657,1225.752797,1776.494261,9474.636058
4173.602972,1608.800546,740.205942,9252.574275
4173.603288,1302.362347,-740.205942,9696.697840
4173.603603,0.000000,-740.205942,10362.883188
4173.603918,-1378.971896,-296.082377,11399.171507
4173.604234,-1608.800546,370.102971,10955.047942
4173.604549,0.000000,444.123565,9844.739029
4173.604864,1302.362347,-0.000000,8882.471304
4173.605180,1225.752797,-444.123565,8882.471304
4173.605495,766.095498,-666.185348,9770.718434
4173.605810,-536.266849,148.041188,9474.636058
4173.606126,-995.924147,962.267725,9474.636058
4173.606441,612.876398,1480.411884,9474.636058
4173.606756,1455.581446,888.247130,8734.430116
4173.607072,1608.800546,-0.000000,9400.615463
4173.607387,995.924147,-1036.288319,9844.739029
4173.607702,-536.266849,-74.020594,10584.944971
4173.608018,-1685.410096,-0.000000,10362.883188
4173.608333,-842.705048,1110.308913,10214.842000
4173.608648,153.219100,666.185348,8956.491898
4173.608964,536.266849,-74.020594,9326.594869
4173.609279,383.047749,-1332.370696,9844.739029
4173.609594,-1149.143247,-0.000000,9992.780217
4173.609910,-2145.067394,740.205942,10214.842000
4173.610225,-1762.019645,1184.329507,9252.574275
4173.610540,-842.705048,740.205942,9030.512492
4173.610856,842.705048,296.082377,8882.471304
4173.611171,229.828649,-1258.350101,9696.697840
4173.611486,-766.095498,-888.247130,10584.944971
4173.611802,-2451.505594,-148.041188,10584.944971
4173.612117,-2221.676944,814.226536,9918.759623
4173.612432,-153.219100,592.164754,9252.574275
4173.612748,612.876398,592.164754,8290.306550
4173.613063,842.705048,-370.102971,9178.553681
4173.613378,-229.828649,-666.185348,9030.512492
4173.613694,-1532.190996,740.205942,9104.533087
4173.614009,-1762.019645,1184.329507,9104.533087
4173.614324,-995.924147,592.164754,9030.512492
4173.614640,229.828649,222.061783,8882.471304
4173.614955,842.705048,-888.247130,9474.636058
4173.615270,76.609550,-1776.494261,11029.068536
4173.615586,-995.924147,-370.102971,10584.944971
4173.615901,-2145.067394,-0.000000,10362.883188
4173.616216,-459.657299,814.226536,9696.697840
4173.616532,1455.581446,1036.288319,9104.533087
4173.616847,2374.896044,222.061783,8438.347739
4173.617162,2298.286494,-296.082377,9252.574275
4173.617478,842.705048,-0.000000,9696.697840
4173.617793,-459.657299,1110.308913,9844.739029
4173.618108,0.000000,962.267725,9178.553681
4173.618424,1302.362347,296.082377,9326.594869
4173.618739,1838.629195,-962.267725,10066.800811
4173.619054,1378.971896,-2072.576638,10510.924376
4173.619370,0.000000,-1110.308913,10881.027347
4173.619685,-842.705048,-222.061783,10881.027347
4173.620000,-612.876398,814.226536,10362.883188
4173.620316,1455.581446,1258.350101,9844.739029
4173.620631,2834.553343,740.205942,9178.553681
4173.620946,2987.772442,370.102971,8808.450710
4173.621262,1685.410096,444.123565,9474.636058
4173.621577,689.485948,1332.370696,9696.697840
4173.621892,0.000000,1776.494261,9770.718434
4173.622208,689.485948,1702.473667,9622.677246
4173.622523,1225.752797,666.185348,9400.615463
4173.622838,1455.581446,-740.205942,9770.718434
4173.623154,229.828649,-1850.514855,10807.006753
4173.623469,-1532.190996,-1184.329507,10584.944971
4173.623784,-1762.019645,-592.164754,10955.047942
4173.624100,-612.876398,74.020594,9844.739029
4173.624415,1225.752797,-0.000000,8808.450710
4173.624730,1915.238745,-0.000000,8068.244768
4173.625046,1838.629195,-444.123565,8512.368333
4173.625361,76.609550,518.144159,8882.471304
4173.625676,-842.705048,962.267725,9104.533087
4173.625992,153.219100,1628.453072,9030.512492
4173.626307,842.705048,592.164754,8290.306550
4173.626622,1302.362347,-740.205942,8882.471304
4173.626938,536.266849,-1924.535449,9992.780217
4173.627253,-842.705048,-1036.288319,10584.944971
4173.627568,-2451.505594,-370.102971,11251.130318
4173.627884,-2068.457845,296.082377,10288.862594
4173.628199,0.000000,888.247130,9548.656652
4173.628514,842.705048,444.123565,8808.450710
4173.628830,919.314598,-444.123565,8364.327145
4173.629145,459.657299,-518.144159,9326.594869
4173.629460,-1455.581446,740.205942,9474.636058
4173.629776,-1838.629195,1110.308913,9400.615463
4173.630091,-612.876398,1554.432478,9030.512492
4173.630406,0.000000,370.102971,8882.471304
4173.630722,306.438199,-740.205942,9474.636058
4173.631037,-1072.533697,-1036.288319,11029.068536
4173.631352,-2451.505594,-592.164754,10881.027347
4173.631668,-2987.772442,-0.000000,11029.068536
4173.631983,-1762.019645,592.164754,9844.739029
4173.632298,-229.828649,814.226536,9770.718434
4173.632614,536.266849,444.123565,9252.574275
4173.632929,0.000000,-370.102971,9918.759623
4173.633244,-919.314598,592.164754,10066.800811
4173.633560,-1149.143247,1480.411884,9844.739029
4173.633875,0.000000,1406.391290,9178.553681
4173.634190,919.314598,1554.432478,8734.430116
4173.634506,1302.362347,74.020594,8660.409521
4173.634821,766.095498,-1110.308913,10140.821405
4173.635136,-306.438199,-666.185348,9844.739029
4173.635452,-1149.143247,-0.000000,10436.903782
4173.635767,-612.876398,296.082377,9104.533087
4173.636082,995.924147,222.061783,9474.636058
4173.636398,1685.410096,148.041188,9178.553681
4173.636713,1685.410096,-370.102971,8142.265362
4173.637028,766.095498,-444.123565,9622.677246
4173.637344,-459.657299,814.226536,9696.697840
4173.637659,0.000000,1110.308913,9030.512492
4173.637974,1225.752797,1480.411884,9474.636058
4173.638290,2528.115143,888.247130,8512.368333
4173.638605,2757.943793,-222.061783,9178.553681
4173.638920,1838.629195,-518.144159,11029.068536
4173.639236,0.000000,296.082377,9992.780217
4173.639551,-459.657299,1184.329507,10732.986159
4173.639866,995.924147,1258.350101,9770.718434
4173.640182,2298.286494,962.267725,8512.368333
4173.640497,2681.334243,-296.082377,9696.697840
4173.640812,1608.800546,-814.226536,9474.636058
4173.641128,-153.219100,-0.000000,9548.656652
4173.641443,-995.924147,666.185348,10140.821405
4173.641758,-229.828649,814.226536,9326.594869
4173.642074,995.924147,370.102971,9252.574275
4173.642389,1302.362347,-222.061783,9326.594869
4173.642704,995.924147,-1036.288319,10140.821405
4173.643020,0.000000,-962.267725,10510.924376
4173.643335,-1455.581446,-0.000000,10807.006753
4173.643650,-612.876398,962.267725,10066.800811
4173.643966,612.876398,1036.288319,9548.656652
4173.644281,1455.581446,444.123565,8734.430116
4173.644596,1532.190996,-518.144159,9474.636058
4173.644912,459.657299,-666.185348,9918.759623
4173.645227,-1455.581446,222.061783,9844.739029
4173.645542,-1378.971896,-0.000000,9844.739029
4173.645858,-306.438199,518.144159,8956.491898
4173.646173,1072.533697,-74.020594,8734.430116
4173.646488,1225.752797,-1406.391290,9030.512492
4173.646804,459.657299,-1480.411884,9548.656652
4173.647119,-689.485948,-444.123565,9844.739029
4173.647434,-1149.143247,-222.061783,9918.759623
4173.647750,-76.609550,370.102971,8956.491898
4173.648065,766.095498,148.041188,8438.347739
4173.648380,612.876398,-666.185348,8512.368333
4173.648695,0.000000,-1184.329507,9770.718434
4173.649011,-1608.800546,-370.102971,10066.800811
4173.649326,-2221.676944,296.082377,9918.759623
4173.649641,-1378.971896,444.123565,9992.780217
4173.649956,-612.876398,740.205942,9622.677246
4173.650272,0.000000,-0.000000,9400.615463
4173.650587,-536.266849,-1554.432478,10584.944971
4173.650902,-1455.581446,-1110.308913,11029.068536
4173.651217,-1991.848295,370.102971,11103.089130
4173.651533,-1532.190996,1036.288319,9622.677246
4173.651848,0.000000,962.267725,9252.574275
4173.652163,919.314598,518.144159,8586.388927
4173.652478,229.828649,-1036.288319,8882.471304
4173.652794,-689.485948,-296.082377,9400.615463
4173.653109,-1762.019645,222.061783,9918.759623
4173.653424,-1225.752797,666.185348,9844.739029
4173.653739,0.000000,814.226536,8660.409521
4173.654054,766.095498,444.123565,8734.430116
4173.654370,536.266849,-1110.308913,9548.656652
4173.654685,-229.828649,-888.247130,10436.903782
4173.655000,-1149.143247,-592.164754,10140.821405
4173.655315,-766.095498,296.082377,10436.903782
4173.655631,612.876398,1406.391290,8734.430116
4173.655946,1149.143247,1184.329507,9104.533087
4173.656261,1302.362347,592.164754,8882.471304
4173.656576,919.314598,-370.102971,9548.656652
4173.656892,459.657299,888.247130,9178.553681
4173.657207,-229.828649,888.247130,9400.615463
4173.657522,689.485948,888.247130,8882.471304
4173.657837,1915.238745,740.205942,8956.491898
4173.658153,1685.410096,222.061783,8808.450710
4173.658468,1608.800546,-740.205942,10066.800811
4173.658783,-306.438199,-0.000000,9918.759623
4173.659098,-1149.143247,222.061783,10288.862594
4173.659413,306.438199,1110.308913,9474.636058
4173.659729,1225.752797,1258.350101,8734.430116
4173.660044,1685.410096,740.205942,8512.368333
4173.660359,1455.581446,-370.102971,9548.656652
4173.660674,0.000000,518.144159,9918.759623
4173.660990,-766.095498,888.247130,10584.944971
4173.661305,-612.876398,1036.288319,9474.636058
4173.661620,1302.362347,1554.432478,9400.615463
4173.661935,1685.410096,814.226536,9696.697840
4173.662251,1302.362347,-222.061783,10214.842000
4173.662566,536.266849,-0.000000,10510.924376
4173.662881,0.000000,370.102971,10658.965565
4173.663196,0.000000,814.226536,9770.718434
4173.663512,1149.143247,1406.391290,9400.615463
4173.663827,1915.238745,1110.308913,8882.471304
4173.664142,1225.752797,-0.000000,9696.697840
4173.664457,459.657299,-222.061783,9844.739029
4173.664772,-689.485948,-0.000000,9992.780217
4173.665088,-1532.190996,148.041188,10436.903782
4173.665403,76.609550,370.102971,9770.718434
4173.665718,919.314598,370.102971,9104.533087
4173.666033,1225.752797,-666.185348,9326.594869
4173.666349,536.266849,-1406.391290,10436.903782
4173.666664,-995.924147,-148.041188,10584.944971
4173.666979,-1608.800546,222.061783,10140.821405
4173.667294,-383.047749,740.205942,9474.636058
4173.667610,1072.533697,962.267725,8956.491898
4173.667925,1149.143247,370.102971,8660.409521
4173.668240,689.485948,-444.123565,9326.594869
4173.668555,-842.705048,-222.061783,10066.800811
4173.668871,-1378.971896,-592.164754,9918.759623
4173.669186,-1149.143247,-74.020594,9474.636058
4173.669501,0.000000,-74.020594,9474.636058
4173.669816,153.219100,-592.164754,8808.450710
4173.670131,-612.876398,-1998.556043,9548.656652
4173.670447,-995.924147,-1258.350101,10288.862594
4173.670762,-2145.067394,-888.247130,9918.759623
4173.671077,-1915.238745,-222.061783,9622.677246
4173.671392,0.000000,-0.000000,9104.533087
4173.671708,995.924147,444.123565,8660.409521
4173.672023,842.705048,-666.185348,8068.244768
4173.672338,0.000000,-1110.308913,8734.430116
4173.672653,-1455.581446,-0.000000,9474.636058
4173.672969,-1378.971896,-0.000000,9770.718434
4173.673284,-153.219100,592.164754,9252.574275
4173.673599,689.485948,222.061783,8882.471304
4173.673914,766.095498,-1110.308913,9548.656652
4173.674230,-229.828649,-1184.329507,9918.759623
4173.674545,-1762.019645,-296.082377,10288.862594
4173.674860,-1532.190996,-148.041188,10436.903782
4173.675175,153.219100,666.185348,9326.594869
4173.675490,1302.362347,1406.391290,8586.388927
4173.675806,1838.629195,592.164754,8142.265362
4173.676121,1225.752797,-444.123565,9326.594869
4173.676436,0.000000,-0.000000,9622.677246
4173.676751,-919.314598,296.082377,9474.636058
4173.677067,-229.828649,740.205942,9326.594869
4173.677382,1149.143247,666.185348,9474.636058
4173.677697,1608.800546,-0.000000,9400.615463
4173.678012,1225.752797,-518.144159,9474.636058
4173.678328,842.705048,-814.226536,11325.150913
4173.678643,-1302.362347,1184.329507,9992.780217
4173.678958,-536.266849,666.185348,10288.862594
4173.679273,1762.019645,1332.370696,9622.677246
4173.679589,2221.676944,1332.370696,8364.327145
4173.679904,1532.190996,-74.020594,9622.677246
4173.680219,766.095498,148.041188,10510.924376
4173.680534,-1532.190996,814.226536,10584.944971
4173.680849,-1302.362347,888.247130,10881.027347
4173.681165,842.705048,888.247130,9844.739029
4173.681480,1455.581446,740.205942,9474.636058
4173.681795,1838.629195,-148.041188,9918.759623
4173.682110,689.485948,-518.144159,10807.006753
4173.682426,-689.485948,222.061783,10362.883188
4173.682741,-612.876398,592.164754,10510.924376
4173.683056,536.266849,1406.391290,9030.512492
4173.683371,2298.286494,1184.329507,9104.533087
4173.683687,2374.896044,666.185348,8734.430116
4173.684002,1149.143247,-444.123565,9400.615463
4173.684317,306.438199,518.144159,9770.718434
4173.684632,-995.924147,370.102971,9770.718434
4173.684948,-229.828649,962.267725,9252.574275
4173.685263,766.095498,1184.329507,9104.533087
4173.685578,995.924147,-0.000000,9104.533087
4173.685893,919.314598,-1184.329507,10140.821405
4173.686208,-766.095498,-666.185348,10510.924376
4173.686524,-1762.019645,-222.061783,10288.862594
4173.686839,-1072.533697,740.205942,9992.780217
4173.687154,383.047749,814.226536,9178.553681
4173.687469,1685.410096,370.102971,8808.450710
4173.687785,1225.752797,-74.020594,9104.533087
4173.688100,0.000000,-0.000000,9400.615463
4173.688415,-1685.410096,296.082377,9326.594869
4173.688730,-2145.067394,518.144159,9770.718434
4173.689046,-536.266849,740.205942,9326.594869
4173.689361,306.438199,-296.082377,8290.306550
4173.689676,0.000000,-1554.432478,9326.594869
4173.689991,-919.314598,-1628.453072,9918.759623
4173.690307,-1915.238745,-962.267725,9844.739029
4173.690622,-1991.848295,-296.082377,10140.821405
4173.690937,-383.047749,740.205942,9252.574275
4173.691252,612.876398,666.185348,8216.285956
4173.691567,1378.971896,666.185348,7920.203579
4173.691883,612.876398,-222.061783,8956.491898
4173.692198,-689.485948,148.041188,9474.636058
4173.692513,-1378.971896,444.123565,9474.636058
4173.692828,-766.095498,592.164754,9178.553681
4173.693144,383.047749,296.082377,9474.636058
4173.693459,612.876398,-888.247130,9844.739029
4173.693774,0.000000,-1480.411884,10140.821405
4173.694089,-1608.800546,-1110.308913,10584.944971
4173.694405,-2298.286494,-740.205942,11177.109724
4173.694720,-919.314598,148.041188,9992.780217
4173.695035,842.705048,740.205942,8882.471304
4173.695350,2068.457845,1036.288319,8216.285956
4173.695666,1991.848295,-0.000000,8586.388927
4173.695981,919.314598,-0.000000,9918.759623
4173.696296,-612.876398,962.267725,9992.780217
4173.696611,-919.314598,1258.350101,9696.697840
4173.696926,1225.752797,1924.535449,9474.636058
4173.697242,1762.019645,666.185348,9178.553681
4173.697557,1455.581446,-444.123565,10214.842000
4173.697872,0.000000,-740.205942,10584.944971
4173.698187,-1302.362347,-444.123565,11103.089130
4173.698503,-1302.362347,222.061783,11103.089130
4173.698818,153.219100,1110.308913,9770.718434
4173.699133,1608.800546,962.267725,8956.491898
4173.699448,1915.238745,-0.000000,9326.594869
4173.699764,919.314598,-370.102971,9474.636058
4173.700079,-766.095498,-0.000000,9844.739029
4173.700394,-995.924147,518.144159,10214.842000
4173.700709,76.609550,1480.411884,9474.636058
4173.701025,1685.410096,740.205942,9178.553681
4173.701340,1991.848295,148.041188,8660.409521
4173.701655,1378.971896,-1258.350101,9992.780217
4173.701970,-536.266849,-592.164754,10436.903782
4173.702285,-1302.362347,-296.082377,10584.944971
4173.702601,-459.657299,296.082377,9622.677246
4173.702916,1225.752797,444.123565,9030.512492
4173.703231,1455.581446,370.102971,8882.471304
4173.703546,1302.362347,-666.185348,9252.574275
4173.703862,0.000000,-148.041188,9474.636058
4173.704177,-1149.143247,222.061783,9178.553681
4173.704492,-536.266849,814.226536,9474.636058
4173.704807,766.095498,962.267725,9030.512492
4173.705123,1225.752797,-0.000000,9030.512492
4173.705438,1225.752797,-222.061783,9400.615463
4173.705753,0.000000,-962.267725,9770.718434
4173.706068,-1378.971896,-296.082377,10214.842000
4173.706384,-1302.362347,296.082377,10658.965565
4173.706699,383.047749,1036.288319,9104.533087
4173.707014,842.705048,370.102971,8734.430116
4173.707329,1225.752797,-444.123565,8808.450710
4173.707644,383.047749,-148.041188,9622.677246
4173.707960,-1532.190996,296.082377,9326.594869
4173.708275,-2068.457845,666.185348,10140.821405
4173.708590,-842.705048,1036.288319,8956.491898
4173.708905,0.000000,592.164754,8882.471304
4173.709221,383.047749,-518.144159,9400.615463
4173.709536,-612.876398,-1702.473667,10732.986159
4173.709851,-2145.067394,-592.164754,10955.047942
4173.710166,-2451.505594,296.082377,10658.965565
4173.710482,-1455.581446,1110.308913,9992.780217
4173.710797,689.485948,1036.288319,9474.636058
4173.711112,995.924147,-0.000000,8586.388927
4173.711427,612.876398,-0.000000,9474.636058
4173.711743,-689.485948,370.102971,9844.739029
4173.712058,-1149.143247,666.185348,9696.697840
4173.712373,-766.095498,814.226536,9696.697840
4173.712688,612.876398,962.267725,9252.574275
4173.713003,1072.533697,518.144159,9178.553681
4173.713319,612.876398,-740.205942,9844.739029
4173.713634,0.000000,-1036.288319,10288.862594
4173.713949,-1302.362347,-148.041188,10362.883188
4173.714264,-1302.362347,518.144159,10066.800811
4173.714580,306.438199,962.267725,9622.677246
4173.714895,1532.190996,666.185348,9178.553681
4173.715210,2145.067394,-0.000000,8808.450710
4173.715525,1302.362347,-444.123565,9918.759623
4173.715841,0.000000,1036.288319,9992.780217
4173.716156,0.000000,1480.411884,9548.656652
4173.716471,689.485948,1702.473667,9104.533087
4173.716786,1532.190996,1110.308913,8956.491898
4173.717102,1838.629195,-222.061783,9326.594869
4173.717417,536.266849,-740.205942,10732.986159
4173.717732,-612.876398,-518.144159,10732.986159
4173.718047,-1072.533697,-0.000000,10362.883188
4173.718362,76.609550,-0.000000,9844.739029
4173.718678,1838.629195,518.144159,9104.533087
4173.718993,1455.581446,222.061783,8956.491898
4173.719308,1072.533697,-444.123565,9252.574275
4173.719623,0.000000,-370.102971,9474.636058
4173.719939,-842.705048,222.061783,8734.430116
4173.720254,-459.657299,666.185348,9326.594869
4173.720569,842.705048,814.226536,9548.656652
4173.720884,1225.752797,-0.000000,8512.368333
4173.721200,919.314598,-1036.288319,9696.697840
4173.721515,-459.657299,-1110.308913,10066.800811
4173.721830,-1302.362347,-666.185348,10807.006753
4173.722145,-229.828649,-0.000000,10510.924376
4173.722461,689.485948,888.247130,9400.615463
4173.722776,1838.629195,444.123565,8734.430116
4173.723091,1991.848295,-444.123565,8364.327145
4173.723406,612.876398,-1036.288319,9548.656652
4173.723721,-536.266849,222.061783,9178.553681
4173.724037,-536.266849,-148.041188,8882.471304
4173.724352,1149.143247,370.102971,8438.347739
4173.724667,995.924147,296.082377,8882.471304
4173.724982,1455.581446,-592.164754,9326.594869
4173.725298,383.047749,-888.247130,9992.780217
4173.725613,0.000000,-666.185348,9992.780217
4173.725928,-1378.971896,-296.082377,10658.965565
4173.726243,-229.828649,666.185348,9918.759623
4173.726559,1072.533697,740.205942,9474.636058
4173.726874,689.485948,370.102971,9030.512492
4173.727189,76.609550,-0.000000,9622.677246
4173.727504,-766.095498,296.082377,9548.656652
4173.727820,-1838.629195,962.267725,9844.739029
4173.728135,-1378.971896,1110.308913,9770.718434
4173.728450,0.000000,1184.329507,9252.574275
4173.728765,0.000000,740.205942,9548.656652
4173.729080,-229.828649,-1184.329507,10066.800811
4173.729396,-1225.752797,-1184.329507,10658.965565
4173.729711,-2221.676944,-592.164754,10881.027347
4173.730026,-2068.457845,-0.000000,10140.821405
4173.730341,0.000000,296.082377,8956.491898
4173.730657,995.924147,1110.308913,8068.244768
4173.730972,1302.362347,444.123565,8734.430116
4173.731287,536.266849,-0.000000,9696.697840
4173.731602,-1149.143247,1110.308913,8956.491898
4173.731918,-919.314598,666.185348,9844.739029
4173.732233,306.438199,1184.329507,9474.636058
4173.732548,995.924147,666.185348,9104.533087
4173.732863,1378.971896,-74.020594,9696.697840
4173.733179,0.000000,-666.185348,10881.027347
4173.733494,-1302.362347,-592.164754,11547.212695
4173.733809,-1685.410096,-74.020594,11177.109724
4173.734124,-383.047749,444.123565,10140.821405
4173.734439,1072.533697,-0.000000,9548.656652
4173.734755,1455.581446,444.123565,8808.450710
4173.735070,1762.019645,-0.000000,9104.533087
4173.735385,689.485948,518.144159,9104.533087
4173.735700,229.828649,888.247130,9104.533087
4173.736016,1302.362347,1184.329507,8808.450710
4173.736331,2451.505594,1258.350101,8290.306550
4173.736646,2987.772442,666.185348,7846.182985
4173.736961,2221.676944,-814.226536,9474.636058
4173.737277,-306.438199,-962.267725,10658.965565
4173.737592,-1685.410096,-444.123565,10732.986159
4173.737907,-1455.581446,-0.000000,10362.883188
4173.738222,0.000000,-0.000000,10066.800811
4173.738538,612.876398,370.102971,9770.718434
4173.738853,536.266849,-296.082377,10214.842000
4173.739168,-536.266849,-148.041188,10436.903782
4173.739483,-1532.190996,666.185348,10436.903782
4173.739798,-689.485948,1184.329507,10214.842000
4173.740114,1072.533697,1036.288319,8956.491898
4173.740429,2298.286494,888.247130,8660.409521
4173.740744,2374.896044,-0.000000,9030.512492
4173.741059,1225.752797,-370.102971,9104.533087
4173.741375,-306.438199,-0.000000,9474.636058
4173.741690,-995.924147,-0.000000,9400.615463
4173.742005,153.219100,-0.000000,9548.656652
4173.742320,766.095498,-370.102971,9030.512492
4173.742636,689.485948,-1110.308913,8734.430116
4173.742951,-612.876398,-1702.473667,10140.821405
4173.743266,-1762.019645,-1184.329507,10214.842000
4173.743581,-1991.848295,-148.041188,10362.883188
4173.743897,-689.485948,666.185348,9918.759623
4173.744212,1378.971896,592.164754,9178.553681
4173.744527,2298.286494,-0.000000,9622.677246
4173.744842,1302.362347,-444.123565,10214.842000
4173.745157,-306.438199,-0.000000,10066.800811
4173.745473,-1455.581446,814.226536,10140.821405
4173.745788,-689.485948,814.226536,9918.759623
4173.746103,842.705048,666.185348,9474.636058
4173.746418,1072.533697,-0.000000,8882.471304
4173.746734,229.828649,-740.205942,9400.615463
4173.747049,-1608.800546,-1036.288319,10140.821405
4173.747364,-2987.772442,-962.267725,9992.780217
4173.747679,-2145.067394,-518.144159,9844.739029
4173.747995,-689.485948,370.102971,9326.594869
4173.748310,-153.219100,-74.020594,8956.491898
4173.748625,-153.219100,-1480.411884,9622.677246
4173.748940,-995.924147,-1406.391290,10510.924376
4173.749256,-1685.410096,-296.082377,10362.883188
4173.749571,-1915.238745,296.082377,10362.883188
4173.749886,0.000000,1258.350101,9474.636058
4173.750201,1378.971896,1332.370696,8438.347739
4173.750517,1991.848295,370.102971,8956.491898
4173.750832,459.657299,-148.041188,9844.739029
4173.751147,-919.314598,296.082377,9622.677246
4173.751463,-1378.971896,592.164754,9918.759623
4173.751778,0.000000,666.185348,9400.615463
4173.752093,1378.971896,296.082377,8734.430116
4173.752408,1685.410096,-444.123565,8438.347739
4173.752724,919.314598,-1702.473667,9918.759623
4173.753039,-536.266849,-1110.308913,10066.800811
4173.753354,-1225.752797,-370.102971,10066.800811
4173.753669,306.438199,592.164754,9030.512492
4173.753985,2145.067394,1184.329507,7846.182985
4173.754300,2451.505594,666.185348,8142.265362
4173.754615,2145.067394,-0.000000,8882.471304
4173.754930,995.924147,-0.000000,9474.636058
4173.755246,-383.047749,666.185348,9326.594869
4173.755561,-229.828649,1184.329507,9474.636058
4173.755876,1072.533697,1332.370696,9622.677246
4173.756192,1685.410096,740.205942,9252.574275
4173.756507,1149.143247,-0.000000,9992.780217
4173.756822,383.047749,-370.102971,10807.006753
4173.757137,-1378.971896,222.061783,11177.109724
4173.757453,-1225.752797,1110.308913,10881.027347
4173.757768,459.657299,1480.411884,9696.697840
4173.758083,1838.629195,1110.308913,9178.553681
4173.758398,1378.971896,222.061783,8734.430116
4173.758714,689.485948,-0.000000,10658.965565
4173.759029,-842.705048,962.267725,10362.883188
4173.759344,-1302.362347,1480.411884,10288.862594
4173.759659,383.047749,1406.391290,9770.718434
4173.759975,1302.362347,888.247130,9178.553681
4173.760290,1302.362347,222.061783,9770.718434
4173.760605,306.438199,-740.205942,10807.006753
4173.760921,-842.705048,-0.000000,10362.883188
4173.761236,-1302.362347,296.082377,10881.027347
4173.761551,-306.438199,1258.350101,10288.862594
4173.761866,1072.533697,814.226536,9622.677246
4173.762182,919.314598,740.205942,9252.574275
4173.762497,612.876398,-0.000000,9548.656652
4173.762812,-612.876398,-0.000000,9844.739029
4173.763127,-1455.581446,814.226536,9548.656652
4173.763443,-995.924147,592.164754,10140.821405
4173.763758,612.876398,370.102971,9770.718434
4173.764073,1225.752797,-0.000000,9030.512492
4173.764389,919.314598,-1332.370696,9474.636058
4173.764704,-689.485948,-1110.308913,9844.739029
4173.765019,-2068.457845,-222.061783,9992.780217
4173.765334,-1378.971896,-0.000000,9770.718434
4173.765650,153.219100,222.061783,9104.533087
4173.765965,919.314598,-148.041188,8142.265362
4173.766280,536.266849,-1036.288319,8290.306550
4173.766595,-536.266849,-1036.288319,9474.636058
4173.766911,-1838.629195,-370.102971,9696.697840
4173.767226,-1915.238745,-296.082377,9400.615463
4173.767541,536.266849,296.082377,8512.368333
4173.767856,919.314598,370.102971,9178.553681
4173.768172,995.924147,-370.102971,9178.553681
4173.768487,306.438199,-814.226536,10214.842000
4173.768802,-1072.533697,-740.205942,9992.780217
4173.769118,-1072.533697,-0.000000,9992.780217
4173.769433,-536.266849,-0.000000,9918.759623
4173.769748,1149.143247,-0.000000,8882.471304
4173.770063,919.314598,-74.020594,8734.430116
4173.770379,76.609550,-1628.453072,9474.636058
4173.770694,-995.924147,-1776.494261,9622.677246
4173.771009,-1378.971896,-592.164754,9696.697840
4173.771324,-766.095498,-0.000000,9474.636058
4173.771640,766.095498,592.164754,8364.327145
4173.771955,1302.362347,-0.000000,8660.409521
4173.772270,1302.362347,-888.247130,9622.677246
4173.772585,459.657299,-592.164754,10066.800811
4173.772901,-1072.533697,222.061783,9918.759623
4173.773216,-306.438199,518.144159,9696.697840
4173.773531,1225.752797,1036.288319,8956.491898
4173.773847,1762.019645,740.205942,8808.450710
4173.774162,1532.190996,-296.082377,9400.615463
4173.774477,306.438199,-592.164754,10066.800811
4173.774792,-1302.362347,666.185348,10066.800811
4173.775108,-1072.533697,370.102971,10140.821405
4173.775423,612.876398,666.185348,9474.636058
4173.775738,1225.752797,-0.000000,9474.636058
4173.776053,1302.362347,-518.144159,9622.677246
4173.776369,919.314598,-740.205942,10436.903782
4173.776684,-842.705048,-0.000000,10510.924376
4173.776999,-689.485948,814.226536,9918.759623
4173.777315,383.047749,1036.288319,9844.739029
4173.777630,1915.238745,1258.350101,8512.368333
4173.777945,2068.457845,296.082377,8586.388927
4173.778260,1455.581446,222.061783,9400.615463
4173.778576,-306.438199,370.102971,10288.862594
4173.778891,-1532.190996,1184.329507,10140.821405
4173.779206,-536.266849,1702.473667,10732.986159
4173.779521,306.438199,1036.288319,9770.718434
4173.779837,1225.752797,-0.000000,9622.677246
4173.780152,1072.533697,-222.061783,10807.006753
4173.780467,0.000000,518.144159,11029.068536
4173.780782,-1072.533697,1258.350101,10658.965565
4173.781098,76.609550,1702.473667,9992.780217
4173.781413,1455.581446,1554.432478,9030.512492
4173.781728,2068.457845,814.226536,8290.306550
4173.782044,1762.019645,-0.000000,9030.512492
4173.782359,0.000000,222.061783,9474.636058
4173.782674,-1378.971896,296.082377,9178.553681
4173.782989,-1378.971896,-0.000000,9474.636058
4173.783305,0.000000,370.102971,9474.636058
4173.783620,536.266849,222.061783,8956.491898
4173.783935,383.047749,-1184.329507,9400.615463
4173.784250,-536.266849,-1036.288319,10436.903782
4173.784566,-1378.971896,-74.020594,10658.965565
4173.784881,-1455.581446,666.185348,9992.780217
4173.785196,0.000000,1184.329507,9252.574275
4173.785512,1455.581446,1110.308913,8364.327145
4173.785827,1762.019645,814.226536,8364.327145
4173.786142,919.314598,222.061783,9252.574275
4173.786457,-919.314598,296.082377,9696.697840
4173.786773,-1915.238745,962.267725,9474.636058
4173.787088,-766.095498,444.123565,9622.677246
4173.787403,383.047749,-0.000000,9104.533087
4173.787718,153.219100,-1036.288319,9252.574275
4173.788034,-459.657299,-1924.535449,9992.780217
4173.788349,-2298.286494,-1184.329507,9844.739029
4173.788664,-2451.505594,-592.164754,10732.986159
4173.788979,-1225.752797,-74.020594,9918.759623
4173.789295,766.095498,740.205942,8438.347739
4173.789610,1302.362347,222.061783,8438.347739
4173.789925,1149.143247,-518.144159,9474.636058
4173.790241,229.828649,-74.020594,8882.471304
4173.790556,-842.705048,814.226536,9474.636058
4173.790871,-995.924147,1258.350101,9474.636058
4173.791186,229.828649,888.247130,9696.697840
4173.791502,1378.971896,444.123565,9622.677246
4173.791817,1149.143247,-1628.453072,9622.677246
4173.792132,0.000000,-1554.432478,11547.212695
4173.792447,-1455.581446,-740.205942,11251.130318
4173.792763,-766.095498,-666.185348,10436.903782
4173.793078,1225.752797,-0.000000,10214.842000
4173.793393,2911.162892,-148.041188,9030.512492
4173.793708,3524.039291,-222.061783,8216.285956
4173.794024,3064.381992,-888.247130,9178.553681
4173.794339,1608.800546,-518.144159,9474.636058
4173.794654,1072.533697,148.041188,9326.594869
4173.794970,2374.896044,-0.000000,9104.533087
4173.795285,3064.381992,-666.185348,9104.533087
4173.795600,3217.601092,-1258.350101,9400.615463
4173.795915,2681.334243,-2072.576638,9622.677246
4173.796231,1225.752797,-1850.514855,11251.130318
4173.796546,842.705048,-1332.370696,11769.274478
4173.796861,1685.410096,-1184.329507,10140.821405
4173.797176,2757.943793,-1110.308913,9844.739029
4173.797492,3600.648841,-592.164754,9918.759623
4173.797807,3600.648841,-2072.576638,9474.636058
4173.798122,3064.381992,-1554.432478,9622.677246
4173.798438,1762.019645,-1406.391290,10066.800811
4173.798753,1685.410096,-888.247130,9400.615463
4173.799068,1991.848295,-666.185348,9400.615463
4173.799383,2374.896044,-1406.391290,8734.430116
4173.799699,3064.381992,-2960.823768,9622.677246
4173.800014,2451.505594,-3627.009116,9696.697840
4173.800329,1915.238745,-3330.926739,10362.883188
4173.800644,1072.533697,-2738.761985,10955.047942
4173.800960,1608.800546,-1332.370696,10066.800811
4173.801275,1991.848295,-1628.453072,9178.553681
4173.801590,2987.772442,-1628.453072,9104.533087
4173.801905,3524.039291,-1850.514855,8808.450710
4173.802221,3294.210641,-2072.576638,8068.244768
4173.802536,2145.067394,-1554.432478,9030.512492
4173.802851,1685.410096,-1184.329507,8512.368333
4173.803167,1225.752797,-1406.391290,8808.450710
4173.803482,1302.362347,-1850.514855,8438.347739
4173.803797,1455.581446,-3108.864956,9400.615463
4173.804112,1378.971896,-3923.091493,9178.553681
4173.804428,689.485948,-3627.009116,9252.574275
4173.804743,-306.438199,-3182.885551,9622.677246
4173.805058,-229.828649,-2516.700203,9622.677246
4173.805373,-76.609550,-1554.432478,9474.636058
4173.805689,689.485948,-2294.638420,9400.615463
4173.806004,1149.143247,-2220.617826,9400.615463
4173.806319,1225.752797,-2146.597232,9252.574275
4173.806635,1532.190996,-1850.514855,8956.491898
4173.806950,1149.143247,-1332.370696,9252.574275
4173.807265,1149.143247,-1258.350101,9104.533087
4173.807580,1762.019645,-1850.514855,9992.780217
4173.807896,2068.457845,-2072.576638,9770.718434
4173.808211,1915.238745,-2738.761985,10214.842000
4173.808526,1685.410096,-3108.864956,10140.821405
4173.808841,1685.410096,-3034.844362,9474.636058
4173.809157,1455.581446,-2812.782580,9474.636058
4173.809472,1608.800546,-2368.659014,9326.594869
4173.809787,1532.190996,-1628.453072,8808.450710
4173.810102,1838.629195,-2146.597232,9474.636058
4173.810418,2528.115143,-1924.535449,9474.636058
4173.810733,2298.286494,-1776.494261,10214.842000
4173.811048,2221.676944,-2442.679609,10658.965565
4173.811364,2451.505594,-2220.617826,10436.903782
4173.811679,3064.381992,-2220.617826,10066.800811
4173.811994,3677.258390,-1702.473667,9326.594869
4173.812309,3830.477490,-888.247130,9252.574275
4173.812625,3447.429741,-296.082377,9400.615463
4173.812940,3064.381992,-296.082377,8882.471304
4173.813255,2604.724693,-370.102971,9474.636058
4173.813570,2528.115143,-888.247130,9770.718434
4173.813886,1685.410096,-2220.617826,10362.883188
4173.814201,1455.581446,-2960.823768,10807.006753
4173.814516,1915.238745,-3478.967927,11177.109724
4173.814831,2451.505594,-3478.967927,10658.965565
4173.815147,2681.334243,-2442.679609,9622.677246
4173.815462,3217.601092,-592.164754,9548.656652
4173.815777,3907.087040,-148.041188,9326.594869
4173.816093,3907.087040,592.164754,8882.471304
4173.816408,3677.258390,296.082377,8290.306550
4173.816723,3140.991542,-222.061783,8956.491898
4173.817038,2757.943793,-1554.432478,9622.677246
4173.817354,2528.115143,-2738.761985,10436.903782
4173.817669,2911.162892,-3404.947333,10288.862594
4173.817984,2911.162892,-3404.947333,10140.821405
4173.818299,2681.334243,-2368.659014,9474.636058
4173.818615,2451.505594,-1850.514855,9326.594869
4173.818930,2145.067394,-814.226536,9178.553681
4173.819245,1915.238745,-666.185348,8512.368333
4173.819561,1225.752797,-222.061783,8142.265362
4173.819876,536.266849,-1702.473667,9918.759623
4173.820191,1072.533697,-3108.864956,10584.944971
4173.820506,1302.362347,-3330.926739,11251.130318
4173.820822,1762.019645,-3923.091493,11547.212695
4173.821137,2451.505594,-4071.132681,11621.233289
4173.821452,3677.258390,-2220.617826,11251.130318
4173.821767,4596.572988,-1628.453072,9770.718434
4173.822083,4290.134789,-518.144159,7772.162391
4173.822398,4213.525239,518.144159,7328.038826
4173.822713,3140.991542,148.041188,5773.606348
4173.823028,2068.457845,-222.061783,6513.812290
4173.823344,766.095498,-1628.453072,7920.203579
4173.823659,-766.095498,-3478.967927,9548.656652
4173.823974,-1608.800546,-4589.276840,10955.047942
4173.824290,-1532.190996,-5255.462188,12731.542202
4173.824605,-1225.752797,-5107.421000,13545.768739
4173.824920,153.219100,-5181.441594,14211.954086
4173.825235,1762.019645,-4145.153275,12509.480420
4173.825551,3830.477490,-2664.741391,10510.924376
4173.825866,5056.230287,-74.020594,8364.327145
4173.826181,5209.449386,2294.638420,6735.874072
4173.826496,4979.620737,2294.638420,5329.482782
4173.826812,4366.744339,1924.535449,5255.462188
4173.827127,2834.553343,592.164754,5255.462188
4173.827442,1149.143247,-1036.288319,7772.162391
4173.827758,-842.705048,-2590.720797,9474.636058
4173.828073,-2451.505594,-5181.441594,11547.212695
4173.828388,-2757.943793,-6735.874072,13249.686362
4173.828703,-2451.505594,-7031.956449,14137.933492
4173.829019,-1072.533697,-6143.709319,13323.706956
4173.829334,383.047749,-4367.215058,12287.418637
4173.829649,2145.067394,-2220.617826,11325.150913
4173.829964,3447.429741,814.226536,8586.388927
4173.830280,4903.011187,2368.659014,6661.853478
4173.830595,5822.325785,2886.803174,6809.894666
4173.830910,6281.983084,2368.659014,6809.894666
4173.831225,5975.544884,1258.350101,7031.956449
4173.831541,4596.572988,-518.144159,8512.368333
4173.831856,3753.867940,-2516.700203,9696.697840
4173.832171,2528.115143,-4145.153275,11399.171507
4173.832487,1685.410096,-5329.482782,11769.274478
4173.832802,1225.752797,-5403.503377,11917.315666
4173.833117,766.095498,-5181.441594,11251.130318
4173.833432,842.705048,-4071.132681,10140.821405
4173.833748,689.485948,-2516.700203,8882.471304
4173.834063,842.705048,-1258.350101,8364.327145
4173.834378,1302.362347,-222.061783,8142.265362
4173.834693,1991.848295,518.144159,7994.224174
4173.835009,2834.553343,222.061783,8512.368333
4173.835324,3140.991542,-0.000000,9474.636058
4173.835639,3447.429741,-74.020594,10584.944971
4173.835954,3294.210641,-1110.308913,11103.089130
4173.836270,3600.648841,-1628.453072,11251.130318
4173.836585,3524.039291,-1850.514855,10955.047942
4173.836900,2911.162892,-1776.494261,10214.842000
4173.837216,2068.457845,-1850.514855,9178.553681
4173.837531,1378.971896,-1554.432478,8438.347739
4173.837846,689.485948,-1850.514855,7846.182985
4173.838161,76.609550,-2220.617826,7698.141797
4173.838477,-383.047749,-2294.638420,8438.347739
4173.838792,-383.047749,-2442.679609,9326.594869
4173.839107,-306.438199,-2664.741391,9474.636058
4173.839422,919.314598,-3034.844362,10214.842000
4173.839738,1915.238745,-2368.659014,10807.006753
4173.840053,2681.334243,-1998.556043,10881.027347
4173.840368,3677.258390,-740.205942,10732.986159
4173.840684,4366.744339,222.061783,9696.697840
4173.840999,4443.353888,1110.308913,8882.471304
4173.841314,3983.696590,962.267725,8290.306550
4173.841629,3447.429741,740.205942,8142.265362
4173.841945,2604.724693,-148.041188,7994.224174
4173.842260,1685.410096,-740.205942,8364.327145
4173.842575,995.924147,-1924.535449,9252.574275
4173.842890,76.609550,-3182.885551,10436.903782
4173.843206,-459.657299,-4219.173869,10955.047942
4173.843521,-766.095498,-4219.173869,10955.047942
4173.843836,-459.657299,-3997.112087,11029.068536
4173.844151,459.657299,-3182.885551,10584.944971
4173.844467,766.095498,-1702.473667,9474.636058
4173.844782,1072.533697,-1184.329507,9178.553681
4173.845097,1378.971896,-370.102971,8364.327145
4173.845413,1378.971896,666.185348,8364.327145
4173.845728,2145.067394,-148.041188,9400.615463
4173.846043,1455.581446,444.123565,9326.594869
4173.846358,689.485948,296.082377,9844.739029
4173.846674,1225.752797,-666.185348,10807.006753
4173.846989,1378.971896,-1628.453072,11029.068536
4173.847304,1455.581446,-2590.720797,11547.212695
4173.847619,1532.190996,-3256.906145,11547.212695
4173.847935,1762.019645,-3182.885551,11177.109724
4173.848250,1915.238745,-2368.659014,10214.842000
4173.848565,1991.848295,-2294.638420,9326.594869
4173.848881,2757.943793,-1628.453072,8438.347739
4173.849196,2911.162892,-1036.288319,8216.285956
4173.849511,3140.991542,-1406.391290,7994.224174
4173.849826,3370.820191,-1036.288319,7328.038826
4173.850142,3907.087040,-962.267725,8290.306550
4173.850457,4136.915689,-1702.473667,9030.512492
4173.850772,3907.087040,-2442.679609,9844.739029
4173.851087,3907.087040,-2442.679609,10584.944971
4173.851403,3983.696590,-3034.844362,10584.944971
4173.851718,3907.087040,-2590.720797,10732.986159
4173.852033,3447.429741,-2368.659014,10288.862594
4173.852349,3524.039291,-1924.535449,9696.697840
4173.852664,3753.867940,-1702.473667,9326.594869
4173.852979,4060.306139,-1924.535449,8438.347739
4173.853294,4213.525239,-2294.638420,8438.347739
4173.853610,4366.744339,-2590.720797,8882.471304
4173.853925,4519.963438,-3034.844362,9252.574275
4173.854240,3907.087040,-3478.967927,9326.594869
4173.854555,3600.648841,-3552.988522,9622.677246
4173.854871,3600.648841,-3330.926739,9770.718434
4173.855186,2987.772442,-3404.947333,9844.739029
4173.855501,2604.724693,-3034.844362,10066.800811
4173.855817,2451.505594,-3182.885551,9696.697840
4173.856132,2068.457845,-2664.741391,9474.636058
4173.856447,1532.190996,-2368.659014,9178.553681
4173.856762,1762.019645,-1998.556043,9474.636058
4173.857078,1455.581446,-2664.741391,9992.780217
4173.857393,1608.800546,-2368.659014,10214.842000
4173.857708,1762.019645,-2738.761985,10066.800811
4173.858023,1302.362347,-3034.844362,10510.924376
4173.858339,1455.581446,-2886.803174,10584.944971
4173.858654,1532.190996,-3404.947333,11399.171507
4173.858969,1532.190996,-3108.864956,10955.047942
4173.859285,1915.238745,-3256.906145,9918.759623
4173.859600,1762.019645,-3034.844362,9178.553681
4173.859915,2221.676944,-2590.720797,8660.409521
4173.860230,2374.896044,-2442.679609,8216.285956
4173.860546,2451.505594,-2072.576638,7624.121203
4173.860861,2221.676944,-1628.453072,7179.997637
4173.861176,1608.800546,-2146.597232,7031.956449
4173.861491,1149.143247,-2072.576638,7328.038826
4173.861807,459.657299,-2294.638420,8142.265362
4173.862122,-459.657299,-2368.659014,8882.471304
4173.862437,-1149.143247,-2368.659014,9622.677246
4173.862753,-1455.581446,-2812.782580,10140.821405
4173.863068,-1608.800546,-2664.741391,10807.006753
4173.863383,-1302.362347,-2072.576638,10955.047942
4173.863698,-1072.533697,-1628.453072,10732.986159
4173.864014,0.000000,-1110.308913,10955.047942
4173.864329,1378.971896,-888.247130,11103.089130
4173.864644,3064.381992,-518.144159,10510.924376
4173.864959,3294.210641,-0.000000,9844.739029
4173.865275,4366.744339,-0.000000,9400.615463
4173.865590,4903.011187,-0.000000,9252.574275
4173.865905,4443.353888,-74.020594,8438.347739
4173.866221,4060.306139,-296.082377,9178.553681
4173.866536,2987.772442,-74.020594,9030.512492
4173.866851,2451.505594,-814.226536,8734.430116
