#time,accel_x,accel_y,accel_z
3578.620256,2604.724693,1850.514855,8290.306550
3578.620570,3140.991542,2590.720797,8438.347739
3578.620884,3294.210641,2886.803174,7994.224174
3578.621199,3064.381992,2960.823768,7994.224174
3578.621513,2451.505594,2516.700203,7920.203579
3578.621827,2068.457845,1924.535449,8882.471304
3578.622141,1302.362347,814.226536,9400.615463
3578.622455,76.609550,-148.041188,9696.697840
3578.622770,-612.876398,-592.164754,10214.842000
3578.623084,-1302.362347,-1332.370696,10510.924376
3578.623398,-1532.190996,-1332.370696,10214.842000
3578.623712,-1532.190996,-1406.391290,10362.883188
3578.624026,-1225.752797,-1036.288319,9548.656652
3578.624340,-689.485948,-888.247130,8734.430116
3578.624655,-153.219100,-370.102971,8512.368333
3578.624969,153.219100,-296.082377,8808.450710
3578.625283,383.047749,-0.000000,9030.512492
3578.625597,229.828649,222.061783,8956.491898
3578.625911,0.000000,-0.000000,9326.594869
3578.626226,229.828649,-222.061783,9770.718434
3578.626540,153.219100,-518.144159,10214.842000
3578.626854,0.000000,-666.185348,10214.842000
3578.627168,0.000000,-814.226536,10362.883188
3578.627482,-689.485948,-666.185348,10214.842000
3578.627797,-459.657299,-666.185348,9844.739029
3578.628111,-919.314598,-1184.329507,9992.780217
3578.628425,-459.657299,-814.226536,9992.780217
3578.628739,-153.219100,-962.267725,9252.574275
3578.629053,0.000000,-1036.288319,9474.636058
3578.629367,0.000000,-1406.391290,9622.677246
3578.629682,-153.219100,-1258.350101,9696.697840
3578.629996,229.828649,-518.144159,9548.656652
3578.630310,229.828649,-296.082377,9696.697840
3578.630624,383.047749,-222.061783,9770.718434
3578.630938,995.924147,296.082377,9622.677246
3578.631253,1302.362347,518.144159,9104.533087
3578.631567,995.924147,222.061783,8586.388927
3578.631881,1149.143247,148.041188,8808.450710
3578.632195,1225.752797,370.102971,8734.430116
3578.632509,1302.362347,-0.000000,8734.430116
3578.632823,1072.533697,-0.000000,9030.512492
3578.633138,459.657299,-148.041188,9252.574275
3578.633452,0.000000,-0.000000,9252.574275
3578.633766,0.000000,-0.000000,9326.594869
3578.634080,842.705048,-0.000000,9178.553681
3578.634394,383.047749,592.164754,9178.553681
3578.634709,306.438199,888.247130,8808.450710
3578.635023,919.314598,888.247130,8734.430116
3578.635337,766.095498,1258.350101,8882.471304
3578.635651,919.314598,1184.329507,8808.450710
3578.635965,459.657299,1110.308913,9474.636058
3578.636279,306.438199,1036.288319,9696.697840
3578.636594,306.438199,1258.350101,10214.842000
3578.636908,306.438199,1184.329507,10436.903782
3578.637222,0.000000,1258.350101,11029.068536
3578.637536,0.000000,1258.350101,10807.006753
3578.637850,0.000000,1036.288319,10362.883188
3578.638165,153.219100,1184.329507,10140.821405
3578.638479,306.438199,1110.308913,10140.821405
3578.638793,459.657299,1184.329507,9622.677246
3578.639107,0.000000,814.226536,9844.739029
3578.639421,0.000000,518.144159,10436.903782
3578.639735,-536.266849,740.205942,10510.924376
3578.640050,-383.047749,592.164754,11177.109724
3578.640364,-229.828649,370.102971,11325.150913
3578.640678,0.000000,666.185348,11103.089130
3578.640992,-306.438199,666.185348,10584.944971
3578.641306,153.219100,814.226536,10436.903782
3578.641621,0.000000,962.267725,10362.883188
3578.641935,383.047749,740.205942,9844.739029
3578.642249,229.828649,888.247130,9992.780217
3578.642563,229.828649,592.164754,9844.739029
3578.642877,0.000000,370.102971,9844.739029
3578.643191,0.000000,-0.000000,10066.800811
3578.643506,-306.438199,-148.041188,9992.780217
3578.643820,0.000000,-370.102971,9918.759623
3578.644134,0.000000,-222.061783,9696.697840
3578.644448,0.000000,-74.020594,9400.615463
3578.644762,76.609550,-74.020594,8882.471304
3578.645077,153.219100,-0.000000,8808.450710
3578.645391,536.266849,-0.000000,8660.409521
3578.645705,306.438199,-148.041188,8734.430116
3578.646019,459.657299,-0.000000,9178.553681
3578.646333,229.828649,-444.123565,9030.512492
3578.646648,229.828649,-740.205942,9400.615463
3578.646962,229.828649,-740.205942,9548.656652
3578.647276,153.219100,-444.123565,8956.491898
3578.647590,383.047749,-222.061783,8956.491898
3578.647904,612.876398,-370.102971,9252.574275
3578.648218,536.266849,-296.082377,9104.533087
3578.648533,0.000000,-444.123565,8660.409521
3578.648847,153.219100,-518.144159,8512.368333
3578.649161,306.438199,-222.061783,9252.574275
3578.649475,0.000000,-666.185348,9030.512492
3578.649789,0.000000,-740.205942,9178.553681
3578.650104,0.000000,-888.247130,9474.636058
3578.650418,-612.876398,-740.205942,9326.594869
3578.650732,-153.219100,-592.164754,9474.636058
3578.651046,0.000000,-592.164754,9548.656652
3578.651360,0.000000,-740.205942,9770.718434
3578.651674,76.609550,-518.144159,9548.656652
3578.651989,0.000000,-518.144159,9326.594869
3578.652303,0.000000,-518.144159,9770.718434
3578.652617,-229.828649,-296.082377,10214.842000
3578.652931,76.609550,-296.082377,9844.739029
3578.653245,-306.438199,-370.102971,9622.677246
3578.653560,-153.219100,-370.102971,9622.677246
3578.653874,76.609550,-370.102971,9622.677246
3578.654188,-229.828649,-962.267725,10214.842000
3578.654502,-229.828649,-296.082377,9918.759623
3578.654816,-153.219100,-296.082377,9548.656652
3578.655130,-306.438199,-0.000000,9548.656652
3578.655445,0.000000,-0.000000,9696.697840
3578.655759,153.219100,-222.061783,9770.718434
3578.656073,306.438199,370.102971,9548.656652
3578.656387,0.000000,666.185348,9400.615463
3578.656701,76.609550,592.164754,9844.739029
3578.657016,76.609550,592.164754,9548.656652
3578.657330,0.000000,296.082377,9548.656652
3578.657644,229.828649,444.123565,9770.718434
3578.657958,306.438199,666.185348,9474.636058
3578.658272,383.047749,1110.308913,9548.656652
3578.658586,153.219100,814.226536,9696.697840
3578.658901,612.876398,1036.288319,9622.677246
3578.659215,229.828649,962.267725,9030.512492
3578.659529,459.657299,1184.329507,9178.553681
3578.659843,306.438199,962.267725,9992.780217
3578.660157,306.438199,888.247130,9696.697840
3578.660471,306.438199,666.185348,9474.636058
3578.660785,229.828649,592.164754,9548.656652
3578.661099,153.219100,518.144159,9696.697840
3578.661413,306.438199,962.267725,9770.718434
3578.661727,0.000000,1036.288319,10140.821405
3578.662041,0.000000,518.144159,9992.780217
3578.662355,229.828649,666.185348,9696.697840
3578.662669,153.219100,888.247130,9992.780217
3578.662983,76.609550,962.267725,10066.800811
3578.663297,306.438199,592.164754,10140.821405
3578.663611,0.000000,370.102971,9918.759623
3578.663925,76.609550,296.082377,9474.636058
3578.664239,229.828649,370.102971,9474.636058
3578.664553,0.000000,-0.000000,9770.718434
3578.664867,76.609550,-0.000000,9844.739029
3578.665181,0.000000,-222.061783,10140.821405
3578.665495,0.000000,-74.020594,9844.739029
3578.665809,-229.828649,-74.020594,9844.739029
3578.666123,0.000000,-222.061783,9474.636058
3578.666437,-536.266849,-222.061783,9844.739029
3578.666751,0.000000,-296.082377,9622.677246
3578.667065,0.000000,-296.082377,9400.615463
3578.667379,306.438199,-222.061783,9696.697840
3578.667693,0.000000,-148.041188,9400.615463
3578.668007,76.609550,-666.185348,9326.594869
3578.668321,0.000000,-148.041188,9548.656652
3578.668635,0.000000,-296.082377,9326.594869
3578.668949,76.609550,-370.102971,9474.636058
3578.669263,76.609550,-222.061783,9548.656652
3578.669577,0.000000,-666.185348,9696.697840
3578.669891,0.000000,-74.020594,9252.574275
3578.670205,76.609550,-74.020594,9030.512492
3578.670519,0.000000,-222.061783,9474.636058
3578.670833,766.095498,-148.041188,9474.636058
3578.671147,383.047749,-296.082377,9474.636058
3578.671461,153.219100,-0.000000,9400.615463
3578.671775,153.219100,-296.082377,9326.594869
3578.672089,306.438199,-0.000000,9474.636058
3578.672403,153.219100,-0.000000,9474.636058
3578.672717,229.828649,-74.020594,9548.656652
3578.673031,153.219100,-0.000000,9400.615463
3578.673345,229.828649,-0.000000,9252.574275
3578.673659,229.828649,-0.000000,9400.615463
3578.673973,153.219100,-0.000000,9622.677246
3578.674287,0.000000,-0.000000,9252.574275
3578.674601,0.000000,-74.020594,9548.656652
3578.674915,306.438199,74.020594,9622.677246
3578.675229,229.828649,-0.000000,9474.636058
3578.675543,612.876398,222.061783,9844.739029
3578.675857,153.219100,148.041188,9548.656652
3578.676171,153.219100,-0.000000,9548.656652
3578.676485,0.000000,296.082377,9548.656652
3578.676799,306.438199,370.102971,9918.759623
3578.677113,229.828649,-0.000000,9548.656652
3578.677427,76.609550,518.144159,9770.718434
3578.677741,76.609550,222.061783,9696.697840
3578.678055,0.000000,370.102971,10066.800811
3578.678369,0.000000,370.102971,9918.759623
3578.678683,0.000000,518.144159,9622.677246
3578.678997,0.000000,296.082377,9770.718434
3578.679311,0.000000,444.123565,9770.718434
3578.679625,0.000000,592.164754,10066.800811
3578.679939,0.000000,592.164754,10066.800811
3578.680253,536.266849,518.144159,10066.800811
3578.680567,76.609550,370.102971,10140.821405
3578.680881,0.000000,814.226536,9918.759623
3578.681195,229.828649,888.247130,10066.800811
3578.681509,383.047749,592.164754,10066.800811
3578.681823,306.438199,592.164754,10140.821405
3578.682137,536.266849,740.205942,9992.780217
3578.682451,76.609550,518.144159,9770.718434
3578.682765,153.219100,592.164754,9770.718434
3578.683079,153.219100,592.164754,9992.780217
3578.683393,0.000000,740.205942,9918.759623
3578.683707,842.705048,666.185348,9696.697840
3578.684021,76.609550,444.123565,9622.677246
3578.684335,76.609550,370.102971,9548.656652
3578.684649,383.047749,592.164754,9696.697840
3578.684963,153.219100,444.123565,9474.636058
3578.685277,0.000000,-74.020594,9622.677246
3578.685591,229.828649,370.102971,9252.574275
3578.685905,0.000000,148.041188,9474.636058
3578.686219,76.609550,-0.000000,9770.718434
3578.686533,536.266849,-0.000000,9252.574275
3578.686847,229.828649,-0.000000,9622.677246
3578.687161,76.609550,296.082377,9326.594869
3578.687475,153.219100,296.082377,9178.553681
3578.687789,383.047749,-0.000000,9400.615463
3578.688103,229.828649,-0.000000,9400.615463
3578.688417,229.828649,-148.041188,9400.615463
3578.688731,76.609550,-0.000000,9252.574275
3578.689045,459.657299,-0.000000,9326.594869
3578.689359,459.657299,-0.000000,9400.615463
3578.689673,76.609550,-444.123565,9326.594869
3578.689987,153.219100,-222.061783,9548.656652
3578.690301,229.828649,-518.144159,9400.615463
3578.690615,306.438199,-518.144159,9400.615463
3578.690929,76.609550,-222.061783,9474.636058
3578.691243,0.000000,-0.000000,9770.718434
3578.691557,76.609550,-0.000000,9696.697840
3578.691871,229.828649,-296.082377,9474.636058
3578.692185,0.000000,-74.020594,9770.718434
3578.692499,153.219100,-74.020594,9918.759623
3578.692813,306.438199,-148.041188,9622.677246
3578.693127,76.609550,-0.000000,9622.677246
3578.693441,76.609550,-0.000000,9474.636058
3578.693755,153.219100,-148.041188,9622.677246
3578.694069,0.000000,-74.020594,9696.697840
3578.694383,306.438199,-222.061783,9696.697840
3578.694697,0.000000,-0.000000,9548.656652
3578.695011,-229.828649,-0.000000,9474.636058
3578.695325,76.609550,-0.000000,9474.636058
3578.695639,-153.219100,-0.000000,9474.636058
3578.695953,0.000000,-0.000000,9770.718434
3578.696267,0.000000,148.041188,9400.615463
3578.696581,0.000000,370.102971,9252.574275
3578.696895,153.219100,-0.000000,9696.697840
3578.697209,0.000000,370.102971,9326.594869
3578.697523,76.609550,148.041188,9252.574275
3578.697837,153.219100,296.082377,9622.677246
3578.698151,0.000000,444.123565,9474.636058
3578.698465,306.438199,370.102971,9548.656652
3578.698779,-306.438199,444.123565,9770.718434
3578.699093,383.047749,296.082377,9844.739029
3578.699407,153.219100,444.123565,9474.636058
3578.699721,689.485948,592.164754,9326.594869
3578.700035,383.047749,222.061783,9770.718434
3578.700349,0.000000,222.061783,9400.615463
3578.700663,229.828649,444.123565,9326.594869
3578.700977,153.219100,296.082377,9622.677246
3578.701291,229.828649,296.082377,9918.759623
3578.701605,383.047749,444.123565,10140.821405
3578.701919,153.219100,296.082377,9918.759623
3578.702233,153.219100,296.082377,10066.800811
3578.702547,0.000000,-0.000000,9770.718434
3578.702861,76.609550,148.041188,9844.739029
3578.703175,383.047749,-0.000000,10288.862594
3578.703489,0.000000,370.102971,10066.800811
3578.703803,0.000000,-0.000000,10140.821405
3578.704117,76.609550,296.082377,9992.780217
3578.704431,229.828649,148.041188,9770.718434
3578.704745,0.000000,370.102971,9992.780217
3578.705059,0.000000,74.020594,10140.821405
3578.705373,76.609550,222.061783,9918.759623
3578.705687,153.219100,-0.000000,9696.697840
3578.706001,0.000000,148.041188,9992.780217
3578.706315,0.000000,222.061783,9474.636058
3578.706629,0.000000,-0.000000,9474.636058
3578.706943,0.000000,-0.000000,9548.656652
3578.707257,-153.219100,-74.020594,9696.697840
3578.707571,0.000000,-148.041188,9696.697840
3578.707885,0.000000,222.061783,9474.636058
3578.708199,0.000000,-0.000000,9400.615463
3578.708513,0.000000,-0.000000,9622.677246
3578.708827,0.000000,-0.000000,9252.574275
3578.709141,153.219100,-148.041188,9252.574275
3578.709455,229.828649,-0.000000,9548.656652
3578.709769,0.000000,-0.000000,8956.491898
3578.710083,0.000000,222.061783,8882.471304
3578.710397,76.609550,296.082377,9030.512492
3578.710711,306.438199,-296.082377,9400.615463
3578.711025,0.000000,-296.082377,8882.471304
3578.711339,0.000000,-148.041188,9178.553681
3578.711653,76.609550,-74.020594,9400.615463
3578.711967,306.438199,-0.000000,9252.574275
3578.712281,612.876398,-222.061783,9548.656652
3578.712595,229.828649,-0.000000,9474.636058
3578.712909,229.828649,-0.000000,9548.656652
3578.713223,383.047749,-74.020594,9178.553681
3578.713537,229.828649,148.041188,9326.594869
3578.713851,383.047749,-0.000000,9844.739029
3578.714165,76.609550,222.061783,9548.656652
3578.714479,0.000000,-0.000000,9622.677246
3578.714793,306.438199,-74.020594,9548.656652
3578.715107,383.047749,-0.000000,9770.718434
3578.715421,612.876398,-0.000000,9992.780217
3578.715735,0.000000,-0.000000,9474.636058
3578.716049,0.000000,-0.000000,10140.821405
3578.716363,153.219100,148.041188,9992.780217
3578.716677,153.219100,-0.000000,9844.739029
3578.716991,229.828649,444.123565,10066.800811
3578.717305,0.000000,-0.000000,9918.759623
3578.717619,0.000000,296.082377,9844.739029
3578.717933,76.609550,148.041188,9770.718434
3578.718247,0.000000,-0.000000,9918.759623
3578.718561,-383.047749,-74.020594,9770.718434
3578.718875,-229.828649,-0.000000,9252.574275
3578.719189,153.219100,444.123565,9474.636058
3578.719503,229.828649,444.123565,9474.636058
3578.719817,76.609550,296.082377,9400.615463
3578.720131,229.828649,-0.000000,9548.656652
3578.720445,153.219100,518.144159,9548.656652
3578.720759,0.000000,740.205942,9474.636058
3578.721073,76.609550,814.226536,9844.739029
3578.721387,0.000000,370.102971,9696.697840
3578.721701,0.000000,222.061783,9326.594869
3578.722015,0.000000,370.102971,9474.636058
3578.722329,383.047749,592.164754,9252.574275
3578.722643,76.609550,592.164754,9474.636058
3578.722957,0.000000,444.123565,9474.636058
3578.723271,0.000000,444.123565,9844.739029
3578.723585,383.047749,518.144159,9474.636058
3578.723899,229.828649,444.123565,9326.594869
3578.724213,383.047749,592.164754,9548.656652
3578.724527,229.828649,296.082377,9844.739029
3578.724841,229.828649,296.082377,9622.677246
3578.725155,383.047749,296.082377,9622.677246
3578.725469,229.828649,222.061783,9918.759623
3578.725783,459.657299,148.041188,9918.759623
3578.726097,306.438199,-0.000000,9400.615463
3578.726411,306.438199,222.061783,9918.759623
3578.726725,153.219100,296.082377,9696.697840
3578.727039,229.828649,-74.020594,9844.739029
3578.727353,229.828649,148.041188,9992.780217
3578.727667,153.219100,-74.020594,9622.677246
3578.727981,76.609550,-0.000000,9622.677246
3578.728295,459.657299,-222.061783,9474.636058
3578.728609,76.609550,-0.000000,9548.656652
3578.728923,0.000000,-222.061783,9844.739029
3578.729237,0.000000,-0.000000,9844.739029
3578.729551,76.609550,222.061783,9474.636058
3578.729865,-76.609550,-0.000000,9400.615463
3578.730179,76.609550,-0.000000,9696.697840
3578.730493,0.000000,-222.061783,9474.636058
3578.730807,0.000000,-74.020594,9548.656652
3578.731121,0.000000,-0.000000,9474.636058
3578.731435,-459.657299,-518.144159,9326.594869
3578.731749,306.438199,-0.000000,9474.636058
3578.732063,459.657299,-0.000000,9474.636058
3578.732377,0.000000,-222.061783,9474.636058
3578.732691,0.000000,-74.020594,9326.594869
3578.733005,0.000000,-0.000000,9178.553681
3578.733319,229.828649,-0.000000,9474.636058
3578.733633,0.000000,-0.000000,9548.656652
3578.733947,0.000000,148.041188,9400.615463
3578.734261,0.000000,-0.000000,9326.594869
3578.734575,-153.219100,-370.102971,9474.636058
3578.734889,459.657299,-0.000000,9178.553681
3578.735203,153.219100,-0.000000,9252.574275
3578.735517,229.828649,370.102971,9474.636058
3578.735831,229.828649,222.061783,9400.615463
3578.736145,76.609550,-0.000000,9474.636058
3578.736459,229.828649,444.123565,9992.780217
3578.736773,229.828649,-0.000000,9770.718434
3578.737087,0.000000,444.123565,9918.759623
3578.737401,229.828649,444.123565,9622.677246
3578.737715,0.000000,-74.020594,9622.677246
3578.738029,153.219100,-0.000000,9918.759623
3578.738343,0.000000,-0.000000,9548.656652
3578.738657,0.000000,-0.000000,9844.739029
3578.738971,612.876398,222.061783,9844.739029
3578.739285,153.219100,-0.000000,9770.718434
3578.739599,0.000000,-74.020594,9474.636058
3578.739913,76.609550,-0.000000,9548.656652
3578.740227,229.828649,296.082377,9844.739029
3578.740541,-229.828649,-0.000000,9474.636058
3578.740855,229.828649,-0.000000,9622.677246
3578.741169,153.219100,-0.000000,9918.759623
3578.741483,306.438199,-0.000000,9696.697840
3578.741797,0.000000,-0.000000,9696.697840
3578.742111,306.438199,-0.000000,9770.718434
3578.742425,306.438199,296.082377,9770.718434
3578.742739,76.609550,-0.000000,9548.656652
3578.743053,76.609550,-0.000000,9548.656652
3578.743367,0.000000,148.041188,9696.697840
3578.743681,459.657299,-0.000000,9400.615463
3578.743995,306.438199,-0.000000,9622.677246
3578.744309,306.438199,222.061783,9696.697840
3578.744623,153.219100,444.123565,9696.697840
3578.744937,153.219100,296.082377,9400.615463
3578.745251,459.657299,148.041188,9400.615463
3578.745565,153.219100,518.144159,9252.574275
3578.745879,459.657299,222.061783,9474.636058
3578.746193,153.219100,-0.000000,9622.677246
3578.746507,0.000000,444.123565,9474.636058
3578.746821,-153.219100,222.061783,9474.636058
3578.747135,383.047749,222.061783,9474.636058
3578.747449,0.000000,148.041188,9622.677246
3578.747763,76.609550,-0.000000,10066.800811
3578.748077,153.219100,-0.000000,9548.656652
3578.748391,0.000000,-148.041188,9474.636058
3578.748705,153.219100,-0.000000,9622.677246
3578.749019,0.000000,-0.000000,9474.636058
3578.749333,153.219100,-0.000000,9696.697840
3578.749647,0.000000,-0.000000,9474.636058
3578.749961,-153.219100,-74.020594,9548.656652
3578.750275,0.000000,-74.020594,9252.574275
3578.750589,229.828649,-0.000000,9474.636058
3578.750903,0.000000,-0.000000,9844.739029
3578.751217,0.000000,-0.000000,9770.718434
3578.751531,0.000000,-74.020594,9474.636058
3578.751845,76.609550,-0.000000,9696.697840
3578.752159,76.609550,-148.041188,9548.656652
3578.752473,153.219100,-0.000000,9696.697840
3578.752787,0.000000,148.041188,9770.718434
3578.753101,0.000000,-74.020594,9474.636058
3578.753415,459.657299,-0.000000,9474.636058
3578.753729,459.657299,-0.000000,9326.594869
3578.754043,153.219100,-74.020594,9474.636058
3578.754357,76.609550,-0.000000,9474.636058
3578.754671,229.828649,-74.020594,9548.656652
3578.754985,153.219100,-0.000000,9548.656652
3578.755299,383.047749,-0.000000,9474.636058
3578.755613,76.609550,-0.000000,9252.574275
3578.755927,459.657299,444.123565,9252.574275
3578.756241,229.828649,296.082377,9474.636058
3578.756555,459.657299,-0.000000,9474.636058
3578.756869,612.876398,370.102971,9696.697840
3578.757183,0.000000,444.123565,9474.636058
3578.757497,0.000000,296.082377,9474.636058
3578.757811,0.000000,-0.000000,9770.718434
3578.758125,153.219100,370.102971,9770.718434
3578.758439,76.609550,296.082377,10214.842000
3578.758753,0.000000,518.144159,9770.718434
3578.759067,-383.047749,296.082377,9178.553681
3578.759381,229.828649,444.123565,9696.697840
3578.759695,76.609550,444.123565,9622.677246
3578.760009,76.609550,-0.000000,9548.656652
3578.760323,0.000000,296.082377,9696.697840
3578.760637,306.438199,-0.000000,9622.677246
3578.760951,229.828649,-0.000000,9992.780217
3578.761265,153.219100,-0.000000,9696.697840
3578.761579,0.000000,148.041188,9844.739029
3578.761893,-306.438199,222.061783,9474.636058
3578.762207,306.438199,222.061783,9548.656652
3578.762521,153.219100,-0.000000,9770.718434
3578.762835,-229.828649,-74.020594,9696.697840
3578.763149,0.000000,74.020594,9992.780217
3578.763463,76.609550,-0.000000,9622.677246
3578.763777,306.438199,222.061783,9622.677246
3578.764091,383.047749,222.061783,9474.636058
3578.764405,306.438199,-0.000000,9548.656652
3578.764719,0.000000,148.041188,9770.718434
3578.765033,0.000000,-0.000000,9474.636058
3578.765348,0.000000,-0.000000,9918.759623
3578.765662,229.828649,-0.000000,9918.759623
3578.765976,153.219100,296.082377,9696.697840
3578.766290,0.000000,370.102971,9400.615463
3578.766604,153.219100,518.144159,9400.615463
3578.766918,229.828649,222.061783,9474.636058
3578.767232,229.828649,222.061783,9474.636058
3578.767546,459.657299,222.061783,9622.677246
3578.767861,0.000000,222.061783,9622.677246
3578.768175,76.609550,148.041188,9474.636058
3578.768489,153.219100,296.082377,9844.739029
3578.768803,306.438199,370.102971,9548.656652
3578.769117,0.000000,-74.020594,9844.739029
3578.769431,0.000000,296.082377,9622.677246
3578.769745,76.609550,370.102971,9474.636058
3578.770060,842.705048,-0.000000,9622.677246
3578.770374,383.047749,148.041188,9622.677246
3578.770688,153.219100,222.061783,9622.677246
3578.771002,229.828649,296.082377,9696.697840
3578.771316,612.876398,666.185348,9400.615463
3578.771630,842.705048,592.164754,9326.594869
3578.771944,1072.533697,740.205942,8882.471304
3578.772259,919.314598,296.082377,8882.471304
3578.772573,689.485948,666.185348,9030.512492
3578.772887,919.314598,518.144159,9252.574275
3578.773201,766.095498,148.041188,9474.636058
3578.773515,383.047749,-0.000000,9400.615463
3578.773829,612.876398,-0.000000,9770.718434
3578.774143,536.266849,296.082377,9844.739029
3578.774458,536.266849,370.102971,9918.759623
3578.774772,689.485948,592.164754,9992.780217
3578.775086,1149.143247,740.205942,9770.718434
3578.775400,1532.190996,740.205942,9918.759623
3578.775714,1455.581446,962.267725,9474.636058
3578.776028,1762.019645,1184.329507,9104.533087
3578.776342,1915.238745,1406.391290,9178.553681
3578.776657,2374.896044,1258.350101,9474.636058
3578.776971,1838.629195,1554.432478,9400.615463
3578.777285,2068.457845,1480.411884,9400.615463
3578.777599,1455.581446,1184.329507,9178.553681
3578.777913,1378.971896,1036.288319,9622.677246
3578.778227,1378.971896,1036.288319,10066.800811
3578.778541,766.095498,814.226536,9548.656652
3578.778856,842.705048,1258.350101,9992.780217
3578.779170,612.876398,1332.370696,9844.739029
3578.779484,842.705048,1702.473667,9770.718434
3578.779798,1378.971896,1554.432478,9252.574275
3578.780112,842.705048,2220.617826,9104.533087
3578.780426,612.876398,1998.556043,9252.574275
3578.780740,842.705048,1776.494261,9178.553681
3578.781055,689.485948,1850.514855,9696.697840
3578.781369,459.657299,1036.288319,10066.800811
3578.781683,-306.438199,1258.350101,10732.986159
3578.781997,-306.438199,1110.308913,10732.986159
3578.782311,-383.047749,1554.432478,11103.089130
3578.782625,-383.047749,1628.453072,10881.027347
3578.782939,0.000000,1628.453072,10214.842000
3578.783253,306.438199,1924.535449,9918.759623
3578.783568,766.095498,1924.535449,9326.594869
3578.783882,1072.533697,1850.514855,8956.491898
3578.784196,1455.581446,1480.411884,9030.512492
3578.784510,1302.362347,1110.308913,8956.491898
3578.784824,1608.800546,962.267725,8956.491898
3578.785138,919.314598,740.205942,9474.636058
3578.785452,995.924147,666.185348,9770.718434
3578.785767,306.438199,444.123565,9770.718434
3578.786081,306.438199,444.123565,10066.800811
3578.786395,76.609550,518.144159,9992.780217
3578.786709,0.000000,666.185348,9696.697840
3578.787023,76.609550,888.247130,9474.636058
3578.787337,689.485948,814.226536,9474.636058
3578.787651,842.705048,666.185348,9474.636058
3578.787966,995.924147,962.267725,9252.574275
3578.788280,536.266849,888.247130,8734.430116
3578.788594,612.876398,814.226536,8956.491898
3578.788908,229.828649,592.164754,9696.697840
3578.789222,0.000000,-0.000000,9622.677246
3578.789536,-689.485948,-148.041188,9622.677246
3578.789850,-1072.533697,-148.041188,9696.697840
3578.790165,-1225.752797,-592.164754,10066.800811
3578.790479,-1762.019645,-888.247130,10288.862594
3578.790793,-1378.971896,-296.082377,10140.821405
3578.791107,-1302.362347,-592.164754,9992.780217
3578.791421,-1072.533697,-444.123565,9696.697840
3578.791735,-459.657299,-370.102971,9696.697840
3578.792049,-229.828649,-296.082377,9474.636058
3578.792364,0.000000,-518.144159,9400.615463
3578.792678,306.438199,-222.061783,9400.615463
3578.792992,383.047749,-296.082377,9400.615463
3578.793306,383.047749,-296.082377,9474.636058
3578.793620,153.219100,-666.185348,9400.615463
3578.793934,459.657299,-666.185348,9474.636058
3578.794248,76.609550,-962.267725,9474.636058
3578.794563,0.000000,-1036.288319,9400.615463
3578.794877,0.000000,-1332.370696,9474.636058
3578.795191,0.000000,-1554.432478,9696.697840
3578.795505,229.828649,-1628.453072,9252.574275
3578.795819,383.047749,-1258.350101,9104.533087
3578.796133,383.047749,-1258.350101,9474.636058
3578.796447,383.047749,-888.247130,10140.821405
3578.796762,842.705048,-962.267725,9622.677246
3578.797076,383.047749,-592.164754,9252.574275
3578.797390,459.657299,-740.205942,9548.656652
3578.797704,459.657299,-666.185348,9252.574275
3578.798018,306.438199,-74.020594,9104.533087
3578.798332,0.000000,-518.144159,8956.491898
3578.798646,0.000000,-1036.288319,9474.636058
3578.798960,0.000000,-1184.329507,9400.615463
3578.799275,-459.657299,-1110.308913,9178.553681
3578.799589,-459.657299,-1332.370696,9844.739029
3578.799903,-536.266849,-962.267725,10214.842000
3578.800217,-383.047749,-1184.329507,10288.862594
3578.800531,-153.219100,-740.205942,10066.800811
3578.800845,0.000000,-296.082377,9622.677246
3578.801159,459.657299,-0.000000,9252.574275
3578.801474,766.095498,296.082377,8808.450710
3578.801788,1072.533697,740.205942,8364.327145
3578.802102,1608.800546,962.267725,8068.244768
3578.802416,1762.019645,888.247130,8068.244768
3578.802730,1378.971896,740.205942,7994.224174
3578.803044,842.705048,-0.000000,8364.327145
3578.803358,919.314598,-0.000000,8808.450710
3578.803673,306.438199,-0.000000,9178.553681
3578.803987,76.609550,-74.020594,9622.677246
3578.804301,-153.219100,444.123565,10066.800811
3578.804615,-536.266849,444.123565,10066.800811
3578.804929,-383.047749,370.102971,9770.718434
3578.805243,-459.657299,1184.329507,10288.862594
3578.805557,0.000000,1554.432478,9770.718434
3578.805872,0.000000,1776.494261,9918.759623
3578.806186,383.047749,1850.514855,9844.739029
3578.806500,612.876398,1924.535449,9400.615463
3578.806814,306.438199,1924.535449,9548.656652
3578.807128,153.219100,1924.535449,9770.718434
3578.807442,-383.047749,1258.350101,10584.944971
3578.807756,-766.095498,814.226536,10436.903782
3578.808071,-1225.752797,592.164754,10658.965565
3578.808385,-1378.971896,592.164754,11399.171507
3578.808699,-1378.971896,592.164754,11547.212695
3578.809013,-1378.971896,444.123565,11325.150913
3578.809327,-1072.533697,518.144159,10881.027347
3578.809641,-306.438199,1036.288319,10584.944971
3578.809955,0.000000,1332.370696,10214.842000
3578.810270,383.047749,1258.350101,9918.759623
3578.810584,612.876398,1406.391290,9844.739029
3578.810898,919.314598,1110.308913,9474.636058
3578.811212,1608.800546,666.185348,9844.739029
3578.811526,1149.143247,962.267725,10140.821405
3578.811840,536.266849,888.247130,10140.821405
3578.812154,612.876398,592.164754,10140.821405
3578.812469,689.485948,444.123565,9918.759623
3578.812783,459.657299,222.061783,9992.780217
3578.813097,612.876398,-0.000000,9622.677246
3578.813411,612.876398,296.082377,9474.636058
3578.813725,459.657299,-148.041188,9474.636058
3578.814039,459.657299,-148.041188,8956.491898
3578.814353,1302.362347,-148.041188,8956.491898
3578.814667,842.705048,-148.041188,8956.491898
3578.814982,995.924147,-0.000000,8882.471304
3578.815296,995.924147,-0.000000,8512.368333
3578.815610,536.266849,222.061783,8290.306550
3578.815924,76.609550,370.102971,8586.388927
3578.816238,229.828649,-148.041188,8512.368333
3578.816552,0.000000,-444.123565,8734.430116
3578.816866,-459.657299,-518.144159,9474.636058
3578.817181,-842.705048,-888.247130,9400.615463
3578.817495,-689.485948,-814.226536,9918.759623
3578.817809,-536.266849,-1258.350101,10288.862594
3578.818123,-459.657299,-1332.370696,10436.903782
3578.818437,-383.047749,-962.267725,10214.842000
3578.818751,-306.438199,-518.144159,9548.656652
3578.819065,612.876398,-814.226536,9326.594869
3578.819380,995.924147,296.082377,9326.594869
3578.819694,1378.971896,370.102971,8882.471304
3578.820008,1685.410096,74.020594,8068.244768
3578.820322,1225.752797,222.061783,8216.285956
3578.820636,1225.752797,-296.082377,8882.471304
3578.820950,919.314598,-518.144159,8734.430116
3578.821264,536.266849,-814.226536,9326.594869
3578.821579,0.000000,-1110.308913,9696.697840
3578.821893,-842.705048,-740.205942,10066.800811
3578.822207,153.219100,-814.226536,10436.903782
3578.822521,-536.266849,-962.267725,10362.883188
3578.822835,-766.095498,-740.205942,10362.883188
3578.823149,-459.657299,-296.082377,10140.821405
3578.823463,-536.266849,222.061783,9918.759623
3578.823778,-383.047749,444.123565,9918.759623
3578.824092,-229.828649,592.164754,9622.677246
3578.824406,-306.438199,814.226536,9474.636058
3578.824720,-689.485948,740.205942,9326.594869
3578.825034,-536.266849,444.123565,9622.677246
3578.825348,-1072.533697,-74.020594,9844.739029
3578.825662,-1302.362347,-296.082377,10288.862594
3578.825977,-1455.581446,-222.061783,10807.006753
3578.826291,-2068.457845,-518.144159,10436.903782
3578.826605,-1762.019645,-592.164754,10510.924376
3578.826919,-1608.800546,-148.041188,10510.924376
3578.827233,-1149.143247,-0.000000,9696.697840
3578.827547,-689.485948,370.102971,9622.677246
3578.827861,0.000000,666.185348,9474.636058
3578.828176,536.266849,518.144159,9474.636058
3578.828490,766.095498,740.205942,9178.553681
3578.828804,995.924147,814.226536,9326.594869
3578.829118,919.314598,518.144159,9548.656652
3578.829432,919.314598,666.185348,9400.615463
3578.829746,1225.752797,296.082377,9474.636058
3578.830060,1072.533697,518.144159,9548.656652
3578.830374,995.924147,592.164754,9622.677246
3578.830689,919.314598,666.185348,9400.615463
3578.831003,459.657299,222.061783,9178.553681
3578.831317,919.314598,-0.000000,9400.615463
3578.831631,766.095498,296.082377,9252.574275
3578.831945,919.314598,-0.000000,9400.615463
3578.832259,1072.533697,370.102971,9400.615463
3578.832573,1072.533697,370.102971,9326.594869
3578.832888,689.485948,666.185348,9474.636058
3578.833202,612.876398,962.267725,9622.677246
3578.833516,459.657299,1110.308913,9326.594869
3578.833830,306.438199,1110.308913,9178.553681
3578.834144,383.047749,814.226536,9474.636058
3578.834458,0.000000,370.102971,9770.718434
3578.834772,-306.438199,518.144159,9992.780217
3578.835087,-459.657299,-0.000000,10214.842000
3578.835401,0.000000,-0.000000,10362.883188
3578.835715,-306.438199,222.061783,10214.842000
3578.836029,0.000000,518.144159,9770.718434
3578.836343,0.000000,592.164754,9696.697840
3578.836657,153.219100,740.205942,9844.739029
3578.836971,536.266849,962.267725,9474.636058
3578.837286,919.314598,1184.329507,8734.430116
3578.837600,1302.362347,1036.288319,8586.388927
3578.837914,1302.362347,1184.329507,8438.347739
3578.838228,1378.971896,962.267725,8808.450710
3578.838542,919.314598,518.144159,8808.450710
3578.838856,612.876398,-0.000000,9844.739029
3578.839170,0.000000,-0.000000,9770.718434
3578.839485,-229.828649,-148.041188,9622.677246
3578.839799,-229.828649,-0.000000,10214.842000
3578.840113,-612.876398,-0.000000,10510.924376
3578.840427,0.000000,-0.000000,10362.883188
3578.840741,-229.828649,518.144159,10214.842000
3578.841055,229.828649,962.267725,9918.759623
3578.841369,153.219100,962.267725,9622.677246
3578.841684,383.047749,962.267725,9252.574275
3578.841998,153.219100,814.226536,9474.636058
3578.842312,0.000000,888.247130,9474.636058
3578.842626,-612.876398,222.061783,9918.759623
3578.842940,-1149.143247,-444.123565,9992.780217
3578.843254,-1378.971896,-518.144159,10510.924376
3578.843568,-1532.190996,-666.185348,10510.924376
3578.843883,-1915.238745,-1110.308913,10955.047942
3578.844197,-1915.238745,-1036.288319,10881.027347
3578.844511,-1762.019645,-1110.308913,10584.944971
3578.844825,-1302.362347,-370.102971,9992.780217
3578.845139,-766.095498,-444.123565,9548.656652
3578.845453,-459.657299,-0.000000,9548.656652
3578.845767,153.219100,-0.000000,9104.533087
3578.846081,306.438199,-444.123565,9030.512492
3578.846396,766.095498,-222.061783,9252.574275
3578.846710,842.705048,-222.061783,8956.491898
3578.847024,766.095498,-370.102971,9178.553681
3578.847338,766.095498,-888.247130,9400.615463
3578.847652,536.266849,-1554.432478,9252.574275
3578.847966,383.047749,-1036.288319,9178.553681
3578.848280,459.657299,-1110.308913,9178.553681
3578.848595,766.095498,-1332.370696,9178.553681
3578.848909,612.876398,-1036.288319,9030.512492
3578.849223,842.705048,-1036.288319,8660.409521
3578.849537,1072.533697,-814.226536,8660.409521
3578.849851,1225.752797,-370.102971,8956.491898
3578.850165,1302.362347,-444.123565,8586.388927
3578.850479,1608.800546,-148.041188,8956.491898
3578.850794,1225.752797,-148.041188,8882.471304
3578.851108,842.705048,-0.000000,8660.409521
3578.851422,536.266849,148.041188,8438.347739
3578.851736,536.266849,-148.041188,8882.471304
3578.852050,76.609550,-296.082377,9326.594869
3578.852364,-229.828649,-518.144159,9400.615463
3578.852678,-459.657299,-444.123565,9770.718434
3578.852993,-689.485948,-740.205942,10362.883188
3578.853307,-383.047749,-370.102971,10881.027347
3578.853621,0.000000,-0.000000,10362.883188
3578.853935,76.609550,518.144159,10214.842000
3578.854249,76.609550,888.247130,10140.821405
3578.854563,995.924147,1184.329507,9622.677246
3578.854877,1225.752797,1258.350101,9178.553681
3578.855192,1225.752797,1554.432478,8734.430116
3578.855506,1302.362347,1702.473667,8956.491898
3578.855820,1302.362347,1332.370696,8586.388927
3578.856134,995.924147,962.267725,9474.636058
3578.856448,459.657299,444.123565,9548.656652
3578.856762,0.000000,-0.000000,9992.780217
3578.857076,-383.047749,-0.000000,10362.883188
3578.857391,-842.705048,148.041188,10732.986159
3578.857705,-612.876398,222.061783,11029.068536
3578.858019,-842.705048,296.082377,9992.780217
3578.858333,-536.266849,296.082377,10140.821405
3578.858647,-153.219100,1110.308913,10584.944971
3578.858961,0.000000,1850.514855,9696.697840
3578.859275,306.438199,1850.514855,9696.697840
3578.859590,459.657299,1776.494261,9548.656652
3578.859904,383.047749,1554.432478,9548.656652
3578.860218,-459.657299,1036.288319,9474.636058
3578.860532,-766.095498,888.247130,10140.821405
3578.860846,-995.924147,370.102971,10881.027347
3578.861160,-1455.581446,-0.000000,10362.883188
3578.861475,-1991.848295,-148.041188,10584.944971
3578.861789,-2068.457845,-370.102971,10807.006753
3578.862103,-1378.971896,-74.020594,10436.903782
3578.862417,-1072.533697,222.061783,10362.883188
3578.862732,-612.876398,518.144159,9992.780217
3578.863046,-306.438199,444.123565,9770.718434
3578.863360,76.609550,592.164754,9252.574275
3578.863675,1149.143247,888.247130,9030.512492
3578.863989,1149.143247,888.247130,9104.533087
3578.864303,842.705048,666.185348,9474.636058
3578.864617,919.314598,370.102971,9474.636058
3578.864932,612.876398,444.123565,9770.718434
3578.865246,766.095498,-74.020594,9474.636058
3578.865560,536.266849,-148.041188,9400.615463
3578.865875,459.657299,-222.061783,9474.636058
3578.866189,383.047749,-370.102971,9622.677246
3578.866503,1225.752797,-518.144159,9104.533087
3578.866818,919.314598,-296.082377,8956.491898
3578.867132,1072.533697,-0.000000,9030.512492
3578.867446,919.314598,-296.082377,8734.430116
3578.867760,1225.752797,-0.000000,8808.450710
3578.868075,995.924147,-296.082377,8734.430116
3578.868389,1302.362347,-296.082377,9326.594869
3578.868703,1149.143247,-0.000000,8364.327145
3578.869018,536.266849,-0.000000,8216.285956
3578.869332,689.485948,-148.041188,9030.512492
3578.869646,689.485948,-518.144159,9326.594869
3578.869960,0.000000,-444.123565,9622.677246
3578.870275,-383.047749,-740.205942,9770.718434
3578.870589,-306.438199,-1036.288319,9992.780217
3578.870903,-306.438199,-1110.308913,10066.800811
3578.871218,-383.047749,-666.185348,10214.842000
3578.871532,0.000000,-518.144159,10214.842000
3578.871846,0.000000,-222.061783,9918.759623
3578.872161,383.047749,-0.000000,9474.636058
3578.872475,842.705048,370.102971,9252.574275
3578.872789,1225.752797,370.102971,8734.430116
3578.873103,1378.971896,296.082377,8956.491898
3578.873418,1302.362347,592.164754,8882.471304
3578.873732,919.314598,148.041188,9252.574275
3578.874046,536.266849,-0.000000,9104.533087
3578.874361,-383.047749,-74.020594,9696.697840
3578.874675,-153.219100,-444.123565,10362.883188
3578.874989,-383.047749,-296.082377,10807.006753
3578.875304,-766.095498,-296.082377,10584.944971
3578.875618,-919.314598,-148.041188,10658.965565
3578.875932,-995.924147,-0.000000,11177.109724
3578.876246,-536.266849,740.205942,10288.862594
3578.876561,-459.657299,888.247130,9770.718434
3578.876875,0.000000,1110.308913,10066.800811
3578.877189,-306.438199,1258.350101,9622.677246
3578.877504,306.438199,1480.411884,9400.615463
3578.877818,0.000000,1258.350101,9400.615463
3578.878132,-766.095498,370.102971,9622.677246
3578.878446,-1072.533697,-0.000000,10214.842000
3578.878761,-1072.533697,-222.061783,10066.800811
3578.879075,-1838.629195,-740.205942,10436.903782
3578.879389,-2221.676944,-666.185348,10658.965565
3578.879704,-1762.019645,-370.102971,10140.821405
3578.880018,-1608.800546,-0.000000,9992.780217
3578.880332,-842.705048,222.061783,9844.739029
3578.880647,-459.657299,222.061783,9252.574275
3578.880961,0.000000,370.102971,8734.430116
3578.881275,459.657299,814.226536,8956.491898
3578.881589,689.485948,814.226536,8808.450710
3578.881904,1072.533697,666.185348,8882.471304
3578.882218,612.876398,518.144159,9252.574275
3578.882532,689.485948,-0.000000,9474.636058
3578.882847,842.705048,222.061783,9400.615463
3578.883161,536.266849,-0.000000,9474.636058
3578.883475,919.314598,-370.102971,9770.718434
3578.883789,536.266849,-74.020594,9770.718434
3578.884104,689.485948,-0.000000,9326.594869
3578.884418,1149.143247,74.020594,9178.553681
3578.884732,1149.143247,-0.000000,8808.450710
3578.885047,1685.410096,370.102971,9030.512492
3578.885361,1532.190996,370.102971,8956.491898
3578.885675,1762.019645,518.144159,8956.491898
3578.885990,1455.581446,370.102971,8956.491898
3578.886304,1072.533697,888.247130,8660.409521
3578.886618,612.876398,592.164754,8808.450710
3578.886932,766.095498,296.082377,9400.615463
3578.887247,612.876398,370.102971,9696.697840
3578.887561,153.219100,148.041188,9696.697840
3578.887875,0.000000,-0.000000,10140.821405
3578.888190,-153.219100,-0.000000,10510.924376
3578.888504,-459.657299,-0.000000,10510.924376
3578.888818,-383.047749,-74.020594,10584.944971
3578.889133,0.000000,444.123565,10140.821405
3578.889447,229.828649,518.144159,9770.718434
3578.889761,153.219100,592.164754,9400.615463
3578.890075,689.485948,962.267725,9474.636058
3578.890390,842.705048,1184.329507,9178.553681
3578.890704,1072.533697,814.226536,8586.388927
3578.891018,1455.581446,962.267725,9030.512492
3578.891333,995.924147,444.123565,9548.656652
3578.891647,612.876398,-0.000000,9030.512492
3578.891961,536.266849,-0.000000,9474.636058
3578.892275,-229.828649,-222.061783,9696.697840
3578.892590,-459.657299,-148.041188,10214.842000
3578.892904,-842.705048,-148.041188,10584.944971
3578.893218,-842.705048,-518.144159,10362.883188
3578.893533,-612.876398,-148.041188,10362.883188
3578.893847,-689.485948,370.102971,10066.800811
3578.894161,-383.047749,370.102971,9844.739029
3578.894476,306.438199,962.267725,9992.780217
3578.894790,0.000000,444.123565,9474.636058
3578.895104,0.000000,592.164754,9400.615463
3578.895418,-306.438199,592.164754,9178.553681
3578.895733,-766.095498,370.102971,9622.677246
3578.896047,-842.705048,-444.123565,9474.636058
3578.896361,-1149.143247,-740.205942,10288.862594
3578.896676,-1915.238745,-1110.308913,10436.903782
3578.896990,-2374.896044,-1184.329507,10362.883188
3578.897304,-1608.800546,-1036.288319,10584.944971
3578.897619,-1302.362347,-888.247130,10288.862594
3578.897933,-1225.752797,-444.123565,10066.800811
3578.898247,-459.657299,-0.000000,9104.533087
3578.898561,-229.828649,-0.000000,8956.491898
3578.898876,459.657299,296.082377,9252.574275
3578.899190,229.828649,222.061783,8808.450710
3578.899504,766.095498,-0.000000,8882.471304
3578.899819,612.876398,-0.000000,8882.471304
3578.900133,612.876398,-148.041188,9178.553681
3578.900447,689.485948,-518.144159,9326.594869
3578.900761,153.219100,-296.082377,9400.615463
3578.901076,153.219100,-666.185348,9622.677246
3578.901390,306.438199,-740.205942,9104.533087
3578.901704,459.657299,-592.164754,9252.574275
3578.902019,919.314598,-740.205942,9252.574275
3578.902333,842.705048,-592.164754,8808.450710
3578.902647,1378.971896,-296.082377,8808.450710
3578.902962,1302.362347,-74.020594,8734.430116
3578.903276,1685.410096,-0.000000,8808.450710
3578.903590,1378.971896,222.061783,8882.471304
3578.903904,1378.971896,222.061783,8660.409521
3578.904219,1149.143247,592.164754,8586.388927
3578.904533,612.876398,370.102971,9104.533087
3578.904847,842.705048,-0.000000,9400.615463
3578.905162,306.438199,-222.061783,9622.677246
3578.905476,0.000000,-0.000000,10066.800811
3578.905790,-536.266849,-148.041188,9918.759623
3578.906104,0.000000,-74.020594,10436.903782
3578.906419,0.000000,-222.061783,10732.986159
3578.906733,76.609550,-0.000000,10807.006753
3578.907047,306.438199,518.144159,10436.903782
3578.907362,536.266849,814.226536,10510.924376
3578.907676,919.314598,1110.308913,9696.697840
3578.907990,1378.971896,1554.432478,9252.574275
3578.908305,1455.581446,1480.411884,9326.594869
3578.908619,1149.143247,1332.370696,9474.636058
3578.908933,1149.143247,1184.329507,9474.636058
3578.909247,842.705048,740.205942,9252.574275
3578.909562,383.047749,370.102971,9548.656652
3578.909876,-229.828649,518.144159,9918.759623
3578.910190,-612.876398,-0.000000,10584.944971
3578.910505,-995.924147,-0.000000,10510.924376
3578.910819,-766.095498,-0.000000,10362.883188
3578.911133,-612.876398,-74.020594,10140.821405
3578.911448,-459.657299,740.205942,10214.842000
3578.911762,-229.828649,814.226536,10140.821405
3578.912076,0.000000,1332.370696,9622.677246
3578.912390,0.000000,1406.391290,9178.553681
3578.912705,383.047749,1480.411884,9030.512492
3578.913019,-76.609550,1406.391290,9104.533087
3578.913333,-229.828649,1110.308913,9474.636058
3578.913648,-842.705048,592.164754,9696.697840
3578.913962,-842.705048,-74.020594,9992.780217
3578.914276,-1915.238745,-74.020594,10140.821405
3578.914590,-1991.848295,-444.123565,10658.965565
3578.914905,-2145.067394,-518.144159,10584.944971
3578.915219,-1608.800546,-518.144159,10140.821405
3578.915533,-306.438199,-444.123565,9252.574275
3578.915848,-612.876398,-0.000000,9548.656652
3578.916162,-229.828649,592.164754,9474.636058
3578.916476,306.438199,592.164754,8808.450710
3578.916791,536.266849,370.102971,8660.409521
3578.917105,536.266849,-74.020594,9030.512492
3578.917419,842.705048,222.061783,9400.615463
3578.917733,919.314598,74.020594,9622.677246
3578.918048,766.095498,-74.020594,9548.656652
3578.918362,536.266849,-296.082377,9548.656652
3578.918676,383.047749,-370.102971,9696.697840
3578.918991,536.266849,-666.185348,9474.636058
3578.919305,689.485948,-962.267725,9474.636058
3578.919619,612.876398,-370.102971,9474.636058
3578.919933,689.485948,-666.185348,8808.450710
3578.920248,919.314598,-148.041188,8882.471304
3578.920562,1072.533697,-370.102971,8956.491898
3578.920876,1455.581446,-148.041188,8882.471304
3578.921191,1378.971896,-0.000000,8808.450710
3578.921505,1149.143247,-0.000000,9326.594869
3578.921819,842.705048,148.041188,9030.512492
3578.922134,612.876398,222.061783,9326.594869
3578.922448,383.047749,-296.082377,9474.636058
3578.922762,383.047749,-222.061783,9918.759623
3578.923076,0.000000,-0.000000,10214.842000
3578.923391,-229.828649,-518.144159,9844.739029
3578.923705,0.000000,-296.082377,10584.944971
3578.924019,0.000000,-296.082377,10362.883188
3578.924334,-153.219100,-0.000000,9992.780217
3578.924648,-153.219100,296.082377,10066.800811
3578.924962,459.657299,518.144159,9770.718434
3578.925277,842.705048,740.205942,9474.636058
3578.925591,1072.533697,1036.288319,8956.491898
3578.925905,1225.752797,962.267725,9178.553681
3578.926219,1225.752797,740.205942,8956.491898
3578.926534,995.924147,296.082377,8734.430116
3578.926848,842.705048,148.041188,9474.636058
3578.927162,536.266849,-0.000000,9548.656652
3578.927477,229.828649,-0.000000,9918.759623
3578.927791,0.000000,-74.020594,9844.739029
3578.928105,-689.485948,-0.000000,10436.903782
3578.928419,-229.828649,-0.000000,10955.047942
3578.928734,-459.657299,222.061783,10362.883188
3578.929048,-383.047749,444.123565,10584.944971
3578.929362,-536.266849,444.123565,10436.903782
3578.929677,0.000000,1258.350101,9918.759623
3578.929991,0.000000,962.267725,9548.656652
3578.930305,-153.219100,1036.288319,9548.656652
3578.930620,-306.438199,1110.308913,9400.615463
3578.930934,-536.266849,814.226536,9178.553681
3578.931248,-995.924147,592.164754,9548.656652
3578.931562,-1378.971896,-0.000000,10436.903782
3578.931877,-1685.410096,-74.020594,10214.842000
3578.932191,-1685.410096,-592.164754,10362.883188
3578.932505,-1685.410096,-148.041188,10732.986159
3578.932820,-1838.629195,-370.102971,10732.986159
3578.933134,-1302.362347,-74.020594,9844.739029
3578.933448,-1225.752797,148.041188,9474.636058
3578.933763,-383.047749,740.205942,9474.636058
3578.934077,76.609550,962.267725,8956.491898
3578.934391,383.047749,962.267725,8882.471304
3578.934705,766.095498,666.185348,8734.430116
3578.935020,842.705048,518.144159,8956.491898
3578.935334,919.314598,-0.000000,8882.471304
3578.935648,842.705048,-0.000000,9474.636058
3578.935963,612.876398,-148.041188,9548.656652
3578.936277,383.047749,-296.082377,9474.636058
3578.936591,383.047749,-296.082377,9326.594869
3578.936905,306.438199,-518.144159,9474.636058
3578.937220,536.266849,-370.102971,9030.512492
3578.937534,919.314598,-148.041188,9400.615463
3578.937848,1149.143247,-148.041188,9178.553681
3578.938163,1455.581446,-0.000000,9178.553681
3578.938477,1838.629195,-0.000000,8660.409521
3578.938791,1915.238745,296.082377,8956.491898
3578.939106,1915.238745,296.082377,9178.553681
3578.939420,1302.362347,592.164754,8734.430116
3578.939734,995.924147,592.164754,9030.512492
3578.940048,383.047749,-0.000000,9326.594869
3578.940363,536.266849,-296.082377,9770.718434
3578.940677,0.000000,-74.020594,9918.759623
3578.940991,-766.095498,-592.164754,10288.862594
3578.941306,-612.876398,-444.123565,11029.068536
3578.941620,-536.266849,-444.123565,10732.986159
3578.941934,-536.266849,-0.000000,10510.924376
3578.942248,-612.876398,-0.000000,10436.903782
3578.942563,153.219100,296.082377,10140.821405
3578.942877,383.047749,518.144159,9696.697840
3578.943191,919.314598,814.226536,9326.594869
3578.943506,1378.971896,592.164754,9178.553681
3578.943820,1455.581446,666.185348,8734.430116
3578.944134,919.314598,666.185348,8882.471304
3578.944449,995.924147,-0.000000,9252.574275
3578.944763,459.657299,-0.000000,9474.636058
3578.945077,-229.828649,-296.082377,9844.739029
3578.945391,-306.438199,-370.102971,10214.842000
3578.945706,-536.266849,-444.123565,10584.944971
3578.946020,-612.876398,-296.082377,9992.780217
3578.946334,-229.828649,-296.082377,9844.739029
3578.946649,-842.705048,-74.020594,10584.944971
3578.946963,-612.876398,296.082377,9918.759623
3578.947277,-229.828649,666.185348,9474.636058
3578.947592,0.000000,888.247130,9326.594869
3578.947906,229.828649,814.226536,9178.553681
3578.948220,229.828649,1184.329507,9400.615463
3578.948534,-383.047749,1036.288319,9104.533087
3578.948849,-536.266849,370.102971,9622.677246
3578.949163,-919.314598,-74.020594,9696.697840
3578.949477,-1225.752797,-740.205942,9622.677246
3578.949792,-1685.410096,-666.185348,10288.862594
3578.950106,-1991.848295,-666.185348,10807.006753
3578.950420,-1915.238745,-814.226536,10436.903782
3578.950734,-1762.019645,-444.123565,10140.821405
3578.951049,-995.924147,-148.041188,9770.718434
3578.951363,-842.705048,-0.000000,9696.697840
3578.951677,-383.047749,444.123565,9400.615463
3578.951992,0.000000,370.102971,9104.533087
3578.952306,689.485948,370.102971,8956.491898
3578.952620,612.876398,-0.000000,9252.574275
3578.952935,919.314598,296.082377,9252.574275
3578.953249,842.705048,-0.000000,9474.636058
3578.953563,459.657299,-0.000000,9474.636058
3578.953877,459.657299,-148.041188,9474.636058
3578.954192,153.219100,-370.102971,9474.636058
3578.954506,536.266849,-370.102971,9622.677246
3578.954820,459.657299,-370.102971,9474.636058
3578.955135,536.266849,-592.164754,9252.574275
3578.955449,919.314598,-222.061783,9474.636058
3578.955763,1225.752797,-74.020594,9400.615463
3578.956077,1378.971896,-0.000000,8956.491898
3578.956392,1608.800546,296.082377,9104.533087
3578.956706,1455.581446,444.123565,8734.430116
3578.957020,1149.143247,592.164754,8364.327145
3578.957335,766.095498,740.205942,9400.615463
3578.957649,1072.533697,296.082377,9104.533087
3578.957963,766.095498,-0.000000,9104.533087
3578.958278,0.000000,222.061783,9474.636058
3578.958592,-229.828649,-0.000000,9992.780217
3578.958906,-229.828649,-0.000000,10881.027347
3578.959220,0.000000,-148.041188,10658.965565
3578.959535,0.000000,-74.020594,10584.944971
3578.959849,0.000000,296.082377,10066.800811
3578.960163,459.657299,740.205942,10066.800811
3578.960478,1072.533697,814.226536,9844.739029
3578.960792,1378.971896,1110.308913,9030.512492
3578.961106,1532.190996,1110.308913,8586.388927
3578.961421,1302.362347,1406.391290,8512.368333
3578.961735,1532.190996,1036.288319,8882.471304
3578.962049,1302.362347,592.164754,9400.615463
3578.962363,612.876398,740.205942,9696.697840
3578.962678,153.219100,518.144159,9770.718434
3578.962992,-459.657299,-0.000000,10288.862594
3578.963306,-306.438199,-148.041188,10881.027347
3578.963621,-459.657299,-222.061783,10362.883188
3578.963935,-459.657299,-0.000000,10658.965565
3578.964249,-536.266849,-0.000000,10436.903782
3578.964563,-612.876398,518.144159,10140.821405
3578.964878,-229.828649,814.226536,9918.759623
3578.965192,0.000000,1110.308913,9696.697840
3578.965506,76.609550,1184.329507,9474.636058
3578.965821,0.000000,1184.329507,9030.512492
3578.966135,-306.438199,962.267725,9400.615463
3578.966449,-536.266849,444.123565,9844.739029
3578.966764,-1072.533697,370.102971,10436.903782
3578.967078,-1455.581446,-222.061783,10362.883188
3578.967392,-1608.800546,-518.144159,10436.903782
3578.967707,-1762.019645,-592.164754,10658.965565
3578.968021,-1915.238745,-814.226536,10214.842000
3578.968335,-1532.190996,-518.144159,10510.924376
3578.968649,-1072.533697,-0.000000,9844.739029
3578.968964,-459.657299,-0.000000,9400.615463
3578.969278,229.828649,148.041188,9104.533087
3578.969592,536.266849,518.144159,8956.491898
3578.969907,995.924147,370.102971,8956.491898
3578.970221,766.095498,370.102971,8438.347739
3578.970535,919.314598,-0.000000,8660.409521
3578.970850,919.314598,-74.020594,9474.636058
3578.971164,766.095498,-518.144159,9252.574275
3578.971478,459.657299,-444.123565,9400.615463
3578.971792,153.219100,-592.164754,9474.636058
3578.972107,229.828649,-518.144159,9400.615463
3578.972421,383.047749,-370.102971,9326.594869
3578.972735,766.095498,-444.123565,9030.512492
3578.973050,1072.533697,-296.082377,9474.636058
3578.973364,1302.362347,-148.041188,9030.512492
3578.973678,1225.752797,-74.020594,8586.388927
3578.973993,1532.190996,-0.000000,9104.533087
3578.974307,1455.581446,-0.000000,9178.553681
3578.974621,1378.971896,-0.000000,9178.553681
3578.974935,766.095498,148.041188,8882.471304
3578.975250,995.924147,296.082377,8882.471304
3578.975564,536.266849,-0.000000,8956.491898
3578.975878,0.000000,-222.061783,9770.718434
3578.976193,-229.828649,-296.082377,10510.924376
3578.976507,-766.095498,-370.102971,9992.780217
3578.976821,-383.047749,-370.102971,10510.924376
3578.977136,-306.438199,-370.102971,10658.965565
3578.977450,0.000000,-0.000000,10362.883188
3578.977764,76.609550,370.102971,10066.800811
3578.978079,766.095498,444.123565,9622.677246
3578.978393,842.705048,740.205942,9770.718434
3578.978707,1225.752797,1110.308913,9178.553681
3578.979021,1302.362347,888.247130,8660.409521
3578.979336,1072.533697,888.247130,8956.491898
3578.979650,842.705048,740.205942,9030.512492
3578.979964,766.095498,296.082377,9326.594869
3578.980279,459.657299,-148.041188,9474.636058
3578.980593,-153.219100,-74.020594,10362.883188
3578.980907,-383.047749,-148.041188,10214.842000
3578.981222,-842.705048,-0.000000,10288.862594
3578.981536,-689.485948,-0.000000,10881.027347
3578.981850,0.000000,222.061783,10436.903782
3578.982164,-229.828649,814.226536,10214.842000
3578.982479,0.000000,1110.308913,9844.739029
3578.982793,0.000000,1258.350101,9622.677246
3578.983107,0.000000,1406.391290,9474.636058
3578.983422,459.657299,1554.432478,9474.636058
3578.983736,-306.438199,1258.350101,9474.636058
3578.984050,-612.876398,888.247130,9326.594869
3578.984365,-1302.362347,222.061783,9770.718434
3578.984679,-1455.581446,-296.082377,10510.924376
3578.984993,-1915.238745,-666.185348,10584.944971
3578.985307,-2374.896044,-814.226536,10807.006753
3578.985622,-2221.676944,-740.205942,10732.986159
3578.985936,-1762.019645,-518.144159,10732.986159
3578.986250,-1378.971896,-148.041188,9770.718434
3578.986565,-689.485948,222.061783,9030.512492
3578.986879,0.000000,518.144159,9474.636058
3578.987193,153.219100,518.144159,9030.512492
3578.987508,612.876398,740.205942,8808.450710
3578.987822,306.438199,814.226536,9178.553681
3578.988136,689.485948,-0.000000,9178.553681
3578.988450,842.705048,-0.000000,9696.697840
3578.988765,612.876398,-296.082377,9400.615463
3578.989079,689.485948,-222.061783,10362.883188
3578.989393,459.657299,-444.123565,9622.677246
3578.989708,383.047749,-666.185348,9252.574275
3578.990022,536.266849,-592.164754,9030.512492
3578.990336,766.095498,-370.102971,9104.533087
3578.990651,995.924147,-518.144159,8882.471304
3578.990965,1225.752797,-222.061783,8660.409521
3578.991279,1378.971896,-74.020594,9030.512492
3578.991594,1532.190996,222.061783,9030.512492
3578.991908,1455.581446,222.061783,8956.491898
3578.992222,1302.362347,-0.000000,8586.388927
3578.992536,1455.581446,592.164754,9104.533087
3578.992851,842.705048,370.102971,8808.450710
3578.993165,766.095498,296.082377,9252.574275
3578.993479,153.219100,-148.041188,9696.697840
3578.993794,0.000000,-0.000000,10214.842000
3578.994108,-689.485948,-296.082377,10436.903782
3578.994422,-766.095498,-444.123565,10510.924376
3578.994737,-536.266849,-518.144159,10510.924376
3578.995051,-229.828649,-370.102971,10436.903782
3578.995365,459.657299,-0.000000,10362.883188
3578.995679,229.828649,592.164754,10214.842000
3578.995994,919.314598,814.226536,9474.636058
3578.996308,919.314598,962.267725,8734.430116
3578.996622,1378.971896,814.226536,8660.409521
3578.996937,1532.190996,666.185348,8882.471304
3578.997251,1302.362347,666.185348,8882.471304
3578.997565,612.876398,-74.020594,9178.553681
3578.997880,76.609550,-222.061783,9622.677246
3578.998194,153.219100,-518.144159,10140.821405
3578.998508,-689.485948,-222.061783,10732.986159
3578.998822,-842.705048,-370.102971,10732.986159
3578.999137,-842.705048,-444.123565,10807.006753
3578.999451,-612.876398,-0.000000,10362.883188
3578.999765,-536.266849,-0.000000,9992.780217
3579.000080,-153.219100,888.247130,10214.842000
3579.000394,76.609550,1110.308913,9622.677246
3579.000708,306.438199,1184.329507,9104.533087
3579.001023,0.000000,1258.350101,9252.574275
3579.001337,0.000000,1480.411884,9400.615463
3579.001651,-383.047749,740.205942,9252.574275
3579.001966,-766.095498,296.082377,9770.718434
3579.002280,-1225.752797,-0.000000,10214.842000
3579.002594,-1762.019645,-148.041188,10436.903782
3579.002908,-1838.629195,-518.144159,10436.903782
3579.003223,-1915.238745,-444.123565,10658.965565
3579.003537,-1838.629195,-518.144159,10881.027347
3579.003851,-1378.971896,-74.020594,9992.780217
3579.004166,-995.924147,370.102971,9548.656652
3579.004480,-229.828649,592.164754,9178.553681
3579.004794,229.828649,666.185348,8660.409521
3579.005109,459.657299,814.226536,9104.533087
3579.005423,536.266849,666.185348,8882.471304
3579.005737,536.266849,518.144159,9104.533087
3579.006051,919.314598,296.082377,8956.491898
3579.006366,536.266849,-0.000000,9474.636058
3579.006680,383.047749,-0.000000,9696.697840
3579.006994,76.609550,-370.102971,9548.656652
3579.007309,229.828649,-296.082377,9622.677246
3579.007623,612.876398,-296.082377,9400.615463
3579.007937,612.876398,-592.164754,9474.636058
3579.008252,919.314598,-74.020594,8956.491898
3579.008566,919.314598,-592.164754,8808.450710
3579.008880,1378.971896,-0.000000,9178.553681
3579.009194,1378.971896,444.123565,8956.491898
3579.009509,1608.800546,222.061783,8808.450710
3579.009823,1455.581446,-0.000000,9030.512492
3579.010137,1225.752797,518.144159,9104.533087
3579.010452,766.095498,296.082377,8734.430116
3579.010766,536.266849,296.082377,9326.594869
3579.011080,536.266849,-148.041188,9696.697840
3579.011395,0.000000,-0.000000,9622.677246
3579.011709,-689.485948,-444.123565,9992.780217
3579.012023,-766.095498,-814.226536,10362.883188
3579.012338,-229.828649,-592.164754,10955.047942
3579.012652,0.000000,-0.000000,10584.944971
3579.012966,0.000000,518.144159,10510.924376
3579.013280,0.000000,518.144159,9844.739029
3579.013595,766.095498,888.247130,9474.636058
3579.013909,1455.581446,814.226536,9474.636058
3579.014223,1225.752797,740.205942,8956.491898
3579.014538,1378.971896,1110.308913,8808.450710
3579.014852,1072.533697,666.185348,8882.471304
3579.015166,842.705048,370.102971,9104.533087
3579.015481,766.095498,-0.000000,9548.656652
3579.015795,-229.828649,-148.041188,9770.718434
3579.016109,-612.876398,-222.061783,9844.739029
3579.016423,-919.314598,-74.020594,10955.047942
3579.016738,-1072.533697,-518.144159,10436.903782
3579.017052,-612.876398,-518.144159,10436.903782
3579.017366,-536.266849,-0.000000,10362.883188
3579.017681,-229.828649,592.164754,10066.800811
3579.017995,0.000000,814.226536,9622.677246
3579.018309,76.609550,1110.308913,9178.553681
3579.018624,153.219100,1554.432478,9770.718434
3579.018938,76.609550,962.267725,9252.574275
3579.019252,-306.438199,740.205942,8956.491898
3579.019566,-689.485948,-0.000000,9474.636058
3579.019881,-689.485948,-296.082377,9992.780217
3579.020195,-1762.019645,-962.267725,10140.821405
3579.020509,-1762.019645,-1036.288319,10362.883188
3579.020824,-1991.848295,-814.226536,10510.924376
3579.021138,-1532.190996,-740.205942,10140.821405
3579.021452,-1378.971896,-592.164754,9844.739029
3579.021767,-919.314598,-444.123565,9622.677246
3579.022081,-766.095498,-0.000000,9474.636058
3579.022395,76.609550,518.144159,8882.471304
3579.022710,612.876398,518.144159,8586.388927
3579.023024,1072.533697,444.123565,8956.491898
3579.023338,842.705048,666.185348,9252.574275
3579.023652,842.705048,74.020594,9400.615463
3579.023967,842.705048,222.061783,9622.677246
3579.024281,459.657299,-0.000000,9252.574275
3579.024595,383.047749,-296.082377,9326.594869
3579.024910,459.657299,-222.061783,9844.739029
3579.025224,536.266849,-296.082377,9548.656652
3579.025538,536.266849,-222.061783,9326.594869
3579.025853,842.705048,-222.061783,9104.533087
3579.026167,1072.533697,-74.020594,9474.636058
3579.026481,1532.190996,296.082377,9030.512492
3579.026795,1378.971896,444.123565,8808.450710
3579.027110,1378.971896,370.102971,8956.491898
3579.027424,1685.410096,296.082377,9030.512492
3579.027738,1532.190996,444.123565,9326.594869
3579.028053,1072.533697,740.205942,8956.491898
3579.028367,842.705048,592.164754,9178.553681
3579.028681,689.485948,222.061783,9326.594869
3579.028996,229.828649,-0.000000,9622.677246
3579.029310,0.000000,-148.041188,9844.739029
3579.029624,-536.266849,-148.041188,10436.903782
3579.029938,-383.047749,-222.061783,10362.883188
3579.030253,-459.657299,-222.061783,10288.862594
3579.030567,-306.438199,-0.000000,10436.903782
3579.030881,229.828649,296.082377,10066.800811
3579.031196,536.266849,592.164754,9548.656652
3579.031510,1072.533697,592.164754,9326.594869
3579.031824,1225.752797,962.267725,8882.471304
3579.032139,1378.971896,740.205942,8882.471304
3579.032453,1072.533697,740.205942,9178.553681
3579.032767,1072.533697,592.164754,9252.574275
3579.033082,536.266849,296.082377,9400.615463
3579.033396,0.000000,-0.000000,9474.636058
3579.033710,-383.047749,-148.041188,10214.842000
3579.034024,-459.657299,-222.061783,10732.986159
3579.034339,-612.876398,-74.020594,10510.924376
3579.034653,-689.485948,-74.020594,10510.924376
3579.034967,-766.095498,-0.000000,10066.800811
3579.035282,-459.657299,592.164754,10140.821405
3579.035596,0.000000,962.267725,9474.636058
3579.035910,153.219100,1110.308913,9770.718434
3579.036225,0.000000,1110.308913,9474.636058
3579.036539,0.000000,1110.308913,8882.471304
3579.036853,-842.705048,1258.350101,9474.636058
3579.037167,-919.314598,666.185348,9622.677246
3579.037482,-1072.533697,222.061783,9844.739029
3579.037796,-1532.190996,-222.061783,9844.739029
3579.038110,-1838.629195,-296.082377,10362.883188
3579.038425,-1608.800546,-518.144159,10658.965565
3579.038739,-1762.019645,-814.226536,10436.903782
3579.039053,-1915.238745,-666.185348,10140.821405
3579.039368,-1455.581446,-148.041188,9474.636058
3579.039682,-689.485948,148.041188,9326.594869
3579.039996,0.000000,-0.000000,9030.512492
3579.040310,766.095498,-0.000000,8882.471304
3579.040625,536.266849,296.082377,8882.471304
3579.040939,536.266849,-0.000000,8512.368333
3579.041253,612.876398,296.082377,9030.512492
3579.041568,689.485948,-148.041188,9474.636058
3579.041882,536.266849,-444.123565,9030.512492
3579.042196,842.705048,-444.123565,9696.697840
3579.042511,689.485948,-518.144159,9770.718434
3579.042825,536.266849,-592.164754,9474.636058
3579.043139,919.314598,-666.185348,9474.636058
3579.043454,995.924147,-1184.329507,9252.574275
3579.043768,995.924147,-740.205942,9252.574275
3579.044082,1225.752797,-444.123565,8734.430116
3579.044396,1608.800546,-222.061783,8956.491898
3579.044711,1608.800546,-148.041188,9178.553681
3579.045025,1838.629195,-0.000000,8882.471304
3579.045339,1225.752797,-0.000000,8882.471304
3579.045654,1225.752797,370.102971,9104.533087
3579.045968,766.095498,222.061783,9400.615463
3579.046282,766.095498,-148.041188,9548.656652
3579.046597,612.876398,-370.102971,9844.739029
3579.046911,0.000000,-296.082377,9918.759623
3579.047225,-383.047749,-444.123565,10584.944971
3579.047539,-306.438199,-370.102971,10584.944971
3579.047854,0.000000,-296.082377,10510.924376
3579.048168,0.000000,-592.164754,10955.047942
3579.048482,306.438199,370.102971,9770.718434
3579.048797,612.876398,518.144159,9252.574275
3579.049111,766.095498,666.185348,9696.697840
3579.049425,689.485948,888.247130,9104.533087
3579.049740,1378.971896,962.267725,8808.450710
3579.050054,995.924147,1036.288319,8956.491898
3579.050368,1072.533697,666.185348,8882.471304
3579.050682,689.485948,296.082377,9252.574275
3579.050997,76.609550,222.061783,9474.636058
3579.051311,-229.828649,-0.000000,10214.842000
3579.051625,-536.266849,-222.061783,9844.739029
3579.051940,-995.924147,-0.000000,9992.780217
3579.052254,-766.095498,-74.020594,10066.800811
3579.052568,-995.924147,-0.000000,10436.903782
3579.052883,-383.047749,518.144159,10288.862594
3579.053197,-383.047749,814.226536,9844.739029
3579.053511,0.000000,962.267725,9474.636058
3579.053826,0.000000,1184.329507,9400.615463
3579.054140,-229.828649,1184.329507,9474.636058
3579.054454,-383.047749,814.226536,9400.615463
3579.054768,-842.705048,666.185348,9178.553681
3579.055083,-995.924147,296.082377,9696.697840
3579.055397,-1072.533697,-296.082377,10140.821405
3579.055711,-1608.800546,-592.164754,10436.903782
3579.056026,-1685.410096,-518.144159,10066.800811
3579.056340,-2068.457845,-518.144159,10214.842000
3579.056654,-1532.190996,-370.102971,10510.924376
3579.056969,-1991.848295,-0.000000,10510.924376
3579.057283,-766.095498,-0.000000,9548.656652
3579.057597,-229.828649,222.061783,9474.636058
3579.057911,153.219100,370.102971,9178.553681
3579.058226,459.657299,814.226536,8956.491898
3579.058540,612.876398,592.164754,8882.471304
3579.058854,919.314598,444.123565,9770.718434
3579.059169,689.485948,296.082377,9474.636058
3579.059483,689.485948,-0.000000,9252.574275
3579.059797,766.095498,-74.020594,9474.636058
3579.060112,536.266849,-148.041188,9696.697840
3579.060426,536.266849,-148.041188,9696.697840
3579.060740,536.266849,-296.082377,9474.636058
3579.061054,842.705048,-148.041188,9252.574275
3579.061369,612.876398,-444.123565,9030.512492
3579.061683,1455.581446,-0.000000,9030.512492
3579.061997,1378.971896,-0.000000,9030.512492
3579.062312,1532.190996,-0.000000,8808.450710
3579.062626,1685.410096,222.061783,8734.430116
3579.062940,1838.629195,-0.000000,8882.471304
3579.063255,1455.581446,370.102971,8882.471304
3579.063569,919.314598,296.082377,9030.512492
3579.063883,995.924147,148.041188,9326.594869
3579.064198,842.705048,-74.020594,9622.677246
3579.064512,229.828649,-444.123565,9992.780217
3579.064826,-536.266849,-444.123565,10066.800811
3579.065140,-459.657299,-592.164754,10362.883188
3579.065455,0.000000,-296.082377,10881.027347
3579.065769,76.609550,-222.061783,10584.944971
3579.066083,153.219100,-0.000000,9992.780217
3579.066398,689.485948,370.102971,10214.842000
3579.066712,919.314598,666.185348,9622.677246
3579.067026,1225.752797,962.267725,8882.471304
3579.067341,1455.581446,888.247130,8882.471304
3579.067655,1455.581446,666.185348,9474.636058
3579.067969,1455.581446,592.164754,9474.636058
3579.068284,842.705048,370.102971,9178.553681
3579.068598,612.876398,148.041188,9696.697840
3579.068912,0.000000,518.144159,10510.924376
3579.069227,-459.657299,-0.000000,10658.965565
3579.069541,-842.705048,-296.082377,10510.924376
3579.069855,-1149.143247,-296.082377,10362.883188
3579.070170,-919.314598,-0.000000,10436.903782
3579.070484,-766.095498,-0.000000,9918.759623
3579.070798,-383.047749,740.205942,10066.800811
3579.071113,0.000000,962.267725,9696.697840
3579.071427,0.000000,1110.308913,9178.553681
3579.071741,0.000000,1332.370696,9030.512492
3579.072055,-383.047749,1184.329507,9474.636058
3579.072370,-612.876398,962.267725,9104.533087
3579.072684,-689.485948,444.123565,9474.636058
3579.072998,-1302.362347,-296.082377,9844.739029
3579.073313,-1991.848295,-296.082377,10288.862594
3579.073627,-2145.067394,-518.144159,10288.862594
3579.073941,-2451.505594,-888.247130,10362.883188
3579.074256,-1608.800546,-888.247130,10066.800811
3579.074570,-1378.971896,-370.102971,9770.718434
3579.074884,-689.485948,-0.000000,9622.677246
3579.075199,-306.438199,444.123565,9104.533087
3579.075513,229.828649,740.205942,9326.594869
3579.075827,536.266849,518.144159,8660.409521
3579.076142,919.314598,444.123565,8808.450710
3579.076456,612.876398,296.082377,9326.594869
3579.076770,919.314598,148.041188,9474.636058
3579.077085,766.095498,-296.082377,9770.718434
3579.077399,383.047749,-222.061783,9992.780217
3579.077713,306.438199,-296.082377,9992.780217
3579.078028,459.657299,-444.123565,9474.636058
3579.078342,689.485948,-370.102971,9548.656652
3579.078656,76.609550,-518.144159,9918.759623
3579.078971,842.705048,-148.041188,9400.615463
3579.079285,1378.971896,-444.123565,9104.533087
3579.079599,1149.143247,-148.041188,8882.471304
3579.079914,1915.238745,-0.000000,9178.553681
3579.080228,1838.629195,-444.123565,8882.471304
3579.080542,1225.752797,518.144159,9178.553681
3579.080856,1302.362347,444.123565,9104.533087
3579.081171,919.314598,592.164754,8660.409521
3579.081485,842.705048,370.102971,9030.512492
3579.081799,229.828649,-222.061783,9622.677246
3579.082114,0.000000,-0.000000,9992.780217
3579.082428,-536.266849,-148.041188,10066.800811
3579.082742,-459.657299,-296.082377,10584.944971
3579.083057,-76.609550,-296.082377,11029.068536
3579.083371,0.000000,-74.020594,10732.986159
3579.083685,-306.438199,-0.000000,10140.821405
3579.084000,153.219100,592.164754,9770.718434
3579.084314,842.705048,814.226536,9548.656652
3579.084628,1302.362347,962.267725,9252.574275
3579.084943,1455.581446,814.226536,8512.368333
3579.085257,1532.190996,962.267725,8438.347739
3579.085571,995.924147,592.164754,8068.244768
3579.085886,766.095498,666.185348,9030.512492
3579.086200,459.657299,222.061783,9918.759623
3579.086514,229.828649,-0.000000,9178.553681
3579.086829,-383.047749,-74.020594,9844.739029
3579.087143,-536.266849,-296.082377,10362.883188
3579.087457,-842.705048,-0.000000,10584.944971
3579.087772,-919.314598,-0.000000,10510.924376
3579.088086,-689.485948,518.144159,10584.944971
3579.088400,-536.266849,296.082377,10510.924376
3579.088715,0.000000,962.267725,9696.697840
3579.089029,0.000000,962.267725,9326.594869
3579.089343,306.438199,1480.411884,9696.697840
3579.089658,153.219100,1110.308913,9400.615463
3579.089972,-536.266849,1110.308913,9474.636058
3579.090286,-842.705048,592.164754,9474.636058
3579.090600,-1072.533697,-74.020594,10288.862594
3579.090915,-1378.971896,-888.247130,10140.821405
3579.091229,-2068.457845,-518.144159,10362.883188
3579.091543,-2298.286494,-962.267725,10807.006753
3579.091858,-1838.629195,-814.226536,10436.903782
3579.092172,-1762.019645,-592.164754,10214.842000
3579.092486,-1149.143247,-222.061783,9918.759623
3579.092801,-766.095498,-0.000000,9696.697840
3579.093115,-306.438199,222.061783,9178.553681
3579.093429,153.219100,370.102971,9104.533087
3579.093744,536.266849,296.082377,9030.512492
3579.094058,229.828649,296.082377,9326.594869
3579.094372,612.876398,-0.000000,8956.491898
3579.094687,842.705048,-0.000000,9252.574275
3579.095001,919.314598,-0.000000,9474.636058
3579.095315,459.657299,-518.144159,9474.636058
3579.095630,842.705048,-296.082377,9548.656652
3579.095944,919.314598,-370.102971,9474.636058
3579.096258,766.095498,-370.102971,8882.471304
3579.096573,766.095498,-148.041188,8438.347739
3579.096887,1149.143247,-148.041188,9400.615463
3579.097201,1149.143247,-666.185348,9030.512492
3579.097516,1378.971896,-0.000000,8882.471304
3579.097830,1378.971896,-222.061783,8808.450710
3579.098144,1608.800546,222.061783,8956.491898
3579.098459,1838.629195,814.226536,9400.615463
3579.098773,1378.971896,370.102971,8808.450710
3579.099087,1072.533697,-0.000000,9178.553681
3579.099401,689.485948,-0.000000,9474.636058
3579.099716,383.047749,222.061783,9474.636058
3579.100030,0.000000,-0.000000,9918.759623
3579.100344,-306.438199,-148.041188,10436.903782
3579.100659,-383.047749,-592.164754,10732.986159
3579.100973,-459.657299,-74.020594,10584.944971
3579.101287,0.000000,-0.000000,10584.944971
3579.101602,0.000000,518.144159,10732.986159
3579.101916,689.485948,814.226536,9696.697840
3579.102230,1072.533697,888.247130,9474.636058
3579.102545,1072.533697,962.267725,8808.450710
3579.102859,1225.752797,1184.329507,8882.471304
3579.103173,1455.581446,962.267725,9104.533087
3579.103488,1072.533697,518.144159,9030.512492
3579.103802,536.266849,296.082377,9178.553681
3579.104116,76.609550,-0.000000,9696.697840
3579.104431,-459.657299,-148.041188,10140.821405
3579.104745,-459.657299,-444.123565,10584.944971
3579.105059,-689.485948,-148.041188,10584.944971
3579.105374,-766.095498,-296.082377,10288.862594
3579.105688,-536.266849,-74.020594,10436.903782
3579.106002,-306.438199,740.205942,10140.821405
3579.106317,306.438199,888.247130,9696.697840
3579.106631,76.609550,1184.329507,9178.553681
3579.106945,153.219100,1258.350101,9030.512492
3579.107260,0.000000,1554.432478,9030.512492
3579.107574,-383.047749,962.267725,8956.491898
3579.107888,-1225.752797,444.123565,9474.636058
3579.108202,-1225.752797,-0.000000,10140.821405
3579.108517,-1455.581446,-444.123565,10362.883188
3579.108831,-1762.019645,-592.164754,10510.924376
3579.109145,-2068.457845,-592.164754,10807.006753
3579.109460,-1991.848295,-518.144159,10658.965565
3579.109774,-1455.581446,-666.185348,10214.842000
3579.110088,-995.924147,-0.000000,9622.677246
3579.110403,-459.657299,518.144159,9474.636058
3579.110717,76.609550,-0.000000,8808.450710
3579.111031,383.047749,592.164754,8882.471304
3579.111346,766.095498,592.164754,8808.450710
3579.111660,919.314598,370.102971,9030.512492
3579.111974,842.705048,-0.000000,9104.533087
3579.112289,459.657299,-296.082377,9770.718434
3579.112603,383.047749,-74.020594,10140.821405
3579.112917,229.828649,-296.082377,9696.697840
3579.113232,229.828649,-370.102971,9696.697840
3579.113546,459.657299,-296.082377,9474.636058
3579.113860,689.485948,-370.102971,9474.636058
3579.114175,612.876398,-296.082377,9252.574275
3579.114489,842.705048,-370.102971,8734.430116
3579.114803,1225.752797,-74.020594,8734.430116
3579.115118,1378.971896,-222.061783,8882.471304
3579.115432,1685.410096,-0.000000,8734.430116
3579.115746,1225.752797,-0.000000,9030.512492
3579.116061,1378.971896,-0.000000,8586.388927
3579.116375,842.705048,296.082377,8956.491898
3579.116689,612.876398,148.041188,8956.491898
3579.117004,919.314598,-296.082377,9400.615463
3579.117318,306.438199,-222.061783,9770.718434
3579.117632,-76.609550,-222.061783,9770.718434
3579.117946,0.000000,-74.020594,10288.862594
3579.118261,0.000000,-370.102971,10436.903782
3579.118575,-306.438199,-444.123565,10732.986159
3579.118889,0.000000,-0.000000,10807.006753
3579.119204,383.047749,296.082377,9622.677246
3579.119518,689.485948,740.205942,9770.718434
3579.119832,1685.410096,888.247130,9770.718434
3579.120147,1455.581446,1036.288319,9178.553681
3579.120461,1685.410096,962.267725,8586.388927
3579.120775,1532.190996,666.185348,8438.347739
3579.121090,1149.143247,592.164754,9178.553681
3579.121404,689.485948,222.061783,9474.636058
3579.121718,306.438199,-0.000000,9622.677246
3579.122033,-383.047749,-0.000000,10140.821405
3579.122347,-612.876398,-296.082377,10140.821405
3579.122661,-306.438199,-148.041188,10510.924376
3579.122976,-689.485948,-74.020594,10807.006753
3579.123290,-383.047749,-0.000000,10584.944971
3579.123604,-306.438199,370.102971,10066.800811
3579.123919,-459.657299,888.247130,9844.739029
3579.124233,0.000000,1184.329507,9696.697840
3579.124547,229.828649,1406.391290,9400.615463
3579.124862,383.047749,1628.453072,9622.677246
3579.125176,-306.438199,1036.288319,9178.553681
3579.125490,-459.657299,962.267725,9326.594869
3579.125805,-842.705048,-74.020594,9622.677246
3579.126119,-1455.581446,-296.082377,9696.697840
3579.126433,-1915.238745,-444.123565,10881.027347
3579.126747,-2221.676944,-814.226536,10584.944971
3579.127062,-2451.505594,-666.185348,10362.883188
3579.127376,-1991.848295,-592.164754,10510.924376
3579.127690,-1608.800546,-148.041188,10066.800811
3579.128005,-919.314598,296.082377,9844.739029
3579.128319,-383.047749,592.164754,9326.594869
3579.128633,76.609550,592.164754,9252.574275
3579.128948,766.095498,1110.308913,8808.450710
3579.129262,919.314598,740.205942,8512.368333
3579.129576,689.485948,518.144159,9104.533087
3579.129891,842.705048,-0.000000,9104.533087
3579.130205,842.705048,-0.000000,9548.656652
3579.130519,689.485948,-740.205942,9178.553681
3579.130834,306.438199,-296.082377,9992.780217
3579.131148,306.438199,-666.185348,9844.739029
3579.131462,229.828649,-518.144159,9252.574275
3579.131777,689.485948,-444.123565,9474.636058
3579.132091,383.047749,-666.185348,9474.636058
3579.132405,1149.143247,-74.020594,9104.533087
3579.132720,1302.362347,148.041188,8808.450710
3579.133034,1532.190996,-0.000000,8956.491898
3579.133348,1685.410096,-0.000000,8956.491898
3579.133663,2068.457845,296.082377,9178.553681
3579.133977,1072.533697,444.123565,9252.574275
3579.134291,689.485948,740.205942,8882.471304
3579.134606,612.876398,370.102971,9326.594869
3579.134920,306.438199,-0.000000,9844.739029
3579.135234,0.000000,-0.000000,10066.800811
3579.135548,-306.438199,-296.082377,10214.842000
3579.135863,-459.657299,-370.102971,10436.903782
3579.136177,-459.657299,-444.123565,10881.027347
3579.136491,-459.657299,-0.000000,10362.883188
3579.136806,0.000000,-0.000000,9992.780217
3579.137120,536.266849,222.061783,9844.739029
3579.137434,766.095498,444.123565,9696.697840
3579.137749,1302.362347,888.247130,9178.553681
3579.138063,1378.971896,1036.288319,8734.430116
3579.138377,1685.410096,592.164754,8512.368333
3579.138692,1455.581446,888.247130,8882.471304
3579.139006,1149.143247,370.102971,9030.512492
3579.139320,459.657299,-74.020594,9622.677246
3579.139635,0.000000,-74.020594,9770.718434
3579.139949,0.000000,-518.144159,9770.718434
3579.140263,-459.657299,-296.082377,10066.800811
3579.140578,-459.657299,-222.061783,10362.883188
3579.140892,-689.485948,-222.061783,10214.842000
3579.141206,-383.047749,222.061783,10140.821405
3579.141521,153.219100,518.144159,9918.759623
3579.141835,0.000000,1036.288319,9622.677246
3579.142149,306.438199,1406.391290,9474.636058
3579.142464,153.219100,1258.350101,9252.574275
3579.142778,0.000000,1184.329507,9400.615463
3579.143092,-689.485948,1036.288319,9622.677246
3579.143407,-1149.143247,444.123565,9548.656652
3579.143721,-1149.143247,-0.000000,10140.821405
3579.144035,-1915.238745,-74.020594,10510.924376
3579.144350,-2374.896044,-296.082377,10732.986159
3579.144664,-2221.676944,-370.102971,10881.027347
3579.144978,-1991.848295,-370.102971,10807.006753
3579.145292,-1608.800546,-0.000000,10140.821405
3579.145607,-1455.581446,444.123565,9474.636058
3579.145921,-536.266849,296.082377,9696.697840
3579.146235,0.000000,518.144159,9548.656652
3579.146550,306.438199,370.102971,8660.409521
3579.146864,459.657299,814.226536,8956.491898
3579.147178,459.657299,444.123565,9178.553681
3579.147493,995.924147,296.082377,9474.636058
3579.147807,536.266849,-0.000000,9622.677246
3579.148121,383.047749,-370.102971,9474.636058
3579.148436,306.438199,-370.102971,9844.739029
3579.148750,306.438199,-222.061783,9400.615463
3579.149064,459.657299,-518.144159,9548.656652
3579.149379,1378.971896,-814.226536,9474.636058
3579.149693,842.705048,-444.123565,9104.533087
3579.150007,995.924147,-148.041188,9030.512492
3579.150322,1455.581446,74.020594,8956.491898
3579.150636,1838.629195,-0.000000,9178.553681
3579.150950,1685.410096,-222.061783,8438.347739
3579.151265,1455.581446,-0.000000,8734.430116
3579.151579,1455.581446,370.102971,8882.471304
3579.151893,919.314598,518.144159,8512.368333
3579.152208,995.924147,-0.000000,9104.533087
3579.152522,842.705048,-0.000000,9770.718434
3579.152836,229.828649,-148.041188,10066.800811
3579.153151,-229.828649,-74.020594,9696.697840
3579.153465,0.000000,-222.061783,10362.883188
3579.153779,0.000000,-222.061783,11103.089130
3579.154093,0.000000,-296.082377,10807.006753
3579.154408,0.000000,-0.000000,10362.883188
3579.154722,0.000000,296.082377,9918.759623
3579.155036,766.095498,444.123565,9696.697840
3579.155351,1378.971896,962.267725,9252.574275
3579.155665,842.705048,962.267725,8808.450710
3579.155979,1302.362347,1110.308913,8882.471304
3579.156294,1225.752797,888.247130,8808.450710
3579.156608,1225.752797,444.123565,9178.553681
3579.156922,689.485948,222.061783,9474.636058
3579.157237,-229.828649,-0.000000,9844.739029
3579.157551,-536.266849,-370.102971,9770.718434
3579.157865,-612.876398,-222.061783,10288.862594
3579.158180,-612.876398,-296.082377,10732.986159
3579.158494,-536.266849,-0.000000,10436.903782
3579.158808,-842.705048,-148.041188,9992.780217
3579.159123,-612.876398,370.102971,10140.821405
3579.159437,-383.047749,666.185348,9844.739029
3579.159751,229.828649,962.267725,9474.636058
3579.160066,306.438199,814.226536,9178.553681
3579.160380,76.609550,962.267725,9030.512492
3579.160694,-383.047749,814.226536,9104.533087
3579.161009,-919.314598,518.144159,9474.636058
3579.161323,-1149.143247,-0.000000,10288.862594
3579.161637,-1149.143247,-592.164754,10214.842000
3579.161952,-2068.457845,-296.082377,10214.842000
3579.162266,-2221.676944,-666.185348,10584.944971
3579.162580,-2145.067394,-666.185348,10658.965565
3579.162894,-1532.190996,-370.102971,10362.883188
3579.163209,-1302.362347,-222.061783,9844.739029
3579.163523,-766.095498,296.082377,9252.574275
3579.163837,-153.219100,444.123565,8956.491898
3579.164152,153.219100,518.144159,8808.450710
3579.164466,612.876398,592.164754,9178.553681
3579.164780,766.095498,148.041188,9178.553681
3579.165095,766.095498,-0.000000,9104.533087
3579.165409,612.876398,-74.020594,9400.615463
3579.165723,306.438199,-148.041188,9770.718434
3579.166038,0.000000,-296.082377,9622.677246
3579.166352,612.876398,-592.164754,9326.594869
3579.166666,383.047749,-370.102971,9622.677246
3579.166980,536.266849,-444.123565,9326.594869
3579.167294,842.705048,-222.061783,8956.491898
3579.167609,842.705048,-296.082377,9104.533087
3579.167923,1378.971896,-0.000000,9474.636058
3579.168237,1225.752797,-0.000000,9178.553681
3579.168551,1225.752797,222.061783,8882.471304
3579.168865,1915.238745,-0.000000,9178.553681
3579.169179,1302.362347,222.061783,8956.491898
3579.169494,995.924147,296.082377,8438.347739
3579.169808,919.314598,296.082377,8808.450710
3579.170122,459.657299,-0.000000,9474.636058
3579.170436,76.609550,-222.061783,9474.636058
3579.170750,0.000000,-518.144159,9992.780217
3579.171064,612.876398,-666.185348,10362.883188
3579.171378,-383.047749,-666.185348,10732.986159
3579.171693,0.000000,-0.000000,10584.944971
3579.172007,76.609550,-0.000000,10362.883188
3579.172321,383.047749,-0.000000,9844.739029
3579.172635,689.485948,814.226536,9696.697840
3579.172949,995.924147,1110.308913,9030.512492
3579.173263,1378.971896,962.267725,8956.491898
3579.173578,1532.190996,1110.308913,9104.533087
3579.173892,1455.581446,814.226536,9252.574275
3579.174206,1378.971896,592.164754,9474.636058
3579.174520,459.657299,222.061783,9474.636058
3579.174834,76.609550,148.041188,9622.677246
3579.175148,-229.828649,-0.000000,10066.800811
3579.175463,-229.828649,-74.020594,10881.027347
3579.175777,-689.485948,-0.000000,10807.006753
3579.176091,-842.705048,222.061783,10066.800811
3579.176405,-306.438199,370.102971,10288.862594
3579.176719,-459.657299,666.185348,10436.903782
3579.177033,0.000000,962.267725,9770.718434
3579.177348,0.000000,1184.329507,9474.636058
3579.177662,0.000000,962.267725,9548.656652
3579.177976,0.000000,1332.370696,9474.636058
3579.178290,-536.266849,1184.329507,9474.636058
3579.178604,-306.438199,814.226536,9622.677246
3579.178918,-1225.752797,222.061783,9696.697840
3579.179233,-1685.410096,-370.102971,10140.821405
3579.179547,-1991.848295,-666.185348,10362.883188
3579.179861,-2298.286494,-740.205942,10658.965565
3579.180175,-1532.190996,-592.164754,10510.924376
3579.180489,-1608.800546,-296.082377,10288.862594
3579.180803,-1225.752797,296.082377,9844.739029
3579.181118,-995.924147,444.123565,9622.677246
3579.181432,0.000000,444.123565,9104.533087
3579.181746,306.438199,740.205942,9400.615463
3579.182060,383.047749,592.164754,8660.409521
3579.182374,536.266849,592.164754,8956.491898
3579.182688,995.924147,148.041188,9104.533087
3579.183003,995.924147,-296.082377,9548.656652
3579.183317,919.314598,-74.020594,9548.656652
3579.183631,383.047749,-148.041188,9474.636058
3579.183945,536.266849,-222.061783,9474.636058
3579.184259,459.657299,-444.123565,9622.677246
3579.184573,536.266849,-518.144159,9400.615463
3579.184887,612.876398,-444.123565,9104.533087
3579.185202,919.314598,-370.102971,8512.368333
3579.185516,1378.971896,-0.000000,8882.471304
3579.185830,1532.190996,-0.000000,8734.430116
3579.186144,1838.629195,-0.000000,9104.533087
3579.186458,1302.362347,-0.000000,9030.512492
3579.186772,995.924147,-0.000000,8808.450710
3579.187087,995.924147,592.164754,9030.512492
3579.187401,536.266849,518.144159,9326.594869
3579.187715,689.485948,-0.000000,9474.636058
3579.188029,306.438199,-370.102971,9548.656652
3579.188343,-459.657299,-518.144159,9992.780217
3579.188657,-612.876398,-518.144159,10436.903782
3579.188972,-612.876398,-370.102971,10584.944971
3579.189286,-229.828649,-296.082377,10807.006753
3579.189600,0.000000,-74.020594,10510.924376
3579.189914,229.828649,370.102971,9992.780217
3579.190228,229.828649,370.102971,9474.636058
3579.190542,1072.533697,814.226536,9474.636058
3579.190857,1149.143247,814.226536,9252.574275
3579.191171,1225.752797,666.185348,8438.347739
3579.191485,1302.362347,518.144159,8438.347739
3579.191799,919.314598,518.144159,9104.533087
3579.192113,919.314598,518.144159,9696.697840
3579.192427,689.485948,-0.000000,9252.574275
3579.192742,-153.219100,-222.061783,9622.677246
3579.193056,-689.485948,-296.082377,10288.862594
3579.193370,-459.657299,-296.082377,10436.903782
3579.193684,-1378.971896,-444.123565,10510.924376
3579.193998,-612.876398,-148.041188,10362.883188
3579.194312,-612.876398,-0.000000,10288.862594
3579.194627,-229.828649,518.144159,9992.780217
3579.194941,76.609550,1184.329507,9992.780217
3579.195255,153.219100,1332.370696,9474.636058
3579.195569,229.828649,1480.411884,8882.471304
3579.195883,0.000000,1332.370696,8808.450710
3579.196197,-306.438199,814.226536,9696.697840
3579.196512,-766.095498,370.102971,9622.677246
3579.196826,-1225.752797,-0.000000,10214.842000
3579.197140,-1225.752797,-370.102971,10658.965565
3579.197454,-2068.457845,-518.144159,10510.924376
3579.197768,-2145.067394,-518.144159,10584.944971
3579.198082,-1608.800546,-518.144159,10658.965565
3579.198396,-1302.362347,-222.061783,10658.965565
3579.198711,-612.876398,222.061783,9622.677246
3579.199025,0.000000,666.185348,8808.450710
3579.199339,153.219100,962.267725,8956.491898
3579.199653,459.657299,740.205942,9104.533087
3579.199967,689.485948,518.144159,8882.471304
3579.200281,689.485948,222.061783,8882.471304
3579.200596,766.095498,-0.000000,9178.553681
3579.200910,612.876398,-0.000000,9252.574275
3579.201224,612.876398,-74.020594,9326.594869
3579.201538,766.095498,-444.123565,9844.739029
3579.201852,229.828649,-148.041188,9770.718434
3579.202166,536.266849,-370.102971,9548.656652
3579.202481,536.266849,-296.082377,9178.553681
3579.202795,919.314598,-444.123565,8882.471304
3579.203109,459.657299,-296.082377,9326.594869
3579.203423,1302.362347,-0.000000,8956.491898
3579.203737,1532.190996,-74.020594,8882.471304
3579.204051,1608.800546,148.041188,8660.409521
3579.204366,1302.362347,222.061783,8956.491898
3579.204680,1149.143247,518.144159,8734.430116
3579.204994,842.705048,444.123565,8734.430116
3579.205308,766.095498,74.020594,8882.471304
3579.205622,612.876398,-0.000000,9104.533087
3579.205936,76.609550,-0.000000,10066.800811
3579.206251,-383.047749,-148.041188,10140.821405
3579.206565,-612.876398,-370.102971,9918.759623
3579.206879,-536.266849,-148.041188,11103.089130
3579.207193,-306.438199,-0.000000,11251.130318
3579.207507,229.828649,666.185348,10881.027347
3579.207821,383.047749,740.205942,10288.862594
3579.208136,919.314598,888.247130,9622.677246
3579.208450,1225.752797,1332.370696,9474.636058
3579.208764,1455.581446,1480.411884,9030.512492
3579.209078,1685.410096,1110.308913,8956.491898
3579.209392,1455.581446,1406.391290,8808.450710
3579.209706,842.705048,1036.288319,8956.491898
3579.210020,306.438199,518.144159,9400.615463
3579.210335,0.000000,222.061783,9992.780217
3579.210649,-459.657299,-148.041188,10510.924376
3579.210963,-1072.533697,-0.000000,10732.986159
3579.211277,-842.705048,-74.020594,10584.944971
3579.211591,-689.485948,-0.000000,10807.006753
3579.211905,-536.266849,444.123565,10362.883188
3579.212220,-306.438199,518.144159,10214.842000
3579.212534,-229.828649,1036.288319,9696.697840
3579.212848,306.438199,1406.391290,9474.636058
3579.213162,229.828649,1480.411884,9326.594869
3579.213476,76.609550,962.267725,9178.553681
3579.213790,-229.828649,666.185348,9400.615463
3579.214105,-612.876398,370.102971,9548.656652
3579.214419,-842.705048,-222.061783,9696.697840
3579.214733,-1608.800546,-444.123565,9992.780217
3579.215047,-1915.238745,-666.185348,10436.903782
3579.215361,-2068.457845,-1036.288319,10584.944971
3579.215675,-1685.410096,-962.267725,10436.903782
3579.215990,-1378.971896,-518.144159,10214.842000
3579.216304,-842.705048,-222.061783,9474.636058
3579.216618,0.000000,-0.000000,9326.594869
3579.216932,153.219100,296.082377,9400.615463
3579.217246,459.657299,592.164754,8882.471304
3579.217560,689.485948,666.185348,8216.285956
3579.217875,995.924147,-0.000000,8882.471304
3579.218189,919.314598,222.061783,9622.677246
3579.218503,689.485948,-74.020594,9548.656652
3579.218817,536.266849,-370.102971,9326.594869
3579.219131,459.657299,-592.164754,9548.656652
3579.219445,76.609550,-518.144159,9696.697840
3579.219760,766.095498,-1406.391290,9326.594869
3579.220074,536.266849,-592.164754,9400.615463
3579.220388,459.657299,-296.082377,9030.512492
3579.220702,766.095498,-296.082377,8438.347739
3579.221016,1378.971896,-0.000000,8734.430116
3579.221330,1608.800546,-222.061783,9252.574275
3579.221645,1608.800546,-0.000000,8586.388927
3579.221959,1532.190996,-0.000000,8438.347739
3579.222273,1225.752797,-0.000000,8734.430116
3579.222587,689.485948,370.102971,8882.471304
3579.222901,842.705048,-0.000000,9178.553681
3579.223215,306.438199,-222.061783,9474.636058
3579.223529,0.000000,-296.082377,9696.697840
3579.223844,-689.485948,-74.020594,10214.842000
3579.224158,-689.485948,-518.144159,10362.883188
3579.224472,-536.266849,-592.164754,10510.924376
3579.224786,-306.438199,-148.041188,10288.862594
3579.225100,-306.438199,148.041188,10214.842000
3579.225414,229.828649,518.144159,10214.842000
3579.225729,842.705048,814.226536,9918.759623
3579.226043,1302.362347,666.185348,9178.553681
3579.226357,1225.752797,1110.308913,8808.450710
3579.226671,1302.362347,1036.288319,8586.388927
3579.226985,1302.362347,962.267725,9030.512492
3579.227299,1378.971896,592.164754,9326.594869
3579.227614,459.657299,222.061783,9474.636058
3579.227928,-229.828649,-74.020594,9844.739029
3579.228242,-459.657299,-74.020594,9992.780217
3579.228556,-536.266849,-74.020594,10362.883188
3579.228870,-536.266849,-0.000000,11103.089130
3579.229184,-766.095498,-148.041188,10881.027347
3579.229499,-766.095498,592.164754,10584.944971
3579.229813,-459.657299,814.226536,10214.842000
3579.230127,-229.828649,1184.329507,10214.842000
3579.230441,76.609550,1036.288319,9770.718434
3579.230755,536.266849,1628.453072,9474.636058
3579.231069,229.828649,1406.391290,9622.677246
3579.231384,-153.219100,1554.432478,9104.533087
3579.231698,-612.876398,1110.308913,9474.636058
3579.232012,-995.924147,222.061783,9918.759623
3579.232326,-1762.019645,-74.020594,10362.883188
3579.232640,-1685.410096,-296.082377,10436.903782
3579.232954,-2221.676944,-370.102971,10658.965565
3579.233269,-1915.238745,-518.144159,10881.027347
3579.233583,-1302.362347,-296.082377,10658.965565
3579.233897,-1685.410096,-0.000000,9844.739029
3579.234211,-919.314598,148.041188,9622.677246
3579.234525,-306.438199,370.102971,9326.594869
3579.234839,153.219100,740.205942,9030.512492
3579.235154,919.314598,592.164754,8956.491898
3579.235468,919.314598,444.123565,9178.553681
3579.235782,842.705048,-0.000000,8734.430116
3579.236096,995.924147,-0.000000,8808.450710
3579.236410,766.095498,-148.041188,9918.759623
3579.236724,766.095498,-592.164754,9474.636058
3579.237038,229.828649,-592.164754,9104.533087
3579.237353,306.438199,-296.082377,9474.636058
3579.237667,536.266849,-740.205942,9252.574275
3579.237981,689.485948,-444.123565,9326.594869
3579.238295,612.876398,-814.226536,9104.533087
3579.238609,919.314598,-740.205942,9400.615463
3579.238923,1149.143247,-444.123565,8956.491898
3579.239238,1532.190996,-0.000000,8586.388927
3579.239552,1455.581446,370.102971,8956.491898
3579.239866,1455.581446,-0.000000,9030.512492
3579.240180,1149.143247,370.102971,8882.471304
3579.240494,689.485948,222.061783,8586.388927
3579.240808,459.657299,-0.000000,9474.636058
3579.241123,0.000000,-148.041188,9770.718434
3579.241437,-383.047749,-148.041188,10214.842000
3579.241751,-383.047749,-666.185348,10288.862594
3579.242065,-536.266849,-666.185348,10658.965565
3579.242379,-306.438199,-444.123565,10807.006753
3579.242693,-612.876398,-0.000000,10584.944971
3579.243008,229.828649,148.041188,10214.842000
3579.243322,306.438199,666.185348,9548.656652
3579.243636,1072.533697,1110.308913,9326.594869
3579.243950,1225.752797,1036.288319,8956.491898
3579.244264,1532.190996,1110.308913,8660.409521
3579.244578,1225.752797,814.226536,8734.430116
3579.244893,1149.143247,148.041188,8808.450710
3579.245207,766.095498,444.123565,9400.615463
3579.245521,0.000000,-0.000000,9548.656652
3579.245835,-383.047749,-592.164754,10140.821405
3579.246149,-536.266849,-370.102971,10214.842000
3579.246463,-766.095498,-222.061783,10658.965565
3579.246778,-612.876398,-0.000000,10436.903782
3579.247092,-459.657299,-0.000000,10658.965565
3579.247406,0.000000,444.123565,10584.944971
3579.247720,0.000000,592.164754,9844.739029
3579.248034,229.828649,888.247130,9474.636058
3579.248348,306.438199,1184.329507,9178.553681
3579.248663,459.657299,1480.411884,9400.615463
3579.248977,76.609550,1258.350101,9400.615463
3579.249291,-76.609550,444.123565,9400.615463
3579.249605,-919.314598,222.061783,9548.656652
3579.249919,-1302.362347,-222.061783,10066.800811
3579.250233,-2068.457845,-370.102971,10510.924376
3579.250547,-2374.896044,-888.247130,10658.965565
3579.250862,-1991.848295,-814.226536,10658.965565
3579.251176,-2068.457845,-370.102971,10214.842000
3579.251490,-1302.362347,-0.000000,9918.759623
3579.251804,-689.485948,222.061783,9696.697840
3579.252118,-306.438199,592.164754,9696.697840
3579.252432,76.609550,592.164754,9252.574275
3579.252747,383.047749,962.267725,9030.512492
3579.253061,612.876398,888.247130,9178.553681
3579.253375,919.314598,666.185348,9252.574275
3579.253689,689.485948,296.082377,9622.677246
3579.254003,536.266849,-0.000000,9400.615463
3579.254317,459.657299,-74.020594,9622.677246
3579.254632,229.828649,-370.102971,9474.636058
3579.254946,536.266849,-370.102971,9844.739029
3579.255260,383.047749,-444.123565,9400.615463
3579.255574,459.657299,-222.061783,8882.471304
3579.255888,306.438199,-222.061783,9178.553681
3579.256202,1149.143247,-370.102971,9474.636058
3579.256517,1608.800546,-0.000000,9252.574275
3579.256831,1532.190996,296.082377,8882.471304
3579.257145,1378.971896,222.061783,8660.409521
3579.257459,1532.190996,592.164754,8660.409521
3579.257773,1378.971896,518.144159,9104.533087
3579.258087,766.095498,296.082377,9178.553681
3579.258402,612.876398,-0.000000,9474.636058
3579.258716,383.047749,-222.061783,9474.636058
3579.259030,-306.438199,-296.082377,9770.718434
3579.259344,0.000000,-962.267725,9992.780217
3579.259658,-459.657299,-666.185348,10584.944971
3579.259972,-459.657299,-370.102971,10362.883188
3579.260287,0.000000,148.041188,10214.842000
3579.260601,229.828649,444.123565,10362.883188
3579.260915,612.876398,740.205942,9770.718434
3579.261229,1149.143247,962.267725,9400.615463
3579.261543,1378.971896,962.267725,9030.512492
3579.261857,1378.971896,1036.288319,8586.388927
3579.262172,1532.190996,814.226536,8586.388927
3579.262486,1072.533697,740.205942,9178.553681
3579.262800,689.485948,148.041188,9548.656652
3579.263114,306.438199,-0.000000,9548.656652
3579.263428,-153.219100,-222.061783,9770.718434
3579.263742,-536.266849,-296.082377,10510.924376
3579.264056,-842.705048,-222.061783,10658.965565
3579.264371,-919.314598,-222.061783,10584.944971
3579.264685,-842.705048,-0.000000,10362.883188
3579.264999,-459.657299,-0.000000,10140.821405
3579.265313,0.000000,666.185348,9844.739029
3579.265627,306.438199,666.185348,9474.636058
3579.265941,76.609550,888.247130,9548.656652
3579.266256,153.219100,1184.329507,9252.574275
3579.266570,0.000000,1036.288319,8956.491898
3579.266884,-612.876398,592.164754,9474.636058
3579.267198,-1072.533697,-0.000000,9770.718434
3579.267512,-1378.971896,-222.061783,10214.842000
3579.267827,-1608.800546,-592.164754,10362.883188
3579.268141,-2068.457845,-814.226536,10658.965565
3579.268455,-2298.286494,-814.226536,10362.883188
3579.268769,-1608.800546,-1036.288319,10362.883188
3579.269084,-1455.581446,-444.123565,9918.759623
3579.269398,-689.485948,-148.041188,9474.636058
3579.269712,-153.219100,370.102971,9178.553681
3579.270026,383.047749,222.061783,9030.512492
3579.270341,689.485948,518.144159,9030.512492
3579.270655,689.485948,592.164754,8660.409521
3579.270969,766.095498,444.123565,8660.409521
3579.271283,842.705048,222.061783,9400.615463
3579.271597,766.095498,-0.000000,9548.656652
3579.271912,842.705048,-296.082377,9474.636058
3579.272226,459.657299,-222.061783,9548.656652
3579.272540,229.828649,-740.205942,9548.656652
3579.272854,459.657299,-518.144159,9696.697840
3579.273169,612.876398,-222.061783,9696.697840
3579.273483,689.485948,-666.185348,9104.533087
3579.273797,1149.143247,-370.102971,9104.533087
3579.274111,1302.362347,-0.000000,8734.430116
3579.274425,1455.581446,-0.000000,9030.512492
3579.274740,1762.019645,370.102971,9326.594869
3579.275054,1225.752797,370.102971,9326.594869
3579.275368,919.314598,444.123565,8956.491898
3579.275682,919.314598,296.082377,9178.553681
3579.275997,766.095498,222.061783,9030.512492
3579.276311,842.705048,-0.000000,9474.636058
3579.276625,0.000000,-370.102971,9992.780217
3579.276939,-229.828649,-370.102971,10214.842000
3579.277254,-153.219100,-296.082377,10288.862594
3579.277568,0.000000,-518.144159,10658.965565
3579.277882,153.219100,-296.082377,10584.944971
3579.278196,229.828649,222.061783,9918.759623
3579.278510,153.219100,444.123565,9474.636058
3579.278825,995.924147,592.164754,9696.697840
3579.279139,1302.362347,1110.308913,9104.533087
3579.279453,1455.581446,1110.308913,8216.285956
3579.279767,1378.971896,740.205942,8808.450710
3579.280082,1072.533697,1036.288319,8882.471304
3579.280396,1225.752797,740.205942,9252.574275
3579.280710,536.266849,370.102971,9622.677246
3579.281024,-153.219100,-74.020594,10140.821405
3579.281338,-536.266849,-296.082377,10362.883188
3579.281653,-612.876398,-222.061783,10214.842000
3579.281967,-766.095498,-74.020594,10584.944971
3579.282281,-919.314598,370.102971,10732.986159
3579.282595,-766.095498,148.041188,10584.944971
3579.282910,-459.657299,592.164754,10066.800811
3579.283224,0.000000,888.247130,9696.697840
3579.283538,153.219100,1332.370696,9474.636058
3579.283852,229.828649,1036.288319,9474.636058
3579.284167,-229.828649,814.226536,9400.615463
3579.284481,-689.485948,1184.329507,9326.594869
3579.284795,-1149.143247,740.205942,9474.636058
3579.285109,-1225.752797,-0.000000,9992.780217
3579.285423,-1685.410096,-148.041188,10807.006753
3579.285738,-2221.676944,-370.102971,10732.986159
3579.286052,-2298.286494,-666.185348,10436.903782
3579.286366,-1991.848295,-666.185348,10584.944971
3579.286680,-1608.800546,-148.041188,10362.883188
3579.286995,-1302.362347,296.082377,9696.697840
3579.287309,-689.485948,592.164754,9326.594869
3579.287623,0.000000,222.061783,9474.636058
3579.287937,689.485948,814.226536,9030.512492
3579.288251,689.485948,666.185348,8586.388927
3579.288566,766.095498,370.102971,9252.574275
3579.288880,612.876398,-0.000000,9252.574275
3579.289194,919.314598,-0.000000,9474.636058
3579.289508,689.485948,-222.061783,9474.636058
3579.289823,689.485948,-370.102971,9622.677246
3579.290137,459.657299,-518.144159,9696.697840
3579.290451,536.266849,-370.102971,9326.594869
3579.290765,536.266849,-666.185348,9474.636058
3579.291080,842.705048,-740.205942,9104.533087
3579.291394,1302.362347,-222.061783,9104.533087
3579.291708,1762.019645,-0.000000,8882.471304
3579.292022,1532.190996,-0.000000,8956.491898
3579.292336,2068.457845,296.082377,8734.430116
3579.292651,1991.848295,-0.000000,8660.409521
3579.292965,1225.752797,370.102971,9030.512492
3579.293279,1072.533697,444.123565,9252.574275
3579.293593,995.924147,-0.000000,9326.594869
3579.293908,766.095498,-0.000000,9474.636058
3579.294222,153.219100,-148.041188,9770.718434
3579.294536,-383.047749,-444.123565,10436.903782
3579.294850,-383.047749,-370.102971,10510.924376
3579.295165,-842.705048,-666.185348,10658.965565
3579.295479,76.609550,-0.000000,10732.986159
3579.295793,153.219100,222.061783,9844.739029
3579.296107,383.047749,518.144159,9770.718434
3579.296421,612.876398,444.123565,9770.718434
3579.296736,459.657299,666.185348,9474.636058
3579.297050,1225.752797,814.226536,8808.450710
3579.297364,919.314598,592.164754,8956.491898
3579.297678,1072.533697,444.123565,9252.574275
3579.297993,842.705048,148.041188,8956.491898
3579.298307,383.047749,148.041188,9326.594869
3579.298621,0.000000,-0.000000,9844.739029
3579.298935,-383.047749,-74.020594,9770.718434
3579.299249,-536.266849,-0.000000,10288.862594
3579.299564,-842.705048,-0.000000,10436.903782
3579.299878,-612.876398,-444.123565,10214.842000
3579.300192,-842.705048,-0.000000,10066.800811
3579.300506,-459.657299,444.123565,10066.800811
3579.300821,-306.438199,814.226536,10288.862594
3579.301135,-306.438199,962.267725,9326.594869
3579.301449,612.876398,740.205942,9326.594869
3579.301763,0.000000,1036.288319,9030.512492
3579.302078,-229.828649,1036.288319,9252.574275
3579.302392,-842.705048,740.205942,9474.636058
3579.302706,-995.924147,-0.000000,9992.780217
3579.303020,-1225.752797,-592.164754,9770.718434
3579.303334,-2068.457845,-148.041188,10436.903782
3579.303649,-2145.067394,-592.164754,10732.986159
3579.303963,-1915.238745,-518.144159,11029.068536
3579.304277,-1685.410096,-222.061783,10584.944971
3579.304591,-1072.533697,-148.041188,9918.759623
3579.304906,-536.266849,370.102971,9474.636058
3579.305220,0.000000,740.205942,9178.553681
3579.305534,383.047749,518.144159,8586.388927
3579.305848,842.705048,666.185348,8956.491898
3579.306162,766.095498,666.185348,9548.656652
3579.306477,689.485948,370.102971,8956.491898
3579.306791,995.924147,-0.000000,9104.533087
3579.307105,536.266849,-148.041188,9696.697840
3579.307419,229.828649,-518.144159,9548.656652
3579.307734,229.828649,-518.144159,9474.636058
3579.308048,459.657299,-592.164754,9696.697840
3579.308362,612.876398,-740.205942,9696.697840
3579.308676,919.314598,-370.102971,9178.553681
3579.308991,995.924147,-518.144159,8882.471304
3579.309305,1225.752797,-296.082377,8882.471304
3579.309619,1532.190996,444.123565,9030.512492
3579.309933,1685.410096,-0.000000,8882.471304
3579.310247,1608.800546,-0.000000,8734.430116
3579.310562,1762.019645,222.061783,9178.553681
3579.310876,1302.362347,518.144159,8660.409521
3579.311190,766.095498,518.144159,8956.491898
3579.311504,612.876398,-0.000000,9474.636058
3579.311819,612.876398,-296.082377,9474.636058
3579.312133,153.219100,-518.144159,9770.718434
3579.312447,-153.219100,-444.123565,9992.780217
3579.312761,0.000000,-444.123565,10362.883188
3579.313075,0.000000,-148.041188,10807.006753
3579.313390,0.000000,-0.000000,10362.883188
3579.313704,0.000000,-0.000000,10214.842000
3579.314018,536.266849,518.144159,9474.636058
3579.314332,1072.533697,962.267725,9178.553681
3579.314647,1378.971896,888.247130,9178.553681
3579.314961,1378.971896,1110.308913,8882.471304
3579.315275,1685.410096,962.267725,9030.512492
3579.315589,1149.143247,740.205942,8956.491898
3579.315904,689.485948,370.102971,9696.697840
3579.316218,229.828649,-0.000000,10066.800811
3579.316532,-383.047749,-0.000000,9844.739029
3579.316846,-612.876398,-74.020594,10584.944971
3579.317160,-919.314598,-0.000000,10807.006753
3579.317475,-919.314598,-74.020594,10658.965565
3579.317789,-1378.971896,296.082377,10584.944971
3579.318103,-612.876398,-222.061783,10362.883188
3579.318417,-383.047749,592.164754,10214.842000
3579.318732,0.000000,962.267725,9622.677246
3579.319046,0.000000,1036.288319,9622.677246
3579.319360,0.000000,1036.288319,9400.615463
3579.319674,0.000000,1110.308913,9178.553681
3579.319988,-1072.533697,740.205942,9178.553681
3579.320303,-1072.533697,222.061783,9770.718434
3579.320617,-1378.971896,-296.082377,9992.780217
3579.320931,-2068.457845,-370.102971,10214.842000
3579.321245,-1991.848295,-740.205942,10436.903782
3579.321560,-1991.848295,-296.082377,10658.965565
3579.321874,-1302.362347,-74.020594,10066.800811
3579.322188,-1149.143247,-148.041188,10066.800811
3579.322502,-842.705048,-74.020594,9474.636058
3579.322817,-153.219100,444.123565,9326.594869
3579.323131,229.828649,592.164754,8956.491898
3579.323445,612.876398,444.123565,8882.471304
3579.323759,766.095498,222.061783,8882.471304
3579.324073,919.314598,370.102971,9252.574275
3579.324388,689.485948,-148.041188,9178.553681
3579.324702,612.876398,-0.000000,9474.636058
3579.325016,383.047749,-148.041188,9474.636058
3579.325330,612.876398,-296.082377,9622.677246
3579.325645,766.095498,-370.102971,9622.677246
3579.325959,766.095498,-296.082377,9622.677246
3579.326273,689.485948,-296.082377,9178.553681
3579.326587,1149.143247,-296.082377,8956.491898
3579.326901,1378.971896,-148.041188,9326.594869
3579.327216,1685.410096,-0.000000,9104.533087
3579.327530,1762.019645,296.082377,8882.471304
3579.327844,1762.019645,-0.000000,9030.512492
3579.328158,1455.581446,296.082377,9104.533087
3579.328473,1072.533697,518.144159,8882.471304
3579.328787,1225.752797,-74.020594,8956.491898
3579.329101,612.876398,-0.000000,9474.636058
3579.329415,383.047749,-74.020594,9548.656652
3579.329730,0.000000,-370.102971,9474.636058
3579.330044,-383.047749,-444.123565,10362.883188
3579.330358,-306.438199,-222.061783,10584.944971
3579.330672,-229.828649,-518.144159,9918.759623
3579.330986,0.000000,-0.000000,10140.821405
3579.331301,153.219100,-0.000000,9992.780217
3579.331615,612.876398,592.164754,9918.759623
3579.331929,1149.143247,592.164754,9104.533087
3579.332243,1378.971896,814.226536,9030.512492
3579.332558,1455.581446,1184.329507,8956.491898
3579.332872,1302.362347,814.226536,8586.388927
3579.333186,1378.971896,444.123565,9104.533087
3579.333500,689.485948,518.144159,9178.553681
3579.333814,306.438199,-0.000000,9474.636058
3579.334129,-306.438199,-74.020594,9844.739029
3579.334443,-842.705048,-148.041188,10362.883188
3579.334757,-383.047749,-222.061783,10658.965565
3579.335071,-766.095498,-222.061783,10881.027347
3579.335386,-1302.362347,296.082377,10436.903782
3579.335700,-383.047749,518.144159,10584.944971
3579.336014,-153.219100,888.247130,10288.862594
3579.336328,0.000000,1184.329507,9696.697840
3579.336643,-153.219100,962.267725,9252.574275
3579.336957,229.828649,1406.391290,9548.656652
3579.337271,-153.219100,1184.329507,9252.574275
3579.337585,-459.657299,1184.329507,9474.636058
3579.337899,-1072.533697,222.061783,10288.862594
3579.338214,-1302.362347,-444.123565,10140.821405
3579.338528,-2068.457845,-444.123565,10066.800811
3579.338842,-2145.067394,-518.144159,10881.027347
3579.339156,-2298.286494,-592.164754,10658.965565
3579.339471,-1915.238745,-444.123565,10584.944971
3579.339785,-1608.800546,-74.020594,10066.800811
3579.340099,-689.485948,-0.000000,9622.677246
3579.340413,-153.219100,370.102971,8808.450710
3579.340727,306.438199,518.144159,8956.491898
3579.341042,306.438199,518.144159,9474.636058
3579.341356,766.095498,518.144159,8586.388927
3579.341670,919.314598,518.144159,9030.512492
3579.341984,919.314598,296.082377,9104.533087
3579.342299,919.314598,-148.041188,9326.594869
3579.342613,995.924147,-222.061783,9474.636058
3579.342927,383.047749,-296.082377,9622.677246
3579.343241,612.876398,-666.185348,9696.697840
3579.343556,766.095498,-518.144159,9400.615463
3579.343870,536.266849,-814.226536,9178.553681
3579.344184,612.876398,-592.164754,9252.574275
3579.344498,1302.362347,-222.061783,8882.471304
3579.344812,1608.800546,-0.000000,8956.491898
3579.345127,1915.238745,74.020594,8956.491898
3579.345441,1991.848295,296.082377,9178.553681
3579.345755,1838.629195,-0.000000,8586.388927
3579.346069,1685.410096,592.164754,8068.244768
3579.346384,995.924147,740.205942,9030.512492
3579.346698,919.314598,-0.000000,9326.594869
3579.347012,766.095498,-148.041188,9548.656652
3579.347326,0.000000,-444.123565,9918.759623
3579.347640,-766.095498,-740.205942,10214.842000
3579.347955,-383.047749,-444.123565,10658.965565
3579.348269,-306.438199,-222.061783,10955.047942
3579.348583,-459.657299,-296.082377,11029.068536
3579.348897,-383.047749,296.082377,10362.883188
3579.349212,76.609550,518.144159,9548.656652
3579.349526,612.876398,962.267725,9474.636058
3579.349840,995.924147,1258.350101,9104.533087
3579.350154,1302.362347,1184.329507,9030.512492
3579.350469,536.266849,740.205942,8438.347739
3579.350783,995.924147,740.205942,8882.471304
3579.351097,383.047749,444.123565,9474.636058
3579.351411,153.219100,148.041188,9622.677246
3579.351725,76.609550,-222.061783,9992.780217
3579.352040,-995.924147,-222.061783,10140.821405
3579.352354,-1149.143247,-148.041188,10510.924376
3579.352668,-842.705048,-74.020594,10362.883188
3579.352982,-919.314598,-0.000000,10436.903782
3579.353297,-612.876398,-0.000000,10510.924376
3579.353611,0.000000,518.144159,10066.800811
3579.353925,0.000000,1036.288319,9696.697840
3579.354239,0.000000,1036.288319,9400.615463
3579.354554,0.000000,1110.308913,9474.636058
3579.354868,536.266849,888.247130,9326.594869
3579.355182,-459.657299,1110.308913,9252.574275
3579.355496,-612.876398,740.205942,9622.677246
3579.355810,-995.924147,-0.000000,9918.759623
3579.356125,-1532.190996,-518.144159,10214.842000
3579.356439,-2145.067394,-444.123565,10584.944971
3579.356753,-2145.067394,-814.226536,10732.986159
3579.357067,-1991.848295,-666.185348,10584.944971
3579.357382,-1225.752797,-296.082377,10584.944971
3579.357696,-842.705048,-0.000000,10066.800811
3579.358010,-689.485948,740.205942,9696.697840
3579.358324,0.000000,518.144159,9178.553681
3579.358638,459.657299,740.205942,8956.491898
3579.358953,919.314598,592.164754,8956.491898
3579.359267,1072.533697,296.082377,9104.533087
3579.359581,995.924147,-0.000000,9030.512492
3579.359895,995.924147,592.164754,9474.636058
3579.360210,919.314598,222.061783,9326.594869
3579.360524,842.705048,-296.082377,9474.636058
3579.360838,689.485948,-296.082377,9622.677246
3579.361152,459.657299,-370.102971,9474.636058
3579.361467,919.314598,-370.102971,8956.491898
3579.361781,995.924147,-296.082377,9326.594869
3579.362095,1455.581446,-148.041188,9104.533087
3579.362409,1685.410096,-518.144159,8660.409521
3579.362723,1455.581446,148.041188,9030.512492
3579.363038,1608.800546,-0.000000,8808.450710
3579.363352,1762.019645,370.102971,8808.450710
3579.363666,1225.752797,370.102971,8956.491898
3579.363980,612.876398,518.144159,8956.491898
3579.364295,842.705048,148.041188,9178.553681
3579.364609,536.266849,-0.000000,9474.636058
3579.364923,76.609550,-370.102971,9918.759623
3579.365237,-383.047749,-444.123565,9992.780217
3579.365551,-306.438199,-592.164754,10066.800811
3579.365866,-229.828649,-888.247130,10436.903782
3579.366180,-306.438199,-444.123565,10732.986159
3579.366494,0.000000,-0.000000,10214.842000
3579.366808,229.828649,370.102971,10140.821405
3579.367123,766.095498,1036.288319,10214.842000
3579.367437,842.705048,1036.288319,9844.739029
3579.367751,1072.533697,1036.288319,9104.533087
3579.368065,1072.533697,592.164754,8734.430116
3579.368379,1149.143247,592.164754,9400.615463
3579.368693,1149.143247,444.123565,9252.574275
3579.369007,229.828649,-0.000000,9548.656652
3579.369322,0.000000,-0.000000,9770.718434
3579.369636,-612.876398,-148.041188,10362.883188
3579.369950,-919.314598,-74.020594,10214.842000
3579.370264,-1532.190996,296.082377,10584.944971
3579.370578,-1149.143247,-0.000000,10807.006753
3579.370892,-766.095498,296.082377,10362.883188
3579.371206,-766.095498,592.164754,9844.739029
3579.371520,-536.266849,962.267725,10214.842000
3579.371835,-459.657299,1036.288319,9474.636058
3579.372149,153.219100,1036.288319,9252.574275
3579.372463,0.000000,1036.288319,9030.512492
3579.372777,-536.266849,740.205942,9326.594869
3579.373091,-766.095498,296.082377,9400.615463
3579.373405,-919.314598,222.061783,9918.759623
3579.373719,-1685.410096,-296.082377,9844.739029
3579.374034,-1991.848295,-370.102971,10288.862594
3579.374348,-2145.067394,-592.164754,10510.924376
3579.374662,-1915.238745,-740.205942,10436.903782
3579.374976,-1072.533697,-518.144159,9844.739029
3579.375290,-842.705048,-370.102971,9696.697840
3579.375604,-306.438199,-0.000000,9252.574275
3579.375918,0.000000,370.102971,9178.553681
3579.376232,459.657299,222.061783,9030.512492
3579.376547,459.657299,296.082377,8660.409521
3579.376861,995.924147,444.123565,8956.491898
3579.377175,995.924147,222.061783,9104.533087
3579.377489,919.314598,-0.000000,9548.656652
3579.377803,612.876398,-296.082377,9474.636058
3579.378117,995.924147,-518.144159,9548.656652
3579.378431,612.876398,-740.205942,9474.636058
3579.378746,306.438199,-592.164754,9474.636058
3579.379060,842.705048,-222.061783,9844.739029
3579.379374,842.705048,-296.082377,9326.594869
3579.379688,1455.581446,-370.102971,9474.636058
3579.380002,1302.362347,-0.000000,9178.553681
3579.380316,1762.019645,222.061783,9326.594869
3579.380630,1915.238745,296.082377,9400.615463
3579.380944,1608.800546,370.102971,9030.512492
3579.381259,1532.190996,-0.000000,8956.491898
3579.381573,1302.362347,740.205942,9104.533087
3579.381887,995.924147,666.185348,8882.471304
3579.382201,766.095498,-0.000000,9548.656652
3579.382515,76.609550,-74.020594,9844.739029
3579.382829,-459.657299,-222.061783,9918.759623
3579.383143,-459.657299,-444.123565,10288.862594
3579.383458,-459.657299,-518.144159,10732.986159
3579.383772,-459.657299,-148.041188,10658.965565
3579.384086,76.609550,-74.020594,10510.924376
3579.384400,-459.657299,222.061783,9992.780217
3579.384714,306.438199,518.144159,9548.656652
3579.385028,842.705048,962.267725,9104.533087
3579.385342,1072.533697,1184.329507,8586.388927
3579.385656,1378.971896,1036.288319,8586.388927
3579.385971,1302.362347,888.247130,8660.409521
3579.386285,842.705048,1036.288319,8808.450710
3579.386599,689.485948,148.041188,9326.594869
3579.386913,0.000000,-222.061783,10066.800811
3579.387227,-383.047749,-74.020594,9844.739029
3579.387541,-689.485948,-74.020594,9918.759623
3579.387855,-766.095498,-222.061783,10436.903782
3579.388170,-766.095498,-148.041188,10362.883188
3579.388484,-842.705048,-0.000000,10510.924376
3579.388798,0.000000,518.144159,10807.006753
3579.389112,-612.876398,814.226536,9844.739029
3579.389426,0.000000,1184.329507,9474.636058
3579.389740,306.438199,1184.329507,9326.594869
3579.390054,76.609550,1406.391290,9474.636058
3579.390368,0.000000,1184.329507,9252.574275
3579.390683,-919.314598,518.144159,9400.615463
3579.390997,-1072.533697,222.061783,9844.739029
3579.391311,-1378.971896,-296.082377,10288.862594
3579.391625,-1762.019645,-518.144159,10584.944971
3579.391939,-1991.848295,-666.185348,10436.903782
3579.392253,-1915.238745,-666.185348,10584.944971
3579.392567,-1838.629195,-296.082377,10436.903782
3579.392882,-1302.362347,-0.000000,10066.800811
3579.393196,-842.705048,-74.020594,9696.697840
3579.393510,-383.047749,-0.000000,9104.533087
3579.393824,306.438199,518.144159,9178.553681
3579.394138,612.876398,222.061783,8956.491898
3579.394452,766.095498,370.102971,9030.512492
3579.394766,383.047749,370.102971,9474.636058
3579.395080,995.924147,296.082377,9104.533087
3579.395395,919.314598,-0.000000,9400.615463
3579.395709,842.705048,-148.041188,9474.636058
3579.396023,766.095498,-222.061783,9252.574275
3579.396337,612.876398,-148.041188,9030.512492
3579.396651,612.876398,-666.185348,8956.491898
3579.396965,766.095498,-592.164754,9326.594869
3579.397279,766.095498,-444.123565,9030.512492
3579.397594,919.314598,-370.102971,9252.574275
3579.397908,1378.971896,-74.020594,9252.574275
3579.398222,1455.581446,-0.000000,8882.471304
3579.398536,1762.019645,-0.000000,8956.491898
3579.398850,1685.410096,222.061783,9400.615463
3579.399164,1608.800546,814.226536,9104.533087
3579.399478,1072.533697,296.082377,8512.368333
3579.399792,842.705048,-0.000000,8882.471304
3579.400107,689.485948,-0.000000,9992.780217
3579.400421,-153.219100,-296.082377,9844.739029
3579.400735,-689.485948,-592.164754,10732.986159
3579.401049,-536.266849,-888.247130,10955.047942
3579.401363,-383.047749,-592.164754,10881.027347
3579.401677,0.000000,-0.000000,10584.944971
3579.401991,-229.828649,370.102971,10288.862594
3579.402306,459.657299,370.102971,10066.800811
3579.402620,766.095498,888.247130,9326.594869
3579.402934,842.705048,1036.288319,8734.430116
3579.403248,1149.143247,1110.308913,8882.471304
3579.403562,1072.533697,740.205942,8956.491898
3579.403876,1455.581446,814.226536,9400.615463
3579.404190,536.266849,-0.000000,9400.615463
3579.404504,153.219100,-0.000000,9622.677246
3579.404819,-383.047749,-0.000000,9770.718434
3579.405133,-306.438199,-0.000000,10140.821405
3579.405447,-612.876398,-0.000000,9918.759623
3579.405761,-1149.143247,-0.000000,10288.862594
3579.406075,-766.095498,296.082377,9696.697840
3579.406389,-459.657299,518.144159,9770.718434
3579.406703,-536.266849,1110.308913,9844.739029
3579.407018,0.000000,1036.288319,9622.677246
3579.407332,0.000000,1184.329507,9474.636058
3579.407646,0.000000,1110.308913,9252.574275
3579.407960,-306.438199,1036.288319,9178.553681
3579.408274,-689.485948,518.144159,9326.594869
3579.408588,-995.924147,222.061783,9992.780217
3579.408902,-1455.581446,-0.000000,10066.800811
3579.409216,-1608.800546,-296.082377,10214.842000
3579.409531,-1685.410096,-370.102971,10510.924376
3579.409845,-2068.457845,-592.164754,10288.862594
3579.410159,-1378.971896,-148.041188,10214.842000
3579.410473,-1378.971896,-0.000000,9548.656652
3579.410787,-612.876398,148.041188,9992.780217
3579.411101,-306.438199,370.102971,9770.718434
3579.411415,306.438199,518.144159,9326.594869
3579.411730,383.047749,444.123565,9104.533087
3579.412044,612.876398,518.144159,8956.491898
3579.412358,842.705048,296.082377,9474.636058
3579.412672,766.095498,-0.000000,9622.677246
3579.412986,383.047749,-444.123565,9622.677246
3579.413300,536.266849,-444.123565,9548.656652
3579.413614,306.438199,-148.041188,9622.677246
3579.413928,766.095498,-370.102971,9844.739029
3579.414243,536.266849,-222.061783,9844.739029
3579.414557,766.095498,-444.123565,9474.636058
3579.414871,766.095498,-518.144159,9178.553681
3579.415185,1455.581446,-222.061783,9104.533087
3579.415499,1455.581446,-222.061783,8660.409521
3579.415813,1762.019645,-0.000000,8734.430116
3579.416127,1608.800546,-0.000000,9326.594869
3579.416442,995.924147,-0.000000,9400.615463
3579.416756,1302.362347,592.164754,8808.450710
3579.417070,1072.533697,592.164754,8882.471304
3579.417384,842.705048,222.061783,9178.553681
3579.417698,1072.533697,-222.061783,9474.636058
3579.418012,153.219100,-370.102971,9474.636058
3579.418326,-153.219100,-666.185348,9918.759623
3579.418640,-459.657299,-592.164754,10214.842000
3579.418955,-459.657299,-666.185348,10362.883188
3579.419269,-383.047749,-370.102971,10584.944971
3579.419583,0.000000,-74.020594,10214.842000
3579.419897,383.047749,518.144159,9918.759623
3579.420211,766.095498,666.185348,9548.656652
3579.420525,1149.143247,888.247130,9030.512492
3579.420839,1532.190996,1332.370696,8438.347739
3579.421154,1378.971896,1036.288319,8512.368333
3579.421468,1302.362347,666.185348,8660.409521
3579.421782,766.095498,222.061783,9252.574275
3579.422096,459.657299,-0.000000,9696.697840
3579.422410,-383.047749,-296.082377,9770.718434
3579.422724,-689.485948,-444.123565,10288.862594
3579.423038,-689.485948,-222.061783,10658.965565
3579.423352,-995.924147,-370.102971,10732.986159
3579.423667,-995.924147,-148.041188,10362.883188
3579.423981,-306.438199,-0.000000,10658.965565
3579.424295,-459.657299,888.247130,9696.697840
3579.424609,0.000000,1036.288319,9474.636058
3579.424923,0.000000,1480.411884,9474.636058
3579.425237,0.000000,1332.370696,9178.553681
3579.425551,0.000000,1110.308913,8882.471304
3579.425866,-919.314598,1110.308913,9400.615463
3579.426180,-919.314598,-0.000000,9770.718434
3579.426494,-1302.362347,-74.020594,10066.800811
