#time,accel_x,accel_y,accel_z
3641.492144,1608.800546,1110.308913,8808.450710
3641.492458,2221.676944,1850.514855,8660.409521
3641.492773,2451.505594,1924.535449,8808.450710
3641.493087,2298.286494,2146.597232,8734.430116
3641.493402,2374.896044,1776.494261,9104.533087
3641.493716,2068.457845,1184.329507,9474.636058
3641.494031,1378.971896,1036.288319,9178.553681
3641.494345,919.314598,888.247130,9178.553681
3641.494660,229.828649,814.226536,9030.512492
3641.494974,536.266849,222.061783,9844.739029
3641.495289,0.000000,222.061783,10140.821405
3641.495603,-459.657299,-296.082377,9400.615463
3641.495918,-766.095498,-888.247130,9326.594869
3641.496232,-383.047749,-962.267725,9474.636058
3641.496547,-383.047749,-1184.329507,10140.821405
3641.496861,-766.095498,-1110.308913,9844.739029
3641.497176,-612.876398,-888.247130,9770.718434
3641.497490,-766.095498,-222.061783,9770.718434
3641.497805,-536.266849,-0.000000,9844.739029
3641.498119,-383.047749,-222.061783,9474.636058
3641.498434,-383.047749,370.102971,9474.636058
3641.498748,-536.266849,74.020594,9474.636058
3641.499063,-306.438199,-74.020594,9400.615463
3641.499377,-383.047749,-74.020594,9696.697840
3641.499692,-536.266849,-814.226536,10066.800811
3641.500006,-459.657299,-962.267725,9844.739029
3641.500321,-766.095498,-1110.308913,9918.759623
3641.500635,-995.924147,-1332.370696,10584.944971
3641.500949,-919.314598,-1480.411884,10510.924376
3641.501264,-995.924147,-1258.350101,9918.759623
3641.501578,-612.876398,-888.247130,9844.739029
3641.501893,-689.485948,-814.226536,9326.594869
3641.502207,76.609550,-444.123565,9400.615463
3641.502522,459.657299,-296.082377,8956.491898
3641.502836,766.095498,-592.164754,8882.471304
3641.503151,1072.533697,-0.000000,8586.388927
3641.503465,1149.143247,-0.000000,8216.285956
3641.503780,1378.971896,-148.041188,8882.471304
3641.504094,1302.362347,-444.123565,9252.574275
3641.504409,995.924147,-444.123565,9030.512492
3641.504723,766.095498,-592.164754,9252.574275
3641.505038,153.219100,-444.123565,9252.574275
3641.505352,459.657299,-148.041188,9030.512492
3641.505667,306.438199,-0.000000,9104.533087
3641.505981,766.095498,-0.000000,9178.553681
3641.506296,383.047749,296.082377,8734.430116
3641.506610,766.095498,148.041188,8364.327145
3641.506925,1072.533697,518.144159,8512.368333
3641.507239,842.705048,740.205942,8956.491898
3641.507554,383.047749,518.144159,9030.512492
3641.507868,536.266849,666.185348,9474.636058
3641.508183,536.266849,1036.288319,9474.636058
3641.508497,306.438199,1110.308913,9770.718434
3641.508812,153.219100,1036.288319,9770.718434
3641.509126,0.000000,1628.453072,9548.656652
3641.509441,0.000000,1110.308913,9844.739029
3641.509755,-229.828649,1036.288319,9770.718434
3641.510070,0.000000,1184.329507,9918.759623
3641.510384,229.828649,740.205942,10066.800811
3641.510699,383.047749,888.247130,10584.944971
3641.511013,0.000000,888.247130,10436.903782
3641.511328,0.000000,740.205942,10584.944971
3641.511642,-229.828649,444.123565,10584.944971
3641.511957,-76.609550,740.205942,10510.924376
3641.512271,0.000000,962.267725,10288.862594
3641.512586,0.000000,962.267725,10140.821405
3641.512900,153.219100,1036.288319,10288.862594
3641.513215,306.438199,888.247130,10362.883188
3641.513529,0.000000,814.226536,10362.883188
3641.513844,76.609550,1258.350101,10658.965565
3641.514158,0.000000,592.164754,10362.883188
3641.514473,153.219100,666.185348,10510.924376
3641.514787,0.000000,370.102971,10584.944971
3641.515102,306.438199,-148.041188,9992.780217
3641.515416,0.000000,296.082377,10066.800811
3641.515731,0.000000,444.123565,9770.718434
3641.516045,153.219100,296.082377,9918.759623
3641.516360,229.828649,370.102971,9918.759623
3641.516674,229.828649,296.082377,9622.677246
3641.516989,153.219100,148.041188,9400.615463
3641.517303,0.000000,148.041188,9474.636058
3641.517618,76.609550,-0.000000,9696.697840
3641.517932,229.828649,74.020594,9400.615463
3641.518247,306.438199,-0.000000,9400.615463
3641.518561,229.828649,-148.041188,9326.594869
3641.518876,383.047749,-74.020594,9104.533087
3641.519190,383.047749,-0.000000,9326.594869
3641.519504,0.000000,-74.020594,9104.533087
3641.519819,153.219100,-222.061783,8956.491898
3641.520133,0.000000,-0.000000,9400.615463
3641.520448,229.828649,-222.061783,9030.512492
3641.520762,306.438199,-296.082377,9104.533087
3641.521077,0.000000,-222.061783,9104.533087
3641.521391,229.828649,-518.144159,9400.615463
3641.521706,0.000000,-592.164754,8882.471304
3641.522020,0.000000,-666.185348,9178.553681
3641.522335,0.000000,-962.267725,9400.615463
3641.522649,153.219100,-592.164754,9474.636058
3641.522964,-229.828649,-222.061783,9252.574275
3641.523278,153.219100,-444.123565,9252.574275
3641.523593,-153.219100,-370.102971,9178.553681
3641.523907,0.000000,-444.123565,9252.574275
3641.524222,0.000000,-518.144159,9178.553681
3641.524536,0.000000,-666.185348,9992.780217
3641.524851,0.000000,-592.164754,9474.636058
3641.525165,0.000000,-370.102971,9400.615463
3641.525480,0.000000,-740.205942,9548.656652
3641.525794,0.000000,-1036.288319,9992.780217
3641.526109,-459.657299,-666.185348,9844.739029
3641.526423,-229.828649,-518.144159,9622.677246
3641.526738,0.000000,-666.185348,9622.677246
3641.527052,153.219100,-370.102971,9844.739029
3641.527367,0.000000,-74.020594,9622.677246
3641.527681,-229.828649,-74.020594,9622.677246
3641.527996,0.000000,-74.020594,9326.594869
3641.528310,0.000000,-74.020594,9622.677246
3641.528625,229.828649,-0.000000,9474.636058
3641.528939,459.657299,-0.000000,9474.636058
3641.529254,0.000000,-0.000000,9770.718434
3641.529568,0.000000,-148.041188,9548.656652
3641.529883,229.828649,518.144159,9474.636058
3641.530197,76.609550,370.102971,9696.697840
3641.530512,153.219100,222.061783,9918.759623
3641.530826,0.000000,666.185348,9474.636058
3641.531141,76.609550,592.164754,9400.615463
3641.531455,76.609550,740.205942,9474.636058
3641.531770,-229.828649,814.226536,9474.636058
3641.532084,153.219100,666.185348,9474.636058
3641.532399,0.000000,814.226536,9252.574275
3641.532713,0.000000,740.205942,9400.615463
3641.533028,0.000000,740.205942,9326.594869
3641.533342,306.438199,740.205942,9622.677246
3641.533657,383.047749,814.226536,9622.677246
3641.533971,153.219100,814.226536,9400.615463
3641.534286,76.609550,962.267725,9326.594869
3641.534600,306.438199,1036.288319,9622.677246
3641.534915,0.000000,888.247130,9474.636058
3641.535229,766.095498,444.123565,9770.718434
3641.535544,459.657299,740.205942,9770.718434
3641.535858,536.266849,814.226536,9918.759623
3641.536173,76.609550,666.185348,9622.677246
3641.536487,229.828649,296.082377,9622.677246
3641.536802,76.609550,222.061783,9992.780217
3641.537116,153.219100,370.102971,9622.677246
3641.537431,153.219100,296.082377,9844.739029
3641.537745,306.438199,444.123565,10288.862594
3641.538059,0.000000,370.102971,10066.800811
3641.538374,0.000000,370.102971,9844.739029
3641.538688,0.000000,444.123565,9474.636058
3641.539003,306.438199,-0.000000,10066.800811
3641.539317,153.219100,518.144159,10214.842000
3641.539632,0.000000,-0.000000,10140.821405
3641.539946,0.000000,-0.000000,9918.759623
3641.540261,0.000000,-74.020594,9622.677246
3641.540575,153.219100,-222.061783,9992.780217
3641.540890,229.828649,-74.020594,10066.800811
3641.541204,0.000000,-0.000000,9770.718434
3641.541519,0.000000,-0.000000,9548.656652
3641.541833,0.000000,-0.000000,9474.636058
3641.542148,0.000000,-0.000000,9622.677246
3641.542462,0.000000,-222.061783,9622.677246
3641.542777,153.219100,-0.000000,9400.615463
3641.543091,153.219100,-148.041188,9400.615463
3641.543406,153.219100,-222.061783,9104.533087
3641.543720,0.000000,-0.000000,9252.574275
3641.544035,-383.047749,-222.061783,9178.553681
3641.544349,0.000000,-0.000000,8882.471304
3641.544664,0.000000,-0.000000,8660.409521
3641.544978,0.000000,-148.041188,9252.574275
3641.545293,76.609550,-74.020594,9326.594869
3641.545607,76.609550,-518.144159,9178.553681
3641.545922,153.219100,-148.041188,9104.533087
3641.546236,76.609550,-0.000000,8882.471304
3641.546551,229.828649,-0.000000,9326.594869
3641.546865,76.609550,-296.082377,9326.594869
3641.547180,229.828649,-0.000000,8956.491898
3641.547495,306.438199,-296.082377,9030.512492
3641.547809,229.828649,-148.041188,9252.574275
3641.548124,76.609550,-148.041188,9400.615463
3641.548438,-306.438199,-148.041188,9474.636058
3641.548753,76.609550,-444.123565,9474.636058
3641.549068,0.000000,-0.000000,9622.677246
3641.549382,0.000000,148.041188,9474.636058
3641.549697,306.438199,-0.000000,9474.636058
3641.550012,0.000000,-222.061783,9400.615463
3641.550326,153.219100,-0.000000,9992.780217
3641.550641,0.000000,-0.000000,9992.780217
3641.550955,76.609550,222.061783,9918.759623
3641.551270,76.609550,370.102971,10066.800811
3641.551585,76.609550,-0.000000,10214.842000
3641.551899,229.828649,296.082377,9844.739029
3641.552214,0.000000,444.123565,10288.862594
3641.552528,0.000000,296.082377,9770.718434
3641.552843,-306.438199,222.061783,9844.739029
3641.553158,229.828649,222.061783,10362.883188
3641.553472,0.000000,222.061783,10066.800811
3641.553787,-383.047749,444.123565,9844.739029
3641.554102,0.000000,296.082377,9918.759623
3641.554416,0.000000,592.164754,9770.718434
3641.554731,-153.219100,1036.288319,10214.842000
3641.555045,383.047749,666.185348,9770.718434
3641.555360,153.219100,740.205942,9548.656652
3641.555675,306.438199,740.205942,10066.800811
3641.555989,76.609550,592.164754,9622.677246
3641.556304,0.000000,740.205942,9918.759623
3641.556618,229.828649,814.226536,9770.718434
3641.556933,229.828649,962.267725,9548.656652
3641.557248,0.000000,666.185348,9474.636058
3641.557562,919.314598,666.185348,9474.636058
3641.557877,689.485948,518.144159,9992.780217
3641.558192,306.438199,592.164754,9030.512492
3641.558506,153.219100,370.102971,9178.553681
3641.558821,76.609550,370.102971,9474.636058
3641.559135,76.609550,518.144159,9622.677246
3641.559450,306.438199,444.123565,9548.656652
3641.559765,229.828649,370.102971,9548.656652
3641.560079,153.219100,518.144159,9770.718434
3641.560394,383.047749,370.102971,9474.636058
3641.560708,766.095498,-0.000000,9474.636058
3641.561023,306.438199,-0.000000,9548.656652
3641.561338,536.266849,-0.000000,9696.697840
3641.561652,459.657299,-0.000000,9844.739029
3641.561967,459.657299,-0.000000,9474.636058
3641.562282,229.828649,-0.000000,9696.697840
3641.562596,153.219100,-0.000000,9622.677246
3641.562911,153.219100,-0.000000,9770.718434
3641.563225,229.828649,-148.041188,9770.718434
3641.563540,153.219100,-74.020594,9622.677246
3641.563855,229.828649,-0.000000,9622.677246
3641.564169,153.219100,-148.041188,9770.718434
3641.564484,-153.219100,-518.144159,9696.697840
3641.564798,0.000000,-444.123565,9622.677246
3641.565113,153.219100,-296.082377,9622.677246
3641.565428,383.047749,-444.123565,9696.697840
3641.565742,0.000000,-296.082377,9548.656652
3641.566057,0.000000,-444.123565,9178.553681
3641.566372,0.000000,-0.000000,9474.636058
3641.566686,0.000000,-74.020594,9474.636058
3641.567001,0.000000,-0.000000,9474.636058
3641.567315,0.000000,-296.082377,9326.594869
3641.567630,-229.828649,-148.041188,9252.574275
3641.567945,306.438199,-222.061783,9030.512492
3641.568259,76.609550,-0.000000,8808.450710
3641.568574,306.438199,-74.020594,9474.636058
3641.568888,76.609550,-0.000000,9400.615463
3641.569203,76.609550,-74.020594,9326.594869
3641.569518,153.219100,-0.000000,9030.512492
3641.569832,153.219100,-148.041188,9178.553681
3641.570147,229.828649,-0.000000,9474.636058
3641.570462,306.438199,-0.000000,9400.615463
3641.570776,76.609550,222.061783,9400.615463
3641.571091,612.876398,370.102971,9104.533087
3641.571405,536.266849,222.061783,9104.533087
3641.571720,383.047749,222.061783,9326.594869
3641.572035,229.828649,296.082377,9770.718434
3641.572349,153.219100,-0.000000,9696.697840
3641.572664,76.609550,74.020594,9474.636058
3641.572978,306.438199,222.061783,9474.636058
3641.573293,0.000000,148.041188,9548.656652
3641.573608,-153.219100,222.061783,9844.739029
3641.573922,229.828649,370.102971,9992.780217
3641.574237,229.828649,296.082377,9548.656652
3641.574552,153.219100,222.061783,10140.821405
3641.574866,76.609550,518.144159,10066.800811
3641.575181,153.219100,-0.000000,9770.718434
3641.575495,0.000000,444.123565,9918.759623
3641.575810,0.000000,-0.000000,9992.780217
3641.576125,76.609550,-0.000000,9844.739029
3641.576439,306.438199,296.082377,10140.821405
3641.576754,0.000000,296.082377,9696.697840
3641.577068,-306.438199,-0.000000,9252.574275
3641.577383,76.609550,518.144159,9844.739029
3641.577698,153.219100,222.061783,9844.739029
3641.578012,0.000000,370.102971,10140.821405
3641.578327,-612.876398,296.082377,9474.636058
3641.578642,0.000000,518.144159,9696.697840
3641.578956,76.609550,518.144159,9474.636058
3641.579271,0.000000,370.102971,9474.636058
3641.579585,0.000000,-74.020594,9696.697840
3641.579900,-306.438199,740.205942,9992.780217
3641.580215,76.609550,-0.000000,9474.636058
3641.580529,0.000000,-0.000000,9622.677246
3641.580844,306.438199,370.102971,9844.739029
3641.581158,306.438199,444.123565,9622.677246
3641.581473,0.000000,-0.000000,9474.636058
3641.581788,306.438199,444.123565,9474.636058
3641.582102,0.000000,518.144159,9474.636058
3641.582417,229.828649,148.041188,9548.656652
3641.582732,153.219100,-0.000000,9548.656652
3641.583046,153.219100,666.185348,9622.677246
3641.583361,0.000000,370.102971,9548.656652
3641.583675,459.657299,296.082377,9474.636058
3641.583990,229.828649,148.041188,9474.636058
3641.584305,306.438199,-0.000000,9770.718434
3641.584619,0.000000,-0.000000,9400.615463
3641.584934,0.000000,-0.000000,9474.636058
3641.585249,153.219100,-74.020594,9770.718434
3641.585563,76.609550,-0.000000,9770.718434
3641.585878,0.000000,-74.020594,9622.677246
3641.586192,0.000000,-0.000000,9770.718434
3641.586507,383.047749,-0.000000,9474.636058
3641.586822,229.828649,-74.020594,9252.574275
3641.587136,0.000000,-148.041188,9400.615463
3641.587451,0.000000,-148.041188,9696.697840
3641.587765,76.609550,-0.000000,9548.656652
3641.588080,0.000000,-74.020594,9474.636058
3641.588395,76.609550,-222.061783,9548.656652
3641.588709,0.000000,-148.041188,9622.677246
3641.589024,153.219100,-74.020594,9474.636058
3641.589339,766.095498,-296.082377,9400.615463
3641.589653,153.219100,-0.000000,10140.821405
3641.589968,0.000000,-296.082377,9400.615463
3641.590282,153.219100,-222.061783,9400.615463
3641.590597,0.000000,-148.041188,9622.677246
3641.590912,229.828649,-222.061783,9178.553681
3641.591226,76.609550,-0.000000,9622.677246
3641.591541,153.219100,-0.000000,9474.636058
3641.591855,0.000000,222.061783,9548.656652
3641.592170,153.219100,148.041188,9252.574275
3641.592485,76.609550,222.061783,9252.574275
3641.592799,0.000000,148.041188,9770.718434
3641.593114,459.657299,-0.000000,9548.656652
3641.593429,306.438199,296.082377,9400.615463
3641.593743,76.609550,296.082377,9548.656652
3641.594058,0.000000,-0.000000,9474.636058
3641.594372,76.609550,592.164754,9548.656652
3641.594687,229.828649,518.144159,9622.677246
3641.595002,76.609550,222.061783,9918.759623
3641.595316,306.438199,444.123565,9844.739029
3641.595631,306.438199,-0.000000,9400.615463
3641.595945,536.266849,814.226536,9622.677246
3641.596260,306.438199,666.185348,9548.656652
3641.596575,76.609550,296.082377,9844.739029
3641.596889,0.000000,296.082377,9474.636058
3641.597204,383.047749,370.102971,9622.677246
3641.597519,153.219100,222.061783,9696.697840
3641.597833,0.000000,666.185348,9548.656652
3641.598148,153.219100,518.144159,9918.759623
3641.598462,0.000000,296.082377,9844.739029
3641.598777,306.438199,-0.000000,9696.697840
3641.599092,383.047749,444.123565,9844.739029
3641.599406,153.219100,370.102971,9992.780217
3641.599721,0.000000,370.102971,9770.718434
3641.600035,229.828649,222.061783,9474.636058
3641.600350,459.657299,-0.000000,9474.636058
3641.600665,306.438199,370.102971,9696.697840
3641.600979,0.000000,148.041188,9400.615463
3641.601294,0.000000,148.041188,9770.718434
3641.601609,229.828649,296.082377,9992.780217
3641.601923,153.219100,-74.020594,9770.718434
3641.602238,153.219100,444.123565,9770.718434
3641.602552,229.828649,296.082377,9696.697840
3641.602867,153.219100,222.061783,9548.656652
3641.603182,153.219100,-0.000000,9400.615463
3641.603496,229.828649,222.061783,9696.697840
3641.603811,153.219100,222.061783,9548.656652
3641.604125,0.000000,222.061783,9548.656652
3641.604440,0.000000,370.102971,9474.636058
3641.604755,0.000000,148.041188,9400.615463
3641.605069,76.609550,296.082377,9622.677246
3641.605384,76.609550,296.082377,9622.677246
3641.605699,0.000000,148.041188,9548.656652
3641.606013,76.609550,148.041188,9844.739029
3641.606328,-306.438199,222.061783,9474.636058
3641.606642,153.219100,-0.000000,9178.553681
3641.606957,0.000000,222.061783,9548.656652
3641.607272,0.000000,148.041188,9474.636058
3641.607586,0.000000,-148.041188,9474.636058
3641.607901,0.000000,-0.000000,9474.636058
3641.608215,76.609550,-0.000000,9696.697840
3641.608530,612.876398,74.020594,9844.739029
3641.608845,153.219100,-74.020594,9326.594869
3641.609159,-153.219100,-222.061783,9622.677246
3641.609474,229.828649,-370.102971,9696.697840
3641.609789,229.828649,-0.000000,9400.615463
3641.610103,0.000000,-148.041188,9474.636058
3641.610418,229.828649,-0.000000,9622.677246
3641.610732,306.438199,-0.000000,9474.636058
3641.611047,0.000000,-0.000000,9104.533087
3641.611362,306.438199,-148.041188,9178.553681
3641.611676,306.438199,-148.041188,9622.677246
3641.611991,153.219100,-296.082377,9622.677246
3641.612305,0.000000,-74.020594,9474.636058
3641.612620,0.000000,-370.102971,9474.636058
3641.612935,153.219100,-0.000000,9548.656652
3641.613249,229.828649,-148.041188,9474.636058
3641.613564,229.828649,-0.000000,9622.677246
3641.613879,153.219100,-0.000000,9770.718434
3641.614193,153.219100,-148.041188,9474.636058
3641.614508,459.657299,-0.000000,9696.697840
3641.614822,76.609550,-0.000000,9992.780217
3641.615137,-229.828649,370.102971,9696.697840
3641.615452,0.000000,296.082377,9474.636058
3641.615766,383.047749,-0.000000,9474.636058
3641.616081,306.438199,148.041188,9770.718434
3641.616395,0.000000,-0.000000,9474.636058
3641.616710,0.000000,148.041188,9400.615463
3641.617025,0.000000,-0.000000,10140.821405
3641.617339,0.000000,-0.000000,9770.718434
3641.617654,0.000000,296.082377,9770.718434
3641.617969,76.609550,444.123565,9770.718434
3641.618283,0.000000,-0.000000,9622.677246
3641.618598,-153.219100,-0.000000,9326.594869
3641.618912,0.000000,222.061783,9696.697840
3641.619227,0.000000,148.041188,10140.821405
3641.619542,0.000000,148.041188,9474.636058
3641.619856,0.000000,222.061783,9030.512492
3641.620171,0.000000,222.061783,9844.739029
3641.620485,153.219100,444.123565,9844.739029
3641.620800,153.219100,-0.000000,9474.636058
3641.621115,76.609550,444.123565,9326.594869
3641.621429,76.609550,370.102971,9548.656652
3641.621744,229.828649,296.082377,9400.615463
3641.622059,76.609550,296.082377,9400.615463
3641.622373,0.000000,-0.000000,9696.697840
3641.622688,153.219100,-0.000000,9696.697840
3641.623002,306.438199,148.041188,9696.697840
3641.623317,76.609550,-0.000000,9474.636058
3641.623632,76.609550,-0.000000,9696.697840
3641.623946,306.438199,296.082377,9918.759623
3641.624261,229.828649,-0.000000,9622.677246
3641.624575,76.609550,296.082377,9696.697840
3641.624890,229.828649,222.061783,9400.615463
3641.625205,459.657299,148.041188,9474.636058
3641.625519,229.828649,-0.000000,9622.677246
3641.625834,153.219100,222.061783,9622.677246
3641.626149,0.000000,-0.000000,9548.656652
3641.626463,0.000000,-0.000000,9622.677246
3641.626778,306.438199,-0.000000,9622.677246
3641.627092,229.828649,-0.000000,9474.636058
3641.627407,306.438199,444.123565,9474.636058
3641.627722,76.609550,148.041188,9474.636058
3641.628036,153.219100,-0.000000,9622.677246
3641.628351,153.219100,222.061783,9770.718434
3641.628665,76.609550,-0.000000,9548.656652
3641.628980,-229.828649,-0.000000,9622.677246
3641.629295,0.000000,-0.000000,9548.656652
3641.629609,0.000000,-0.000000,9400.615463
3641.629924,0.000000,-0.000000,9548.656652
3641.630239,76.609550,-0.000000,9548.656652
3641.630553,76.609550,-74.020594,9474.636058
3641.630868,0.000000,-0.000000,9548.656652
3641.631182,153.219100,222.061783,9548.656652
3641.631497,0.000000,-0.000000,9474.636058
3641.631812,76.609550,-0.000000,9622.677246
3641.632126,-153.219100,-148.041188,9474.636058
3641.632441,0.000000,-0.000000,9400.615463
3641.632755,229.828649,-0.000000,9474.636058
3641.633070,229.828649,-0.000000,9474.636058
3641.633385,76.609550,148.041188,9474.636058
3641.633699,76.609550,-0.000000,9622.677246
3641.634014,0.000000,-0.000000,9400.615463
3641.634329,-229.828649,-222.061783,9622.677246
3641.634643,229.828649,296.082377,9844.739029
3641.634958,76.609550,-0.000000,9474.636058
3641.635272,0.000000,-0.000000,9474.636058
3641.635587,0.000000,296.082377,9622.677246
3641.635902,76.609550,-0.000000,9918.759623
3641.636216,76.609550,148.041188,9474.636058
3641.636531,229.828649,370.102971,9548.656652
3641.636845,0.000000,-0.000000,9770.718434
3641.637160,0.000000,370.102971,9548.656652
3641.637475,153.219100,370.102971,9622.677246
3641.637789,0.000000,-0.000000,9844.739029
3641.638104,153.219100,296.082377,9992.780217
3641.638419,0.000000,296.082377,9400.615463
3641.638733,612.876398,296.082377,9400.615463
3641.639048,153.219100,222.061783,9844.739029
3641.639362,76.609550,592.164754,9770.718434
3641.639677,153.219100,-0.000000,9770.718434
3641.639992,153.219100,-0.000000,9770.718434
3641.640306,153.219100,222.061783,9770.718434
3641.640621,229.828649,222.061783,9474.636058
3641.640935,153.219100,222.061783,9548.656652
3641.641250,0.000000,222.061783,9696.697840
3641.641565,0.000000,-0.000000,9844.739029
3641.641879,536.266849,148.041188,10140.821405
3641.642194,306.438199,222.061783,10140.821405
3641.642509,383.047749,296.082377,9770.718434
3641.642823,459.657299,296.082377,9918.759623
3641.643138,842.705048,814.226536,9844.739029
3641.643452,1225.752797,666.185348,9474.636058
3641.643767,919.314598,962.267725,9104.533087
3641.644082,995.924147,740.205942,9252.574275
3641.644396,689.485948,296.082377,9104.533087
3641.644711,766.095498,592.164754,9326.594869
3641.645025,919.314598,444.123565,9252.574275
3641.645340,612.876398,518.144159,10140.821405
3641.645655,842.705048,592.164754,10066.800811
3641.645969,995.924147,518.144159,9844.739029
3641.646284,1149.143247,962.267725,9770.718434
3641.646599,1378.971896,1258.350101,10288.862594
3641.646913,1608.800546,1332.370696,9770.718434
3641.647228,2145.067394,1628.453072,9474.636058
3641.647545,2604.724693,1776.494261,9400.615463
3641.647860,2757.943793,2220.617826,8956.491898
3641.648175,2911.162892,2220.617826,8660.409521
3641.648489,3064.381992,2220.617826,8882.471304
3641.648804,2911.162892,1850.514855,9252.574275
3641.649118,2757.943793,1998.556043,8882.471304
3641.649433,2604.724693,2368.659014,8956.491898
3641.649747,2451.505594,1628.453072,9474.636058
3641.650062,1991.848295,1776.494261,9770.718434
3641.650376,2145.067394,1776.494261,9992.780217
3641.650691,1991.848295,1850.514855,10066.800811
3641.651006,2604.724693,2516.700203,10140.821405
3641.651320,2604.724693,2812.782580,9400.615463
3641.651635,2987.772442,2886.803174,9252.574275
3641.651949,3600.648841,3552.988522,9400.615463
3641.652264,3217.601092,3849.070898,9178.553681
3641.652578,3447.429741,3627.009116,9252.574275
3641.652893,3294.210641,3923.091493,9326.594869
3641.653207,3370.820191,3775.050304,9548.656652
3641.653522,2834.553343,3478.967927,9770.718434
3641.653837,2834.553343,3108.864956,9696.697840
3641.654151,2221.676944,2960.823768,10214.842000
3641.654466,2145.067394,2812.782580,10066.800811
3641.654780,2068.457845,2960.823768,10214.842000
3641.655095,1608.800546,3034.844362,10140.821405
3641.655409,1685.410096,3404.947333,10066.800811
3641.655724,1838.629195,3330.926739,9252.574275
3641.656038,2374.896044,3775.050304,10140.821405
3641.656353,2298.286494,3923.091493,9770.718434
3641.656668,2068.457845,4219.173869,9696.697840
3641.656982,1685.410096,3923.091493,10288.862594
3641.657297,1685.410096,3775.050304,10436.903782
3641.657611,1302.362347,3849.070898,10955.047942
3641.657926,1072.533697,3923.091493,10584.944971
3641.658240,766.095498,3330.926739,10214.842000
3641.658555,766.095498,3256.906145,10362.883188
3641.658869,612.876398,2442.679609,10066.800811
3641.659184,0.000000,2590.720797,9770.718434
3641.659499,-153.219100,1924.535449,9918.759623
3641.659813,0.000000,1480.411884,9992.780217
3641.660128,0.000000,1406.391290,10288.862594
3641.660442,-689.485948,1258.350101,10214.842000
3641.660757,-536.266849,962.267725,10807.006753
3641.661071,-536.266849,1036.288319,10807.006753
3641.661386,-383.047749,1480.411884,9992.780217
3641.661700,76.609550,1406.391290,9918.759623
3641.662015,536.266849,1554.432478,9326.594869
3641.662330,1149.143247,1332.370696,9400.615463
3641.662644,995.924147,962.267725,8660.409521
3641.662959,919.314598,444.123565,8438.347739
3641.663273,689.485948,-0.000000,9252.574275
3641.663588,612.876398,-370.102971,9400.615463
3641.663902,306.438199,-814.226536,9770.718434
3641.664217,0.000000,-1258.350101,10140.821405
3641.664531,-536.266849,-1258.350101,10288.862594
3641.664846,-536.266849,-1924.535449,10214.842000
3641.665161,0.000000,-888.247130,9770.718434
3641.665475,0.000000,-592.164754,8586.388927
3641.665790,612.876398,-666.185348,8142.265362
3641.666104,995.924147,-740.205942,7698.141797
3641.666419,1762.019645,-1110.308913,7994.224174
3641.666733,1378.971896,-1184.329507,8438.347739
3641.667048,1378.971896,-1184.329507,9104.533087
3641.667362,1072.533697,-1480.411884,9770.718434
3641.667677,536.266849,-1628.453072,10658.965565
3641.667992,383.047749,-1776.494261,10140.821405
3641.668306,459.657299,-1480.411884,10066.800811
3641.668621,536.266849,-1258.350101,10214.842000
3641.668935,306.438199,-1258.350101,9474.636058
3641.669250,1225.752797,-1406.391290,8438.347739
3641.669564,1225.752797,-1480.411884,8438.347739
3641.669879,1685.410096,-1332.370696,8438.347739
3641.670193,1838.629195,-1480.411884,8734.430116
3641.670508,1378.971896,-1258.350101,8364.327145
3641.670823,1378.971896,-1036.288319,8734.430116
3641.671137,536.266849,-1184.329507,8882.471304
3641.671452,306.438199,-1332.370696,9474.636058
3641.671766,153.219100,-1036.288319,9252.574275
3641.672081,-306.438199,-1332.370696,9252.574275
3641.672395,0.000000,-1554.432478,8956.491898
3641.672710,-689.485948,-1332.370696,9474.636058
3641.673025,-689.485948,-1332.370696,9474.636058
3641.673339,-766.095498,-1628.453072,9622.677246
3641.673654,-842.705048,-1258.350101,9844.739029
3641.673968,-766.095498,-1036.288319,9844.739029
3641.674283,-459.657299,-518.144159,9770.718434
3641.674597,-229.828649,-148.041188,10140.821405
3641.674912,0.000000,-74.020594,9992.780217
3641.675226,-306.438199,592.164754,9326.594869
3641.675541,0.000000,518.144159,8882.471304
3641.675856,306.438199,518.144159,9326.594869
3641.676170,383.047749,518.144159,9400.615463
3641.676485,459.657299,518.144159,8882.471304
3641.676799,459.657299,1036.288319,8882.471304
3641.677114,-459.657299,1110.308913,9104.533087
3641.677428,-459.657299,962.267725,9104.533087
3641.677743,-459.657299,740.205942,9104.533087
3641.678057,-842.705048,518.144159,9548.656652
3641.678372,-1225.752797,740.205942,10288.862594
3641.678687,-1532.190996,740.205942,10214.842000
3641.679001,-1455.581446,666.185348,10436.903782
3641.679316,-1302.362347,962.267725,11029.068536
3641.679630,-1378.971896,1480.411884,11029.068536
3641.679945,-1149.143247,1850.514855,10881.027347
3641.680259,-612.876398,2368.659014,10658.965565
3641.680574,0.000000,2442.679609,10362.883188
3641.680888,459.657299,2664.741391,10436.903782
3641.681203,766.095498,2590.720797,10140.821405
3641.681518,536.266849,2294.638420,9770.718434
3641.681832,919.314598,1776.494261,9918.759623
3641.682147,1149.143247,1554.432478,9992.780217
3641.682461,1072.533697,814.226536,10066.800811
3641.682776,995.924147,814.226536,10214.842000
3641.683090,229.828649,962.267725,9918.759623
3641.683405,229.828649,888.247130,9992.780217
3641.683719,689.485948,592.164754,9992.780217
3641.684034,612.876398,888.247130,9400.615463
3641.684349,766.095498,1258.350101,9178.553681
3641.684663,766.095498,1036.288319,9252.574275
3641.684978,612.876398,814.226536,9622.677246
3641.685292,766.095498,518.144159,9918.759623
3641.685607,1149.143247,148.041188,10584.944971
3641.685921,842.705048,-0.000000,10362.883188
3641.686236,459.657299,592.164754,10436.903782
3641.686550,689.485948,962.267725,10436.903782
3641.686865,919.314598,740.205942,10658.965565
3641.687180,1378.971896,222.061783,9992.780217
3641.687494,1072.533697,814.226536,9030.512492
3641.687809,1072.533697,518.144159,8882.471304
3641.688123,1455.581446,-0.000000,8882.471304
3641.688438,1532.190996,-296.082377,9104.533087
3641.688752,1149.143247,-888.247130,8882.471304
3641.689067,689.485948,-740.205942,8586.388927
3641.689381,459.657299,-592.164754,8808.450710
3641.689696,536.266849,-592.164754,8956.491898
3641.690011,459.657299,-296.082377,8660.409521
3641.690325,306.438199,-518.144159,8364.327145
3641.690640,-306.438199,-222.061783,8586.388927
3641.690954,-459.657299,-370.102971,8734.430116
3641.691269,-229.828649,-592.164754,9252.574275
3641.691583,-459.657299,-814.226536,9548.656652
3641.691898,-919.314598,-740.205942,10214.842000
3641.692212,-995.924147,-592.164754,10066.800811
3641.692527,-1072.533697,-370.102971,9992.780217
3641.692842,-995.924147,-444.123565,10140.821405
3641.693156,-1072.533697,-370.102971,10140.821405
3641.693471,-842.705048,-1110.308913,9992.780217
3641.693785,-842.705048,-740.205942,9548.656652
3641.694100,-842.705048,-1036.288319,9104.533087
3641.694414,-459.657299,-1036.288319,9178.553681
3641.694729,229.828649,-1036.288319,9252.574275
3641.695043,0.000000,-888.247130,9326.594869
3641.695358,-766.095498,-814.226536,8956.491898
3641.695673,-842.705048,-666.185348,9030.512492
3641.695987,-383.047749,-814.226536,9252.574275
3641.696302,-536.266849,-814.226536,9178.553681
3641.696616,-995.924147,-888.247130,9474.636058
3641.696931,-842.705048,-888.247130,9400.615463
3641.697245,-1149.143247,-1184.329507,9918.759623
3641.697560,-995.924147,-1258.350101,10214.842000
3641.697874,-1225.752797,-1036.288319,10807.006753
3641.698189,-842.705048,-666.185348,11251.130318
3641.698504,-919.314598,-296.082377,10584.944971
3641.698818,-612.876398,222.061783,10510.924376
3641.699133,0.000000,444.123565,10436.903782
3641.699447,689.485948,666.185348,9918.759623
3641.699762,536.266849,814.226536,9474.636058
3641.700076,919.314598,518.144159,8660.409521
3641.700391,1685.410096,518.144159,9030.512492
3641.700705,1685.410096,296.082377,9104.533087
3641.701020,1455.581446,148.041188,8734.430116
3641.701335,1072.533697,444.123565,8808.450710
3641.701649,612.876398,370.102971,9030.512492
3641.701964,383.047749,296.082377,9104.533087
3641.702278,459.657299,222.061783,9178.553681
3641.702593,0.000000,444.123565,9104.533087
3641.702907,-306.438199,444.123565,9030.512492
3641.703222,-229.828649,666.185348,9326.594869
3641.703536,229.828649,592.164754,9770.718434
3641.703851,229.828649,740.205942,10214.842000
3641.704166,612.876398,444.123565,10214.842000
3641.704480,306.438199,1258.350101,10214.842000
3641.704795,383.047749,1628.453072,9992.780217
3641.705109,842.705048,1702.473667,10362.883188
3641.705424,1072.533697,1850.514855,9844.739029
3641.705738,689.485948,1628.453072,9844.739029
3641.706053,1532.190996,1480.411884,9622.677246
3641.706368,919.314598,1628.453072,9030.512492
3641.706682,1455.581446,888.247130,9104.533087
3641.706997,1378.971896,518.144159,9252.574275
3641.707311,1072.533697,296.082377,9474.636058
3641.707626,995.924147,-0.000000,9400.615463
3641.707940,689.485948,444.123565,9474.636058
3641.708255,383.047749,592.164754,9474.636058
3641.708569,0.000000,518.144159,8882.471304
3641.708884,-306.438199,666.185348,9474.636058
3641.709199,-536.266849,666.185348,9474.636058
3641.709513,-612.876398,518.144159,9992.780217
3641.709828,-306.438199,666.185348,10584.944971
3641.710142,0.000000,740.205942,10732.986159
3641.710457,0.000000,814.226536,10140.821405
3641.710771,-536.266849,1332.370696,10658.965565
3641.711086,-229.828649,1628.453072,10658.965565
3641.711400,76.609550,1406.391290,10732.986159
3641.711715,229.828649,1480.411884,10658.965565
3641.712030,0.000000,1258.350101,9548.656652
3641.712344,0.000000,1184.329507,9178.553681
3641.712659,76.609550,518.144159,9326.594869
3641.712973,229.828649,-0.000000,9474.636058
3641.713288,306.438199,-296.082377,9474.636058
3641.713602,0.000000,-296.082377,9400.615463
3641.713917,-612.876398,-0.000000,9252.574275
3641.714231,-383.047749,-0.000000,9252.574275
3641.714546,-229.828649,148.041188,9104.533087
3641.714861,-383.047749,-0.000000,9030.512492
3641.715175,-306.438199,-0.000000,8956.491898
3641.715490,-536.266849,-0.000000,8586.388927
3641.715804,-612.876398,-370.102971,9030.512492
3641.716119,0.000000,-518.144159,9622.677246
3641.716433,-536.266849,-444.123565,9844.739029
3641.716748,-919.314598,-666.185348,10955.047942
3641.717062,-766.095498,-0.000000,10732.986159
3641.717377,-842.705048,-222.061783,10362.883188
3641.717692,0.000000,-296.082377,10288.862594
3641.718006,383.047749,-518.144159,9548.656652
3641.718321,459.657299,-444.123565,9104.533087
3641.718635,306.438199,-962.267725,8956.491898
3641.718950,995.924147,-1184.329507,8956.491898
3641.719264,1072.533697,-888.247130,8882.471304
3641.719579,842.705048,-1036.288319,8586.388927
3641.719893,919.314598,-1184.329507,8956.491898
3641.720208,459.657299,-1258.350101,9104.533087
3641.720523,383.047749,-962.267725,9326.594869
3641.720837,536.266849,-592.164754,9252.574275
3641.721152,76.609550,-1258.350101,9400.615463
3641.721466,153.219100,-1258.350101,9622.677246
3641.721781,-153.219100,-1554.432478,9400.615463
3641.722095,-306.438199,-1406.391290,9770.718434
3641.722410,0.000000,-1332.370696,10510.924376
3641.722724,0.000000,-814.226536,10584.944971
3641.723039,0.000000,-370.102971,10362.883188
3641.723354,0.000000,-0.000000,10436.903782
3641.723668,306.438199,-0.000000,10362.883188
3641.723983,612.876398,222.061783,9844.739029
3641.724297,919.314598,444.123565,9474.636058
3641.724612,1072.533697,444.123565,9178.553681
3641.724926,842.705048,74.020594,8808.450710
3641.725241,1455.581446,-0.000000,8660.409521
3641.725555,1149.143247,-148.041188,8660.409521
3641.725870,612.876398,-518.144159,8734.430116
3641.726185,306.438199,-148.041188,8882.471304
3641.726499,0.000000,-74.020594,8882.471304
3641.726814,0.000000,-74.020594,9474.636058
3641.727128,-306.438199,-0.000000,8808.450710
3641.727443,-459.657299,222.061783,8512.368333
3641.727757,-995.924147,222.061783,9178.553681
3641.728072,-842.705048,296.082377,9770.718434
3641.728386,-459.657299,296.082377,10066.800811
3641.728701,-383.047749,370.102971,10066.800811
3641.729016,-1378.971896,888.247130,10732.986159
3641.729330,-689.485948,1110.308913,10436.903782
3641.729645,-689.485948,1628.453072,10436.903782
3641.729959,153.219100,1554.432478,10510.924376
3641.730274,0.000000,1110.308913,9992.780217
3641.730588,-306.438199,1480.411884,9696.697840
3641.730903,0.000000,1406.391290,9400.615463
3641.731217,383.047749,518.144159,9548.656652
3641.731532,842.705048,518.144159,9696.697840
3641.731847,689.485948,296.082377,9696.697840
3641.732161,76.609550,-0.000000,9622.677246
3641.732476,229.828649,370.102971,9548.656652
3641.732790,153.219100,444.123565,9474.636058
3641.733105,229.828649,666.185348,9474.636058
3641.733419,229.828649,592.164754,9474.636058
3641.733734,-306.438199,1184.329507,9474.636058
3641.734048,-383.047749,1184.329507,9770.718434
3641.734363,-153.219100,962.267725,10140.821405
3641.734678,-153.219100,666.185348,10584.944971
3641.734992,0.000000,370.102971,10807.006753
3641.735307,-689.485948,814.226536,11251.130318
3641.735621,-383.047749,1036.288319,11621.233289
3641.735936,0.000000,1184.329507,10955.047942
3641.736250,229.828649,1184.329507,10288.862594
3641.736565,612.876398,1406.391290,9548.656652
3641.736879,536.266849,1258.350101,9474.636058
3641.737194,919.314598,814.226536,8808.450710
3641.737509,1455.581446,-0.000000,8882.471304
3641.737823,1455.581446,-148.041188,8882.471304
3641.738138,842.705048,-296.082377,8808.450710
3641.738452,459.657299,-74.020594,8660.409521
3641.738767,536.266849,-74.020594,8808.450710
3641.739081,306.438199,-296.082377,8882.471304
3641.739396,-306.438199,222.061783,8808.450710
3641.739711,76.609550,-0.000000,8956.491898
3641.740025,-306.438199,148.041188,8956.491898
3641.740340,153.219100,-0.000000,9326.594869
3641.740654,306.438199,-444.123565,9548.656652
3641.740969,0.000000,-592.164754,10140.821405
3641.741283,0.000000,-444.123565,10436.903782
3641.741598,-306.438199,-222.061783,9992.780217
3641.741912,0.000000,-0.000000,10288.862594
3641.742227,306.438199,-0.000000,10362.883188
3641.742542,536.266849,-0.000000,10140.821405
3641.742856,383.047749,74.020594,9548.656652
3641.743171,153.219100,-370.102971,9104.533087
3641.743485,766.095498,-666.185348,9400.615463
3641.743800,995.924147,-962.267725,9326.594869
3641.744114,842.705048,-1036.288319,9178.553681
3641.744429,383.047749,-888.247130,8882.471304
3641.744743,153.219100,-592.164754,8808.450710
3641.745058,229.828649,-518.144159,9104.533087
3641.745373,-383.047749,-592.164754,9696.697840
3641.745687,-306.438199,-296.082377,9622.677246
3641.746002,-689.485948,-518.144159,9104.533087
3641.746316,-1072.533697,-814.226536,9770.718434
3641.746631,-612.876398,-888.247130,10955.047942
3641.746945,-919.314598,-1036.288319,11103.089130
3641.747260,-1072.533697,-814.226536,10955.047942
3641.747574,-689.485948,-222.061783,11103.089130
3641.747889,-842.705048,-0.000000,10732.986159
3641.748203,-229.828649,518.144159,10066.800811
3641.748518,229.828649,740.205942,9622.677246
3641.748832,76.609550,592.164754,9400.615463
3641.749147,153.219100,222.061783,8364.327145
3641.749461,459.657299,-0.000000,8512.368333
3641.749776,995.924147,-518.144159,8882.471304
3641.750090,995.924147,-1036.288319,9030.512492
3641.750405,536.266849,-592.164754,8882.471304
3641.750719,0.000000,-444.123565,8734.430116
3641.751034,459.657299,-296.082377,9030.512492
3641.751348,-306.438199,-74.020594,9252.574275
3641.751663,-306.438199,-222.061783,8956.491898
3641.751977,-459.657299,296.082377,8882.471304
3641.752292,-459.657299,666.185348,8956.491898
3641.752606,-229.828649,370.102971,9548.656652
3641.752920,76.609550,-0.000000,9918.759623
3641.753235,-229.828649,148.041188,10510.924376
3641.753549,-229.828649,296.082377,10510.924376
3641.753864,-536.266849,740.205942,10510.924376
3641.754178,-306.438199,1036.288319,10732.986159
3641.754493,153.219100,1184.329507,10658.965565
3641.754807,306.438199,888.247130,9770.718434
3641.755122,229.828649,1332.370696,9992.780217
3641.755436,153.219100,1036.288319,9622.677246
3641.755751,612.876398,740.205942,9178.553681
3641.756065,1149.143247,-0.000000,9030.512492
3641.756380,1302.362347,444.123565,9770.718434
3641.756694,689.485948,518.144159,9030.512492
3641.757009,383.047749,666.185348,8882.471304
3641.757323,383.047749,444.123565,9326.594869
3641.757638,153.219100,592.164754,9474.636058
3641.757952,0.000000,740.205942,9770.718434
3641.758266,-536.266849,518.144159,9622.677246
3641.758581,-536.266849,444.123565,9770.718434
3641.758895,-459.657299,444.123565,9844.739029
3641.759210,0.000000,888.247130,10214.842000
3641.759524,-229.828649,740.205942,10807.006753
3641.759839,0.000000,888.247130,10881.027347
3641.760153,-383.047749,1184.329507,10140.821405
3641.760468,0.000000,1036.288319,10214.842000
3641.760782,306.438199,1036.288319,10066.800811
3641.761097,459.657299,962.267725,9474.636058
3641.761411,383.047749,962.267725,8956.491898
3641.761726,383.047749,444.123565,9178.553681
3641.762040,842.705048,-0.000000,9178.553681
3641.762355,1072.533697,-148.041188,9030.512492
3641.762669,689.485948,-222.061783,9252.574275
3641.762984,459.657299,-0.000000,8956.491898
3641.763298,536.266849,-0.000000,8956.491898
3641.763612,536.266849,-0.000000,8808.450710
3641.763927,842.705048,592.164754,8734.430116
3641.764241,612.876398,444.123565,8808.450710
3641.764556,229.828649,444.123565,8808.450710
3641.764870,0.000000,-0.000000,9252.574275
3641.765185,76.609550,-0.000000,10066.800811
3641.765499,0.000000,-222.061783,10436.903782
3641.765814,-459.657299,-0.000000,11103.089130
3641.766128,-459.657299,296.082377,10955.047942
3641.766443,-842.705048,370.102971,10732.986159
3641.766757,-153.219100,444.123565,10510.924376
3641.767072,0.000000,-0.000000,10362.883188
3641.767386,0.000000,518.144159,9696.697840
3641.767701,0.000000,296.082377,9178.553681
3641.768015,689.485948,-0.000000,8808.450710
3641.768330,995.924147,-518.144159,9030.512492
3641.768644,995.924147,-740.205942,8956.491898
3641.768958,383.047749,-740.205942,8882.471304
3641.769273,383.047749,-592.164754,8882.471304
3641.769587,153.219100,-666.185348,9104.533087
3641.769902,0.000000,-444.123565,9326.594869
3641.770216,-229.828649,-592.164754,9474.636058
3641.770531,-842.705048,-592.164754,9400.615463
3641.770845,-1072.533697,-592.164754,9622.677246
3641.771160,-919.314598,-962.267725,9918.759623
3641.771474,-689.485948,-962.267725,10436.903782
3641.771789,-766.095498,-1184.329507,10955.047942
3641.772103,-153.219100,-814.226536,10510.924376
3641.772418,-459.657299,-0.000000,10436.903782
3641.772732,-306.438199,222.061783,10214.842000
3641.773047,76.609550,370.102971,9918.759623
3641.773361,306.438199,-0.000000,9252.574275
3641.773675,76.609550,370.102971,8586.388927
3641.773990,306.438199,-0.000000,8956.491898
3641.774304,536.266849,-222.061783,8882.471304
3641.774619,919.314598,-370.102971,9178.553681
3641.774933,842.705048,-888.247130,9326.594869
3641.775248,229.828649,-666.185348,9030.512492
3641.775562,-229.828649,-592.164754,8660.409521
3641.775877,76.609550,-222.061783,8808.450710
3641.776191,0.000000,-0.000000,9178.553681
3641.776506,-383.047749,-0.000000,9474.636058
3641.776820,-383.047749,-0.000000,9030.512492
3641.777135,-536.266849,-0.000000,9474.636058
3641.777449,-306.438199,-0.000000,10214.842000
3641.777764,0.000000,-0.000000,10362.883188
3641.778078,0.000000,-0.000000,10362.883188
3641.778393,-229.828649,814.226536,11251.130318
3641.778707,-383.047749,1036.288319,10584.944971
3641.779021,0.000000,1184.329507,10510.924376
3641.779336,306.438199,1184.329507,9918.759623
3641.779650,383.047749,962.267725,9326.594869
3641.779965,995.924147,740.205942,9252.574275
3641.780279,536.266849,370.102971,9252.574275
3641.780594,919.314598,-0.000000,9474.636058
3641.780908,1072.533697,-296.082377,9104.533087
3641.781223,919.314598,-222.061783,9178.553681
3641.781537,153.219100,-148.041188,9326.594869
3641.781852,229.828649,148.041188,9474.636058
3641.782166,306.438199,148.041188,9400.615463
3641.782481,153.219100,444.123565,9474.636058
3641.782795,459.657299,592.164754,9474.636058
3641.783110,153.219100,592.164754,9252.574275
3641.783424,76.609550,518.144159,10214.842000
3641.783739,153.219100,296.082377,10510.924376
3641.784053,153.219100,222.061783,10510.924376
3641.784367,306.438199,592.164754,10955.047942
3641.784682,-383.047749,888.247130,10658.965565
3641.784996,153.219100,1036.288319,10881.027347
3641.785311,459.657299,1110.308913,10140.821405
3641.785625,689.485948,1110.308913,10140.821405
3641.785940,76.609550,666.185348,9622.677246
3641.786254,306.438199,740.205942,9030.512492
3641.786569,689.485948,592.164754,9104.533087
3641.786883,1149.143247,-0.000000,9178.553681
3641.787198,919.314598,-0.000000,9030.512492
3641.787512,919.314598,-0.000000,8660.409521
3641.787827,0.000000,-0.000000,9252.574275
3641.788141,229.828649,444.123565,9252.574275
3641.788456,76.609550,740.205942,9104.533087
3641.788770,-306.438199,1110.308913,9104.533087
3641.789084,0.000000,592.164754,9030.512492
3641.789399,-536.266849,370.102971,9696.697840
3641.789713,-536.266849,-0.000000,10214.842000
3641.790028,-536.266849,-0.000000,10510.924376
3641.790342,-612.876398,-0.000000,10881.027347
3641.790657,-229.828649,444.123565,11251.130318
3641.790971,-689.485948,592.164754,10807.006753
3641.791286,-306.438199,518.144159,10362.883188
3641.791600,229.828649,592.164754,9992.780217
3641.791915,0.000000,740.205942,9400.615463
3641.792229,76.609550,296.082377,8734.430116
3641.792544,306.438199,-0.000000,8586.388927
3641.792858,919.314598,-222.061783,8586.388927
3641.793173,1072.533697,-666.185348,8586.388927
3641.793487,1072.533697,-814.226536,8660.409521
3641.793802,766.095498,-740.205942,8660.409521
3641.794116,153.219100,-666.185348,8956.491898
3641.794430,76.609550,-592.164754,9030.512492
3641.794745,-306.438199,-444.123565,9104.533087
3641.795059,-689.485948,-444.123565,9178.553681
3641.795374,-766.095498,-666.185348,9696.697840
3641.795688,-536.266849,-888.247130,10066.800811
3641.796003,-383.047749,-814.226536,10510.924376
3641.796317,-536.266849,-592.164754,10658.965565
3641.796632,-459.657299,-592.164754,11103.089130
3641.796946,-229.828649,370.102971,10658.965565
3641.797261,0.000000,222.061783,10584.944971
3641.797575,383.047749,740.205942,10214.842000
3641.797890,536.266849,592.164754,9622.677246
3641.798204,229.828649,518.144159,9474.636058
3641.798519,383.047749,222.061783,9030.512492
3641.798833,919.314598,-74.020594,8882.471304
3641.799148,995.924147,-592.164754,9030.512492
3641.799462,919.314598,-962.267725,9474.636058
3641.799776,612.876398,-888.247130,8512.368333
3641.800091,76.609550,-666.185348,9030.512492
3641.800405,153.219100,-296.082377,9400.615463
3641.800720,0.000000,-0.000000,8882.471304
3641.801034,0.000000,222.061783,8882.471304
3641.801349,-229.828649,296.082377,9104.533087
3641.801663,-229.828649,296.082377,9178.553681
3641.801978,76.609550,-0.000000,9474.636058
3641.802292,0.000000,296.082377,10140.821405
3641.802607,0.000000,-0.000000,10584.944971
3641.802921,-536.266849,370.102971,10658.965565
3641.803236,-383.047749,592.164754,10140.821405
3641.803550,-383.047749,666.185348,10214.842000
3641.803865,-229.828649,666.185348,10362.883188
3641.804179,76.609550,888.247130,10066.800811
3641.804494,0.000000,518.144159,9622.677246
3641.804808,306.438199,444.123565,9474.636058
3641.805122,536.266849,-0.000000,9104.533087
3641.805437,842.705048,-148.041188,9030.512492
3641.805751,459.657299,-444.123565,9030.512492
3641.806066,689.485948,-74.020594,8882.471304
3641.806380,536.266849,148.041188,8956.491898
3641.806695,459.657299,-0.000000,9252.574275
3641.807009,76.609550,444.123565,9400.615463
3641.807324,-306.438199,444.123565,9474.636058
3641.807638,-612.876398,592.164754,9474.636058
3641.807953,-689.485948,296.082377,10436.903782
3641.808267,-612.876398,-0.000000,10732.986159
3641.808582,-383.047749,-0.000000,11177.109724
3641.808896,-459.657299,814.226536,11547.212695
3641.809211,-229.828649,1110.308913,11251.130318
3641.809525,-153.219100,1258.350101,10658.965565
3641.809839,76.609550,1332.370696,10288.862594
3641.810154,306.438199,1036.288319,9548.656652
3641.810468,766.095498,1406.391290,9252.574275
3641.810783,536.266849,1036.288319,9030.512492
3641.811097,766.095498,444.123565,9104.533087
3641.811412,842.705048,-0.000000,9326.594869
3641.811726,536.266849,-296.082377,9474.636058
3641.812041,383.047749,-222.061783,9030.512492
3641.812355,0.000000,-0.000000,9400.615463
3641.812670,0.000000,-0.000000,9400.615463
3641.812984,306.438199,370.102971,9104.533087
3641.813299,76.609550,518.144159,8956.491898
3641.813613,0.000000,296.082377,8512.368333
3641.813928,-229.828649,518.144159,9030.512492
3641.814242,0.000000,-0.000000,9474.636058
3641.814557,229.828649,-74.020594,9770.718434
3641.814871,0.000000,74.020594,10732.986159
3641.815185,0.000000,-0.000000,10732.986159
3641.815500,-76.609550,222.061783,10584.944971
3641.815814,0.000000,296.082377,10288.862594
3641.816129,0.000000,222.061783,9918.759623
3641.816443,0.000000,444.123565,9474.636058
3641.816758,76.609550,592.164754,9030.512492
3641.817072,536.266849,148.041188,8882.471304
3641.817387,995.924147,-222.061783,8956.491898
3641.817701,1378.971896,-666.185348,8808.450710
3641.818016,1225.752797,-888.247130,8068.244768
3641.818330,612.876398,-0.000000,8882.471304
3641.818645,612.876398,-444.123565,8808.450710
3641.818959,229.828649,-444.123565,9400.615463
3641.819274,229.828649,-222.061783,9474.636058
3641.819588,-306.438199,-74.020594,9548.656652
3641.819903,-689.485948,-0.000000,9548.656652
3641.820217,-766.095498,-222.061783,9992.780217
3641.820531,-919.314598,-518.144159,10955.047942
3641.820846,-766.095498,-444.123565,10732.986159
3641.821160,-842.705048,-296.082377,10584.944971
3641.821475,-689.485948,-0.000000,10732.986159
3641.821789,0.000000,444.123565,10584.944971
3641.822104,0.000000,592.164754,10362.883188
3641.822418,0.000000,740.205942,9770.718434
3641.822733,0.000000,592.164754,9474.636058
3641.823047,76.609550,222.061783,9104.533087
3641.823362,383.047749,-148.041188,9400.615463
3641.823676,689.485948,-370.102971,9326.594869
3641.823991,612.876398,-814.226536,9178.553681
3641.824305,306.438199,-666.185348,8882.471304
3641.824620,0.000000,-0.000000,9252.574275
3641.824934,153.219100,-296.082377,8808.450710
3641.825249,76.609550,-148.041188,8956.491898
3641.825563,-306.438199,-0.000000,8586.388927
3641.825877,-229.828649,148.041188,8586.388927
3641.826192,-383.047749,-0.000000,9326.594869
3641.826506,-229.828649,-74.020594,9770.718434
3641.826821,0.000000,-222.061783,10362.883188
3641.827135,-459.657299,-296.082377,10510.924376
3641.827450,-536.266849,-0.000000,10807.006753
3641.827764,-842.705048,518.144159,10658.965565
3641.828079,-536.266849,888.247130,10658.965565
3641.828393,689.485948,1332.370696,10214.842000
3641.828708,459.657299,888.247130,9770.718434
3641.829022,383.047749,962.267725,9474.636058
3641.829337,919.314598,518.144159,8734.430116
3641.829651,1302.362347,-0.000000,8438.347739
3641.829966,1532.190996,-296.082377,8882.471304
3641.830280,995.924147,-222.061783,9104.533087
3641.830594,919.314598,-444.123565,9400.615463
3641.830909,76.609550,-74.020594,9474.636058
3641.831223,383.047749,-0.000000,9548.656652
3641.831538,0.000000,-74.020594,9548.656652
3641.831852,-459.657299,-0.000000,9548.656652
3641.832167,-919.314598,222.061783,9992.780217
3641.832481,-612.876398,-0.000000,9770.718434
3641.832796,0.000000,-0.000000,10436.903782
3641.833110,-229.828649,-0.000000,10584.944971
3641.833425,0.000000,148.041188,10584.944971
3641.833739,0.000000,444.123565,10658.965565
3641.834054,76.609550,1036.288319,10362.883188
3641.834368,536.266849,1184.329507,10288.862594
3641.834683,612.876398,888.247130,9918.759623
3641.834997,0.000000,592.164754,9474.636058
3641.835312,306.438199,666.185348,8882.471304
3641.835626,306.438199,370.102971,9030.512492
3641.835940,612.876398,-296.082377,8882.471304
3641.836255,536.266849,-444.123565,9030.512492
3641.836569,536.266849,-222.061783,9326.594869
3641.836884,229.828649,-0.000000,8808.450710
3641.837198,459.657299,296.082377,8586.388927
3641.837513,383.047749,296.082377,9030.512492
3641.837827,536.266849,518.144159,9178.553681
3641.838142,306.438199,518.144159,9178.553681
3641.838456,0.000000,814.226536,9178.553681
3641.838771,0.000000,370.102971,9622.677246
3641.839085,76.609550,222.061783,10362.883188
3641.839400,-229.828649,222.061783,10584.944971
3641.839714,-229.828649,-0.000000,10955.047942
3641.840029,-612.876398,666.185348,10584.944971
3641.840343,-459.657299,814.226536,10436.903782
3641.840658,0.000000,666.185348,9992.780217
3641.840972,0.000000,518.144159,9844.739029
3641.841286,0.000000,592.164754,9770.718434
3641.841601,383.047749,296.082377,8882.471304
3641.841915,536.266849,-0.000000,9326.594869
3641.842230,919.314598,-0.000000,9474.636058
3641.842544,842.705048,-148.041188,9326.594869
3641.842859,612.876398,-222.061783,9400.615463
3641.843173,459.657299,-222.061783,9252.574275
3641.843488,0.000000,-0.000000,9474.636058
3641.843802,0.000000,-0.000000,9252.574275
3641.844117,0.000000,-0.000000,9400.615463
3641.844431,-689.485948,-0.000000,9622.677246
3641.844746,-383.047749,370.102971,9474.636058
3641.845060,-383.047749,-296.082377,9844.739029
3641.845375,0.000000,-444.123565,10732.986159
3641.845689,-383.047749,-444.123565,11029.068536
3641.846004,-459.657299,-0.000000,10436.903782
3641.846318,-229.828649,296.082377,10140.821405
3641.846632,153.219100,592.164754,10288.862594
3641.846947,536.266849,740.205942,10066.800811
3641.847261,306.438199,888.247130,9252.574275
3641.847576,76.609550,444.123565,8882.471304
3641.847890,689.485948,296.082377,9104.533087
3641.848205,919.314598,-148.041188,8808.450710
3641.848519,1378.971896,-592.164754,9326.594869
3641.848834,766.095498,-518.144159,9178.553681
3641.849148,689.485948,-0.000000,9030.512492
3641.849462,536.266849,-0.000000,9030.512492
3641.849777,766.095498,222.061783,9326.594869
3641.850091,76.609550,518.144159,9104.533087
3641.850405,229.828649,222.061783,8734.430116
3641.850720,0.000000,370.102971,9104.533087
3641.851034,-612.876398,222.061783,9474.636058
3641.851348,-306.438199,-444.123565,10140.821405
3641.851663,0.000000,-148.041188,10732.986159
3641.851977,-536.266849,-0.000000,10881.027347
3641.852291,-383.047749,296.082377,10807.006753
3641.852606,-383.047749,370.102971,10510.924376
3641.852920,0.000000,592.164754,10362.883188
3641.853234,306.438199,740.205942,10066.800811
3641.853549,383.047749,1110.308913,9326.594869
3641.853863,459.657299,888.247130,9030.512492
3641.854177,612.876398,222.061783,9178.553681
3641.854492,995.924147,-74.020594,9030.512492
3641.854806,766.095498,-370.102971,8882.471304
3641.855120,383.047749,-518.144159,8956.491898
3641.855435,0.000000,-592.164754,9474.636058
3641.855749,0.000000,-296.082377,9178.553681
3641.856063,0.000000,-0.000000,9104.533087
3641.856378,-383.047749,222.061783,9696.697840
3641.856692,-459.657299,-0.000000,9474.636058
3641.857006,-612.876398,-0.000000,9770.718434
3641.857321,-766.095498,-0.000000,10288.862594
3641.857635,-459.657299,-148.041188,10510.924376
3641.857949,-536.266849,-0.000000,10584.944971
3641.858264,-229.828649,370.102971,10584.944971
3641.858578,-229.828649,444.123565,10955.047942
3641.858892,76.609550,740.205942,10362.883188
3641.859207,383.047749,888.247130,9622.677246
3641.859521,76.609550,888.247130,9548.656652
3641.859836,459.657299,962.267725,9400.615463
3641.860150,383.047749,444.123565,9178.553681
3641.860464,459.657299,74.020594,9104.533087
3641.860779,1072.533697,-592.164754,9252.574275
3641.861093,612.876398,-518.144159,8734.430116
3641.861407,306.438199,-444.123565,8512.368333
3641.861722,306.438199,-444.123565,8660.409521
3641.862036,306.438199,-0.000000,9252.574275
3641.862350,0.000000,592.164754,8956.491898
3641.862665,0.000000,444.123565,9104.533087
3641.862979,-612.876398,444.123565,8882.471304
3641.863293,229.828649,148.041188,9992.780217
3641.863608,-306.438199,-0.000000,10140.821405
3641.863922,0.000000,-222.061783,10658.965565
3641.864236,0.000000,-0.000000,10584.944971
3641.864551,-459.657299,296.082377,10436.903782
3641.864865,-153.219100,370.102971,10436.903782
3641.865179,0.000000,592.164754,10436.903782
3641.865494,229.828649,666.185348,9992.780217
3641.865808,76.609550,740.205942,9252.574275
3641.866122,459.657299,666.185348,9252.574275
3641.866437,536.266849,-148.041188,9252.574275
3641.866751,1072.533697,-444.123565,9030.512492
3641.867065,995.924147,-740.205942,8882.471304
3641.867380,689.485948,-740.205942,9030.512492
3641.867694,76.609550,-444.123565,9400.615463
3641.868008,306.438199,-74.020594,8956.491898
3641.868323,0.000000,-148.041188,9104.533087
3641.868637,-306.438199,-0.000000,9252.574275
3641.868951,-306.438199,-0.000000,9252.574275
3641.869266,-536.266849,-74.020594,9474.636058
3641.869580,-689.485948,-148.041188,10288.862594
3641.869894,-306.438199,-444.123565,10732.986159
3641.870209,-306.438199,-370.102971,10510.924376
3641.870523,-383.047749,-0.000000,10658.965565
3641.870837,0.000000,666.185348,10510.924376
3641.871152,0.000000,888.247130,10066.800811
3641.871466,612.876398,666.185348,9770.718434
3641.871780,306.438199,518.144159,9474.636058
3641.872095,306.438199,666.185348,8882.471304
3641.872409,383.047749,296.082377,8586.388927
3641.872723,536.266849,-74.020594,9252.574275
3641.873038,766.095498,-666.185348,9400.615463
3641.873352,842.705048,-666.185348,9326.594869
3641.873667,153.219100,-222.061783,9326.594869
3641.873981,536.266849,-74.020594,9400.615463
3641.874295,306.438199,-74.020594,9326.594869
3641.874610,229.828649,222.061783,9030.512492
3641.874924,-306.438199,370.102971,8956.491898
3641.875238,-229.828649,740.205942,9326.594869
3641.875553,0.000000,-0.000000,9326.594869
3641.875867,-306.438199,148.041188,10066.800811
3641.876181,-229.828649,-148.041188,10288.862594
3641.876496,-689.485948,-0.000000,10807.006753
3641.876810,-689.485948,370.102971,10732.986159
3641.877124,-612.876398,370.102971,11103.089130
3641.877439,-306.438199,444.123565,10881.027347
3641.877753,76.609550,666.185348,9918.759623
3641.878067,0.000000,592.164754,9252.574275
3641.878382,0.000000,740.205942,9178.553681
3641.878696,536.266849,-0.000000,8882.471304
3641.879010,1455.581446,-296.082377,8882.471304
3641.879325,995.924147,-370.102971,8808.450710
3641.879639,766.095498,-296.082377,8512.368333
3641.879953,459.657299,-0.000000,8882.471304
3641.880268,383.047749,-444.123565,9178.553681
3641.880582,0.000000,222.061783,9548.656652
3641.880896,-306.438199,-0.000000,9252.574275
3641.881211,-383.047749,444.123565,9326.594869
3641.881525,-459.657299,370.102971,9548.656652
3641.881839,0.000000,-0.000000,10140.821405
3641.882154,-153.219100,-0.000000,10658.965565
3641.882468,0.000000,-0.000000,10807.006753
3641.882782,0.000000,222.061783,10584.944971
3641.883097,0.000000,1036.288319,10362.883188
3641.883411,0.000000,888.247130,9770.718434
3641.883725,459.657299,1036.288319,9992.780217
3641.884040,459.657299,740.205942,9474.636058
3641.884354,383.047749,814.226536,9030.512492
3641.884668,153.219100,296.082377,9326.594869
3641.884983,842.705048,-518.144159,9474.636058
3641.885297,1072.533697,-74.020594,8956.491898
3641.885611,766.095498,-222.061783,9030.512492
3641.885926,536.266849,-0.000000,9252.574275
3641.886240,536.266849,-74.020594,9178.553681
3641.886554,383.047749,370.102971,9400.615463
3641.886869,306.438199,444.123565,9178.553681
3641.887183,0.000000,518.144159,9104.533087
3641.887497,-229.828649,592.164754,9178.553681
3641.887812,-229.828649,222.061783,9696.697840
3641.888126,-229.828649,-370.102971,10214.842000
3641.888441,-229.828649,-444.123565,10807.006753
3641.888755,-536.266849,-74.020594,10807.006753
3641.889069,-689.485948,-0.000000,10584.944971
3641.889384,-766.095498,-0.000000,10732.986159
3641.889698,-459.657299,222.061783,10436.903782
3641.890012,76.609550,370.102971,9992.780217
3641.890327,306.438199,518.144159,9622.677246
3641.890641,536.266849,740.205942,8882.471304
3641.890955,689.485948,370.102971,9030.512492
3641.891270,1149.143247,-0.000000,9030.512492
3641.891584,1225.752797,-666.185348,9030.512492
3641.891898,766.095498,-518.144159,8956.491898
3641.892213,459.657299,-370.102971,8956.491898
3641.892527,229.828649,-518.144159,9548.656652
3641.892841,0.000000,-222.061783,9770.718434
3641.893156,-229.828649,-0.000000,9474.636058
3641.893470,-766.095498,-0.000000,9474.636058
3641.893784,-842.705048,-0.000000,9548.656652
3641.894099,-306.438199,-74.020594,9844.739029
3641.894413,-153.219100,-370.102971,9770.718434
3641.894727,76.609550,-370.102971,10436.903782
3641.895042,-229.828649,-74.020594,10288.862594
3641.895356,-383.047749,222.061783,9992.780217
3641.895670,0.000000,296.082377,10140.821405
3641.895985,76.609550,444.123565,10066.800811
3641.896299,76.609550,148.041188,9992.780217
3641.896613,0.000000,666.185348,9252.574275
3641.896928,383.047749,148.041188,9400.615463
3641.897242,459.657299,-148.041188,9252.574275
3641.897556,919.314598,-592.164754,8808.450710
3641.897871,612.876398,-444.123565,9178.553681
3641.898185,536.266849,-444.123565,9104.533087
3641.898499,612.876398,-370.102971,8882.471304
3641.898814,383.047749,-222.061783,8512.368333
3641.899128,306.438199,-0.000000,8586.388927
3641.899442,0.000000,296.082377,9178.553681
3641.899757,-383.047749,-0.000000,8956.491898
3641.900071,-306.438199,222.061783,9178.553681
3641.900385,-306.438199,-222.061783,9992.780217
3641.900700,-383.047749,-518.144159,10140.821405
3641.901014,-153.219100,-148.041188,10807.006753
3641.901328,-383.047749,296.082377,10881.027347
3641.901643,0.000000,74.020594,10732.986159
3641.901957,153.219100,814.226536,10214.842000
3641.902271,612.876398,962.267725,9844.739029
3641.902586,459.657299,1036.288319,9548.656652
3641.902900,766.095498,962.267725,9104.533087
3641.903215,1149.143247,666.185348,8956.491898
3641.903529,1685.410096,444.123565,9030.512492
3641.903843,1685.410096,-0.000000,9178.553681
3641.904158,1378.971896,-0.000000,8956.491898
3641.904472,842.705048,-0.000000,9178.553681
3641.904786,229.828649,222.061783,9622.677246
3641.905101,229.828649,296.082377,9548.656652
3641.905415,153.219100,444.123565,10140.821405
3641.905729,-306.438199,666.185348,9696.697840
3641.906044,-919.314598,296.082377,9622.677246
3641.906358,-383.047749,592.164754,9770.718434
3641.906672,0.000000,444.123565,10362.883188
3641.906987,76.609550,222.061783,10955.047942
3641.907301,-229.828649,444.123565,10584.944971
3641.907615,-1149.143247,740.205942,10066.800811
3641.907930,-229.828649,1110.308913,10584.944971
3641.908244,-153.219100,962.267725,10584.944971
3641.908558,76.609550,888.247130,10288.862594
3641.908873,0.000000,740.205942,9548.656652
3641.909187,0.000000,518.144159,9252.574275
3641.909501,383.047749,-0.000000,9104.533087
3641.909816,689.485948,-74.020594,8882.471304
3641.910130,536.266849,-444.123565,9178.553681
3641.910444,0.000000,-296.082377,9400.615463
3641.910759,153.219100,-222.061783,8882.471304
3641.911073,153.219100,-0.000000,8882.471304
3641.911387,0.000000,74.020594,9104.533087
3641.911702,0.000000,370.102971,9030.512492
3641.912016,0.000000,592.164754,9030.512492
3641.912330,-842.705048,-0.000000,9326.594869
3641.912645,-306.438199,296.082377,9918.759623
3641.912959,-306.438199,-222.061783,10362.883188
3641.913273,-919.314598,-370.102971,10732.986159
3641.913588,-842.705048,-0.000000,10732.986159
3641.913902,-689.485948,592.164754,10362.883188
3641.914216,0.000000,592.164754,10140.821405
3641.914531,306.438199,592.164754,9844.739029
3641.914845,612.876398,740.205942,9104.533087
3641.915159,383.047749,888.247130,9104.533087
3641.915474,766.095498,296.082377,8660.409521
3641.915788,766.095498,-148.041188,8734.430116
3641.916102,1302.362347,-444.123565,9400.615463
3641.916417,612.876398,-592.164754,8882.471304
3641.916731,383.047749,-296.082377,9252.574275
3641.917045,229.828649,-0.000000,9252.574275
3641.917360,0.000000,-296.082377,9400.615463
3641.917674,0.000000,-444.123565,9030.512492
3641.917989,-383.047749,-0.000000,9104.533087
3641.918303,-842.705048,-0.000000,9548.656652
3641.918617,-612.876398,-222.061783,9622.677246
3641.918932,-383.047749,-222.061783,10288.862594
3641.919246,0.000000,-592.164754,10584.944971
3641.919560,-229.828649,-296.082377,10658.965565
3641.919875,153.219100,-74.020594,10732.986159
3641.920189,0.000000,740.205942,10288.862594
3641.920503,383.047749,592.164754,9992.780217
3641.920818,766.095498,814.226536,9770.718434
3641.921132,459.657299,740.205942,9030.512492
3641.921446,766.095498,148.041188,9030.512492
3641.921761,1149.143247,222.061783,9104.533087
3641.922075,1072.533697,-444.123565,9326.594869
3641.922389,995.924147,-592.164754,9104.533087
3641.922704,842.705048,-740.205942,8808.450710
3641.923018,229.828649,-518.144159,9252.574275
3641.923332,459.657299,-148.041188,9326.594869
3641.923647,383.047749,-0.000000,9400.615463
3641.923961,0.000000,-0.000000,9030.512492
3641.924275,-153.219100,296.082377,9178.553681
3641.924590,-612.876398,296.082377,9474.636058
3641.924904,-306.438199,-0.000000,10066.800811
3641.925218,0.000000,-0.000000,10436.903782
3641.925533,0.000000,-0.000000,10584.944971
3641.925847,-459.657299,222.061783,10955.047942
3641.926161,0.000000,518.144159,10510.924376
3641.926476,-536.266849,740.205942,10362.883188
3641.926790,0.000000,888.247130,10140.821405
3641.927104,0.000000,666.185348,9696.697840
3641.927419,0.000000,518.144159,9326.594869
3641.927733,153.219100,370.102971,9178.553681
3641.928047,612.876398,-0.000000,9178.553681
3641.928362,766.095498,-148.041188,9178.553681
3641.928676,689.485948,-296.082377,8808.450710
3641.928990,459.657299,-0.000000,9178.553681
3641.929305,306.438199,-0.000000,9104.533087
3641.929619,459.657299,-0.000000,8882.471304
3641.929933,76.609550,296.082377,9104.533087
3641.930248,-536.266849,148.041188,9104.533087
3641.930562,-536.266849,370.102971,9400.615463
3641.930876,-766.095498,-0.000000,9548.656652
3641.931191,-536.266849,-148.041188,10288.862594
3641.931505,-459.657299,-444.123565,10436.903782
3641.931819,-842.705048,148.041188,10807.006753
3641.932134,-919.314598,-0.000000,10807.006753
3641.932448,-306.438199,814.226536,10584.944971
3641.932763,0.000000,666.185348,10066.800811
3641.933077,383.047749,740.205942,9548.656652
3641.933391,383.047749,592.164754,9326.594869
3641.933706,842.705048,740.205942,8660.409521
3641.934020,689.485948,518.144159,8882.471304
3641.934334,919.314598,-0.000000,9326.594869
3641.934649,1302.362347,-444.123565,9326.594869
3641.934963,766.095498,-370.102971,9252.574275
3641.935277,612.876398,-0.000000,8660.409521
3641.935592,306.438199,-222.061783,9400.615463
3641.935906,76.609550,-0.000000,9400.615463
3641.936220,153.219100,296.082377,9326.594869
3641.936535,-153.219100,-0.000000,9326.594869
3641.936849,0.000000,370.102971,9548.656652
3641.937163,0.000000,222.061783,9992.780217
3641.937478,229.828649,148.041188,10066.800811
3641.937792,0.000000,222.061783,10732.986159
3641.938106,0.000000,148.041188,11103.089130
3641.938421,153.219100,592.164754,10732.986159
3641.938735,153.219100,962.267725,10658.965565
3641.939049,306.438199,814.226536,10140.821405
3641.939364,229.828649,962.267725,10214.842000
3641.939678,306.438199,592.164754,9252.574275
3641.939992,612.876398,222.061783,8882.471304
3641.940307,1302.362347,-0.000000,9400.615463
3641.940621,1225.752797,-0.000000,8882.471304
3641.940935,1072.533697,-296.082377,8808.450710
3641.941250,383.047749,-370.102971,8882.471304
3641.941564,536.266849,-518.144159,8882.471304
3641.941878,153.219100,-0.000000,9104.533087
3641.942193,153.219100,74.020594,9400.615463
3641.942507,-459.657299,-0.000000,9548.656652
3641.942821,-612.876398,-0.000000,9474.636058
3641.943136,-612.876398,-0.000000,9770.718434
3641.943450,-689.485948,-148.041188,10288.862594
3641.943764,-306.438199,-222.061783,10584.944971
3641.944079,-229.828649,-0.000000,10658.965565
3641.944393,0.000000,666.185348,10955.047942
3641.944707,-229.828649,666.185348,10362.883188
3641.945022,0.000000,740.205942,9992.780217
3641.945336,153.219100,518.144159,9696.697840
3641.945650,76.609550,518.144159,9474.636058
3641.945965,-383.047749,592.164754,8956.491898
3641.946279,306.438199,-222.061783,9104.533087
3641.946594,536.266849,-518.144159,9252.574275
3641.946908,689.485948,-666.185348,9400.615463
3641.947222,306.438199,-666.185348,8882.471304
3641.947537,459.657299,-444.123565,8438.347739
3641.947851,0.000000,-0.000000,9548.656652
3641.948165,0.000000,148.041188,9252.574275
3641.948480,76.609550,370.102971,8956.491898
3641.948794,0.000000,370.102971,8882.471304
3641.949108,-459.657299,-0.000000,9326.594869
3641.949423,-306.438199,-0.000000,9992.780217
3641.949737,-459.657299,-222.061783,10510.924376
3641.950051,-612.876398,-370.102971,11103.089130
3641.950366,-689.485948,-74.020594,11029.068536
3641.950680,-612.876398,518.144159,10732.986159
3641.950994,-76.609550,592.164754,10362.883188
3641.951309,536.266849,740.205942,10214.842000
3641.951623,536.266849,740.205942,9770.718434
3641.951937,689.485948,740.205942,8734.430116
3641.952252,1072.533697,740.205942,8438.347739
3641.952566,1072.533697,-0.000000,8512.368333
3641.952880,995.924147,-370.102971,8660.409521
3641.953195,1532.190996,-222.061783,8882.471304
3641.953509,995.924147,-296.082377,8586.388927
3641.953824,153.219100,-0.000000,9326.594869
3641.954138,76.609550,-0.000000,9326.594869
3641.954452,76.609550,-0.000000,9474.636058
3641.954767,-153.219100,370.102971,9474.636058
3641.955081,-383.047749,222.061783,9474.636058
3641.955395,-306.438199,-0.000000,9992.780217
3641.955710,0.000000,222.061783,10288.862594
3641.956024,0.000000,-0.000000,9992.780217
3641.956338,0.000000,222.061783,10510.924376
3641.956653,0.000000,222.061783,10362.883188
3641.956967,76.609550,814.226536,10066.800811
3641.957281,383.047749,888.247130,10510.924376
3641.957596,536.266849,888.247130,10066.800811
3641.957910,306.438199,666.185348,9770.718434
3641.958224,383.047749,814.226536,9474.636058
3641.958539,383.047749,222.061783,9252.574275
3641.958853,766.095498,-74.020594,9622.677246
3641.959168,1225.752797,-148.041188,9622.677246
3641.959482,842.705048,-0.000000,9326.594869
3641.959796,766.095498,-148.041188,9326.594869
3641.960111,459.657299,222.061783,9326.594869
3641.960425,306.438199,444.123565,9030.512492
3641.960739,76.609550,444.123565,9178.553681
3641.961054,-76.609550,592.164754,9252.574275
3641.961368,-459.657299,296.082377,9474.636058
3641.961682,-612.876398,-0.000000,9770.718434
3641.961997,-306.438199,-0.000000,10436.903782
3641.962311,-689.485948,-74.020594,10807.006753
3641.962625,-842.705048,-0.000000,10881.027347
3641.962940,-995.924147,-0.000000,10584.944971
3641.963254,-459.657299,370.102971,10288.862594
3641.963569,153.219100,666.185348,10140.821405
3641.963883,76.609550,740.205942,9474.636058
3641.964197,459.657299,740.205942,9400.615463
3641.964512,153.219100,370.102971,8512.368333
3641.964826,995.924147,-0.000000,8586.388927
3641.965140,1072.533697,-444.123565,8660.409521
3641.965455,1072.533697,-518.144159,8956.491898
3641.965769,612.876398,-444.123565,8882.471304
3641.966083,-229.828649,-592.164754,8660.409521
3641.966398,0.000000,-74.020594,9474.636058
3641.966712,0.000000,-0.000000,9326.594869
3641.967026,0.000000,148.041188,9030.512492
3641.967341,-612.876398,-0.000000,8956.491898
3641.967655,-459.657299,-0.000000,9474.636058
3641.967969,-306.438199,-74.020594,9770.718434
3641.968284,0.000000,-148.041188,10066.800811
3641.968598,0.000000,-222.061783,10807.006753
3641.968913,0.000000,-0.000000,11029.068536
3641.969227,-383.047749,666.185348,10362.883188
3641.969541,0.000000,740.205942,9918.759623
3641.969856,766.095498,518.144159,10288.862594
3641.970170,459.657299,814.226536,9696.697840
3641.970484,919.314598,814.226536,9030.512492
3641.970799,459.657299,518.144159,9030.512492
3641.971113,995.924147,-74.020594,9178.553681
3641.971427,1378.971896,-518.144159,8882.471304
3641.971742,689.485948,-444.123565,9030.512492
3641.972056,536.266849,-296.082377,8956.491898
3641.972370,153.219100,-222.061783,9104.533087
3641.972685,306.438199,222.061783,9326.594869
3641.972999,229.828649,296.082377,9178.553681
3641.973313,0.000000,-0.000000,9474.636058
3641.973628,-919.314598,222.061783,9474.636058
3641.973942,-995.924147,-592.164754,9844.739029
3641.974257,-536.266849,-296.082377,10584.944971
3641.974571,-459.657299,-444.123565,10732.986159
3641.974885,-153.219100,-222.061783,10732.986159
3641.975200,-842.705048,592.164754,10807.006753
3641.975514,-229.828649,888.247130,10288.862594
3641.975828,76.609550,592.164754,9844.739029
3641.976143,383.047749,740.205942,9622.677246
3641.976457,0.000000,370.102971,9474.636058
3641.976771,383.047749,222.061783,8808.450710
3641.977086,1072.533697,-0.000000,8808.450710
3641.977400,1149.143247,-148.041188,9400.615463
3641.977714,919.314598,-518.144159,9326.594869
3641.978029,919.314598,-666.185348,8956.491898
3641.978343,306.438199,-74.020594,9030.512492
3641.978657,153.219100,-74.020594,9326.594869
3641.978972,153.219100,222.061783,9400.615463
3641.979286,0.000000,518.144159,9030.512492
3641.979601,-306.438199,-222.061783,9252.574275
3641.979915,-153.219100,592.164754,9326.594869
3641.980229,0.000000,370.102971,9548.656652
3641.980544,0.000000,-0.000000,10288.862594
3641.980858,-306.438199,296.082377,10732.986159
3641.981172,-766.095498,518.144159,10658.965565
3641.981487,-919.314598,740.205942,10510.924376
3641.981801,-459.657299,740.205942,10362.883188
3641.982115,-153.219100,666.185348,10288.862594
3641.982430,0.000000,444.123565,10066.800811
3641.982744,76.609550,962.267725,9474.636058
3641.983058,0.000000,296.082377,9326.594869
3641.983373,766.095498,-0.000000,9030.512492
3641.983687,995.924147,-0.000000,9104.533087
3641.984002,919.314598,-296.082377,9104.533087
3641.984316,689.485948,-222.061783,8512.368333
3641.984630,229.828649,-0.000000,9178.553681
3641.984945,229.828649,-370.102971,9178.553681
3641.985259,76.609550,-0.000000,9178.553681
3641.985573,-766.095498,296.082377,9252.574275
3641.985888,-689.485948,592.164754,9474.636058
3641.986202,-612.876398,-74.020594,9844.739029
3641.986516,-229.828649,-74.020594,10214.842000
3641.986831,0.000000,-222.061783,10362.883188
3641.987145,0.000000,-0.000000,10584.944971
3641.987459,0.000000,370.102971,10584.944971
3641.987774,-229.828649,888.247130,10362.883188
3641.988088,0.000000,666.185348,9844.739029
3641.988402,229.828649,518.144159,9918.759623
3641.988717,153.219100,666.185348,9844.739029
3641.989031,536.266849,222.061783,8882.471304
3641.989346,612.876398,-0.000000,9252.574275
3641.989660,919.314598,-222.061783,9474.636058
3641.989974,842.705048,-592.164754,9400.615463
3641.990289,612.876398,-518.144159,8956.491898
3641.990603,383.047749,-370.102971,9178.553681
3641.990917,383.047749,222.061783,9178.553681
3641.991232,306.438199,148.041188,9252.574275
3641.991546,229.828649,444.123565,9178.553681
3641.991860,76.609550,222.061783,9474.636058
3641.992175,0.000000,222.061783,9548.656652
3641.992489,0.000000,-0.000000,9992.780217
3641.992803,-229.828649,-296.082377,10732.986159
3641.993118,-306.438199,-518.144159,10807.006753
3641.993432,-536.266849,-222.061783,10584.944971
3641.993746,-229.828649,148.041188,10658.965565
3641.994061,0.000000,518.144159,10436.903782
3641.994375,153.219100,740.205942,9992.780217
3641.994690,306.438199,518.144159,9474.636058
3641.995004,229.828649,592.164754,8882.471304
3641.995318,612.876398,-0.000000,8068.244768
3641.995633,689.485948,-0.000000,8660.409521
3641.995947,1072.533697,-370.102971,8882.471304
3641.996261,689.485948,-740.205942,9326.594869
3641.996576,306.438199,-518.144159,9104.533087
3641.996890,153.219100,-592.164754,9326.594869
3641.997204,0.000000,-74.020594,9474.636058
3641.997519,0.000000,148.041188,9252.574275
3641.997833,-459.657299,370.102971,9178.553681
3641.998147,-995.924147,296.082377,9326.594869
3641.998462,-842.705048,-0.000000,9622.677246
3641.998776,-459.657299,-222.061783,9992.780217
3641.999090,-306.438199,-222.061783,10140.821405
3641.999405,-153.219100,-0.000000,10510.924376
3641.999719,-383.047749,-0.000000,10732.986159
3642.000034,-306.438199,666.185348,10362.883188
3642.000348,0.000000,592.164754,10140.821405
3642.000662,459.657299,814.226536,9844.739029
3642.000977,536.266849,740.205942,9474.636058
3642.001291,383.047749,592.164754,8956.491898
3642.001605,459.657299,-0.000000,9104.533087
3642.001920,1072.533697,-0.000000,9326.594869
3642.002234,766.095498,-222.061783,9474.636058
3642.002548,689.485948,-222.061783,9252.574275
3642.002863,766.095498,-74.020594,9178.553681
3642.003177,459.657299,-0.000000,9474.636058
3642.003491,229.828649,222.061783,9548.656652
3642.003806,76.609550,296.082377,9622.677246
3642.004120,-383.047749,592.164754,9400.615463
3642.004435,0.000000,518.144159,9548.656652
3642.004749,-229.828649,370.102971,9770.718434
3642.005063,0.000000,222.061783,10584.944971
3642.005378,0.000000,-0.000000,10807.006753
3642.005692,-229.828649,370.102971,10955.047942
3642.006006,-459.657299,814.226536,10066.800811
3642.006321,0.000000,962.267725,10140.821405
3642.006635,459.657299,1036.288319,10140.821405
3642.006949,383.047749,888.247130,9252.574275
3642.007264,383.047749,888.247130,8956.491898
3642.007578,536.266849,444.123565,9030.512492
3642.007892,383.047749,148.041188,8956.491898
3642.008207,919.314598,-222.061783,9400.615463
3642.008521,842.705048,-296.082377,9252.574275
3642.008835,383.047749,-296.082377,8956.491898
3642.009150,536.266849,-444.123565,8808.450710
3642.009464,153.219100,222.061783,9252.574275
3642.009779,229.828649,296.082377,9326.594869
3642.010093,0.000000,518.144159,9178.553681
3642.010407,-306.438199,518.144159,8956.491898
3642.010722,0.000000,-74.020594,9474.636058
3642.011036,-76.609550,296.082377,10362.883188
3642.011350,0.000000,-0.000000,10510.924376
3642.011665,-306.438199,-0.000000,10955.047942
3642.011979,-306.438199,-0.000000,10955.047942
3642.012293,-536.266849,444.123565,10584.944971
3642.012608,0.000000,370.102971,10214.842000
3642.012922,153.219100,444.123565,10214.842000
3642.013236,76.609550,296.082377,9622.677246
3642.013551,383.047749,592.164754,9178.553681
3642.013865,919.314598,74.020594,8956.491898
3642.014179,919.314598,-0.000000,9030.512492
3642.014494,689.485948,-592.164754,9104.533087
3642.014808,459.657299,-370.102971,8956.491898
3642.015123,306.438199,-296.082377,9178.553681
3642.015437,459.657299,-74.020594,9326.594869
3642.015751,0.000000,-148.041188,9474.636058
3642.016066,-229.828649,-0.000000,8956.491898
3642.016380,-536.266849,-0.000000,9252.574275
3642.016694,-536.266849,-0.000000,9400.615463
3642.017009,-689.485948,-74.020594,10140.821405
3642.017323,-306.438199,-666.185348,10214.842000
3642.017637,-383.047749,-666.185348,10362.883188
3642.017952,-612.876398,-148.041188,10214.842000
3642.018266,-536.266849,296.082377,10510.924376
3642.018580,-383.047749,592.164754,10140.821405
3642.018895,229.828649,444.123565,9918.759623
3642.019209,229.828649,740.205942,9622.677246
3642.019524,612.876398,740.205942,8808.450710
3642.019838,1072.533697,370.102971,8882.471304
3642.020152,919.314598,-0.000000,8882.471304
3642.020467,919.314598,-1036.288319,9252.574275
3642.020781,689.485948,-740.205942,9178.553681
3642.021095,383.047749,-740.205942,8956.491898
3642.021410,153.219100,-518.144159,9030.512492
3642.021724,306.438199,-444.123565,9400.615463
3642.022038,229.828649,-0.000000,9326.594869
3642.022353,0.000000,-0.000000,9326.594869
3642.022667,-306.438199,148.041188,9252.574275
3642.022981,-459.657299,296.082377,9474.636058
3642.023296,-689.485948,296.082377,10288.862594
3642.023610,-76.609550,-222.061783,10584.944971
3642.023924,-383.047749,-74.020594,11103.089130
3642.024239,0.000000,-0.000000,10955.047942
3642.024553,-383.047749,296.082377,10732.986159
3642.024868,0.000000,740.205942,10288.862594
3642.025182,536.266849,1036.288319,10140.821405
3642.025496,229.828649,962.267725,9918.759623
3642.025811,229.828649,888.247130,9178.553681
3642.026125,536.266849,518.144159,9548.656652
3642.026439,995.924147,-148.041188,9400.615463
3642.026754,459.657299,-444.123565,9252.574275
3642.027068,612.876398,-592.164754,9104.533087
3642.027382,536.266849,-74.020594,9326.594869
3642.027697,306.438199,-222.061783,9030.512492
3642.028011,76.609550,-148.041188,8956.491898
3642.028325,153.219100,666.185348,9030.512492
3642.028640,153.219100,666.185348,9030.512492
3642.028954,0.000000,814.226536,8882.471304
3642.029268,153.219100,592.164754,9400.615463
3642.029583,76.609550,370.102971,10066.800811
3642.029897,76.609550,-0.000000,10214.842000
3642.030212,153.219100,222.061783,10510.924376
3642.030526,-306.438199,444.123565,10807.006753
3642.030840,0.000000,740.205942,10881.027347
3642.031155,229.828649,814.226536,10214.842000
3642.031469,459.657299,888.247130,10066.800811
3642.031783,0.000000,888.247130,9548.656652
3642.032098,766.095498,370.102971,9030.512492
3642.032412,766.095498,518.144159,9252.574275
3642.032726,919.314598,-0.000000,8882.471304
3642.033041,1225.752797,-148.041188,9178.553681
3642.033355,842.705048,-148.041188,8660.409521
3642.033669,842.705048,370.102971,8882.471304
3642.033984,536.266849,444.123565,9326.594869
3642.034298,459.657299,592.164754,9178.553681
3642.034612,0.000000,814.226536,9474.636058
3642.034927,-383.047749,666.185348,9770.718434
3642.035241,-842.705048,592.164754,9844.739029
3642.035556,-229.828649,148.041188,9918.759623
3642.035870,-612.876398,-0.000000,10881.027347
3642.036184,-383.047749,-74.020594,11399.171507
3642.036499,-689.485948,222.061783,10658.965565
3642.036813,-1149.143247,444.123565,10658.965565
3642.037127,-229.828649,592.164754,10658.965565
3642.037442,0.000000,740.205942,10066.800811
3642.037756,0.000000,370.102971,9474.636058
3642.038070,-306.438199,444.123565,9400.615463
3642.038385,306.438199,-0.000000,9252.574275
3642.038699,766.095498,-222.061783,8882.471304
3642.039013,766.095498,-370.102971,8956.491898
3642.039328,536.266849,-666.185348,9474.636058
3642.039642,76.609550,-740.205942,8882.471304
3642.039957,153.219100,-296.082377,8956.491898
3642.040271,0.000000,-296.082377,9326.594869
3642.040585,0.000000,-222.061783,8808.450710
3642.040900,-536.266849,-0.000000,8956.491898
3642.041214,-536.266849,-222.061783,9104.533087
3642.041528,-536.266849,-370.102971,9474.636058
3642.041843,-383.047749,-444.123565,10140.821405
3642.042157,-459.657299,-518.144159,10214.842000
3642.042471,-306.438199,-518.144159,10658.965565
3642.042786,0.000000,-222.061783,10658.965565
3642.043100,-306.438199,370.102971,10436.903782
3642.043414,306.438199,592.164754,9992.780217
3642.043729,536.266849,666.185348,9622.677246
3642.044043,383.047749,814.226536,9030.512492
3642.044357,689.485948,444.123565,8586.388927
3642.044672,842.705048,-0.000000,8734.430116
3642.044986,1302.362347,-296.082377,8734.430116
3642.045301,1149.143247,-592.164754,8808.450710
3642.045615,995.924147,-666.185348,8808.450710
3642.045929,306.438199,-444.123565,9178.553681
3642.046244,76.609550,-444.123565,9252.574275
3642.046558,0.000000,-148.041188,9474.636058
3642.046872,0.000000,-518.144159,9400.615463
3642.047187,-229.828649,-222.061783,9474.636058
3642.047501,-306.438199,370.102971,9252.574275
3642.047815,-383.047749,-0.000000,9622.677246
3642.048130,76.609550,-74.020594,10066.800811
3642.048444,76.609550,-222.061783,10732.986159
3642.048758,-842.705048,-0.000000,10510.924376
3642.049073,-689.485948,592.164754,10658.965565
3642.049387,0.000000,814.226536,10510.924376
3642.049701,153.219100,814.226536,10362.883188
3642.050016,229.828649,592.164754,9696.697840
3642.050330,76.609550,296.082377,9326.594869
3642.050644,0.000000,370.102971,9252.574275
3642.050959,306.438199,370.102971,9326.594869
3642.051273,766.095498,-148.041188,9400.615463
3642.051587,995.924147,-74.020594,9104.533087
3642.051901,1072.533697,-296.082377,9030.512492
3642.052216,0.000000,-0.000000,9030.512492
3642.052530,0.000000,296.082377,9104.533087
3642.052844,0.000000,444.123565,9474.636058
3642.053159,-459.657299,370.102971,9178.553681
3642.053473,-612.876398,296.082377,9548.656652
3642.053787,-612.876398,444.123565,9770.718434
3642.054101,-612.876398,296.082377,10658.965565
3642.054416,-153.219100,-0.000000,10807.006753
3642.054730,-766.095498,370.102971,10881.027347
3642.055044,-229.828649,296.082377,10955.047942
3642.055359,-536.266849,888.247130,10658.965565
3642.055673,229.828649,1036.288319,10288.862594
3642.055987,536.266849,1332.370696,10288.862594
3642.056301,536.266849,1184.329507,9252.574275
3642.056616,842.705048,814.226536,9104.533087
3642.056930,919.314598,518.144159,8882.471304
3642.057244,1225.752797,-0.000000,8956.491898
3642.057559,1225.752797,-296.082377,9178.553681
3642.057873,689.485948,-222.061783,8882.471304
3642.058187,0.000000,-222.061783,9622.677246
3642.058501,459.657299,-0.000000,9474.636058
3642.058816,306.438199,370.102971,9474.636058
3642.059130,76.609550,444.123565,9474.636058
3642.059444,-153.219100,518.144159,9400.615463
3642.059759,-306.438199,518.144159,9178.553681
3642.060073,-153.219100,222.061783,9548.656652
3642.060387,153.219100,-74.020594,10066.800811
3642.060701,76.609550,-148.041188,10288.862594
3642.061016,229.828649,-74.020594,10510.924376
3642.061330,229.828649,370.102971,10140.821405
3642.061644,76.609550,888.247130,10362.883188
3642.061959,383.047749,666.185348,10066.800811
3642.062273,306.438199,370.102971,9770.718434
3642.062587,306.438199,444.123565,9178.553681
3642.062901,306.438199,370.102971,9104.533087
3642.063216,842.705048,-0.000000,9030.512492
3642.063530,1072.533697,-518.144159,9030.512492
3642.063844,1072.533697,-814.226536,8808.450710
3642.064158,919.314598,-666.185348,8734.430116
3642.064473,153.219100,-814.226536,9104.533087
3642.064787,689.485948,-222.061783,8956.491898
3642.065101,459.657299,-0.000000,9474.636058
3642.065416,153.219100,-0.000000,9474.636058
3642.065730,-306.438199,-74.020594,9400.615463
3642.066044,-383.047749,-222.061783,9400.615463
3642.066358,-536.266849,-0.000000,9992.780217
3642.066673,-306.438199,-222.061783,10510.924376
3642.066987,-306.438199,-148.041188,10955.047942
3642.067301,-383.047749,-74.020594,10584.944971
3642.067616,-689.485948,592.164754,10807.006753
3642.067930,0.000000,518.144159,10214.842000
3642.068244,229.828649,666.185348,9696.697840
3642.068558,153.219100,666.185348,9474.636058
3642.068873,0.000000,444.123565,9178.553681
3642.069187,306.438199,-222.061783,9326.594869
3642.069501,612.876398,-74.020594,9400.615463
3642.069816,383.047749,-592.164754,9326.594869
3642.070130,383.047749,-518.144159,9104.533087
3642.070444,-306.438199,-148.041188,9178.553681
3642.070758,536.266849,-222.061783,9030.512492
3642.071073,0.000000,-0.000000,9178.553681
3642.071387,0.000000,592.164754,9030.512492
3642.071701,0.000000,444.123565,8956.491898
3642.072016,-383.047749,296.082377,9104.533087
3642.072330,-383.047749,-222.061783,9622.677246
3642.072644,0.000000,-370.102971,9918.759623
3642.072958,-229.828649,-444.123565,10288.862594
3642.073273,-306.438199,-0.000000,10584.944971
3642.073587,-919.314598,370.102971,10732.986159
3642.073901,-919.314598,962.267725,10362.883188
3642.074216,0.000000,444.123565,10288.862594
3642.074530,0.000000,370.102971,9622.677246
3642.074844,0.000000,592.164754,9252.574275
3642.075158,229.828649,444.123565,8882.471304
3642.075473,1072.533697,-0.000000,9104.533087
3642.075787,919.314598,-0.000000,8808.450710
3642.076101,1225.752797,-0.000000,9178.553681
3642.076416,612.876398,-148.041188,8660.409521
3642.076730,76.609550,222.061783,8808.450710
3642.077044,306.438199,-0.000000,9548.656652
3642.077358,306.438199,592.164754,9474.636058
3642.077673,76.609550,222.061783,9178.553681
3642.077987,-229.828649,370.102971,9548.656652
3642.078301,-612.876398,518.144159,9622.677246
3642.078615,-306.438199,222.061783,10288.862594
3642.078930,-229.828649,-0.000000,10510.924376
3642.079244,-229.828649,-148.041188,11103.089130
3642.079558,-383.047749,222.061783,10584.944971
3642.079873,153.219100,592.164754,10288.862594
3642.080187,459.657299,666.185348,10140.821405
3642.080501,383.047749,888.247130,10140.821405
3642.080815,766.095498,1036.288319,9918.759623
3642.081130,306.438199,1184.329507,9104.533087
3642.081444,766.095498,592.164754,9252.574275
3642.081758,1915.238745,-0.000000,9252.574275
3642.082073,1378.971896,-74.020594,9178.553681
3642.082387,1072.533697,-0.000000,9178.553681
3642.082701,153.219100,-222.061783,9178.553681
3642.083015,383.047749,-0.000000,9326.594869
3642.083330,153.219100,-0.000000,9400.615463
3642.083644,0.000000,222.061783,9252.574275
3642.083958,0.000000,370.102971,9104.533087
3642.084273,-229.828649,592.164754,9770.718434
3642.084587,-306.438199,-0.000000,9696.697840
3642.084901,0.000000,-74.020594,10214.842000
3642.085215,-383.047749,-148.041188,10362.883188
3642.085530,-459.657299,-148.041188,10732.986159
3642.085844,-689.485948,-0.000000,10584.944971
3642.086158,-229.828649,444.123565,10362.883188
3642.086473,0.000000,296.082377,10066.800811
3642.086787,459.657299,962.267725,10140.821405
3642.087101,306.438199,592.164754,9030.512492
3642.087415,229.828649,370.102971,8734.430116
3642.087730,689.485948,-222.061783,8956.491898
3642.088044,1149.143247,-666.185348,9474.636058
3642.088358,842.705048,-740.205942,9474.636058
3642.088673,383.047749,-444.123565,8882.471304
3642.088987,0.000000,-296.082377,8956.491898
3642.089301,153.219100,-74.020594,9400.615463
3642.089615,0.000000,-0.000000,9474.636058
3642.089930,-153.219100,-74.020594,9030.512492
3642.090244,-766.095498,-0.000000,9326.594869
3642.090558,-536.266849,-0.000000,9696.697840
3642.090873,-536.266849,-148.041188,9918.759623
3642.091187,-229.828649,-740.205942,10584.944971
3642.091501,-536.266849,-444.123565,10807.006753
3642.091815,-612.876398,-444.123565,10658.965565
3642.092130,-459.657299,370.102971,10214.842000
3642.092444,0.000000,666.185348,10140.821405
3642.092758,459.657299,296.082377,9622.677246
3642.093072,766.095498,592.164754,9104.533087
3642.093387,612.876398,592.164754,8734.430116
3642.093701,612.876398,222.061783,8734.430116
3642.094015,995.924147,-0.000000,8660.409521
3642.094330,1149.143247,-814.226536,8882.471304
3642.094644,1225.752797,-592.164754,8956.491898
3642.094958,842.705048,-444.123565,8808.450710
3642.095272,536.266849,-74.020594,8734.430116
3642.095587,612.876398,-0.000000,9030.512492
3642.095901,153.219100,-296.082377,9030.512492
3642.096215,0.000000,222.061783,9104.533087
3642.096530,-536.266849,370.102971,9326.594869
3642.096844,-536.266849,-296.082377,9696.697840
3642.097158,0.000000,-222.061783,10288.862594
3642.097472,-153.219100,-74.020594,10658.965565
3642.097787,-306.438199,-0.000000,10658.965565
3642.098101,-306.438199,592.164754,11029.068536
3642.098415,-459.657299,814.226536,10362.883188
3642.098730,-229.828649,666.185348,10214.842000
3642.099044,383.047749,962.267725,10214.842000
3642.099358,0.000000,592.164754,9770.718434
3642.099672,153.219100,592.164754,9252.574275
3642.099987,306.438199,444.123565,9326.594869
3642.100301,842.705048,-0.000000,9548.656652
3642.100615,1149.143247,-444.123565,9252.574275
3642.100930,536.266849,-148.041188,9104.533087
3642.101244,76.609550,-0.000000,9178.553681
3642.101558,383.047749,148.041188,9104.533087
3642.101872,306.438199,518.144159,9252.574275
3642.102187,306.438199,592.164754,9252.574275
3642.102501,-383.047749,444.123565,9400.615463
3642.102815,-536.266849,740.205942,9474.636058
3642.103130,-459.657299,370.102971,10214.842000
3642.103444,-383.047749,-0.000000,10658.965565
3642.103758,-459.657299,-0.000000,10881.027347
3642.104072,-612.876398,222.061783,10881.027347
3642.104387,-766.095498,518.144159,10807.006753
3642.104701,-383.047749,1184.329507,10510.924376
3642.105015,153.219100,1110.308913,10362.883188
3642.105330,229.828649,444.123565,9400.615463
3642.105644,612.876398,740.205942,9178.553681
3642.105958,612.876398,518.144159,8586.388927
3642.106272,842.705048,370.102971,8364.327145
3642.106587,1302.362347,-148.041188,9326.594869
3642.106901,1149.143247,-518.144159,9178.553681
3642.107215,612.876398,-370.102971,8734.430116
3642.107529,153.219100,-444.123565,9178.553681
3642.107844,0.000000,-222.061783,9400.615463
3642.108158,76.609550,-0.000000,9400.615463
3642.108472,0.000000,-0.000000,9326.594869
3642.108787,-306.438199,74.020594,9548.656652
3642.109101,-306.438199,222.061783,9474.636058
3642.109415,0.000000,296.082377,9622.677246
3642.109729,306.438199,-0.000000,10288.862594
3642.110044,-153.219100,-0.000000,10658.965565
3642.110358,-306.438199,-0.000000,10584.944971
3642.110672,-536.266849,518.144159,10066.800811
3642.110987,0.000000,666.185348,10362.883188
3642.111301,229.828649,296.082377,10066.800811
3642.111615,76.609550,444.123565,9770.718434
3642.111929,0.000000,444.123565,9400.615463
3642.112244,153.219100,74.020594,9252.574275
3642.112558,536.266849,-0.000000,9178.553681
3642.112872,689.485948,-1258.350101,8808.450710
3642.113187,459.657299,-740.205942,8808.450710
3642.113501,229.828649,-444.123565,8808.450710
3642.113815,383.047749,-222.061783,9030.512492
3642.114129,383.047749,-148.041188,9178.553681
3642.114444,-995.924147,-148.041188,8882.471304
3642.114758,-689.485948,-0.000000,8882.471304
3642.115072,-689.485948,370.102971,9474.636058
3642.115387,-689.485948,-0.000000,10066.800811
3642.115701,-229.828649,-518.144159,10584.944971
3642.116015,-536.266849,-1184.329507,10955.047942
3642.116329,-459.657299,-518.144159,10881.027347
3642.116644,-536.266849,-0.000000,10584.944971
3642.116958,0.000000,592.164754,10362.883188
3642.117272,76.609550,444.123565,9844.739029
3642.117587,689.485948,370.102971,9622.677246
3642.117901,383.047749,740.205942,9030.512492
3642.118215,383.047749,370.102971,8512.368333
3642.118529,842.705048,-148.041188,8956.491898
3642.118844,919.314598,-518.144159,9104.533087
3642.119158,1225.752797,-740.205942,9474.636058
3642.119472,383.047749,-740.205942,9030.512492
3642.119787,76.609550,-296.082377,9178.553681
3642.120101,306.438199,-0.000000,9844.739029
3642.120415,383.047749,-0.000000,9400.615463
3642.120729,229.828649,666.185348,9400.615463
3642.121044,0.000000,740.205942,9178.553681
3642.121358,-229.828649,370.102971,9252.574275
3642.121672,0.000000,148.041188,9770.718434
3642.121986,0.000000,-74.020594,10140.821405
3642.122301,0.000000,-0.000000,10955.047942
3642.122615,-383.047749,296.082377,10436.903782
3642.122929,-459.657299,592.164754,10436.903782
3642.123244,-306.438199,888.247130,10584.944971
3642.123558,0.000000,518.144159,10362.883188
3642.123872,0.000000,518.144159,10140.821405
3642.124186,0.000000,444.123565,8956.491898
3642.124501,229.828649,74.020594,8956.491898
3642.124815,689.485948,-74.020594,8438.347739
3642.125129,1532.190996,-74.020594,8882.471304
3642.125444,995.924147,-148.041188,9474.636058
3642.125758,383.047749,-74.020594,8734.430116
3642.126072,766.095498,-0.000000,8882.471304
3642.126386,306.438199,296.082377,9030.512492
3642.126701,0.000000,518.144159,9252.574275
3642.127015,0.000000,518.144159,9326.594869
3642.127329,-383.047749,518.144159,9548.656652
3642.127644,-229.828649,-0.000000,10436.903782
3642.127958,-383.047749,-0.000000,10362.883188
3642.128272,-459.657299,-370.102971,10362.883188
3642.128586,-306.438199,-0.000000,10955.047942
3642.128901,-459.657299,518.144159,10510.924376
3642.129215,0.000000,962.267725,9992.780217
3642.129529,459.657299,1110.308913,9696.697840
3642.129844,1378.971896,814.226536,9474.636058
3642.130158,689.485948,1184.329507,8734.430116
3642.130472,536.266849,888.247130,8586.388927
3642.130786,766.095498,222.061783,9104.533087
3642.131101,919.314598,-148.041188,8956.491898
3642.131415,612.876398,-296.082377,9474.636058
3642.131729,229.828649,-296.082377,9400.615463
3642.132044,0.000000,-0.000000,9474.636058
3642.132358,0.000000,296.082377,9696.697840
3642.132672,0.000000,-148.041188,9474.636058
3642.132986,-306.438199,296.082377,9474.636058
3642.133301,-383.047749,592.164754,9400.615463
3642.133615,-612.876398,370.102971,9400.615463
3642.133929,-229.828649,296.082377,10066.800811
3642.134244,-229.828649,-148.041188,10510.924376
3642.134558,-306.438199,-0.000000,10807.006753
3642.134872,-612.876398,-0.000000,11029.068536
3642.135186,-229.828649,592.164754,10807.006753
3642.135501,-153.219100,740.205942,9918.759623
3642.135815,153.219100,740.205942,9696.697840
3642.136129,383.047749,296.082377,9622.677246
3642.136444,229.828649,444.123565,9030.512492
3642.136758,383.047749,370.102971,8734.430116
3642.137072,766.095498,-296.082377,8882.471304
3642.137386,1225.752797,-888.247130,9178.553681
3642.137701,842.705048,-740.205942,9104.533087
3642.138015,612.876398,-444.123565,8882.471304
3642.138329,229.828649,-444.123565,9326.594869
3642.138643,229.828649,-0.000000,9622.677246
3642.138958,536.266849,222.061783,9326.594869
3642.139272,0.000000,222.061783,9178.553681
3642.139586,-306.438199,-0.000000,9252.574275
3642.139901,0.000000,-148.041188,9918.759623
3642.140215,-229.828649,-296.082377,10066.800811
3642.140529,0.000000,-444.123565,10584.944971
3642.140843,0.000000,-296.082377,10510.924376
3642.141158,0.000000,-0.000000,10510.924376
3642.141472,-229.828649,296.082377,10288.862594
3642.141786,689.485948,-0.000000,10436.903782
3642.142101,536.266849,518.144159,9844.739029
3642.142415,306.438199,518.144159,9178.553681
3642.142729,0.000000,370.102971,8882.471304
3642.143043,536.266849,-74.020594,9030.512492
3642.143358,995.924147,-518.144159,8808.450710
3642.143672,842.705048,-592.164754,9030.512492
3642.143986,0.000000,-296.082377,8660.409521
3642.144301,153.219100,-592.164754,9252.574275
3642.144615,0.000000,-0.000000,8956.491898
3642.144929,-612.876398,-74.020594,9326.594869
3642.145243,-229.828649,-74.020594,8956.491898
3642.145558,-766.095498,148.041188,9104.533087
3642.145872,-689.485948,-0.000000,9400.615463
3642.146186,-459.657299,-592.164754,9696.697840
3642.146501,-306.438199,-222.061783,10584.944971
3642.146815,-689.485948,-444.123565,10214.842000
3642.147129,-689.485948,-0.000000,10288.862594
3642.147443,-612.876398,592.164754,10436.903782
3642.147758,-459.657299,518.144159,9918.759623
3642.148072,229.828649,740.205942,9548.656652
3642.148386,459.657299,666.185348,9252.574275
3642.148701,459.657299,666.185348,8956.491898
3642.149015,459.657299,-0.000000,8586.388927
3642.149329,689.485948,-0.000000,8586.388927
3642.149643,842.705048,-444.123565,9474.636058
3642.149958,919.314598,-518.144159,9178.553681
3642.150272,689.485948,-370.102971,9252.574275
3642.150586,0.000000,-222.061783,9326.594869
3642.150901,153.219100,148.041188,9548.656652
3642.151215,0.000000,518.144159,9622.677246
3642.151529,-306.438199,666.185348,9548.656652
3642.151844,-536.266849,666.185348,9548.656652
3642.152158,-383.047749,666.185348,9992.780217
3642.152473,153.219100,296.082377,10288.862594
3642.152787,76.609550,222.061783,10807.006753
3642.153101,0.000000,518.144159,11103.089130
3642.153416,-383.047749,888.247130,11029.068536
3642.153730,0.000000,962.267725,10510.924376
3642.154045,459.657299,962.267725,10288.862594
3642.154359,383.047749,962.267725,9770.718434
3642.154673,383.047749,962.267725,9474.636058
3642.154988,153.219100,740.205942,9178.553681
3642.155302,536.266849,592.164754,9178.553681
3642.155617,1225.752797,-296.082377,9474.636058
3642.155931,919.314598,-444.123565,9326.594869
3642.156245,689.485948,-370.102971,9474.636058
3642.156560,383.047749,-74.020594,9326.594869
3642.156874,153.219100,-0.000000,9474.636058
3642.157188,383.047749,-0.000000,9474.636058
3642.157503,153.219100,740.205942,9400.615463
3642.157817,0.000000,666.185348,9178.553681
3642.158132,-383.047749,666.185348,9104.533087
3642.158446,-689.485948,444.123565,9696.697840
3642.158760,76.609550,-0.000000,10288.862594
3642.159075,0.000000,-222.061783,10436.903782
3642.159389,0.000000,-74.020594,10510.924376
3642.159704,-383.047749,296.082377,10362.883188
3642.160018,-459.657299,222.061783,10436.903782
3642.160332,0.000000,222.061783,9770.718434
3642.160647,153.219100,296.082377,9400.615463
3642.160961,0.000000,592.164754,9104.533087
3642.161276,0.000000,296.082377,8882.471304
3642.161590,612.876398,-444.123565,8808.450710
3642.161904,995.924147,-592.164754,8882.471304
3642.162219,536.266849,-962.267725,9030.512492
3642.162533,229.828649,-296.082377,9030.512492
3642.162847,76.609550,-222.061783,9030.512492
3642.163162,383.047749,-74.020594,9178.553681
3642.163476,0.000000,222.061783,9104.533087
3642.163791,-306.438199,518.144159,9252.574275
3642.164105,-612.876398,222.061783,9474.636058
3642.164419,-919.314598,-0.000000,9696.697840
3642.164734,-153.219100,-74.020594,10288.862594
3642.165048,-766.095498,-222.061783,10955.047942
3642.165363,-919.314598,-592.164754,11547.212695
3642.165677,-536.266849,-0.000000,10807.006753
3642.165991,-689.485948,222.061783,10288.862594
3642.166306,76.609550,370.102971,10881.027347
3642.166620,459.657299,666.185348,9918.759623
3642.166934,459.657299,518.144159,9252.574275
3642.167249,383.047749,592.164754,8734.430116
3642.167563,1378.971896,-0.000000,8660.409521
3642.167878,1838.629195,-592.164754,8586.388927
3642.168192,689.485948,-740.205942,8956.491898
3642.168506,383.047749,-666.185348,9622.677246
3642.168821,0.000000,-518.144159,9252.574275
3642.169135,0.000000,-148.041188,9326.594869
3642.169450,229.828649,-74.020594,9548.656652
3642.169764,0.000000,-0.000000,9474.636058
3642.170078,0.000000,222.061783,9326.594869
3642.170393,-459.657299,222.061783,9400.615463
3642.170707,76.609550,-0.000000,9770.718434
3642.171022,459.657299,-148.041188,10066.800811
3642.171336,153.219100,-370.102971,10288.862594
3642.171650,76.609550,-296.082377,10288.862594
3642.171965,0.000000,444.123565,10436.903782
3642.172279,0.000000,666.185348,10140.821405
3642.172593,459.657299,592.164754,9770.718434
3642.172908,536.266849,592.164754,9696.697840
3642.173222,459.657299,740.205942,9252.574275
3642.173537,229.828649,592.164754,8882.471304
3642.173851,766.095498,296.082377,9178.553681
3642.174165,919.314598,-222.061783,9030.512492
3642.174480,1072.533697,-296.082377,9104.533087
3642.174794,766.095498,-0.000000,8660.409521
3642.175109,459.657299,-0.000000,9178.553681
3642.175423,76.609550,370.102971,9326.594869
3642.175737,76.609550,444.123565,8956.491898
3642.176052,0.000000,666.185348,9548.656652
3642.176366,-536.266849,814.226536,9696.697840
3642.176681,-689.485948,740.205942,9474.636058
3642.176995,-536.266849,222.061783,10140.821405
3642.177309,-306.438199,-222.061783,10732.986159
3642.177624,-306.438199,-222.061783,10881.027347
3642.177938,-689.485948,-0.000000,10362.883188
3642.178252,-612.876398,592.164754,10288.862594
3642.178567,-229.828649,888.247130,9844.739029
3642.178881,459.657299,962.267725,9474.636058
3642.179196,0.000000,666.185348,9326.594869
3642.179510,153.219100,592.164754,9252.574275
3642.179824,383.047749,370.102971,9178.553681
3642.180139,536.266849,-0.000000,9104.533087
3642.180453,383.047749,-370.102971,9548.656652
3642.180768,536.266849,-0.000000,9696.697840
3642.181082,306.438199,-0.000000,9326.594869
3642.181396,229.828649,296.082377,9400.615463
3642.181711,383.047749,666.185348,9548.656652
3642.182025,0.000000,888.247130,9548.656652
3642.182339,-306.438199,444.123565,9252.574275
3642.182654,-536.266849,444.123565,9400.615463
3642.182968,-306.438199,-0.000000,9622.677246
3642.183283,0.000000,-296.082377,10140.821405
3642.183597,229.828649,-592.164754,10881.027347
3642.183911,0.000000,-296.082377,10807.006753
3642.184226,-229.828649,-0.000000,10584.944971
3642.184540,-229.828649,370.102971,10066.800811
3642.184855,306.438199,518.144159,9844.739029
3642.185169,995.924147,740.205942,9696.697840
3642.185483,842.705048,814.226536,8956.491898
3642.185798,612.876398,666.185348,8586.388927
3642.186112,919.314598,-74.020594,8956.491898
3642.186427,995.924147,-74.020594,9252.574275
3642.186741,919.314598,-148.041188,9252.574275
3642.187055,919.314598,-518.144159,8882.471304
3642.187370,689.485948,-296.082377,9178.553681
3642.187684,229.828649,-296.082377,9252.574275
3642.187998,0.000000,-0.000000,9252.574275
3642.188313,-383.047749,-148.041188,9548.656652
3642.188627,-766.095498,-74.020594,9400.615463
3642.188942,-689.485948,-148.041188,9622.677246
3642.189256,-459.657299,-444.123565,9918.759623
3642.189570,0.000000,-444.123565,10881.027347
3642.189885,-459.657299,-370.102971,10288.862594
3642.190199,-153.219100,-0.000000,10066.800811
3642.190514,-459.657299,444.123565,10214.842000
3642.190828,-153.219100,592.164754,9770.718434
3642.191142,459.657299,444.123565,9770.718434
3642.191457,459.657299,370.102971,9326.594869
3642.191771,229.828649,296.082377,8956.491898
3642.192086,306.438199,-0.000000,8586.388927
3642.192400,536.266849,-370.102971,9030.512492
3642.192714,766.095498,-740.205942,9474.636058
3642.193029,766.095498,-962.267725,9326.594869
3642.193343,153.219100,-444.123565,9030.512492
3642.193657,0.000000,-444.123565,9326.594869
3642.193972,76.609550,370.102971,9400.615463
3642.194286,0.000000,296.082377,9400.615463
3642.194601,0.000000,518.144159,9252.574275
3642.194915,-229.828649,666.185348,9622.677246
3642.195229,-383.047749,370.102971,9326.594869
3642.195544,-153.219100,-0.000000,9548.656652
3642.195858,0.000000,-148.041188,10732.986159
3642.196173,0.000000,-0.000000,10881.027347
3642.196487,-383.047749,370.102971,10807.006753
3642.196801,-689.485948,666.185348,10510.924376
3642.197116,0.000000,888.247130,10288.862594
3642.197430,76.609550,592.164754,9696.697840
3642.197744,153.219100,1036.288319,9400.615463
3642.198059,153.219100,888.247130,9326.594869
3642.198373,766.095498,222.061783,9252.574275
3642.198688,1225.752797,-148.041188,8882.471304
3642.199002,1072.533697,-148.041188,8956.491898
3642.199316,919.314598,-148.041188,9030.512492
3642.199631,229.828649,-0.000000,9400.615463
3642.199945,153.219100,222.061783,9474.636058
3642.200260,229.828649,-0.000000,9326.594869
3642.200574,-229.828649,222.061783,9474.636058
3642.200888,-153.219100,666.185348,9474.636058
3642.201203,-536.266849,148.041188,9548.656652
3642.201517,-306.438199,-148.041188,10140.821405
3642.201832,76.609550,-592.164754,10362.883188
3642.202146,0.000000,-222.061783,10362.883188
3642.202460,383.047749,-0.000000,10436.903782
3642.202775,-229.828649,740.205942,10288.862594
3642.203089,229.828649,592.164754,9770.718434
3642.203403,842.705048,444.123565,9844.739029
3642.203718,766.095498,518.144159,9696.697840
3642.204032,459.657299,518.144159,8956.491898
3642.204347,612.876398,296.082377,8808.450710
3642.204661,842.705048,-0.000000,9178.553681
3642.204975,1225.752797,-814.226536,8956.491898
3642.205290,689.485948,-666.185348,8956.491898
3642.205604,536.266849,-296.082377,9104.533087
3642.205919,229.828649,-0.000000,9104.533087
3642.206233,459.657299,296.082377,9104.533087
3642.206547,0.000000,666.185348,9178.553681
3642.206862,-383.047749,370.102971,9252.574275
3642.207176,-459.657299,296.082377,9400.615463
3642.207491,-536.266849,222.061783,9548.656652
3642.207805,-536.266849,-0.000000,10288.862594
3642.208119,-459.657299,-148.041188,10807.006753
3642.208434,-306.438199,-0.000000,10881.027347
3642.208748,-306.438199,444.123565,10362.883188
3642.209062,-536.266849,814.226536,9992.780217
3642.209377,153.219100,814.226536,9844.739029
3642.209691,306.438199,962.267725,9474.636058
3642.210006,306.438199,888.247130,9252.574275
3642.210320,0.000000,592.164754,8882.471304
3642.210634,689.485948,-222.061783,8734.430116
3642.210949,459.657299,-296.082377,9030.512492
3642.211263,383.047749,-666.185348,9326.594869
3642.211578,229.828649,-592.164754,9474.636058
3642.211892,0.000000,-370.102971,9474.636058
3642.212206,383.047749,-0.000000,9770.718434
3642.212521,0.000000,-0.000000,9548.656652
3642.212835,-229.828649,148.041188,9474.636058
3642.213149,0.000000,592.164754,9474.636058
3642.213464,-306.438199,370.102971,9474.636058
3642.213778,153.219100,-0.000000,9844.739029
3642.214093,0.000000,-148.041188,10140.821405
3642.214407,0.000000,-444.123565,10658.965565
3642.214721,-306.438199,-148.041188,10658.965565
3642.215036,-383.047749,148.041188,10362.883188
3642.215350,-306.438199,-0.000000,10658.965565
3642.215665,76.609550,296.082377,10214.842000
3642.215979,76.609550,222.061783,9844.739029
3642.216293,229.828649,444.123565,8956.491898
3642.216608,612.876398,444.123565,9030.512492
3642.216922,842.705048,-0.000000,9252.574275
3642.217237,1455.581446,-296.082377,9252.574275
3642.217551,1225.752797,-222.061783,9326.594869
3642.217865,459.657299,-74.020594,9104.533087
3642.218180,76.609550,-0.000000,9400.615463
3642.218494,383.047749,444.123565,9474.636058
3642.218808,536.266849,666.185348,9178.553681
3642.219123,76.609550,-0.000000,9548.656652
3642.219437,-229.828649,222.061783,9474.636058
3642.219752,-536.266849,222.061783,9696.697840
3642.220066,-153.219100,-0.000000,10140.821405
3642.220380,-229.828649,-296.082377,10658.965565
3642.220695,-536.266849,-444.123565,10436.903782
3642.221009,-536.266849,-0.000000,10807.006753
3642.221324,-536.266849,518.144159,10362.883188
3642.221638,229.828649,518.144159,9992.780217
3642.221952,536.266849,666.185348,9696.697840
3642.222267,536.266849,740.205942,9474.636058
3642.222581,536.266849,888.247130,8882.471304
3642.222896,536.266849,296.082377,8808.450710
3642.223210,1149.143247,-0.000000,8882.471304
3642.223524,995.924147,-296.082377,9030.512492
3642.223839,919.314598,-222.061783,9104.533087
3642.224153,459.657299,148.041188,9178.553681
3642.224467,76.609550,-0.000000,9400.615463
3642.224782,76.609550,370.102971,9400.615463
3642.225096,-76.609550,222.061783,9178.553681
3642.225411,-459.657299,296.082377,9252.574275
3642.225725,-689.485948,-0.000000,9474.636058
3642.226039,-612.876398,-74.020594,9992.780217
3642.226354,-153.219100,-222.061783,10288.862594
3642.226668,-306.438199,-0.000000,10881.027347
3642.226983,-383.047749,222.061783,10732.986159
3642.227297,-229.828649,740.205942,10732.986159
3642.227611,-536.266849,1036.288319,9918.759623
3642.227926,0.000000,888.247130,10362.883188
3642.228240,383.047749,1110.308913,10066.800811
3642.228554,229.828649,888.247130,9400.615463
3642.228869,306.438199,592.164754,9104.533087
3642.229183,459.657299,-0.000000,9178.553681
3642.229498,612.876398,-444.123565,9548.656652
3642.229812,229.828649,-518.144159,9548.656652
3642.230126,76.609550,-444.123565,9178.553681
3642.230441,0.000000,-0.000000,9696.697840
3642.230755,0.000000,296.082377,9696.697840
3642.231070,383.047749,444.123565,9622.677246
3642.231384,0.000000,592.164754,9178.553681
3642.231698,-229.828649,370.102971,9400.615463
3642.232013,-229.828649,518.144159,9326.594869
3642.232327,153.219100,444.123565,9696.697840
3642.232642,76.609550,-0.000000,9992.780217
3642.232956,153.219100,-74.020594,10288.862594
3642.233270,-229.828649,-74.020594,10510.924376
3642.233585,-383.047749,148.041188,10362.883188
3642.233899,76.609550,370.102971,10362.883188
3642.234213,-306.438199,148.041188,9844.739029
3642.234528,229.828649,296.082377,9992.780217
3642.234842,306.438199,-0.000000,8956.491898
3642.235157,383.047749,222.061783,9104.533087
3642.235471,995.924147,-296.082377,8956.491898
3642.235785,995.924147,-740.205942,9326.594869
3642.236100,995.924147,-518.144159,8734.430116
3642.236414,689.485948,-222.061783,8808.450710
3642.236729,459.657299,-0.000000,8956.491898
3642.237043,536.266849,-74.020594,9030.512492
3642.237357,229.828649,222.061783,9474.636058
3642.237672,153.219100,370.102971,9326.594869
3642.237986,0.000000,296.082377,9622.677246
3642.238301,-306.438199,-74.020594,9844.739029
3642.238615,-229.828649,-222.061783,9992.780217
3642.238929,0.000000,-814.226536,10732.986159
3642.239244,-383.047749,-444.123565,10658.965565
3642.239558,-383.047749,296.082377,10436.903782
3642.239872,-229.828649,296.082377,10066.800811
3642.240187,76.609550,148.041188,9770.718434
3642.240501,0.000000,592.164754,9770.718434
3642.240816,536.266849,592.164754,9326.594869
3642.241130,383.047749,370.102971,8734.430116
3642.241444,689.485948,-0.000000,9030.512492
3642.241759,842.705048,-148.041188,9104.533087
3642.242073,689.485948,-444.123565,9178.553681
3642.242388,306.438199,-444.123565,9252.574275
3642.242702,229.828649,-0.000000,9326.594869
3642.243016,0.000000,-0.000000,9474.636058
3642.243331,76.609550,-0.000000,9326.594869
3642.243645,-612.876398,-0.000000,9326.594869
3642.243959,-612.876398,296.082377,9178.553681
3642.244274,-536.266849,296.082377,9474.636058
3642.244588,-612.876398,-0.000000,9770.718434
3642.244903,-459.657299,-666.185348,10362.883188
3642.245217,-383.047749,-0.000000,10510.924376
3642.245531,-459.657299,148.041188,10436.903782
3642.245846,-383.047749,444.123565,10140.821405
3642.246160,0.000000,740.205942,10066.800811
3642.246475,383.047749,814.226536,10584.944971
3642.246789,0.000000,666.185348,10140.821405
3642.247103,459.657299,1184.329507,9696.697840
3642.247418,612.876398,740.205942,9178.553681
3642.247732,842.705048,-74.020594,8956.491898
3642.248047,842.705048,-74.020594,9252.574275
3642.248361,919.314598,-222.061783,9474.636058
3642.248675,766.095498,-222.061783,9178.553681
3642.248990,459.657299,-0.000000,9104.533087
3642.249304,0.000000,444.123565,9474.636058
3642.249618,689.485948,444.123565,9252.574275
3642.249933,0.000000,222.061783,9326.594869
3642.250247,-306.438199,666.185348,9474.636058
3642.250562,-766.095498,592.164754,9770.718434
3642.250876,-306.438199,444.123565,10288.862594
3642.251190,-536.266849,296.082377,10658.965565
3642.251505,-612.876398,-74.020594,10955.047942
3642.251819,-383.047749,222.061783,10436.903782
3642.252133,-459.657299,888.247130,10214.842000
3642.252448,306.438199,1036.288319,10214.842000
3642.252762,383.047749,962.267725,9548.656652
3642.253076,459.657299,666.185348,9400.615463
3642.253391,383.047749,814.226536,9178.553681
3642.253705,536.266849,-0.000000,9178.553681
3642.254020,842.705048,-222.061783,9104.533087
3642.254334,842.705048,-296.082377,9474.636058
3642.254648,995.924147,-296.082377,9178.553681
3642.254963,76.609550,-222.061783,9030.512492
3642.255277,0.000000,-0.000000,8882.471304
3642.255591,153.219100,-0.000000,9252.574275
3642.255906,153.219100,-148.041188,9030.512492
3642.256220,0.000000,222.061783,9178.553681
3642.256534,-153.219100,148.041188,9178.553681
3642.256849,0.000000,-0.000000,9696.697840
3642.257163,76.609550,-370.102971,9918.759623
3642.257477,-229.828649,-518.144159,10510.924376
3642.257792,0.000000,-444.123565,10881.027347
3642.258106,-536.266849,-0.000000,10510.924376
3642.258420,0.000000,370.102971,10214.842000
3642.258735,306.438199,518.144159,9918.759623
3642.259049,536.266849,444.123565,9696.697840
3642.259363,919.314598,518.144159,8956.491898
3642.259678,919.314598,222.061783,8068.244768
3642.259992,1225.752797,-148.041188,9178.553681
3642.260307,1378.971896,-518.144159,9252.574275
3642.260621,995.924147,-444.123565,8882.471304
3642.260935,766.095498,-74.020594,8956.491898
3642.261250,306.438199,-74.020594,9178.553681
3642.261564,76.609550,-0.000000,9400.615463
3642.261878,0.000000,-0.000000,9326.594869
3642.262193,0.000000,222.061783,9474.636058
3642.262507,-459.657299,296.082377,9622.677246
3642.262821,-612.876398,296.082377,9622.677246
3642.263136,-459.657299,-74.020594,9992.780217
3642.263450,-383.047749,-370.102971,10732.986159
3642.263764,-689.485948,-222.061783,10732.986159
3642.264079,-536.266849,296.082377,10658.965565
3642.264393,-229.828649,814.226536,10288.862594
3642.264707,0.000000,814.226536,9622.677246
3642.265022,153.219100,888.247130,9474.636058
3642.265336,229.828649,888.247130,9474.636058
3642.265651,0.000000,444.123565,9474.636058
3642.265965,306.438199,222.061783,9104.533087
3642.266279,459.657299,-74.020594,9104.533087
3642.266594,766.095498,-740.205942,9104.533087
3642.266908,536.266849,-592.164754,9104.533087
3642.267222,229.828649,-592.164754,9030.512492
3642.267537,76.609550,-444.123565,9400.615463
3642.267851,0.000000,-0.000000,9104.533087
3642.268165,0.000000,148.041188,8660.409521
3642.268480,76.609550,-0.000000,9178.553681
3642.268794,-766.095498,-0.000000,9030.512492
3642.269108,-612.876398,-592.164754,9696.697840
3642.269423,-306.438199,-370.102971,10510.924376
3642.269737,-536.266849,-370.102971,10732.986159
3642.270051,-459.657299,-0.000000,11251.130318
3642.270366,-383.047749,666.185348,10584.944971
3642.270680,0.000000,888.247130,10436.903782
3642.270994,536.266849,888.247130,10214.842000
3642.271309,766.095498,888.247130,9918.759623
3642.271623,383.047749,1332.370696,9104.533087
3642.271938,689.485948,740.205942,8808.450710
3642.272252,766.095498,-0.000000,8660.409521
3642.272566,1072.533697,-148.041188,9178.553681
3642.272881,995.924147,-592.164754,9252.574275
3642.273195,229.828649,-148.041188,9326.594869
3642.273509,229.828649,-74.020594,9474.636058
3642.273824,0.000000,-0.000000,9252.574275
3642.274138,0.000000,222.061783,9474.636058
3642.274452,0.000000,444.123565,9104.533087
3642.274767,0.000000,592.164754,9104.533087
3642.275081,-612.876398,518.144159,9252.574275
3642.275395,0.000000,370.102971,9992.780217
3642.275710,229.828649,-0.000000,10066.800811
3642.276024,153.219100,-0.000000,10140.821405
3642.276338,0.000000,370.102971,10362.883188
3642.276653,0.000000,1110.308913,10732.986159
3642.276967,0.000000,740.205942,9992.780217
3642.277282,306.438199,592.164754,9770.718434
3642.277596,229.828649,444.123565,9548.656652
3642.277910,229.828649,666.185348,9178.553681
3642.278225,459.657299,-0.000000,8808.450710
3642.278539,1072.533697,-222.061783,9030.512492
3642.278853,1149.143247,-666.185348,9474.636058
3642.279168,689.485948,-518.144159,9030.512492
3642.279482,306.438199,-222.061783,9030.512492
3642.279796,0.000000,-0.000000,8956.491898
3642.280111,536.266849,222.061783,9178.553681
3642.280425,153.219100,592.164754,9326.594869
3642.280739,0.000000,222.061783,9548.656652
3642.281054,-229.828649,-0.000000,9548.656652
3642.281368,-306.438199,370.102971,10214.842000
3642.281682,-229.828649,-370.102971,10362.883188
3642.281997,-306.438199,-222.061783,11029.068536
3642.282311,-536.266849,148.041188,11177.109724
3642.282625,-919.314598,-0.000000,11029.068536
3642.282940,-459.657299,666.185348,10362.883188
3642.283254,76.609550,592.164754,10214.842000
3642.283569,153.219100,592.164754,9548.656652
3642.283883,306.438199,666.185348,9474.636058
3642.284197,76.609550,666.185348,9400.615463
3642.284512,536.266849,-0.000000,9104.533087
3642.284826,689.485948,-74.020594,9030.512492
3642.285140,766.095498,-148.041188,9326.594869
3642.285455,766.095498,-74.020594,8882.471304
3642.285769,0.000000,-0.000000,8734.430116
3642.286083,0.000000,-0.000000,9104.533087
3642.286398,0.000000,-0.000000,9326.594869
3642.286712,-536.266849,370.102971,8660.409521
3642.287026,-536.266849,-0.000000,9030.512492
3642.287341,-689.485948,-222.061783,9400.615463
3642.287655,-1225.752797,-222.061783,9918.759623
3642.287969,-612.876398,-814.226536,10140.821405
3642.288284,-459.657299,-518.144159,10436.903782
3642.288598,-536.266849,-0.000000,10732.986159
3642.288912,-229.828649,666.185348,10584.944971
3642.289227,0.000000,1036.288319,9548.656652
3642.289541,229.828649,962.267725,9992.780217
3642.289856,612.876398,666.185348,9622.677246
3642.290170,766.095498,888.247130,8586.388927
3642.290484,842.705048,518.144159,8438.347739
3642.290799,1225.752797,-0.000000,8956.491898
3642.291113,1685.410096,-296.082377,8808.450710
3642.291427,1149.143247,-444.123565,8882.471304
3642.291742,459.657299,-592.164754,9104.533087
3642.292056,0.000000,-592.164754,9770.718434
3642.292370,383.047749,-74.020594,9400.615463
3642.292685,0.000000,-0.000000,9474.636058
3642.292999,-306.438199,518.144159,9622.677246
3642.293313,-459.657299,518.144159,9622.677246
3642.293628,-995.924147,148.041188,9918.759623
3642.293942,0.000000,-148.041188,10362.883188
3642.294256,-153.219100,-0.000000,10732.986159
3642.294571,0.000000,370.102971,10732.986159
3642.294885,-229.828649,740.205942,10807.006753
3642.295200,0.000000,1184.329507,10584.944971
3642.295514,306.438199,740.205942,10140.821405
3642.295828,229.828649,592.164754,9992.780217
3642.296143,229.828649,666.185348,9918.759623
3642.296457,153.219100,222.061783,9474.636058
3642.296771,919.314598,-0.000000,8956.491898
3642.297086,459.657299,-296.082377,8882.471304
3642.297400,919.314598,-370.102971,9252.574275
3642.297714,612.876398,-0.000000,9252.574275
3642.298029,306.438199,-74.020594,8660.409521
3642.298343,306.438199,-0.000000,9178.553681
3642.298657,229.828649,296.082377,9104.533087
3642.298972,306.438199,296.082377,8956.491898
3642.299286,76.609550,518.144159,9326.594869
3642.299600,0.000000,592.164754,9474.636058
3642.299915,306.438199,-0.000000,9918.759623
3642.300229,229.828649,-0.000000,10140.821405
3642.300543,-612.876398,-296.082377,10584.944971
3642.300858,-306.438199,-0.000000,10955.047942
3642.301172,-842.705048,370.102971,10288.862594
3642.301487,153.219100,592.164754,10362.883188
3642.301801,612.876398,592.164754,9918.759623
3642.302115,536.266849,592.164754,9474.636058
3642.302430,459.657299,740.205942,8660.409521
3642.302744,919.314598,222.061783,9030.512492
3642.303058,919.314598,-370.102971,9104.533087
3642.303373,689.485948,-370.102971,9030.512492
3642.303687,842.705048,-444.123565,9400.615463
3642.304001,229.828649,-222.061783,9252.574275
3642.304316,306.438199,-74.020594,9548.656652
3642.304630,0.000000,-0.000000,9474.636058
3642.304944,-536.266849,222.061783,9474.636058
3642.305259,-383.047749,222.061783,9474.636058
3642.305573,-766.095498,296.082377,9474.636058
3642.305887,-459.657299,-0.000000,9474.636058
