#time,accel_x,accel_y,accel_z
3786.426702,76.609550,-0.000000,9474.636058
3786.427016,229.828649,-0.000000,10066.800811
3786.427331,153.219100,222.061783,9622.677246
3786.427646,0.000000,-0.000000,9770.718434
3786.427960,0.000000,-0.000000,9474.636058
3786.428275,76.609550,-0.000000,9326.594869
3786.428590,153.219100,444.123565,9770.718434
3786.428904,229.828649,-0.000000,9548.656652
3786.429219,0.000000,-0.000000,9918.759623
3786.429533,0.000000,-0.000000,9548.656652
3786.429848,0.000000,-74.020594,9548.656652
3786.430163,229.828649,-0.000000,9844.739029
3786.430477,153.219100,222.061783,9622.677246
3786.430792,0.000000,-0.000000,9844.739029
3786.431107,0.000000,370.102971,9548.656652
3786.431421,153.219100,-74.020594,9474.636058
3786.431736,153.219100,296.082377,9844.739029
3786.432051,0.000000,148.041188,9622.677246
3786.432365,0.000000,296.082377,9696.697840
3786.432680,0.000000,222.061783,9400.615463
3786.432994,0.000000,370.102971,9622.677246
3786.433309,76.609550,-0.000000,9400.615463
3786.433624,0.000000,148.041188,9696.697840
3786.433938,76.609550,-0.000000,9696.697840
3786.434253,0.000000,-0.000000,9696.697840
3786.434568,76.609550,-0.000000,9696.697840
3786.434882,306.438199,148.041188,9474.636058
3786.435197,0.000000,148.041188,9548.656652
3786.435512,0.000000,222.061783,9474.636058
3786.435826,0.000000,-0.000000,9252.574275
3786.436141,383.047749,-74.020594,9474.636058
3786.436455,383.047749,296.082377,9474.636058
3786.436770,76.609550,222.061783,9252.574275
3786.437085,0.000000,-0.000000,9474.636058
3786.437399,76.609550,-0.000000,9474.636058
3786.437714,0.000000,-74.020594,9696.697840
3786.438029,0.000000,-0.000000,9770.718434
3786.438343,536.266849,222.061783,9548.656652
3786.438658,153.219100,370.102971,9548.656652
3786.438972,153.219100,-0.000000,9474.636058
3786.439287,229.828649,-0.000000,9548.656652
3786.439602,0.000000,222.061783,9770.718434
3786.439916,76.609550,296.082377,9918.759623
3786.440231,76.609550,-0.000000,9696.697840
3786.440546,536.266849,-0.000000,9918.759623
3786.440860,459.657299,-0.000000,9474.636058
3786.441175,0.000000,222.061783,9474.636058
3786.441490,153.219100,296.082377,9696.697840
3786.441804,0.000000,-0.000000,9622.677246
3786.442119,153.219100,-0.000000,9770.718434
3786.442433,76.609550,222.061783,9474.636058
3786.442748,0.000000,296.082377,9622.677246
3786.443063,0.000000,296.082377,9474.636058
3786.443377,0.000000,-0.000000,9474.636058
3786.443692,0.000000,-222.061783,9918.759623
3786.444007,0.000000,222.061783,9474.636058
3786.444321,153.219100,-0.000000,9474.636058
3786.444636,0.000000,370.102971,9400.615463
3786.444951,153.219100,-0.000000,9696.697840
3786.445265,229.828649,-0.000000,9844.739029
3786.445580,0.000000,-0.000000,9400.615463
3786.445894,76.609550,222.061783,9474.636058
3786.446209,0.000000,296.082377,9474.636058
3786.446524,153.219100,-0.000000,9622.677246
3786.446838,383.047749,-0.000000,9326.594869
3786.447153,229.828649,222.061783,9400.615463
3786.447468,383.047749,296.082377,9844.739029
3786.447782,306.438199,-0.000000,9326.594869
3786.448097,766.095498,-0.000000,9844.739029
3786.448411,0.000000,-296.082377,9326.594869
3786.448726,0.000000,-0.000000,9474.636058
3786.449041,153.219100,296.082377,9844.739029
3786.449355,0.000000,222.061783,9696.697840
3786.449670,-689.485948,222.061783,9770.718434
3786.449985,383.047749,-74.020594,9474.636058
3786.450299,153.219100,-0.000000,9474.636058
3786.450614,306.438199,296.082377,9992.780217
3786.450929,229.828649,370.102971,9696.697840
3786.451243,766.095498,-148.041188,9992.780217
3786.451558,689.485948,444.123565,9918.759623
3786.451872,689.485948,518.144159,9770.718434
3786.452187,383.047749,518.144159,9622.677246
3786.452502,536.266849,740.205942,9622.677246
3786.452816,766.095498,592.164754,9548.656652
3786.453131,536.266849,740.205942,8956.491898
3786.453446,766.095498,666.185348,9326.594869
3786.453760,766.095498,666.185348,9252.574275
3786.454075,689.485948,222.061783,9104.533087
3786.454390,689.485948,222.061783,9770.718434
3786.454704,306.438199,222.061783,9844.739029
3786.455019,536.266849,444.123565,9770.718434
3786.455333,306.438199,814.226536,9622.677246
3786.455648,536.266849,1184.329507,9474.636058
3786.455963,995.924147,1110.308913,9844.739029
3786.456277,1225.752797,888.247130,9252.574275
3786.456592,1685.410096,814.226536,9548.656652
3786.456907,1991.848295,1110.308913,9696.697840
3786.457221,2374.896044,888.247130,9548.656652
3786.457536,2911.162892,1406.391290,9400.615463
3786.457850,3217.601092,2368.659014,9104.533087
3786.458165,3294.210641,2220.617826,9474.636058
3786.458480,3524.039291,2368.659014,8882.471304
3786.458794,3524.039291,2220.617826,8290.306550
3786.459109,3447.429741,2220.617826,8586.388927
3786.459424,3677.258390,2368.659014,8438.347739
3786.459738,3677.258390,2368.659014,9030.512492
3786.460053,3677.258390,2368.659014,9400.615463
3786.460368,3524.039291,2294.638420,9770.718434
3786.460682,3140.991542,2368.659014,9104.533087
3786.460997,2911.162892,2590.720797,9400.615463
3786.461311,3217.601092,3034.844362,9696.697840
3786.461626,3217.601092,3182.885551,9474.636058
3786.461941,2987.772442,3404.947333,9326.594869
3786.462255,2834.553343,3552.988522,9030.512492
3786.462570,2834.553343,3701.029710,9400.615463
3786.462885,2604.724693,3701.029710,9548.656652
3786.463199,2451.505594,3923.091493,10214.842000
3786.463514,1608.800546,3701.029710,10732.986159
3786.463829,1302.362347,3701.029710,10510.924376
3786.464143,1378.971896,3701.029710,10955.047942
3786.464458,1532.190996,3552.988522,11029.068536
3786.464772,1149.143247,3108.864956,11103.089130
3786.465087,1608.800546,3627.009116,10732.986159
3786.465402,1608.800546,3478.967927,10510.924376
3786.465716,1915.238745,3478.967927,10436.903782
3786.466031,2068.457845,3923.091493,9844.739029
3786.466346,2145.067394,3997.112087,9252.574275
3786.466660,2528.115143,3552.988522,9326.594869
3786.466975,2451.505594,3849.070898,9548.656652
3786.467290,2145.067394,3108.864956,9548.656652
3786.467604,1762.019645,2960.823768,9696.697840
3786.467919,1838.629195,2738.761985,9770.718434
3786.468233,1685.410096,2664.741391,10214.842000
3786.468548,1915.238745,2664.741391,10288.862594
3786.468863,1685.410096,2590.720797,10288.862594
3786.469177,1302.362347,2738.761985,10140.821405
3786.469492,1455.581446,3108.864956,9844.739029
3786.469807,1991.848295,3034.844362,9622.677246
3786.470121,1991.848295,3182.885551,9400.615463
3786.470436,2145.067394,3108.864956,9400.615463
3786.470750,1991.848295,2886.803174,9400.615463
3786.471065,1455.581446,2146.597232,9474.636058
3786.471380,1608.800546,1924.535449,9918.759623
3786.471694,1608.800546,1406.391290,10214.842000
3786.472009,1302.362347,1406.391290,10288.862594
3786.472324,1455.581446,1406.391290,10214.842000
3786.472638,1838.629195,1406.391290,9918.759623
3786.472953,1991.848295,1924.535449,9992.780217
3786.473268,2528.115143,2146.597232,9326.594869
3786.473582,2374.896044,2220.617826,8734.430116
3786.473897,3140.991542,2294.638420,8586.388927
3786.474211,3370.820191,1998.556043,8660.409521
3786.474526,3753.867940,1924.535449,8586.388927
3786.474841,3447.429741,1850.514855,8586.388927
3786.475155,2911.162892,1554.432478,8882.471304
3786.475470,2604.724693,1332.370696,8956.491898
3786.475785,2451.505594,1258.350101,9030.512492
3786.476099,1991.848295,740.205942,9030.512492
3786.476414,1762.019645,370.102971,9474.636058
3786.476729,1532.190996,296.082377,9918.759623
3786.477043,1532.190996,-0.000000,10140.821405
3786.477358,1685.410096,148.041188,10436.903782
3786.477672,2145.067394,1258.350101,10214.842000
3786.477987,2604.724693,1554.432478,9992.780217
3786.478302,3370.820191,2590.720797,9474.636058
3786.478616,3983.696590,2664.741391,8882.471304
3786.478931,4519.963438,2590.720797,7846.182985
3786.479246,4213.525239,2886.803174,7846.182985
3786.479560,3677.258390,1924.535449,7550.100608
3786.479875,3217.601092,1036.288319,8142.265362
3786.480189,2298.286494,296.082377,8734.430116
3786.480504,1225.752797,-0.000000,9844.739029
3786.480819,383.047749,-296.082377,10807.006753
3786.481133,-306.438199,-962.267725,11917.315666
3786.481448,0.000000,-222.061783,12213.398043
3786.481763,0.000000,296.082377,12435.459826
3786.482077,689.485948,1554.432478,11399.171507
3786.482392,2451.505594,2886.803174,10436.903782
3786.482707,3600.648841,4071.132681,9474.636058
3786.483021,3983.696590,4885.359217,8290.306550
3786.483336,4749.792088,5107.421000,7105.977043
3786.483650,4673.182538,4959.379811,6661.853478
3786.483965,4673.182538,3849.070898,7698.141797
3786.484280,3600.648841,2294.638420,8586.388927
3786.484594,1378.971896,1480.411884,10362.883188
3786.484909,0.000000,148.041188,11399.171507
3786.485224,-1455.581446,-74.020594,12287.418637
3786.485538,-1608.800546,296.082377,12879.583391
3786.485853,-919.314598,1258.350101,11917.315666
3786.486168,-459.657299,2738.761985,10732.986159
3786.486482,766.095498,3775.050304,9104.533087
3786.486797,2604.724693,4367.215058,7994.224174
3786.487111,4060.306139,4515.256246,7105.977043
3786.487426,4903.011187,4367.215058,7402.059420
3786.487741,4826.401637,4589.276840,8660.409521
3786.488055,3753.867940,4145.153275,9104.533087
3786.488370,2757.943793,3923.091493,10066.800811
3786.488685,2221.676944,3182.885551,11399.171507
3786.488999,1149.143247,3182.885551,10881.027347
3786.489314,766.095498,2664.741391,10584.944971
3786.489628,536.266849,2294.638420,10510.924376
3786.489943,1302.362347,1850.514855,10214.842000
3786.490258,1838.629195,1850.514855,9548.656652
3786.490572,2145.067394,2072.576638,8808.450710
3786.490887,3217.601092,2368.659014,8364.327145
3786.491202,3524.039291,3182.885551,8512.368333
3786.491516,3677.258390,3404.947333,8660.409521
3786.491831,3447.429741,3775.050304,8512.368333
3786.492146,2987.772442,3552.988522,8808.450710
3786.492460,2451.505594,2368.659014,10362.883188
3786.492775,1532.190996,2146.597232,11177.109724
3786.493089,919.314598,1702.473667,11695.253884
3786.493404,1455.581446,1850.514855,11843.295072
3786.493719,2145.067394,2590.720797,12065.356855
3786.494033,1991.848295,3256.906145,9992.780217
3786.494348,2528.115143,3701.029710,9030.512492
3786.494663,3677.258390,3627.009116,7994.224174
3786.494977,3830.477490,3182.885551,8364.327145
3786.495292,4060.306139,2368.659014,9104.533087
3786.495607,3447.429741,1702.473667,8882.471304
3786.495921,3140.991542,814.226536,9622.677246
3786.496236,2298.286494,888.247130,10584.944971
3786.496550,1302.362347,1776.494261,10140.821405
3786.496865,536.266849,2220.617826,9992.780217
3786.497180,1149.143247,2442.679609,9696.697840
3786.497494,1225.752797,2516.700203,9400.615463
3786.497809,1302.362347,2146.597232,8660.409521
3786.498124,2068.457845,1998.556043,8438.347739
3786.498438,1838.629195,1554.432478,9400.615463
3786.498753,1762.019645,1554.432478,8808.450710
3786.499067,1608.800546,1924.535449,9030.512492
3786.499382,1378.971896,814.226536,9992.780217
3786.499697,766.095498,592.164754,10510.924376
3786.500011,0.000000,740.205942,11325.150913
3786.500326,0.000000,444.123565,11029.068536
3786.500640,-536.266849,888.247130,10436.903782
3786.500955,-229.828649,1184.329507,9696.697840
3786.501270,459.657299,296.082377,9474.636058
3786.501584,76.609550,-0.000000,9474.636058
3786.501899,383.047749,370.102971,9326.594869
3786.502213,766.095498,444.123565,8660.409521
3786.502528,1685.410096,-0.000000,9326.594869
3786.502842,1225.752797,814.226536,9030.512492
3786.503157,766.095498,370.102971,8660.409521
3786.503471,383.047749,-74.020594,8956.491898
3786.503786,-383.047749,-888.247130,10288.862594
3786.504101,-919.314598,-1184.329507,10807.006753
3786.504415,-1455.581446,-1258.350101,10955.047942
3786.504730,-1532.190996,-518.144159,10214.842000
3786.505044,-1378.971896,-370.102971,9770.718434
3786.505359,-842.705048,148.041188,9844.739029
3786.505673,-383.047749,-148.041188,10066.800811
3786.505988,-536.266849,-592.164754,10510.924376
3786.506303,-383.047749,-592.164754,10140.821405
3786.506617,306.438199,-148.041188,9844.739029
3786.506932,766.095498,-0.000000,9474.636058
3786.507246,1072.533697,-0.000000,8660.409521
3786.507561,1685.410096,-222.061783,9474.636058
3786.507875,1378.971896,-592.164754,8956.491898
3786.508190,1378.971896,-666.185348,9030.512492
3786.508505,612.876398,-518.144159,8956.491898
3786.508819,306.438199,-222.061783,9030.512492
3786.509134,153.219100,-592.164754,8438.347739
3786.509448,306.438199,-814.226536,8142.265362
3786.509763,459.657299,-1258.350101,8808.450710
3786.510077,383.047749,-1554.432478,9326.594869
3786.510392,383.047749,-1554.432478,9474.636058
3786.510706,153.219100,-1184.329507,9696.697840
3786.511021,306.438199,296.082377,9844.739029
3786.511336,689.485948,370.102971,9400.615463
3786.511650,1072.533697,444.123565,9252.574275
3786.511965,1149.143247,-0.000000,9474.636058
3786.512279,76.609550,370.102971,9474.636058
3786.512594,459.657299,222.061783,9252.574275
3786.512908,919.314598,740.205942,9252.574275
3786.513223,919.314598,1110.308913,8882.471304
3786.513538,1302.362347,-0.000000,9030.512492
3786.513852,612.876398,-518.144159,9474.636058
3786.514167,459.657299,-1036.288319,9770.718434
3786.514481,-306.438199,-814.226536,10140.821405
3786.514796,-306.438199,-592.164754,10288.862594
3786.515110,0.000000,222.061783,9844.739029
3786.515425,153.219100,296.082377,9474.636058
3786.515740,229.828649,222.061783,9696.697840
3786.516054,0.000000,370.102971,10214.842000
3786.516369,-459.657299,666.185348,10584.944971
3786.516683,-383.047749,962.267725,10436.903782
3786.516998,0.000000,1998.556043,9696.697840
3786.517312,612.876398,2072.576638,9326.594869
3786.517627,995.924147,1702.473667,9030.512492
3786.517942,383.047749,962.267725,9622.677246
3786.518256,0.000000,370.102971,10288.862594
3786.518571,-612.876398,-0.000000,10732.986159
3786.518885,-1378.971896,592.164754,10066.800811
3786.519200,-1608.800546,1184.329507,9770.718434
3786.519514,-1072.533697,962.267725,9400.615463
3786.519829,-995.924147,-296.082377,10584.944971
3786.520143,-1455.581446,-518.144159,10955.047942
3786.520458,-2068.457845,148.041188,10140.821405
3786.520773,-1378.971896,370.102971,10140.821405
3786.521087,-536.266849,1480.411884,9918.759623
3786.521402,229.828649,1998.556043,8956.491898
3786.521716,536.266849,1184.329507,8734.430116
3786.522031,766.095498,888.247130,9252.574275
3786.522345,383.047749,1036.288319,9474.636058
3786.522660,229.828649,1110.308913,9474.636058
3786.522975,-612.876398,1110.308913,9400.615463
3786.523289,-306.438199,740.205942,9252.574275
3786.523604,-842.705048,-222.061783,9622.677246
3786.523918,-842.705048,-666.185348,10214.842000
3786.524233,-919.314598,-518.144159,10807.006753
3786.524547,-842.705048,-222.061783,10362.883188
3786.524862,-612.876398,444.123565,9918.759623
3786.525177,76.609550,888.247130,8808.450710
3786.525491,1302.362347,888.247130,8586.388927
3786.525806,1991.848295,296.082377,8808.450710
3786.526120,1685.410096,666.185348,9104.533087
3786.526435,1378.971896,-222.061783,9178.553681
3786.526749,1225.752797,-0.000000,9400.615463
3786.527064,1072.533697,222.061783,9474.636058
3786.527379,766.095498,296.082377,8956.491898
3786.527693,766.095498,-0.000000,9326.594869
3786.528008,383.047749,-592.164754,10066.800811
3786.528322,-459.657299,-666.185348,9992.780217
3786.528637,-229.828649,-1258.350101,10510.924376
3786.528951,229.828649,-1110.308913,10807.006753
3786.529266,76.609550,-0.000000,9474.636058
3786.529580,689.485948,-296.082377,8882.471304
3786.529895,1608.800546,-592.164754,9770.718434
3786.530210,1302.362347,-0.000000,9474.636058
3786.530524,1302.362347,-222.061783,10066.800811
3786.530839,1225.752797,-296.082377,9474.636058
3786.531153,383.047749,222.061783,8808.450710
3786.531468,766.095498,222.061783,9696.697840
3786.531782,689.485948,-518.144159,9178.553681
3786.532097,76.609550,-888.247130,9696.697840
3786.532412,0.000000,-1776.494261,10214.842000
3786.532726,-612.876398,-1332.370696,10066.800811
3786.533041,-612.876398,-1036.288319,9844.739029
3786.533355,0.000000,-666.185348,9030.512492
3786.533670,0.000000,-888.247130,8882.471304
3786.533984,612.876398,-592.164754,9178.553681
3786.534299,-229.828649,-962.267725,9178.553681
3786.534614,-612.876398,-592.164754,9844.739029
3786.534928,-612.876398,-518.144159,9918.759623
3786.535243,-229.828649,148.041188,9326.594869
3786.535557,-229.828649,370.102971,9252.574275
3786.535872,0.000000,296.082377,9104.533087
3786.536186,-459.657299,-222.061783,9178.553681
3786.536501,-689.485948,-222.061783,9918.759623
3786.536815,-995.924147,-962.267725,9992.780217
3786.537130,-766.095498,-0.000000,9252.574275
3786.537445,-612.876398,444.123565,9104.533087
3786.537759,-306.438199,296.082377,8956.491898
3786.538074,-306.438199,222.061783,9326.594869
3786.538388,-766.095498,-74.020594,9696.697840
3786.538703,-1608.800546,-148.041188,10214.842000
3786.539017,-1455.581446,-148.041188,10214.842000
3786.539332,-842.705048,888.247130,9400.615463
3786.539647,-536.266849,518.144159,8808.450710
3786.539961,0.000000,370.102971,8956.491898
3786.540276,-383.047749,592.164754,9252.574275
3786.540590,-306.438199,-0.000000,9770.718434
3786.540905,-229.828649,740.205942,10066.800811
3786.541219,-459.657299,1406.391290,9326.594869
3786.541534,383.047749,1110.308913,8734.430116
3786.541849,842.705048,888.247130,9474.636058
3786.542163,306.438199,740.205942,9622.677246
3786.542478,0.000000,-0.000000,10584.944971
3786.542792,-689.485948,740.205942,10214.842000
3786.543107,-306.438199,962.267725,9844.739029
3786.543421,229.828649,1258.350101,9178.553681
3786.543736,842.705048,1258.350101,8882.471304
3786.544051,1149.143247,592.164754,9548.656652
3786.544365,919.314598,-74.020594,10140.821405
3786.544680,459.657299,370.102971,10066.800811
3786.544994,153.219100,1036.288319,10362.883188
3786.545309,229.828649,1480.411884,9622.677246
3786.545623,995.924147,1406.391290,9770.718434
3786.545938,1455.581446,1036.288319,9844.739029
3786.546252,1225.752797,444.123565,10214.842000
3786.546567,536.266849,888.247130,10658.965565
3786.546882,919.314598,1258.350101,10214.842000
3786.547196,1072.533697,1850.514855,9252.574275
3786.547511,1149.143247,1850.514855,9104.533087
3786.547825,1838.629195,1110.308913,9252.574275
3786.548140,1838.629195,-0.000000,9474.636058
3786.548454,842.705048,-148.041188,9844.739029
3786.548769,229.828649,-814.226536,10362.883188
3786.549084,0.000000,-0.000000,10510.924376
3786.549398,-229.828649,222.061783,10066.800811
3786.549713,689.485948,296.082377,9696.697840
3786.550027,842.705048,148.041188,9548.656652
3786.550342,842.705048,-148.041188,9770.718434
3786.550656,459.657299,148.041188,9844.739029
3786.550971,536.266849,592.164754,9030.512492
3786.551286,459.657299,666.185348,8438.347739
3786.551600,766.095498,814.226536,8290.306550
3786.551915,1608.800546,-148.041188,8512.368333
3786.552229,842.705048,-814.226536,9474.636058
3786.552544,-153.219100,-666.185348,9474.636058
3786.552858,-919.314598,-962.267725,10140.821405
3786.553173,-1225.752797,-888.247130,10584.944971
3786.553488,-1378.971896,-592.164754,9770.718434
3786.553802,-995.924147,-592.164754,9400.615463
3786.554117,-459.657299,-814.226536,9548.656652
3786.554431,-383.047749,-222.061783,9252.574275
3786.554746,76.609550,-518.144159,9622.677246
3786.555060,-306.438199,-444.123565,9326.594869
3786.555375,0.000000,296.082377,8290.306550
3786.555689,689.485948,740.205942,7846.182985
3786.556004,842.705048,-296.082377,8586.388927
3786.556319,306.438199,-592.164754,9178.553681
3786.556633,-612.876398,-666.185348,10066.800811
3786.556948,-1838.629195,-1406.391290,10436.903782
3786.557262,-1838.629195,-1332.370696,10881.027347
3786.557577,-1608.800546,-444.123565,10584.944971
3786.557891,-842.705048,-74.020594,9474.636058
3786.558206,-383.047749,-74.020594,9400.615463
3786.558521,-153.219100,-518.144159,9844.739029
3786.558835,0.000000,-74.020594,9474.636058
3786.559150,459.657299,592.164754,8438.347739
3786.559464,153.219100,518.144159,8956.491898
3786.559779,612.876398,962.267725,8660.409521
3786.560093,842.705048,296.082377,8734.430116
3786.560408,76.609550,-222.061783,9622.677246
3786.560723,-229.828649,-666.185348,10658.965565
3786.561037,-1685.410096,-1184.329507,11325.150913
3786.561352,-1838.629195,-148.041188,11177.109724
3786.561666,-995.924147,444.123565,10510.924376
3786.561981,-383.047749,740.205942,9918.759623
3786.562295,0.000000,-0.000000,9696.697840
3786.562610,229.828649,296.082377,9992.780217
3786.562924,689.485948,592.164754,9400.615463
3786.563239,919.314598,740.205942,8660.409521
3786.563554,919.314598,1258.350101,8438.347739
3786.563868,1685.410096,1406.391290,8734.430116
3786.564183,1991.848295,592.164754,8808.450710
3786.564497,1225.752797,370.102971,9474.636058
3786.564812,0.000000,-222.061783,10658.965565
3786.565126,-306.438199,-370.102971,11177.109724
3786.565441,-229.828649,222.061783,10436.903782
3786.565756,-383.047749,592.164754,10140.821405
3786.566070,76.609550,444.123565,9770.718434
3786.566385,612.876398,-222.061783,9696.697840
3786.566699,1072.533697,-370.102971,9992.780217
3786.567014,842.705048,-0.000000,10288.862594
3786.567328,995.924147,1702.473667,9178.553681
3786.567643,1225.752797,1628.453072,8364.327145
3786.567958,1608.800546,1406.391290,8438.347739
3786.568272,2068.457845,370.102971,9474.636058
3786.568587,1302.362347,-74.020594,10214.842000
3786.568901,76.609550,-222.061783,10288.862594
3786.569216,-459.657299,-0.000000,10510.924376
3786.569530,-459.657299,370.102971,10214.842000
3786.569845,-153.219100,814.226536,9400.615463
3786.570160,1225.752797,-0.000000,9474.636058
3786.570474,459.657299,-222.061783,9474.636058
3786.570789,842.705048,-222.061783,9622.677246
3786.571103,306.438199,222.061783,8956.491898
3786.571418,459.657299,592.164754,8808.450710
3786.571732,536.266849,1036.288319,8512.368333
3786.572047,919.314598,222.061783,9104.533087
3786.572361,536.266849,-0.000000,8808.450710
3786.572676,0.000000,-518.144159,9844.739029
3786.572991,-1149.143247,-148.041188,9770.718434
3786.573305,-1532.190996,-0.000000,10510.924376
3786.573620,-919.314598,1110.308913,10584.944971
3786.573934,-919.314598,666.185348,9548.656652
3786.574249,76.609550,-0.000000,9622.677246
3786.574563,-459.657299,-0.000000,9548.656652
3786.574878,-306.438199,-0.000000,9622.677246
3786.575193,76.609550,666.185348,9918.759623
3786.575507,76.609550,1110.308913,8586.388927
3786.575822,612.876398,1110.308913,8586.388927
3786.576136,1149.143247,370.102971,8290.306550
3786.576451,995.924147,-148.041188,8808.450710
3786.576765,-383.047749,-592.164754,9918.759623
3786.577080,-1149.143247,-296.082377,10214.842000
3786.577395,-1838.629195,148.041188,9992.780217
3786.577709,-689.485948,-518.144159,10955.047942
3786.578024,536.266849,296.082377,9770.718434
3786.578338,-612.876398,-518.144159,10066.800811
3786.578653,-229.828649,-0.000000,9918.759623
3786.578967,-306.438199,370.102971,10510.924376
3786.579282,306.438199,740.205942,9770.718434
3786.579597,689.485948,888.247130,8882.471304
3786.579911,919.314598,1258.350101,8512.368333
3786.580226,919.314598,222.061783,8660.409521
3786.580540,612.876398,-0.000000,9474.636058
3786.580855,-229.828649,-74.020594,10436.903782
3786.581169,-1302.362347,-1036.288319,11103.089130
3786.581484,-1225.752797,-444.123565,11103.089130
3786.581798,-1302.362347,-74.020594,10510.924376
3786.582113,-383.047749,-74.020594,10510.924376
3786.582428,0.000000,-444.123565,10658.965565
3786.582742,-229.828649,-0.000000,10288.862594
3786.583057,229.828649,148.041188,9844.739029
3786.583371,689.485948,1036.288319,9326.594869
3786.583686,1302.362347,962.267725,8512.368333
3786.584000,1915.238745,1036.288319,7920.203579
3786.584315,1991.848295,518.144159,8660.409521
3786.584630,919.314598,-222.061783,9178.553681
3786.584944,0.000000,-518.144159,9548.656652
3786.585259,-383.047749,-888.247130,9770.718434
3786.585573,-612.876398,-1406.391290,9770.718434
3786.585888,-459.657299,-518.144159,9474.636058
3786.586202,0.000000,-444.123565,9400.615463
3786.586517,76.609550,-962.267725,9696.697840
3786.586832,76.609550,-444.123565,9696.697840
3786.587146,0.000000,-518.144159,9178.553681
3786.587461,689.485948,-0.000000,9400.615463
3786.587775,919.314598,814.226536,8068.244768
3786.588090,1532.190996,740.205942,8068.244768
3786.588404,1608.800546,592.164754,8216.285956
3786.588719,1532.190996,-0.000000,9030.512492
3786.589033,76.609550,222.061783,10066.800811
3786.589348,0.000000,518.144159,9770.718434
3786.589663,-536.266849,148.041188,9474.636058
3786.589977,-459.657299,296.082377,9548.656652
3786.590292,-153.219100,-444.123565,9992.780217
3786.590606,-536.266849,-444.123565,9548.656652
3786.590921,-919.314598,-444.123565,10066.800811
3786.591235,-612.876398,-296.082377,10436.903782
3786.591550,-306.438199,148.041188,9622.677246
3786.591865,-229.828649,592.164754,9400.615463
3786.592179,459.657299,1406.391290,9030.512492
3786.592494,536.266849,1036.288319,8808.450710
3786.592808,612.876398,370.102971,9400.615463
3786.593123,0.000000,370.102971,10584.944971
3786.593437,-383.047749,666.185348,9918.759623
3786.593752,-459.657299,962.267725,9474.636058
3786.594067,-306.438199,888.247130,9622.677246
3786.594381,-306.438199,370.102971,9844.739029
3786.594696,-306.438199,-0.000000,9918.759623
3786.595010,-459.657299,-518.144159,10214.842000
3786.595325,-842.705048,-222.061783,10732.986159
3786.595639,-459.657299,148.041188,10214.842000
3786.595954,-842.705048,1110.308913,9918.759623
3786.596269,76.609550,518.144159,9400.615463
3786.596583,383.047749,666.185348,9548.656652
3786.596898,459.657299,-0.000000,9696.697840
3786.597212,383.047749,592.164754,10288.862594
3786.597527,0.000000,592.164754,9770.718434
3786.597841,0.000000,1036.288319,9178.553681
3786.598156,76.609550,1036.288319,9326.594869
3786.598470,536.266849,592.164754,9474.636058
3786.598785,842.705048,-0.000000,9918.759623
3786.599100,0.000000,-148.041188,10510.924376
3786.599414,229.828649,-0.000000,10510.924376
3786.599729,-306.438199,296.082377,9696.697840
3786.600043,0.000000,740.205942,9178.553681
3786.600358,306.438199,370.102971,9474.636058
3786.600673,459.657299,-0.000000,9326.594869
3786.600987,76.609550,-148.041188,9770.718434
3786.601302,306.438199,-0.000000,9474.636058
3786.601616,229.828649,-0.000000,9400.615463
3786.601931,229.828649,592.164754,8956.491898
3786.602246,612.876398,740.205942,9178.553681
3786.602560,1149.143247,296.082377,9178.553681
3786.602875,689.485948,-222.061783,9622.677246
3786.603190,76.609550,-370.102971,9918.759623
3786.603504,0.000000,-296.082377,10140.821405
3786.603819,-153.219100,740.205942,9474.636058
3786.604133,153.219100,444.123565,9030.512492
3786.604448,306.438199,222.061783,9178.553681
3786.604763,842.705048,-148.041188,9178.553681
3786.605077,383.047749,-222.061783,9474.636058
3786.605392,-229.828649,-444.123565,9918.759623
3786.605707,76.609550,-888.247130,9696.697840
3786.606021,0.000000,-222.061783,9326.594869
3786.606336,306.438199,-0.000000,9548.656652
3786.606650,459.657299,-592.164754,9030.512492
3786.606965,153.219100,-1036.288319,10362.883188
3786.607280,0.000000,-518.144159,10140.821405
3786.607594,0.000000,-0.000000,10066.800811
3786.607909,0.000000,370.102971,9400.615463
3786.608224,383.047749,814.226536,8586.388927
3786.608538,919.314598,370.102971,9030.512492
3786.608853,612.876398,-0.000000,8808.450710
3786.609168,383.047749,-0.000000,9326.594869
3786.609482,383.047749,-370.102971,9622.677246
3786.609797,229.828649,-0.000000,9548.656652
3786.610111,-459.657299,296.082377,9548.656652
3786.610426,-306.438199,296.082377,9696.697840
3786.610741,-536.266849,-444.123565,10288.862594
3786.611055,-995.924147,-666.185348,10658.965565
3786.611370,-536.266849,-444.123565,10807.006753
3786.611685,-995.924147,-74.020594,10436.903782
3786.611999,-612.876398,888.247130,9696.697840
3786.612314,153.219100,666.185348,9474.636058
3786.612628,766.095498,518.144159,8956.491898
3786.612943,842.705048,296.082377,9548.656652
3786.613258,306.438199,-0.000000,9770.718434
3786.613572,0.000000,148.041188,9918.759623
3786.613887,0.000000,444.123565,10066.800811
3786.614202,-536.266849,518.144159,9474.636058
3786.614516,0.000000,148.041188,9770.718434
3786.614831,-306.438199,-1258.350101,10658.965565
3786.615145,-919.314598,-518.144159,10658.965565
3786.615460,-1149.143247,-518.144159,10436.903782
3786.615775,-1072.533697,-0.000000,10140.821405
3786.616089,0.000000,518.144159,9548.656652
3786.616404,1225.752797,740.205942,8882.471304
3786.616719,1149.143247,444.123565,8660.409521
3786.617033,1072.533697,370.102971,9400.615463
3786.617348,766.095498,444.123565,9400.615463
3786.617662,383.047749,518.144159,9178.553681
3786.617977,0.000000,592.164754,9622.677246
3786.618292,459.657299,666.185348,9178.553681
3786.618606,842.705048,-74.020594,8734.430116
3786.618921,306.438199,-444.123565,9104.533087
3786.619236,0.000000,-444.123565,9844.739029
3786.619550,-229.828649,-148.041188,9548.656652
3786.619865,-383.047749,-74.020594,8882.471304
3786.620179,0.000000,-0.000000,8512.368333
3786.620494,1072.533697,-0.000000,8438.347739
3786.620809,1149.143247,-370.102971,9178.553681
3786.621123,459.657299,-74.020594,9622.677246
3786.621438,153.219100,-222.061783,9844.739029
3786.621753,306.438199,74.020594,9844.739029
3786.622067,0.000000,1184.329507,9770.718434
3786.622382,766.095498,1332.370696,9770.718434
3786.622697,842.705048,962.267725,9474.636058
3786.623011,766.095498,1036.288319,9178.553681
3786.623326,383.047749,592.164754,9918.759623
3786.623640,153.219100,370.102971,10658.965565
3786.623955,0.000000,370.102971,9474.636058
3786.624270,-229.828649,962.267725,9326.594869
3786.624584,0.000000,-222.061783,9770.718434
3786.624899,76.609550,-370.102971,9992.780217
3786.625214,-689.485948,-296.082377,10584.944971
3786.625528,-995.924147,-296.082377,10288.862594
3786.625843,-995.924147,-0.000000,10288.862594
3786.626157,-689.485948,740.205942,9622.677246
3786.626472,383.047749,1036.288319,9030.512492
3786.626787,995.924147,814.226536,9474.636058
3786.627101,612.876398,666.185348,9696.697840
3786.627416,153.219100,666.185348,9252.574275
3786.627731,383.047749,518.144159,10066.800811
3786.628045,0.000000,740.205942,9770.718434
3786.628360,0.000000,1036.288319,9548.656652
3786.628674,536.266849,592.164754,9474.636058
3786.628989,153.219100,-74.020594,10214.842000
3786.629304,-459.657299,-962.267725,10807.006753
3786.629618,-1378.971896,-1258.350101,10807.006753
3786.629933,-1838.629195,-296.082377,10732.986159
3786.630248,-919.314598,-0.000000,10436.903782
3786.630562,-306.438199,444.123565,9252.574275
3786.630877,536.266849,-222.061783,8734.430116
3786.631191,919.314598,-740.205942,9326.594869
3786.631506,536.266849,-222.061783,9474.636058
3786.631821,306.438199,-74.020594,9178.553681
3786.632135,0.000000,148.041188,9030.512492
3786.632450,153.219100,592.164754,8290.306550
3786.632765,612.876398,-370.102971,8882.471304
3786.633079,612.876398,-740.205942,9474.636058
3786.633394,-459.657299,-518.144159,10658.965565
3786.633709,-612.876398,-296.082377,10658.965565
3786.634023,-995.924147,-518.144159,9992.780217
3786.634338,-842.705048,592.164754,9844.739029
3786.634652,76.609550,370.102971,9178.553681
3786.634967,689.485948,-74.020594,9030.512492
3786.635282,536.266849,-74.020594,9474.636058
3786.635596,612.876398,-296.082377,9326.594869
3786.635911,612.876398,296.082377,9030.512492
3786.636226,383.047749,888.247130,8438.347739
3786.636540,689.485948,296.082377,8216.285956
3786.636855,1378.971896,-296.082377,8882.471304
3786.637169,766.095498,-296.082377,9030.512492
3786.637484,-229.828649,-888.247130,9844.739029
3786.637799,-689.485948,-592.164754,9918.759623
3786.638113,-689.485948,-0.000000,9770.718434
3786.638428,0.000000,444.123565,8734.430116
3786.638743,306.438199,222.061783,9252.574275
3786.639057,995.924147,-0.000000,9104.533087
3786.639372,459.657299,-296.082377,9474.636058
3786.639686,383.047749,222.061783,9474.636058
3786.640001,-153.219100,666.185348,9474.636058
3786.640316,459.657299,1184.329507,8956.491898
3786.640630,766.095498,1332.370696,9326.594869
3786.640945,689.485948,666.185348,9474.636058
3786.641260,76.609550,-0.000000,9844.739029
3786.641574,-689.485948,-592.164754,10214.842000
3786.641889,-995.924147,-592.164754,11029.068536
3786.642203,-766.095498,-0.000000,10510.924376
3786.642518,-612.876398,518.144159,9992.780217
3786.642833,229.828649,148.041188,9770.718434
3786.643147,76.609550,370.102971,10066.800811
3786.643462,0.000000,740.205942,10214.842000
3786.643777,306.438199,1036.288319,9770.718434
3786.644091,383.047749,1332.370696,9770.718434
3786.644406,919.314598,1850.514855,9474.636058
3786.644720,383.047749,1332.370696,8808.450710
3786.645035,536.266849,888.247130,9548.656652
3786.645350,-306.438199,-0.000000,10807.006753
3786.645664,-459.657299,-0.000000,11325.150913
3786.645979,-1302.362347,148.041188,11177.109724
3786.646294,-1302.362347,518.144159,10807.006753
3786.646608,-766.095498,1184.329507,10510.924376
3786.646923,76.609550,518.144159,9844.739029
3786.647238,536.266849,222.061783,10066.800811
3786.647552,766.095498,-148.041188,9992.780217
3786.647867,383.047749,740.205942,9400.615463
3786.648181,536.266849,1332.370696,8956.491898
3786.648496,766.095498,1628.453072,8734.430116
3786.648811,919.314598,592.164754,8808.450710
3786.649125,842.705048,-888.247130,9178.553681
3786.649440,0.000000,-1036.288319,10214.842000
3786.649755,-689.485948,-888.247130,9918.759623
3786.650069,-842.705048,-888.247130,10807.006753
3786.650384,-766.095498,-222.061783,9992.780217
3786.650698,-766.095498,-592.164754,9696.697840
3786.651013,229.828649,-592.164754,9400.615463
3786.651328,689.485948,-444.123565,9326.594869
3786.651642,919.314598,-222.061783,9400.615463
3786.651957,766.095498,148.041188,9252.574275
3786.652272,689.485948,222.061783,7846.182985
3786.652586,1225.752797,666.185348,7994.224174
3786.652901,1225.752797,-222.061783,8290.306550
3786.653215,766.095498,-1110.308913,9178.553681
3786.653530,-383.047749,-1554.432478,9622.677246
3786.653845,-459.657299,-1332.370696,9992.780217
3786.654159,-689.485948,-1332.370696,10510.924376
3786.654474,-766.095498,-148.041188,9474.636058
3786.654789,0.000000,-148.041188,9326.594869
3786.655103,229.828649,-592.164754,9030.512492
3786.655418,76.609550,-222.061783,9104.533087
3786.655732,919.314598,-0.000000,9030.512492
3786.656047,1225.752797,592.164754,8660.409521
3786.656362,995.924147,1184.329507,8734.430116
3786.656676,1378.971896,1110.308913,8142.265362
3786.656991,1762.019645,370.102971,8142.265362
3786.657306,766.095498,-222.061783,9400.615463
3786.657620,0.000000,-592.164754,10658.965565
3786.657935,-1302.362347,-740.205942,11103.089130
3786.658249,-1608.800546,-222.061783,11177.109724
3786.658564,-1302.362347,296.082377,10362.883188
3786.658879,-612.876398,-0.000000,9770.718434
3786.659193,0.000000,-0.000000,9474.636058
3786.659508,76.609550,296.082377,9622.677246
3786.659823,383.047749,814.226536,9326.594869
3786.660137,536.266849,1110.308913,8956.491898
3786.660452,536.266849,1924.535449,8956.491898
3786.660767,612.876398,1406.391290,8438.347739
3786.661081,612.876398,222.061783,9326.594869
3786.661396,0.000000,-592.164754,10140.821405
3786.661710,-1225.752797,-740.205942,10881.027347
3786.662025,-1685.410096,-444.123565,11177.109724
3786.662340,-1762.019645,518.144159,10881.027347
3786.662654,-1378.971896,814.226536,10732.986159
3786.662969,-306.438199,444.123565,9918.759623
3786.663284,0.000000,222.061783,9548.656652
3786.663598,153.219100,-0.000000,9992.780217
3786.663913,536.266849,148.041188,10214.842000
3786.664227,612.876398,740.205942,9104.533087
3786.664542,689.485948,1110.308913,8512.368333
3786.664857,1532.190996,1406.391290,8956.491898
3786.665171,919.314598,370.102971,9104.533087
3786.665486,459.657299,-0.000000,9622.677246
3786.665801,-306.438199,-222.061783,10510.924376
3786.666115,-842.705048,-444.123565,10658.965565
3786.666430,-766.095498,-0.000000,10584.944971
3786.666744,-536.266849,296.082377,9622.677246
3786.667059,153.219100,-370.102971,9992.780217
3786.667374,689.485948,-296.082377,9696.697840
3786.667688,536.266849,-0.000000,9252.574275
3786.668003,919.314598,-0.000000,9622.677246
3786.668318,995.924147,666.185348,8882.471304
3786.668632,1225.752797,1480.411884,8512.368333
3786.668947,1302.362347,1110.308913,7772.162391
3786.669261,1838.629195,-74.020594,8438.347739
3786.669576,842.705048,-814.226536,9252.574275
3786.669891,0.000000,-592.164754,9844.739029
3786.670205,-459.657299,-962.267725,10214.842000
3786.670520,-842.705048,-592.164754,9622.677246
3786.670835,-689.485948,-222.061783,9474.636058
3786.671149,306.438199,-370.102971,9326.594869
3786.671464,153.219100,-1406.391290,9178.553681
3786.671778,153.219100,-1036.288319,9918.759623
3786.672093,76.609550,-74.020594,9548.656652
3786.672408,995.924147,444.123565,8734.430116
3786.672722,995.924147,1110.308913,7920.203579
3786.673037,1685.410096,962.267725,8290.306550
3786.673352,1378.971896,74.020594,9252.574275
3786.673666,612.876398,-444.123565,9696.697840
3786.673981,0.000000,-0.000000,10362.883188
3786.674296,-612.876398,-222.061783,10140.821405
3786.674610,-612.876398,-222.061783,10066.800811
3786.674925,-459.657299,148.041188,9770.718434
3786.675239,0.000000,-370.102971,9622.677246
3786.675554,153.219100,-592.164754,10140.821405
3786.675869,-383.047749,-222.061783,10584.944971
3786.676183,-383.047749,444.123565,10140.821405
3786.676498,536.266849,740.205942,9474.636058
3786.676813,383.047749,1850.514855,8660.409521
3786.677127,766.095498,1480.411884,8734.430116
3786.677442,1149.143247,740.205942,9252.574275
3786.677756,0.000000,-0.000000,10436.903782
3786.678071,-229.828649,-0.000000,10510.924376
3786.678386,-689.485948,518.144159,10214.842000
3786.678700,-919.314598,962.267725,9992.780217
3786.679015,-612.876398,1110.308913,10288.862594
3786.679330,-229.828649,-0.000000,10288.862594
3786.679644,-1225.752797,-74.020594,10658.965565
3786.679959,-995.924147,148.041188,10510.924376
3786.680273,-689.485948,592.164754,9844.739029
3786.680588,-306.438199,1406.391290,8882.471304
3786.680903,306.438199,1480.411884,8586.388927
3786.681217,383.047749,740.205942,8586.388927
3786.681532,459.657299,-0.000000,8956.491898
3786.681847,0.000000,444.123565,9844.739029
3786.682161,-689.485948,222.061783,9918.759623
3786.682476,-995.924147,-0.000000,10658.965565
3786.682790,-919.314598,-444.123565,10288.862594
3786.683105,-306.438199,-148.041188,10140.821405
3786.683420,0.000000,-0.000000,9548.656652
3786.683734,-383.047749,-74.020594,9474.636058
3786.684049,-306.438199,-0.000000,10066.800811
3786.684364,0.000000,370.102971,9326.594869
3786.684678,536.266849,518.144159,8734.430116
3786.684993,1225.752797,814.226536,8438.347739
3786.685307,1762.019645,370.102971,8734.430116
3786.685622,1225.752797,148.041188,8734.430116
3786.685937,536.266849,-0.000000,9696.697840
3786.686251,153.219100,-0.000000,9992.780217
3786.686566,0.000000,-74.020594,10288.862594
3786.686881,0.000000,-222.061783,10214.842000
3786.687195,153.219100,-0.000000,9400.615463
3786.687510,153.219100,-592.164754,9844.739029
3786.687825,0.000000,-592.164754,9474.636058
3786.688139,306.438199,-296.082377,9770.718434
3786.688454,842.705048,222.061783,8882.471304
3786.688768,612.876398,370.102971,9030.512492
3786.689083,1302.362347,740.205942,8142.265362
3786.689398,1608.800546,-0.000000,8512.368333
3786.689712,919.314598,-222.061783,9474.636058
3786.690027,229.828649,-518.144159,9992.780217
3786.690342,76.609550,-740.205942,10732.986159
3786.690656,-229.828649,-296.082377,9696.697840
3786.690971,-383.047749,444.123565,9696.697840
3786.691285,-153.219100,-0.000000,9548.656652
3786.691600,383.047749,-740.205942,10066.800811
3786.691915,0.000000,-592.164754,10140.821405
3786.692229,-153.219100,-0.000000,10066.800811
3786.692544,0.000000,222.061783,9474.636058
3786.692859,0.000000,296.082377,9178.553681
3786.693173,536.266849,296.082377,8956.491898
3786.693488,1225.752797,-222.061783,9030.512492
3786.693802,306.438199,-814.226536,9326.594869
3786.694117,0.000000,-296.082377,10140.821405
3786.694432,-689.485948,-0.000000,9622.677246
3786.694746,0.000000,148.041188,9548.656652
3786.695061,-459.657299,518.144159,9474.636058
3786.695376,-153.219100,-0.000000,9696.697840
3786.695690,-229.828649,-592.164754,9918.759623
3786.696005,-306.438199,-74.020594,9992.780217
3786.696319,0.000000,-0.000000,10288.862594
3786.696634,229.828649,740.205942,9622.677246
3786.696949,153.219100,1332.370696,8882.471304
3786.697263,766.095498,814.226536,8660.409521
3786.697578,1149.143247,296.082377,9474.636058
3786.697893,459.657299,-0.000000,9474.636058
3786.698207,-459.657299,-148.041188,10214.842000
3786.698522,-306.438199,222.061783,10140.821405
3786.698836,-306.438199,1110.308913,9548.656652
3786.699151,-459.657299,814.226536,9548.656652
3786.699466,153.219100,-0.000000,9400.615463
3786.699780,-229.828649,-740.205942,10214.842000
3786.700095,-919.314598,-296.082377,10288.862594
3786.700410,-612.876398,296.082377,10288.862594
3786.700724,-536.266849,666.185348,9474.636058
3786.701039,0.000000,740.205942,9178.553681
3786.701353,612.876398,1332.370696,8438.347739
3786.701668,1072.533697,666.185348,9104.533087
3786.701983,842.705048,444.123565,9770.718434
3786.702297,0.000000,962.267725,9992.780217
3786.702612,0.000000,814.226536,9918.759623
3786.702926,-536.266849,518.144159,9622.677246
3786.703241,-459.657299,592.164754,9844.739029
3786.703555,0.000000,-740.205942,9844.739029
3786.703870,-766.095498,-1110.308913,10510.924376
3786.704185,-536.266849,-666.185348,10881.027347
3786.704499,-536.266849,-74.020594,10510.924376
3786.704814,0.000000,962.267725,9622.677246
3786.705128,689.485948,1406.391290,9030.512492
3786.705443,1838.629195,814.226536,8438.347739
3786.705757,2604.724693,-370.102971,8364.327145
3786.706072,1532.190996,444.123565,9030.512492
3786.706386,1072.533697,296.082377,9326.594869
3786.706701,689.485948,592.164754,9104.533087
3786.707016,612.876398,444.123565,9474.636058
3786.707330,766.095498,-296.082377,9252.574275
3786.707645,612.876398,-814.226536,9992.780217
3786.707959,-383.047749,-1332.370696,10362.883188
3786.708274,-1072.533697,-1110.308913,11251.130318
3786.708588,-689.485948,-0.000000,10955.047942
3786.708903,0.000000,518.144159,10066.800811
3786.709218,536.266849,1184.329507,9252.574275
3786.709532,1302.362347,740.205942,9400.615463
3786.709847,1378.971896,518.144159,9104.533087
3786.710161,1302.362347,740.205942,9252.574275
3786.710476,689.485948,666.185348,9474.636058
3786.710790,459.657299,370.102971,9400.615463
3786.711105,76.609550,666.185348,8882.471304
3786.711420,459.657299,-0.000000,9104.533087
3786.711734,0.000000,-962.267725,9844.739029
3786.712049,-612.876398,-1258.350101,9844.739029
3786.712363,-1302.362347,-888.247130,10732.986159
3786.712678,-1378.971896,-888.247130,10362.883188
3786.712992,-1072.533697,-74.020594,9548.656652
3786.713307,0.000000,-0.000000,9474.636058
3786.713622,306.438199,-592.164754,9474.636058
3786.713936,306.438199,-0.000000,8808.450710
3786.714251,383.047749,-74.020594,9622.677246
3786.714565,306.438199,-74.020594,9178.553681
3786.714880,536.266849,-0.000000,9326.594869
3786.715194,306.438199,962.267725,8142.265362
3786.715509,689.485948,222.061783,8660.409521
3786.715824,689.485948,-0.000000,9770.718434
3786.716138,-383.047749,-740.205942,9918.759623
3786.716453,-842.705048,-888.247130,10214.842000
3786.716767,-1302.362347,-666.185348,9844.739029
3786.717082,-995.924147,-222.061783,9104.533087
3786.717396,0.000000,-74.020594,8586.388927
3786.717711,-76.609550,-444.123565,9030.512492
3786.718025,689.485948,-592.164754,9696.697840
3786.718340,-306.438199,-444.123565,10066.800811
3786.718655,0.000000,-370.102971,9844.739029
3786.718969,76.609550,666.185348,9696.697840
3786.719284,536.266849,1110.308913,8956.491898
3786.719598,1072.533697,1480.411884,9252.574275
3786.719913,766.095498,1036.288319,9030.512492
3786.720227,383.047749,740.205942,9622.677246
3786.720542,229.828649,1036.288319,9844.739029
3786.720857,-459.657299,814.226536,9548.656652
3786.721171,-306.438199,888.247130,9178.553681
3786.721486,76.609550,592.164754,9326.594869
3786.721800,306.438199,-222.061783,9992.780217
3786.722115,-383.047749,-222.061783,10584.944971
3786.722429,-536.266849,-148.041188,11103.089130
3786.722744,-383.047749,592.164754,10510.924376
3786.723059,-536.266849,1480.411884,9474.636058
3786.723373,76.609550,1480.411884,9918.759623
3786.723688,689.485948,1258.350101,8956.491898
3786.724002,1225.752797,962.267725,8808.450710
3786.724317,306.438199,962.267725,9844.739029
3786.724631,153.219100,592.164754,9622.677246
3786.724946,306.438199,740.205942,9696.697840
3786.725261,306.438199,1184.329507,9474.636058
3786.725575,842.705048,296.082377,9548.656652
3786.725890,612.876398,-444.123565,9992.780217
3786.726204,0.000000,-74.020594,10066.800811
3786.726519,-459.657299,-0.000000,11325.150913
3786.726833,0.000000,-0.000000,10584.944971
3786.727148,-153.219100,1110.308913,10140.821405
3786.727463,536.266849,1184.329507,9326.594869
3786.727777,842.705048,666.185348,9326.594869
3786.728092,1225.752797,296.082377,9696.697840
3786.728406,919.314598,-0.000000,10288.862594
3786.728721,383.047749,222.061783,9992.780217
3786.729035,689.485948,666.185348,9326.594869
3786.729350,612.876398,1110.308913,8956.491898
3786.729664,919.314598,-74.020594,9474.636058
3786.729979,689.485948,-222.061783,10362.883188
3786.730294,0.000000,-148.041188,10510.924376
3786.730608,-536.266849,-148.041188,10362.883188
3786.730923,-383.047749,-370.102971,9844.739029
3786.731237,0.000000,-0.000000,9622.677246
3786.731552,842.705048,-0.000000,8956.491898
3786.731866,612.876398,-0.000000,9104.533087
3786.732181,383.047749,-0.000000,9178.553681
3786.732496,0.000000,-0.000000,9844.739029
3786.732810,0.000000,148.041188,8808.450710
3786.733125,0.000000,-222.061783,9474.636058
3786.733439,383.047749,148.041188,8734.430116
3786.733754,306.438199,-518.144159,8586.388927
3786.734068,383.047749,-888.247130,9770.718434
3786.734383,-536.266849,-888.247130,10140.821405
3786.734698,-995.924147,-592.164754,9770.718434
3786.735012,-919.314598,-444.123565,9474.636058
3786.735327,-612.876398,-74.020594,9104.533087
3786.735641,0.000000,-0.000000,8882.471304
3786.735956,459.657299,-740.205942,8956.491898
3786.736270,0.000000,-592.164754,9474.636058
3786.736585,-459.657299,-740.205942,9548.656652
3786.736900,-383.047749,-296.082377,9104.533087
3786.737214,76.609550,-222.061783,9770.718434
3786.737529,536.266849,-0.000000,8956.491898
3786.737843,689.485948,-74.020594,9474.636058
3786.738158,306.438199,-0.000000,9104.533087
3786.738472,-229.828649,-296.082377,10288.862594
3786.738787,0.000000,-222.061783,10362.883188
3786.739102,-229.828649,-0.000000,9844.739029
3786.739416,0.000000,592.164754,9548.656652
3786.739731,306.438199,148.041188,8882.471304
3786.740045,229.828649,222.061783,9622.677246
3786.740360,0.000000,-0.000000,10362.883188
3786.740674,-153.219100,-222.061783,10288.862594
3786.740989,0.000000,-0.000000,10066.800811
3786.741303,-153.219100,1110.308913,9474.636058
3786.741618,383.047749,1110.308913,9252.574275
3786.741933,383.047749,370.102971,9474.636058
3786.742247,229.828649,-0.000000,9918.759623
3786.742562,0.000000,-0.000000,10658.965565
3786.742876,-153.219100,296.082377,9918.759623
3786.743191,-153.219100,592.164754,9844.739029
3786.743505,306.438199,1332.370696,9178.553681
3786.743820,459.657299,222.061783,9622.677246
3786.744135,229.828649,296.082377,9326.594869
3786.744449,229.828649,592.164754,10066.800811
3786.744764,-229.828649,370.102971,10214.842000
3786.745078,0.000000,740.205942,9918.759623
3786.745393,229.828649,1258.350101,8956.491898
3786.745707,306.438199,814.226536,8808.450710
3786.746022,153.219100,148.041188,8956.491898
3786.746337,0.000000,-0.000000,9992.780217
3786.746651,-536.266849,296.082377,9844.739029
3786.746966,-536.266849,-0.000000,10140.821405
3786.747280,-383.047749,1036.288319,9400.615463
3786.747595,383.047749,1258.350101,9178.553681
3786.747909,689.485948,370.102971,8956.491898
3786.748224,919.314598,-296.082377,9696.697840
3786.748539,459.657299,-74.020594,9474.636058
3786.748853,306.438199,518.144159,9326.594869
3786.749168,153.219100,1332.370696,9178.553681
3786.749482,229.828649,1110.308913,9178.553681
3786.749797,842.705048,222.061783,8808.450710
3786.750111,76.609550,-370.102971,9548.656652
3786.750426,-229.828649,-370.102971,10658.965565
3786.750741,-919.314598,-592.164754,10955.047942
3786.751055,-995.924147,-444.123565,10732.986159
3786.751370,-383.047749,296.082377,10658.965565
3786.751684,-306.438199,444.123565,9844.739029
3786.751999,459.657299,370.102971,9474.636058
3786.752313,919.314598,888.247130,9400.615463
3786.752628,306.438199,518.144159,9474.636058
3786.752942,919.314598,666.185348,8956.491898
3786.753257,0.000000,-0.000000,8216.285956
3786.753572,919.314598,740.205942,8438.347739
3786.753886,842.705048,-370.102971,9178.553681
3786.754201,0.000000,-888.247130,9770.718434
3786.754515,-919.314598,-888.247130,10881.027347
3786.754830,-1608.800546,-1258.350101,10510.924376
3786.755144,-1072.533697,-814.226536,11103.089130
3786.755459,-1149.143247,-0.000000,9770.718434
3786.755774,306.438199,592.164754,9474.636058
3786.756088,766.095498,-0.000000,9474.636058
3786.756403,1225.752797,370.102971,9326.594869
3786.756717,995.924147,666.185348,8808.450710
3786.757032,1149.143247,444.123565,8512.368333
3786.757346,1072.533697,740.205942,7920.203579
3786.757661,1149.143247,370.102971,8438.347739
3786.757976,995.924147,-1184.329507,8660.409521
3786.758290,306.438199,-1406.391290,9918.759623
3786.758605,-459.657299,-1258.350101,10807.006753
3786.758919,-1072.533697,-1332.370696,11325.150913
3786.759234,0.000000,-1036.288319,10732.986159
3786.759548,-459.657299,-148.041188,10288.862594
3786.759863,153.219100,370.102971,9178.553681
3786.760178,1378.971896,-148.041188,9030.512492
3786.760492,1149.143247,296.082377,9030.512492
3786.760807,1532.190996,370.102971,8586.388927
3786.761121,1685.410096,962.267725,8364.327145
3786.761436,995.924147,962.267725,8216.285956
3786.761750,995.924147,666.185348,8660.409521
3786.762065,766.095498,-296.082377,9770.718434
3786.762380,0.000000,-1036.288319,10510.924376
3786.762694,-1149.143247,-1184.329507,11399.171507
3786.763009,-1762.019645,-518.144159,10807.006753
3786.763323,-1532.190996,-222.061783,10955.047942
3786.763638,-1149.143247,370.102971,10807.006753
3786.763952,-612.876398,296.082377,9474.636058
3786.764267,153.219100,296.082377,9326.594869
3786.764581,229.828649,592.164754,9326.594869
3786.764896,842.705048,814.226536,9104.533087
3786.765211,1225.752797,1110.308913,8734.430116
3786.765525,689.485948,1184.329507,8216.285956
3786.765840,1532.190996,1110.308913,8364.327145
3786.766154,919.314598,518.144159,8586.388927
3786.766469,306.438199,-0.000000,9622.677246
3786.766783,-1072.533697,-296.082377,11029.068536
3786.767098,-1532.190996,-370.102971,10658.965565
3786.767413,-1532.190996,-222.061783,10436.903782
3786.767727,-1532.190996,518.144159,9622.677246
3786.768042,-459.657299,-74.020594,10066.800811
3786.768356,0.000000,-0.000000,9622.677246
3786.768671,0.000000,296.082377,9474.636058
3786.768985,689.485948,1036.288319,9696.697840
3786.769300,612.876398,814.226536,9326.594869
3786.769615,766.095498,1924.535449,8290.306550
3786.769929,1455.581446,1776.494261,8660.409521
3786.770244,1072.533697,740.205942,8808.450710
3786.770558,536.266849,-0.000000,10140.821405
3786.770873,-383.047749,370.102971,10140.821405
3786.771187,-842.705048,-222.061783,11029.068536
3786.771502,-1149.143247,222.061783,10658.965565
3786.771817,-1149.143247,-0.000000,10510.924376
3786.772131,-306.438199,-222.061783,10288.862594
3786.772446,-229.828649,-1036.288319,10584.944971
3786.772760,76.609550,-222.061783,10881.027347
3786.773075,229.828649,-0.000000,9918.759623
3786.773389,919.314598,1258.350101,8808.450710
3786.773704,919.314598,1850.514855,8808.450710
3786.774019,1532.190996,962.267725,8734.430116
3786.774333,1685.410096,296.082377,9030.512492
3786.774648,919.314598,-148.041188,9696.697840
3786.774962,383.047749,-296.082377,9992.780217
3786.775277,-612.876398,-592.164754,10288.862594
3786.775591,-919.314598,-0.000000,10214.842000
3786.775906,-536.266849,-444.123565,10288.862594
3786.776220,0.000000,-962.267725,10066.800811
3786.776535,383.047749,-1110.308913,9992.780217
3786.776850,76.609550,-962.267725,9696.697840
3786.777164,383.047749,-222.061783,9696.697840
3786.777479,842.705048,370.102971,8956.491898
3786.777793,842.705048,1258.350101,7698.141797
3786.778108,1608.800546,740.205942,7920.203579
3786.778422,1608.800546,-74.020594,8882.471304
3786.778737,612.876398,-222.061783,8956.491898
3786.779052,0.000000,-222.061783,9770.718434
3786.779366,-689.485948,-888.247130,9844.739029
3786.779681,-306.438199,-814.226536,9548.656652
3786.779995,-306.438199,-1036.288319,9474.636058
3786.780310,-383.047749,-1184.329507,9622.677246
3786.780624,-689.485948,-1258.350101,9696.697840
3786.780939,-689.485948,-518.144159,9918.759623
3786.781254,0.000000,148.041188,9104.533087
3786.781568,153.219100,1110.308913,8512.368333
3786.781883,1072.533697,1628.453072,8216.285956
3786.782197,1225.752797,1184.329507,8586.388927
3786.782512,995.924147,370.102971,8808.450710
3786.782826,76.609550,-148.041188,10066.800811
3786.783141,-306.438199,-148.041188,10362.883188
3786.783456,-995.924147,-222.061783,10140.821405
3786.783770,-919.314598,148.041188,10436.903782
3786.784085,-766.095498,-296.082377,10214.842000
3786.784399,-766.095498,-370.102971,10584.944971
3786.784714,-995.924147,-222.061783,10510.924376
3786.785028,-919.314598,-0.000000,10140.821405
3786.785343,-383.047749,370.102971,9548.656652
3786.785658,-153.219100,1184.329507,8808.450710
3786.785972,842.705048,888.247130,8734.430116
3786.786287,1302.362347,814.226536,9326.594869
3786.786601,919.314598,592.164754,9696.697840
3786.786916,-153.219100,740.205942,10288.862594
3786.787230,-306.438199,222.061783,10214.842000
3786.787545,-383.047749,296.082377,10658.965565
3786.787859,-306.438199,1110.308913,10362.883188
3786.788174,-612.876398,370.102971,10066.800811
3786.788489,-612.876398,-666.185348,10658.965565
3786.788803,-766.095498,-0.000000,10584.944971
3786.789118,-689.485948,740.205942,10362.883188
3786.789432,76.609550,740.205942,9992.780217
3786.789747,76.609550,1184.329507,9178.553681
3786.790061,1225.752797,1036.288319,8734.430116
3786.790376,1072.533697,370.102971,8734.430116
3786.790691,995.924147,370.102971,9474.636058
3786.791005,306.438199,-0.000000,9918.759623
3786.791320,-229.828649,-148.041188,9992.780217
3786.791634,0.000000,-0.000000,9548.656652
3786.791949,76.609550,296.082377,9474.636058
3786.792263,612.876398,-0.000000,9104.533087
3786.792578,689.485948,-74.020594,9474.636058
3786.792893,229.828649,-148.041188,9918.759623
3786.793207,153.219100,-0.000000,9622.677246
3786.793522,153.219100,-0.000000,9178.553681
3786.793836,995.924147,444.123565,9326.594869
3786.794151,1149.143247,370.102971,8882.471304
3786.794465,995.924147,-148.041188,9030.512492
3786.794780,536.266849,-666.185348,9548.656652
3786.795095,229.828649,-666.185348,10436.903782
3786.795409,0.000000,-222.061783,10140.821405
3786.795724,-383.047749,-0.000000,9696.697840
3786.796038,-229.828649,222.061783,9548.656652
3786.796353,229.828649,-518.144159,9474.636058
3786.796667,536.266849,-592.164754,9696.697840
3786.796982,229.828649,-1036.288319,9770.718434
3786.797297,306.438199,-0.000000,9622.677246
3786.797611,76.609550,666.185348,9178.553681
3786.797926,766.095498,1036.288319,8290.306550
3786.798240,1225.752797,518.144159,8438.347739
3786.798555,1225.752797,-518.144159,8586.388927
3786.798869,153.219100,-740.205942,9400.615463
3786.799184,-306.438199,-370.102971,9696.697840
3786.799498,-919.314598,-0.000000,9770.718434
3786.799813,-919.314598,592.164754,9252.574275
3786.800128,-459.657299,740.205942,9622.677246
3786.800442,-459.657299,-296.082377,9548.656652
3786.800757,-383.047749,-814.226536,10140.821405
3786.801071,-612.876398,-740.205942,10288.862594
3786.801386,0.000000,370.102971,10436.903782
3786.801706,-306.438199,1184.329507,9622.677246
3786.802021,229.828649,1406.391290,9030.512492
3786.802336,1149.143247,1184.329507,8734.430116
3786.802650,1149.143247,518.144159,8734.430116
3786.802965,919.314598,518.144159,9030.512492
3786.803280,0.000000,222.061783,9844.739029
3786.803595,-536.266849,444.123565,10066.800811
3786.803909,-766.095498,444.123565,9696.697840
3786.804224,-306.438199,-0.000000,9696.697840
3786.804539,-383.047749,-1702.473667,10140.821405
3786.804853,-689.485948,-740.205942,10807.006753
3786.805168,-766.095498,-444.123565,11251.130318
3786.805483,-459.657299,370.102971,10584.944971
3786.805797,-153.219100,962.267725,9844.739029
3786.806112,612.876398,1036.288319,9474.636058
3786.806427,1302.362347,1184.329507,8734.430116
3786.806742,1302.362347,814.226536,8882.471304
3786.807056,842.705048,814.226536,9770.718434
3786.807371,306.438199,592.164754,9844.739029
3786.807686,0.000000,296.082377,9770.718434
3786.808000,0.000000,592.164754,10214.842000
3786.808315,0.000000,222.061783,9770.718434
3786.808630,153.219100,-444.123565,10140.821405
3786.808944,-383.047749,-518.144159,10436.903782
3786.809259,-995.924147,-666.185348,10584.944971
3786.809574,0.000000,-148.041188,10140.821405
3786.809889,0.000000,444.123565,9400.615463
3786.810203,689.485948,592.164754,8734.430116
3786.810518,1225.752797,444.123565,8586.388927
3786.810833,995.924147,370.102971,8586.388927
3786.811147,612.876398,-0.000000,9104.533087
3786.811462,612.876398,-0.000000,9474.636058
3786.811777,0.000000,444.123565,9326.594869
3786.812091,383.047749,370.102971,9548.656652
3786.812406,459.657299,-296.082377,9326.594869
3786.812721,153.219100,-888.247130,9548.656652
3786.813036,-153.219100,-1036.288319,9844.739029
3786.813350,-689.485948,-740.205942,10140.821405
3786.813665,-76.609550,-370.102971,9178.553681
3786.813980,0.000000,222.061783,8734.430116
3786.814294,536.266849,-0.000000,8660.409521
3786.814609,1072.533697,-370.102971,8660.409521
3786.814924,919.314598,-296.082377,8364.327145
3786.815238,612.876398,-888.247130,9252.574275
3786.815553,76.609550,-148.041188,9918.759623
3786.815868,229.828649,-0.000000,9474.636058
3786.816183,0.000000,222.061783,9474.636058
3786.816497,229.828649,-0.000000,9548.656652
3786.816812,-306.438199,-74.020594,9622.677246
3786.817127,-459.657299,-0.000000,10214.842000
3786.817441,-383.047749,-0.000000,10436.903782
3786.817756,-536.266849,444.123565,10288.862594
3786.818071,-383.047749,1110.308913,9400.615463
3786.818385,383.047749,888.247130,8734.430116
3786.818700,842.705048,370.102971,9326.594869
3786.819015,-76.609550,-222.061783,9770.718434
3786.819330,-536.266849,-296.082377,10807.006753
3786.819644,-536.266849,-0.000000,10807.006753
3786.819959,-383.047749,296.082377,10214.842000
3786.820274,-229.828649,814.226536,9548.656652
3786.820588,0.000000,148.041188,9252.574275
3786.820903,306.438199,-0.000000,9918.759623
3786.821218,-229.828649,370.102971,9474.636058
3786.821532,-153.219100,592.164754,10140.821405
3786.821847,-229.828649,1110.308913,9474.636058
3786.822162,0.000000,962.267725,9030.512492
3786.822476,306.438199,592.164754,9252.574275
3786.822791,229.828649,-0.000000,9770.718434
3786.823106,0.000000,-148.041188,10732.986159
3786.823421,-766.095498,-222.061783,10732.986159
3786.823735,-459.657299,296.082377,10955.047942
3786.824050,-536.266849,592.164754,9770.718434
3786.824365,0.000000,1036.288319,9474.636058
3786.824679,536.266849,518.144159,9474.636058
3786.824994,229.828649,148.041188,9400.615463
3786.825309,536.266849,-148.041188,9622.677246
3786.825623,76.609550,296.082377,9326.594869
3786.825938,229.828649,370.102971,9030.512492
3786.826253,383.047749,296.082377,8512.368333
3786.826568,459.657299,-296.082377,9400.615463
3786.826882,612.876398,-592.164754,9770.718434
3786.827197,-306.438199,-740.205942,10436.903782
3786.827512,-459.657299,-444.123565,10436.903782
3786.827826,-153.219100,-0.000000,10140.821405
3786.828141,0.000000,740.205942,9400.615463
3786.828456,919.314598,1332.370696,8734.430116
3786.828770,1532.190996,296.082377,9030.512492
3786.829085,612.876398,-0.000000,9548.656652
3786.829400,536.266849,444.123565,9770.718434
3786.829715,153.219100,518.144159,9770.718434
3786.830029,0.000000,592.164754,9770.718434
3786.830344,459.657299,518.144159,8882.471304
3786.830659,1072.533697,-518.144159,9474.636058
3786.830973,612.876398,-518.144159,9918.759623
3786.831288,0.000000,-370.102971,10584.944971
3786.831603,-459.657299,222.061783,9844.739029
3786.831917,-306.438199,592.164754,9992.780217
3786.832232,-306.438199,148.041188,9548.656652
3786.832547,383.047749,444.123565,9030.512492
3786.832862,1072.533697,222.061783,9104.533087
3786.833176,612.876398,-222.061783,9252.574275
3786.833491,842.705048,-0.000000,8586.388927
3786.833806,306.438199,-0.000000,9770.718434
3786.834120,0.000000,222.061783,9770.718434
3786.834435,229.828649,370.102971,9178.553681
3786.834750,0.000000,-0.000000,9474.636058
3786.835064,0.000000,-888.247130,10140.821405
3786.835379,-919.314598,-814.226536,10955.047942
3786.835694,-995.924147,-370.102971,10658.965565
3786.836009,-995.924147,-370.102971,10214.842000
3786.836323,-153.219100,148.041188,9918.759623
3786.836638,306.438199,518.144159,9178.553681
3786.836953,459.657299,-74.020594,9326.594869
3786.837267,459.657299,-74.020594,9548.656652
3786.837582,153.219100,-0.000000,9844.739029
3786.837897,842.705048,-0.000000,8882.471304
3786.838211,689.485948,592.164754,8956.491898
3786.838526,919.314598,1110.308913,9030.512492
3786.838841,689.485948,-0.000000,9104.533087
3786.839156,306.438199,-0.000000,9622.677246
3786.839470,-459.657299,-296.082377,10140.821405
3786.839785,-1072.533697,-74.020594,10510.924376
3786.840100,-1072.533697,-74.020594,9918.759623
3786.840414,-842.705048,-0.000000,9696.697840
3786.840729,0.000000,-0.000000,9696.697840
3786.841044,0.000000,-0.000000,9548.656652
3786.841358,0.000000,-74.020594,10066.800811
3786.841673,76.609550,814.226536,10288.862594
3786.841988,229.828649,1628.453072,9474.636058
3786.842303,842.705048,2072.576638,8734.430116
3786.842617,919.314598,1998.556043,7994.224174
3786.842932,1302.362347,814.226536,8808.450710
3786.843247,383.047749,-0.000000,9178.553681
3786.843561,-383.047749,-296.082377,10214.842000
3786.843876,-1532.190996,-518.144159,10288.862594
3786.844191,-1378.971896,-148.041188,10436.903782
3786.844505,-1302.362347,296.082377,10066.800811
3786.844820,-383.047749,-444.123565,10807.006753
3786.845135,0.000000,-296.082377,9770.718434
3786.845450,0.000000,222.061783,9696.697840
3786.845764,306.438199,296.082377,9622.677246
3786.846079,1149.143247,1258.350101,8882.471304
3786.846394,1225.752797,1628.453072,8512.368333
3786.846708,1685.410096,1702.473667,7550.100608
3786.847023,1608.800546,296.082377,8512.368333
3786.847338,995.924147,296.082377,9696.697840
3786.847652,153.219100,-296.082377,10214.842000
3786.847967,-76.609550,-74.020594,10881.027347
3786.848282,-919.314598,-296.082377,10807.006753
3786.848596,-919.314598,-0.000000,9992.780217
3786.848911,229.828649,-740.205942,10807.006753
3786.849226,0.000000,-222.061783,10288.862594
3786.849541,229.828649,-222.061783,10510.924376
3786.849855,306.438199,518.144159,9400.615463
3786.850170,612.876398,1110.308913,8660.409521
3786.850485,1455.581446,2368.659014,8364.327145
3786.850799,995.924147,518.144159,8808.450710
3786.851114,1149.143247,-0.000000,9104.533087
3786.851429,0.000000,-518.144159,10214.842000
3786.851743,-383.047749,-888.247130,10362.883188
3786.852058,-766.095498,-1036.288319,11325.150913
3786.852373,-536.266849,-0.000000,11103.089130
3786.852688,-459.657299,-74.020594,10362.883188
3786.853002,0.000000,-222.061783,9474.636058
3786.853317,459.657299,-222.061783,9918.759623
3786.853632,306.438199,-0.000000,9178.553681
3786.853946,1149.143247,-0.000000,8660.409521
3786.854261,1149.143247,518.144159,8438.347739
3786.854576,995.924147,444.123565,7550.100608
3786.854890,1455.581446,-74.020594,7846.182985
3786.855205,1302.362347,-518.144159,8882.471304
3786.855520,0.000000,-1628.453072,10140.821405
3786.855835,-383.047749,-962.267725,10732.986159
3786.856149,-995.924147,-444.123565,10362.883188
3786.856464,-1149.143247,-222.061783,10436.903782
3786.856779,-842.705048,-222.061783,9622.677246
3786.857093,153.219100,-592.164754,9326.594869
3786.857408,229.828649,-518.144159,8956.491898
3786.857723,306.438199,-370.102971,8956.491898
3786.858037,612.876398,444.123565,8734.430116
3786.858352,536.266849,444.123565,7550.100608
3786.858667,689.485948,814.226536,7994.224174
3786.858982,842.705048,-74.020594,8808.450710
3786.859296,153.219100,-740.205942,8956.491898
3786.859611,-306.438199,-1036.288319,10362.883188
3786.859926,-1149.143247,-1332.370696,10881.027347
3786.860240,-1915.238745,-888.247130,10955.047942
3786.860555,-1225.752797,-0.000000,9992.780217
3786.860870,76.609550,222.061783,9474.636058
3786.861184,536.266849,-74.020594,9104.533087
3786.861499,153.219100,740.205942,9400.615463
3786.861814,153.219100,740.205942,8956.491898
3786.862129,383.047749,740.205942,9104.533087
3786.862443,383.047749,888.247130,9104.533087
3786.862758,383.047749,888.247130,8290.306550
3786.863073,306.438199,370.102971,9696.697840
3786.863387,-229.828649,-222.061783,10807.006753
3786.863702,-1149.143247,-444.123565,11547.212695
3786.864017,-1302.362347,-74.020594,11399.171507
3786.864331,-919.314598,666.185348,11325.150913
3786.864646,-383.047749,1924.535449,10140.821405
3786.864961,76.609550,1924.535449,9770.718434
3786.865276,612.876398,1184.329507,9474.636058
3786.865590,1225.752797,814.226536,9622.677246
3786.865905,919.314598,814.226536,9474.636058
3786.866220,689.485948,962.267725,9400.615463
3786.866534,612.876398,1258.350101,9548.656652
3786.866849,766.095498,1110.308913,8882.471304
3786.867164,612.876398,370.102971,9548.656652
3786.867478,76.609550,-296.082377,10436.903782
3786.867793,-536.266849,-148.041188,11029.068536
3786.868108,-995.924147,-0.000000,10436.903782
3786.868423,-995.924147,74.020594,10584.944971
3786.868737,-306.438199,814.226536,10214.842000
3786.869052,153.219100,518.144159,9992.780217
3786.869367,766.095498,444.123565,9400.615463
3786.869681,919.314598,222.061783,9474.636058
3786.869996,1072.533697,666.185348,9622.677246
3786.870311,1455.581446,814.226536,9030.512492
3786.870625,689.485948,1184.329507,8956.491898
3786.870940,919.314598,814.226536,9030.512492
3786.871255,766.095498,-0.000000,9326.594869
3786.871570,0.000000,-518.144159,9696.697840
3786.871884,-536.266849,-1036.288319,10510.924376
3786.872199,-1072.533697,-962.267725,10436.903782
3786.872514,-1762.019645,-518.144159,9918.759623
3786.872828,-919.314598,-148.041188,10214.842000
3786.873143,0.000000,-1110.308913,9400.615463
3786.873458,153.219100,-1110.308913,9104.533087
3786.873772,459.657299,-666.185348,9326.594869
3786.874087,229.828649,-370.102971,9696.697840
3786.874402,612.876398,518.144159,8660.409521
3786.874716,1302.362347,814.226536,7920.203579
3786.875031,1225.752797,1184.329507,8290.306550
3786.875346,1762.019645,-0.000000,8290.306550
3786.875661,536.266849,-370.102971,9104.533087
3786.875975,-153.219100,-1036.288319,9622.677246
3786.876290,-689.485948,-888.247130,10510.924376
3786.876605,-1072.533697,-666.185348,9622.677246
3786.876919,-612.876398,-592.164754,9474.636058
3786.877234,-383.047749,-740.205942,9918.759623
3786.877549,0.000000,-1480.411884,9474.636058
3786.877863,0.000000,-740.205942,9474.636058
3786.878178,76.609550,-592.164754,9622.677246
3786.878493,459.657299,666.185348,9104.533087
3786.878808,766.095498,1554.432478,7920.203579
3786.879122,1378.971896,1184.329507,7550.100608
3786.879437,1072.533697,-0.000000,8290.306550
3786.879752,383.047749,-74.020594,9326.594869
3786.880066,153.219100,-370.102971,9992.780217
3786.880381,-766.095498,-592.164754,10140.821405
3786.880696,-1072.533697,-148.041188,10436.903782
3786.881010,-1072.533697,-0.000000,10584.944971
3786.881325,-536.266849,-222.061783,10658.965565
3786.881640,-766.095498,-888.247130,11029.068536
3786.881955,-689.485948,-0.000000,10584.944971
3786.882269,0.000000,370.102971,9918.759623
3786.882584,229.828649,1406.391290,9252.574275
3786.882899,766.095498,1628.453072,8808.450710
3786.883213,1455.581446,1258.350101,8512.368333
3786.883528,1762.019645,518.144159,8956.491898
3786.883843,995.924147,296.082377,9844.739029
3786.884157,76.609550,296.082377,10066.800811
3786.884472,-536.266849,962.267725,9548.656652
3786.884787,-153.219100,962.267725,10288.862594
3786.885102,-766.095498,370.102971,10140.821405
3786.885416,-459.657299,-222.061783,10362.883188
3786.885731,-766.095498,-740.205942,10658.965565
3786.886046,-1072.533697,-0.000000,10658.965565
3786.886360,-229.828649,592.164754,10436.903782
3786.886675,-383.047749,1628.453072,9474.636058
3786.886990,383.047749,1480.411884,8512.368333
3786.887304,1838.629195,666.185348,8808.450710
3786.887619,1072.533697,370.102971,8882.471304
3786.887934,306.438199,-0.000000,9770.718434
3786.888249,0.000000,148.041188,9770.718434
3786.888563,0.000000,296.082377,9918.759623
3786.888878,0.000000,962.267725,9918.759623
3786.889193,0.000000,444.123565,9770.718434
3786.889507,229.828649,-148.041188,9844.739029
3786.889822,0.000000,-74.020594,9770.718434
3786.890137,-229.828649,-74.020594,9992.780217
3786.890451,-76.609550,518.144159,9178.553681
3786.890766,0.000000,740.205942,8734.430116
3786.891081,459.657299,1110.308913,7994.224174
3786.891396,995.924147,-0.000000,8512.368333
3786.891710,689.485948,-888.247130,9474.636058
3786.892025,153.219100,-0.000000,9918.759623
3786.892340,-153.219100,-0.000000,10140.821405
3786.892654,-306.438199,666.185348,9622.677246
3786.892969,-459.657299,814.226536,9252.574275
3786.893284,76.609550,-0.000000,9400.615463
3786.893598,306.438199,-518.144159,10436.903782
3786.893913,76.609550,-592.164754,10066.800811
3786.894228,0.000000,-74.020594,9548.656652
3786.894543,76.609550,-0.000000,9474.636058
3786.894857,612.876398,222.061783,8364.327145
3786.895172,1149.143247,370.102971,8438.347739
3786.895487,1225.752797,-592.164754,8734.430116
3786.895801,612.876398,-1480.411884,9992.780217
3786.896116,229.828649,-592.164754,9770.718434
3786.896431,-306.438199,-518.144159,10066.800811
3786.896745,0.000000,-0.000000,9696.697840
3786.897060,-306.438199,222.061783,9474.636058
3786.897375,229.828649,-444.123565,9622.677246
3786.897690,459.657299,-1184.329507,10288.862594
3786.898004,76.609550,-444.123565,10140.821405
3786.898319,0.000000,-74.020594,9992.780217
3786.898634,76.609550,296.082377,9474.636058
3786.898948,306.438199,962.267725,9252.574275
3786.899263,1072.533697,-370.102971,9030.512492
3786.899578,1149.143247,-222.061783,9474.636058
3786.899892,536.266849,-370.102971,9474.636058
3786.900207,306.438199,-296.082377,9992.780217
3786.900522,-689.485948,-0.000000,9918.759623
3786.900836,-459.657299,444.123565,9548.656652
3786.901151,-229.828649,370.102971,9474.636058
3786.901466,153.219100,-148.041188,9474.636058
3786.901781,-383.047749,-444.123565,10362.883188
3786.902095,-536.266849,-222.061783,10140.821405
3786.902410,-1302.362347,222.061783,9696.697840
3786.902725,-306.438199,1036.288319,9622.677246
3786.903039,0.000000,888.247130,9178.553681
3786.903354,766.095498,888.247130,9178.553681
3786.903668,1149.143247,814.226536,8808.450710
3786.903983,229.828649,666.185348,9178.553681
3786.904298,0.000000,666.185348,9622.677246
3786.904612,-612.876398,518.144159,9474.636058
3786.904927,-842.705048,1036.288319,9104.533087
3786.905242,-383.047749,592.164754,9252.574275
3786.905556,76.609550,-222.061783,9622.677246
3786.905871,-229.828649,-1036.288319,10436.903782
3786.906186,-919.314598,-592.164754,10658.965565
3786.906500,-1149.143247,-0.000000,10584.944971
3786.906815,-383.047749,666.185348,9770.718434
3786.907130,306.438199,1332.370696,9178.553681
3786.907444,1532.190996,370.102971,9104.533087
3786.907759,1532.190996,962.267725,8734.430116
3786.908073,689.485948,592.164754,8956.491898
3786.908388,383.047749,222.061783,8808.450710
3786.908703,766.095498,518.144159,9474.636058
3786.909017,0.000000,370.102971,9918.759623
3786.909332,0.000000,-0.000000,9252.574275
3786.909647,0.000000,-666.185348,10288.862594
3786.909961,-459.657299,-444.123565,10510.924376
3786.910276,-842.705048,-222.061783,11029.068536
3786.910591,0.000000,-0.000000,10658.965565
3786.910905,689.485948,1184.329507,10066.800811
3786.911220,842.705048,1628.453072,9030.512492
3786.911535,1838.629195,1110.308913,8808.450710
3786.911849,1608.800546,1036.288319,8956.491898
3786.912164,1225.752797,1036.288319,9548.656652
3786.912478,1072.533697,444.123565,9252.574275
3786.912793,306.438199,518.144159,9400.615463
3786.913108,0.000000,222.061783,9252.574275
3786.913422,459.657299,-0.000000,9474.636058
3786.913737,-153.219100,-518.144159,9474.636058
3786.914052,-383.047749,-962.267725,10732.986159
3786.914366,-766.095498,-518.144159,11325.150913
3786.914681,-995.924147,-74.020594,9844.739029
3786.914996,-383.047749,740.205942,9474.636058
3786.915310,383.047749,444.123565,9326.594869
3786.915625,1149.143247,370.102971,8956.491898
3786.915939,1225.752797,518.144159,8882.471304
3786.916254,536.266849,666.185348,9474.636058
3786.916569,536.266849,296.082377,10140.821405
3786.916883,306.438199,-0.000000,9770.718434
3786.917198,0.000000,740.205942,9030.512492
3786.917513,0.000000,-592.164754,9548.656652
3786.917827,-459.657299,-1406.391290,9696.697840
3786.918142,-689.485948,-1332.370696,10362.883188
3786.918457,-689.485948,-962.267725,10362.883188
3786.918771,-842.705048,-444.123565,9696.697840
3786.919086,-459.657299,-0.000000,8808.450710
3786.919401,459.657299,370.102971,8586.388927
3786.919715,919.314598,-0.000000,8438.347739
3786.920030,459.657299,-592.164754,9104.533087
3786.920344,612.876398,-740.205942,9326.594869
3786.920659,76.609550,-296.082377,9400.615463
3786.920974,153.219100,370.102971,9326.594869
3786.921288,306.438199,740.205942,8956.491898
3786.921603,306.438199,296.082377,9252.574275
3786.921918,76.609550,-222.061783,9400.615463
3786.922232,-306.438199,-0.000000,9770.718434
3786.922547,-383.047749,-0.000000,9696.697840
3786.922862,-229.828649,-148.041188,9844.739029
3786.923176,-842.705048,518.144159,9548.656652
3786.923491,-536.266849,-0.000000,9474.636058
3786.923806,-306.438199,-296.082377,9844.739029
3786.924120,-459.657299,-444.123565,10140.821405
3786.924435,-383.047749,-222.061783,10658.965565
3786.924749,-459.657299,-0.000000,10362.883188
3786.925064,0.000000,1036.288319,9548.656652
3786.925379,306.438199,1554.432478,8808.450710
3786.925693,1072.533697,444.123565,8956.491898
3786.926008,1072.533697,222.061783,9474.636058
3786.926323,536.266849,444.123565,9474.636058
3786.926637,459.657299,740.205942,9474.636058
3786.926952,76.609550,444.123565,9326.594869
3786.927267,0.000000,518.144159,9622.677246
3786.927581,76.609550,-148.041188,9844.739029
3786.927896,0.000000,-814.226536,10214.842000
3786.928210,-689.485948,-888.247130,10955.047942
3786.928525,-919.314598,-0.000000,11251.130318
3786.928840,229.828649,518.144159,10732.986159
3786.929154,766.095498,1554.432478,9992.780217
3786.929469,1225.752797,1258.350101,8956.491898
3786.929784,1838.629195,1110.308913,8808.450710
3786.930098,1608.800546,814.226536,9252.574275
3786.930413,1455.581446,666.185348,9696.697840
3786.930728,766.095498,444.123565,9770.718434
3786.931042,842.705048,962.267725,9400.615463
3786.931357,383.047749,666.185348,9178.553681
3786.931672,459.657299,-444.123565,9696.697840
3786.931986,919.314598,-1036.288319,10658.965565
3786.932301,-536.266849,-1184.329507,11621.233289
3786.932615,-995.924147,-1036.288319,11177.109724
3786.932930,-459.657299,-0.000000,10066.800811
3786.933245,-383.047749,1110.308913,9474.636058
3786.933559,459.657299,666.185348,9474.636058
3786.933874,1149.143247,370.102971,8956.491898
3786.934189,842.705048,-74.020594,9474.636058
3786.934503,229.828649,-0.000000,9326.594869
3786.934818,153.219100,370.102971,9474.636058
3786.935133,-306.438199,518.144159,9400.615463
3786.935447,0.000000,666.185348,9178.553681
3786.935762,0.000000,-0.000000,9474.636058
3786.936077,-383.047749,-740.205942,9992.780217
3786.936391,-995.924147,-740.205942,10066.800811
3786.936706,-1149.143247,-518.144159,9992.780217
3786.937020,-919.314598,-0.000000,9252.574275
3786.937335,-536.266849,888.247130,8660.409521
3786.937650,229.828649,888.247130,8068.244768
3786.937964,383.047749,-518.144159,8734.430116
3786.938279,842.705048,-518.144159,9474.636058
3786.938594,0.000000,-370.102971,9178.553681
3786.938908,0.000000,222.061783,9252.574275
3786.939223,0.000000,814.226536,8956.491898
3786.939538,229.828649,740.205942,8882.471304
3786.939852,766.095498,-148.041188,8808.450710
3786.940167,0.000000,-740.205942,9400.615463
3786.940481,-612.876398,-444.123565,9844.739029
3786.940796,-689.485948,-444.123565,10066.800811
3786.941111,-1149.143247,-74.020594,9992.780217
3786.941425,-689.485948,444.123565,9918.759623
3786.941740,-383.047749,-296.082377,9696.697840
3786.942055,306.438199,-592.164754,9622.677246
3786.942369,612.876398,-740.205942,9992.780217
3786.942684,383.047749,-0.000000,10214.842000
3786.942999,459.657299,814.226536,9326.594869
3786.943313,459.657299,1332.370696,9178.553681
3786.943628,766.095498,1480.411884,8660.409521
3786.943943,995.924147,444.123565,8882.471304
3786.944257,612.876398,-148.041188,9474.636058
3786.944572,0.000000,-592.164754,10732.986159
3786.944886,-689.485948,-0.000000,10584.944971
3786.945201,-1225.752797,-0.000000,10584.944971
3786.945516,-612.876398,-0.000000,10436.903782
3786.945830,306.438199,-592.164754,10658.965565
3786.946145,229.828649,-296.082377,10732.986159
3786.946460,383.047749,296.082377,10066.800811
3786.946774,459.657299,666.185348,9770.718434
3786.947089,766.095498,1628.453072,9178.553681
3786.947404,1302.362347,1628.453072,8586.388927
3786.947718,1532.190996,962.267725,8364.327145
3786.948033,1225.752797,-148.041188,9104.533087
3786.948348,689.485948,-370.102971,9326.594869
3786.948662,0.000000,-740.205942,10214.842000
3786.948977,-459.657299,-74.020594,10436.903782
3786.949291,-383.047749,-148.041188,10510.924376
3786.949606,-306.438199,222.061783,9696.697840
3786.949921,306.438199,-74.020594,9622.677246
3786.950235,383.047749,-518.144159,9770.718434
3786.950550,229.828649,-222.061783,9770.718434
3786.950865,689.485948,1036.288319,8882.471304
3786.951179,689.485948,1406.391290,8512.368333
3786.951494,612.876398,1480.411884,8068.244768
3786.951809,1149.143247,296.082377,8438.347739
3786.952123,1378.971896,-296.082377,9326.594869
3786.952438,0.000000,-666.185348,9844.739029
3786.952752,-306.438199,-666.185348,10140.821405
3786.953067,-995.924147,-888.247130,10732.986159
3786.953382,-1072.533697,-74.020594,10510.924376
3786.953696,-383.047749,148.041188,9548.656652
3786.954011,0.000000,-444.123565,9622.677246
3786.954326,-459.657299,-518.144159,9474.636058
3786.954640,306.438199,-0.000000,9696.697840
3786.954955,536.266849,814.226536,8586.388927
3786.955270,766.095498,1110.308913,8290.306550
3786.955584,995.924147,1184.329507,8142.265362
3786.955899,1302.362347,222.061783,8216.285956
3786.956214,1149.143247,-74.020594,8956.491898
3786.956528,153.219100,-518.144159,10288.862594
3786.956843,-383.047749,-444.123565,10955.047942
3786.957157,-612.876398,-148.041188,10362.883188
3786.957472,-1072.533697,592.164754,10436.903782
3786.957787,-383.047749,518.144159,10214.842000
3786.958101,-306.438199,-0.000000,9696.697840
3786.958416,-306.438199,-444.123565,9474.636058
3786.958731,-153.219100,-0.000000,9474.636058
3786.959045,0.000000,296.082377,9326.594869
3786.959360,76.609550,518.144159,8142.265362
3786.959675,306.438199,888.247130,8290.306550
3786.959989,842.705048,148.041188,9696.697840
3786.960304,76.609550,-74.020594,9696.697840
3786.960619,-306.438199,-444.123565,10362.883188
3786.960933,-153.219100,148.041188,10436.903782
3786.961248,-536.266849,222.061783,11251.130318
3786.961562,-306.438199,1036.288319,10066.800811
3786.961877,76.609550,1110.308913,9548.656652
3786.962192,536.266849,666.185348,9178.553681
3786.962506,306.438199,-0.000000,9326.594869
3786.962821,383.047749,370.102971,9548.656652
3786.963136,76.609550,370.102971,9400.615463
3786.963450,306.438199,592.164754,8586.388927
3786.963765,306.438199,814.226536,9474.636058
3786.964080,612.876398,-0.000000,10140.821405
3786.964394,0.000000,-370.102971,10510.924376
3786.964709,-306.438199,-592.164754,10658.965565
3786.965023,-459.657299,-518.144159,10732.986159
3786.965338,0.000000,370.102971,10584.944971
3786.965653,0.000000,1184.329507,10362.883188
3786.965967,1072.533697,1332.370696,9104.533087
3786.966282,1455.581446,296.082377,9474.636058
3786.966597,1225.752797,-0.000000,9178.553681
3786.966911,536.266849,-592.164754,9326.594869
3786.967226,383.047749,-370.102971,8882.471304
3786.967541,383.047749,-0.000000,9696.697840
3786.967855,153.219100,888.247130,8142.265362
3786.968170,229.828649,-814.226536,9696.697840
3786.968485,0.000000,-740.205942,10362.883188
3786.968799,-1225.752797,-1184.329507,11029.068536
3786.969114,-842.705048,-370.102971,11029.068536
3786.969428,-1072.533697,-0.000000,10288.862594
3786.969743,-383.047749,1110.308913,9696.697840
3786.970058,536.266849,1258.350101,8956.491898
3786.970372,995.924147,444.123565,9030.512492
3786.970687,919.314598,74.020594,9400.615463
3786.971002,689.485948,-0.000000,8956.491898
3786.971316,612.876398,814.226536,8734.430116
3786.971631,766.095498,666.185348,8438.347739
3786.971946,612.876398,518.144159,8364.327145
3786.972260,842.705048,-518.144159,9178.553681
3786.972575,-153.219100,-1184.329507,9474.636058
3786.972889,-1149.143247,-1406.391290,10362.883188
3786.973204,-1302.362347,-1554.432478,10214.842000
3786.973519,-1302.362347,-370.102971,9696.697840
3786.973833,-612.876398,444.123565,9474.636058
3786.974148,229.828649,222.061783,9252.574275
3786.974463,766.095498,-222.061783,9326.594869
3786.974777,612.876398,-0.000000,9918.759623
3786.975092,689.485948,-0.000000,9622.677246
3786.975407,689.485948,1184.329507,8512.368333
3786.975721,919.314598,1998.556043,8068.244768
3786.976036,1378.971896,1332.370696,7994.224174
3786.976351,1072.533697,518.144159,9400.615463
3786.976665,612.876398,-370.102971,9770.718434
3786.976980,-1149.143247,-888.247130,10362.883188
3786.977294,-1838.629195,-814.226536,10584.944971
3786.977609,-1991.848295,-370.102971,11251.130318
3786.977924,-1762.019645,-74.020594,10362.883188
3786.978238,-766.095498,-444.123565,10584.944971
3786.978553,-459.657299,-74.020594,10436.903782
3786.978868,-229.828649,-74.020594,9992.780217
3786.979182,229.828649,444.123565,9622.677246
3786.979497,689.485948,1702.473667,8734.430116
3786.979812,153.219100,1702.473667,7994.224174
3786.980126,1455.581446,1628.453072,7624.121203
3786.980441,1455.581446,666.185348,8586.388927
3786.980756,76.609550,-0.000000,9770.718434
3786.981070,-536.266849,-592.164754,10584.944971
3786.981385,-1302.362347,-518.144159,10807.006753
3786.981699,-1608.800546,-148.041188,10584.944971
3786.982014,-919.314598,-148.041188,10436.903782
3786.982329,-766.095498,-666.185348,10436.903782
3786.982643,0.000000,-592.164754,10066.800811
3786.982958,-153.219100,-148.041188,9696.697840
3786.983273,459.657299,1036.288319,9030.512492
3786.983587,1455.581446,1332.370696,9030.512492
3786.983902,1685.410096,2368.659014,7105.977043
3786.984217,2681.334243,1332.370696,7328.038826
3786.984531,1838.629195,296.082377,8438.347739
3786.984846,689.485948,-296.082377,9622.677246
3786.985160,229.828649,-222.061783,10214.842000
3786.985475,-612.876398,-222.061783,10436.903782
3786.985790,-536.266849,148.041188,10362.883188
3786.986104,-306.438199,-518.144159,9770.718434
3786.986419,76.609550,-518.144159,9844.739029
3786.986734,153.219100,-592.164754,10288.862594
3786.987048,383.047749,-222.061783,10362.883188
3786.987363,1455.581446,592.164754,9918.759623
3786.987678,1072.533697,1258.350101,8364.327145
3786.987992,1915.238745,1554.432478,7994.224174
3786.988307,2298.286494,888.247130,7994.224174
3786.988622,1302.362347,-74.020594,9178.553681
3786.988936,612.876398,-222.061783,10584.944971
3786.989251,229.828649,-0.000000,10066.800811
3786.989565,-536.266849,-74.020594,10066.800811
3786.989880,-995.924147,-0.000000,9844.739029
3786.990195,-383.047749,-0.000000,9770.718434
3786.990509,0.000000,-1184.329507,10807.006753
3786.990824,-766.095498,-740.205942,10955.047942
3786.991139,-459.657299,-74.020594,9992.780217
3786.991453,0.000000,592.164754,9844.739029
3786.991768,459.657299,962.267725,9400.615463
3786.992083,1149.143247,962.267725,8512.368333
3786.992397,1225.752797,222.061783,8512.368333
3786.992712,766.095498,-222.061783,9474.636058
3786.993027,0.000000,-296.082377,9844.739029
3786.993341,-612.876398,-222.061783,10881.027347
3786.993656,-1149.143247,-0.000000,10288.862594
3786.993970,-536.266849,518.144159,9696.697840
3786.994285,0.000000,-222.061783,10066.800811
3786.994600,-229.828649,-444.123565,10362.883188
3786.994914,-383.047749,-222.061783,9548.656652
3786.995229,-306.438199,-148.041188,9844.739029
3786.995544,-995.924147,-74.020594,9326.594869
3786.995858,76.609550,518.144159,9178.553681
3786.996173,536.266849,518.144159,8882.471304
3786.996488,919.314598,-148.041188,9400.615463
3786.996802,383.047749,-370.102971,10214.842000
3786.997117,0.000000,-74.020594,10140.821405
3786.997431,-612.876398,-222.061783,9918.759623
3786.997746,-306.438199,444.123565,10214.842000
3786.998061,306.438199,370.102971,9622.677246
3786.998375,153.219100,-0.000000,9400.615463
3786.998690,383.047749,-222.061783,9474.636058
3786.999005,0.000000,-444.123565,9844.739029
3786.999319,0.000000,-222.061783,9474.636058
3786.999634,0.000000,222.061783,9474.636058
3786.999949,306.438199,962.267725,8808.450710
3787.000263,919.314598,592.164754,8660.409521
3787.000578,612.876398,-148.041188,8586.388927
3787.000893,689.485948,-444.123565,9844.739029
3787.001207,-383.047749,-0.000000,10066.800811
3787.001522,-612.876398,-0.000000,9844.739029
3787.001836,-536.266849,888.247130,9104.533087
3787.002151,-229.828649,1406.391290,9474.636058
3787.002466,306.438199,666.185348,9548.656652
3787.002780,-383.047749,-148.041188,10140.821405
3787.003095,-153.219100,148.041188,10584.944971
3787.003410,-153.219100,740.205942,9918.759623
3787.003724,0.000000,740.205942,9178.553681
3787.004039,229.828649,962.267725,9104.533087
3787.004354,1149.143247,814.226536,8364.327145
3787.004669,1149.143247,296.082377,9030.512492
3787.004983,612.876398,-222.061783,9474.636058
3787.005298,0.000000,370.102971,9844.739029
3787.005613,-229.828649,592.164754,9548.656652
3787.005927,-383.047749,740.205942,8808.450710
3787.006242,-153.219100,518.144159,9622.677246
3787.006557,153.219100,-666.185348,9622.677246
3787.006871,0.000000,-740.205942,10584.944971
3787.007186,0.000000,-444.123565,11177.109724
3787.007501,76.609550,1036.288319,10140.821405
3787.007816,536.266849,962.267725,9918.759623
3787.008130,842.705048,1850.514855,9030.512492
3787.008445,1378.971896,962.267725,9030.512492
3787.008760,1302.362347,666.185348,9326.594869
3787.009074,766.095498,444.123565,10436.903782
3787.009389,0.000000,518.144159,9696.697840
3787.009704,-459.657299,-74.020594,10288.862594
3787.010018,-383.047749,370.102971,9696.697840
3787.010333,-229.828649,-148.041188,9918.759623
3787.010648,0.000000,-296.082377,9918.759623
3787.010963,0.000000,-740.205942,11177.109724
3787.011277,-842.705048,-222.061783,10288.862594
3787.011592,-306.438199,296.082377,10362.883188
3787.011907,-153.219100,1406.391290,9178.553681
3787.012221,459.657299,1554.432478,9474.636058
3787.012536,1455.581446,814.226536,8586.388927
3787.012851,1072.533697,-0.000000,8956.491898
3787.013165,612.876398,-74.020594,9548.656652
3787.013480,0.000000,-370.102971,9474.636058
3787.013795,-536.266849,148.041188,9622.677246
3787.014110,-689.485948,296.082377,9918.759623
3787.014424,-536.266849,-0.000000,9400.615463
3787.014739,-306.438199,-1184.329507,9992.780217
3787.015054,-383.047749,-1554.432478,10436.903782
3787.015368,-1072.533697,-1184.329507,10807.006753
3787.015683,-919.314598,-666.185348,9548.656652
3787.015998,-536.266849,740.205942,9326.594869
3787.016312,459.657299,1554.432478,8808.450710
3787.016627,1608.800546,-0.000000,8512.368333
3787.016942,1225.752797,-148.041188,8438.347739
3787.017257,766.095498,-740.205942,9474.636058
3787.017571,76.609550,-370.102971,9474.636058
3787.017886,-306.438199,-592.164754,9696.697840
3787.018201,229.828649,370.102971,9178.553681
3787.018515,0.000000,-370.102971,9178.553681
3787.018830,0.000000,-1036.288319,9326.594869
3787.019145,0.000000,-1406.391290,10362.883188
3787.019459,0.000000,-888.247130,10066.800811
3787.019774,-536.266849,-222.061783,9622.677246
3787.020089,-229.828649,222.061783,9178.553681
3787.020404,76.609550,-0.000000,9104.533087
3787.020718,1149.143247,-370.102971,8882.471304
3787.021033,995.924147,-370.102971,9400.615463
3787.021348,229.828649,-370.102971,9992.780217
3787.021662,459.657299,-0.000000,9696.697840
3787.021977,766.095498,888.247130,9548.656652
3787.022292,536.266849,1702.473667,9104.533087
3787.022606,1072.533697,1110.308913,8956.491898
3787.022921,919.314598,-0.000000,9104.533087
3787.023236,76.609550,-666.185348,9696.697840
3787.023551,-459.657299,-370.102971,10732.986159
3787.023865,-766.095498,296.082377,10362.883188
3787.024180,-383.047749,888.247130,9400.615463
3787.024495,-229.828649,740.205942,9178.553681
3787.024809,306.438199,-148.041188,10066.800811
3787.025124,0.000000,-0.000000,9844.739029
3787.025439,-536.266849,-148.041188,10584.944971
3787.025753,-153.219100,370.102971,10288.862594
3787.026068,-229.828649,1332.370696,9992.780217
3787.026383,459.657299,1998.556043,8808.450710
3787.026698,536.266849,1406.391290,8808.450710
3787.027012,612.876398,666.185348,9474.636058
3787.027327,0.000000,148.041188,10288.862594
3787.027642,-306.438199,370.102971,10066.800811
3787.027956,-536.266849,370.102971,10288.862594
3787.028271,-612.876398,1184.329507,9474.636058
3787.028586,0.000000,666.185348,9622.677246
3787.028900,0.000000,-0.000000,10140.821405
3787.029215,0.000000,-518.144159,10510.924376
3787.029530,-383.047749,-0.000000,10140.821405
3787.029845,-766.095498,296.082377,9992.780217
3787.030159,-536.266849,1184.329507,9770.718434
3787.030474,689.485948,1554.432478,9104.533087
3787.030789,689.485948,740.205942,8808.450710
3787.031103,459.657299,-0.000000,9474.636058
3787.031418,383.047749,-0.000000,10140.821405
3787.031733,0.000000,-222.061783,9548.656652
3787.032047,-306.438199,296.082377,9918.759623
3787.032362,-229.828649,740.205942,9918.759623
3787.032677,612.876398,-0.000000,9252.574275
3787.032991,229.828649,-370.102971,9104.533087
3787.033306,0.000000,-592.164754,10807.006753
3787.033621,-383.047749,-74.020594,10807.006753
3787.033936,-153.219100,370.102971,9326.594869
3787.034250,-229.828649,740.205942,9326.594869
3787.034565,766.095498,592.164754,9252.574275
3787.034880,1149.143247,-444.123565,8956.491898
3787.035194,1225.752797,-0.000000,8734.430116
3787.035509,612.876398,-222.061783,9326.594869
3787.035824,689.485948,-0.000000,9474.636058
3787.036138,306.438199,-0.000000,8956.491898
3787.036453,229.828649,-0.000000,8364.327145
3787.036768,1072.533697,-296.082377,8956.491898
3787.037083,689.485948,-740.205942,8808.450710
3787.037397,0.000000,-1110.308913,8808.450710
3787.037712,-612.876398,-1332.370696,10288.862594
3787.038027,-612.876398,-1184.329507,10436.903782
3787.038341,-536.266849,-0.000000,8734.430116
3787.038656,536.266849,-74.020594,8882.471304
3787.038971,1302.362347,-444.123565,9474.636058
3787.039285,842.705048,-0.000000,9252.574275
3787.039600,153.219100,444.123565,9918.759623
3787.039915,229.828649,-0.000000,9474.636058
3787.040230,0.000000,666.185348,8882.471304
3787.040544,306.438199,888.247130,8734.430116
3787.040859,689.485948,-74.020594,9104.533087
3787.041174,-459.657299,-1036.288319,10288.862594
3787.041488,-612.876398,-1258.350101,10510.924376
3787.041803,-1685.410096,-1036.288319,10436.903782
3787.042118,-1225.752797,-592.164754,10140.821405
3787.042432,-842.705048,148.041188,9474.636058
3787.042747,153.219100,-148.041188,9770.718434
3787.043062,459.657299,-74.020594,9548.656652
3787.043377,-229.828649,296.082377,9622.677246
3787.043691,76.609550,-0.000000,9622.677246
3787.044006,0.000000,-0.000000,9770.718434
3787.044321,76.609550,1332.370696,9326.594869
3787.044635,459.657299,1332.370696,9252.574275
3787.044950,536.266849,518.144159,9326.594869
3787.045265,-153.219100,-592.164754,10436.903782
3787.045579,-536.266849,-222.061783,11325.150913
3787.045894,-995.924147,-0.000000,10881.027347
3787.046209,-1149.143247,296.082377,10214.842000
3787.046524,-919.314598,888.247130,9844.739029
3787.046838,0.000000,148.041188,9918.759623
3787.047153,153.219100,-370.102971,9696.697840
3787.047468,383.047749,-74.020594,9770.718434
3787.047782,306.438199,444.123565,9474.636058
3787.048097,689.485948,1258.350101,8808.450710
3787.048412,919.314598,1702.473667,8438.347739
3787.048726,995.924147,962.267725,8364.327145
3787.049041,1072.533697,444.123565,8882.471304
3787.049356,612.876398,-0.000000,9474.636058
3787.049671,-153.219100,-222.061783,9844.739029
3787.049985,-383.047749,-148.041188,10955.047942
3787.050300,-306.438199,-0.000000,10807.006753
3787.050615,-459.657299,740.205942,9844.739029
3787.050929,0.000000,592.164754,9844.739029
3787.051244,536.266849,296.082377,10510.924376
3787.051559,76.609550,814.226536,9770.718434
3787.051873,689.485948,814.226536,9400.615463
3787.052188,689.485948,1184.329507,8734.430116
3787.052503,766.095498,1480.411884,7920.203579
3787.052818,1378.971896,740.205942,8734.430116
3787.053132,1072.533697,-0.000000,9474.636058
3787.053447,306.438199,-444.123565,9992.780217
3787.053762,-536.266849,-666.185348,10510.924376
3787.054076,-842.705048,-592.164754,10732.986159
3787.054391,-919.314598,-148.041188,10955.047942
3787.054706,0.000000,370.102971,9844.739029
3787.055020,153.219100,-74.020594,9844.739029
3787.055335,459.657299,-444.123565,9474.636058
3787.055650,306.438199,-74.020594,9474.636058
3787.055965,689.485948,592.164754,9030.512492
3787.056279,536.266849,888.247130,8660.409521
3787.056594,1149.143247,1480.411884,8216.285956
3787.056909,1838.629195,-0.000000,8142.265362
3787.057223,1072.533697,-222.061783,9178.553681
3787.057538,0.000000,-444.123565,10510.924376
3787.057853,-689.485948,-148.041188,10584.944971
3787.058167,-995.924147,-592.164754,11029.068536
3787.058482,-1149.143247,-0.000000,10362.883188
3787.058797,-306.438199,-0.000000,10066.800811
3787.059112,383.047749,-148.041188,9326.594869
3787.059426,459.657299,-444.123565,9696.697840
3787.059741,612.876398,370.102971,8882.471304
3787.060056,689.485948,518.144159,8142.265362
3787.060370,612.876398,814.226536,8068.244768
3787.060685,612.876398,666.185348,8660.409521
3787.061000,1072.533697,-296.082377,8956.491898
3787.061314,76.609550,-1110.308913,10066.800811
3787.061629,-1072.533697,-1110.308913,10881.027347
3787.061944,-1455.581446,-370.102971,11695.253884
3787.062259,-1378.971896,296.082377,10732.986159
3787.062573,-1072.533697,814.226536,10436.903782
3787.062888,0.000000,444.123565,10066.800811
3787.063203,459.657299,-74.020594,9548.656652
3787.063517,459.657299,-0.000000,8956.491898
3787.063832,383.047749,592.164754,9474.636058
3787.064147,229.828649,740.205942,9400.615463
3787.064461,306.438199,592.164754,8660.409521
3787.064776,306.438199,370.102971,8734.430116
3787.065091,612.876398,-666.185348,9770.718434
3787.065406,-229.828649,-1480.411884,10066.800811
3787.065720,-1072.533697,-1332.370696,10807.006753
3787.066035,-1991.848295,-1332.370696,10955.047942
3787.066350,-1378.971896,-740.205942,10362.883188
3787.066664,-1072.533697,222.061783,9474.636058
3787.066979,-153.219100,-0.000000,8882.471304
3787.067294,536.266849,148.041188,9474.636058
3787.067608,383.047749,370.102971,8734.430116
3787.067923,919.314598,370.102971,8956.491898
3787.068238,1455.581446,888.247130,8734.430116
3787.068552,1225.752797,1628.453072,7920.203579
3787.068867,1072.533697,1332.370696,8364.327145
3787.069182,919.314598,-0.000000,9252.574275
3787.069497,0.000000,-370.102971,10288.862594
3787.069811,-612.876398,-962.267725,10658.965565
3787.070126,-919.314598,-740.205942,10955.047942
3787.070441,-1455.581446,-0.000000,10288.862594
3787.070755,-919.314598,518.144159,9918.759623
3787.071070,0.000000,296.082377,9326.594869
3787.071385,0.000000,-370.102971,9622.677246
3787.071699,306.438199,-74.020594,9992.780217
3787.072014,612.876398,666.185348,9326.594869
3787.072329,1225.752797,1480.411884,8586.388927
3787.072644,1302.362347,1850.514855,8290.306550
3787.072958,1455.581446,1258.350101,8512.368333
3787.073273,1378.971896,518.144159,9622.677246
3787.073588,536.266849,-0.000000,10362.883188
3787.073902,-383.047749,-0.000000,10732.986159
3787.074217,-1072.533697,-148.041188,10955.047942
3787.074532,-1225.752797,518.144159,10214.842000
3787.074846,-612.876398,296.082377,10807.006753
3787.075161,153.219100,-370.102971,10510.924376
3787.075476,306.438199,-1036.288319,9992.780217
3787.075791,383.047749,-222.061783,9992.780217
3787.076105,536.266849,-0.000000,9918.759623
3787.076420,536.266849,1332.370696,9696.697840
3787.076735,919.314598,1480.411884,8586.388927
3787.077049,1762.019645,962.267725,8216.285956
3787.077364,1378.971896,-444.123565,8808.450710
3787.077679,689.485948,-518.144159,9400.615463
3787.077993,76.609550,-444.123565,10584.944971
3787.078308,-536.266849,-518.144159,10510.924376
3787.078623,-919.314598,148.041188,9992.780217
3787.078938,-1149.143247,-0.000000,9992.780217
3787.079252,-76.609550,-666.185348,10066.800811
3787.079567,0.000000,-1036.288319,10584.944971
3787.079882,306.438199,-222.061783,9918.759623
3787.080196,612.876398,-0.000000,9474.636058
3787.080511,766.095498,1258.350101,8734.430116
3787.080826,1072.533697,1776.494261,8068.244768
3787.081140,1608.800546,1702.473667,7772.162391
3787.081455,1149.143247,296.082377,8142.265362
3787.081770,842.705048,222.061783,8882.471304
3787.082085,76.609550,-222.061783,9474.636058
3787.082399,-689.485948,-148.041188,9918.759623
3787.082714,-1302.362347,-74.020594,9918.759623
3787.083029,-919.314598,-444.123565,9474.636058
3787.083343,-306.438199,-1184.329507,10066.800811
3787.083658,-612.876398,-666.185348,10510.924376
3787.083973,-383.047749,444.123565,9844.739029
3787.084287,-153.219100,666.185348,9178.553681
3787.084602,306.438199,1406.391290,8734.430116
3787.084917,459.657299,2368.659014,8142.265362
3787.085232,1378.971896,1406.391290,8290.306550
3787.085546,1072.533697,-0.000000,9104.533087
3787.085861,229.828649,-74.020594,10140.821405
3787.086176,0.000000,-74.020594,9918.759623
3787.086490,-1072.533697,-222.061783,10807.006753
3787.086805,-1225.752797,444.123565,10658.965565
3787.087120,-995.924147,666.185348,10510.924376
3787.087434,-995.924147,-370.102971,10140.821405
3787.087749,-383.047749,-888.247130,10658.965565
3787.088064,-383.047749,-0.000000,10066.800811
3787.088379,-536.266849,-0.000000,9992.780217
3787.088693,306.438199,1480.411884,9104.533087
3787.089008,612.876398,1332.370696,8290.306550
3787.089323,1225.752797,296.082377,8660.409521
3787.089637,1225.752797,-74.020594,9400.615463
3787.089952,612.876398,222.061783,10658.965565
3787.090267,229.828649,-0.000000,10510.924376
3787.090581,-383.047749,518.144159,10732.986159
3787.090896,-842.705048,1036.288319,10732.986159
3787.091211,0.000000,-0.000000,9844.739029
3787.091526,153.219100,-370.102971,10732.986159
3787.091840,-383.047749,-888.247130,10732.986159
3787.092155,-383.047749,-222.061783,10658.965565
3787.092470,0.000000,592.164754,9474.636058
3787.092784,383.047749,1480.411884,8956.491898
3787.093099,1149.143247,1702.473667,8882.471304
3787.093414,1991.848295,-0.000000,7994.224174
3787.093728,1455.581446,-444.123565,8734.430116
3787.094043,612.876398,-814.226536,9770.718434
3787.094358,-153.219100,-296.082377,10066.800811
3787.094673,-536.266849,-0.000000,10140.821405
3787.094987,0.000000,592.164754,9400.615463
3787.095302,153.219100,-74.020594,9474.636058
3787.095617,229.828649,-814.226536,9548.656652
3787.095931,0.000000,-814.226536,10214.842000
3787.096246,-383.047749,-666.185348,9992.780217
3787.096561,-383.047749,-0.000000,9400.615463
3787.096875,-153.219100,1036.288319,9104.533087
3787.097190,842.705048,888.247130,8438.347739
3787.097505,1838.629195,-370.102971,9474.636058
3787.097820,1302.362347,-296.082377,9326.594869
3787.098134,459.657299,-148.041188,9474.636058
3787.098449,0.000000,-0.000000,9770.718434
3787.098764,76.609550,518.144159,9252.574275
3787.099078,-229.828649,-296.082377,8808.450710
3787.099393,0.000000,-1110.308913,9178.553681
3787.099708,-459.657299,-1924.535449,9178.553681
3787.100022,-612.876398,-1332.370696,9696.697840
3787.100337,-689.485948,-518.144159,9474.636058
3787.100652,-459.657299,222.061783,9770.718434
3787.100967,0.000000,1036.288319,8586.388927
3787.101281,842.705048,592.164754,8882.471304
3787.101596,995.924147,148.041188,8734.430116
3787.101911,306.438199,-74.020594,9400.615463
3787.102225,-689.485948,-296.082377,9992.780217
3787.102540,-306.438199,222.061783,10436.903782
3787.102855,-689.485948,1332.370696,9992.780217
3787.103169,-229.828649,814.226536,9918.759623
3787.103484,0.000000,814.226536,9622.677246
3787.103799,0.000000,296.082377,10362.883188
3787.104113,-306.438199,-296.082377,10881.027347
3787.104428,-536.266849,-370.102971,10732.986159
3787.104743,-919.314598,370.102971,10362.883188
3787.105058,-76.609550,962.267725,9918.759623
3787.105372,536.266849,1110.308913,9474.636058
3787.105687,1149.143247,814.226536,8956.491898
3787.106002,919.314598,592.164754,9326.594869
3787.106316,229.828649,666.185348,9548.656652
3787.106631,536.266849,1332.370696,9622.677246
3787.106946,-229.828649,1110.308913,9252.574275
3787.107260,-612.876398,814.226536,9696.697840
3787.107575,0.000000,-444.123565,10658.965565
3787.107890,-612.876398,-814.226536,10510.924376
3787.108205,-459.657299,-666.185348,11251.130318
3787.108519,-612.876398,-296.082377,10955.047942
3787.108834,-689.485948,666.185348,10140.821405
3787.109149,229.828649,1850.514855,8808.450710
3787.109463,842.705048,1406.391290,9474.636058
3787.109778,1455.581446,888.247130,8660.409521
3787.110093,919.314598,-74.020594,9474.636058
3787.110407,459.657299,-444.123565,9548.656652
3787.110722,383.047749,-592.164754,9992.780217
3787.111037,0.000000,444.123565,9252.574275
3787.111351,1225.752797,-0.000000,9474.636058
3787.111666,153.219100,-666.185348,9474.636058
3787.111981,0.000000,-1554.432478,10436.903782
3787.112296,-153.219100,-740.205942,9918.759623
3787.112610,-689.485948,-444.123565,9622.677246
3787.112925,-153.219100,-0.000000,8734.430116
3787.113240,153.219100,370.102971,8216.285956
3787.113554,1149.143247,-148.041188,8142.265362
3787.113869,1378.971896,-222.061783,8512.368333
3787.114184,842.705048,-0.000000,8586.388927
3787.114498,383.047749,-0.000000,9326.594869
3787.114813,153.219100,370.102971,9696.697840
3787.115128,153.219100,592.164754,9844.739029
3787.115443,0.000000,-0.000000,9326.594869
3787.115757,229.828649,-666.185348,9770.718434
3787.116072,-306.438199,-740.205942,10881.027347
3787.116387,-612.876398,-444.123565,10510.924376
3787.116701,-689.485948,-148.041188,9918.759623
3787.117016,-153.219100,592.164754,9030.512492
3787.117331,919.314598,740.205942,8512.368333
3787.117645,1225.752797,370.102971,8290.306550
3787.117960,1072.533697,-148.041188,8512.368333
3787.118275,229.828649,-0.000000,9548.656652
3787.118589,0.000000,-296.082377,9400.615463
3787.118904,-153.219100,-222.061783,9474.636058
3787.119219,-459.657299,370.102971,9770.718434
3787.119534,0.000000,-0.000000,9474.636058
3787.119848,0.000000,-296.082377,9992.780217
3787.120163,-612.876398,-296.082377,10510.924376
3787.120478,-842.705048,-296.082377,10807.006753
3787.120792,-842.705048,296.082377,10436.903782
3787.121107,-459.657299,888.247130,9400.615463
3787.121422,383.047749,1406.391290,8808.450710
3787.121736,842.705048,444.123565,9622.677246
3787.122051,153.219100,-148.041188,10066.800811
3787.122366,-153.219100,-444.123565,10214.842000
3787.122681,-383.047749,-0.000000,10732.986159
3787.122995,-536.266849,370.102971,9696.697840
3787.123310,306.438199,814.226536,9770.718434
3787.123625,76.609550,740.205942,9844.739029
3787.123939,229.828649,-0.000000,9104.533087
3787.124254,0.000000,-74.020594,9548.656652
3787.124569,-459.657299,-222.061783,9548.656652
3787.124883,0.000000,296.082377,9252.574275
3787.125198,0.000000,1036.288319,9178.553681
3787.125513,919.314598,592.164754,8882.471304
3787.125828,842.705048,-148.041188,9918.759623
3787.126142,0.000000,-74.020594,10584.944971
3787.126457,0.000000,-0.000000,10436.903782
3787.126772,0.000000,518.144159,10362.883188
3787.127086,383.047749,1036.288319,9844.739029
3787.127401,919.314598,1480.411884,9326.594869
3787.127716,919.314598,814.226536,8660.409521
3787.128030,842.705048,-0.000000,9326.594869
3787.128345,229.828649,-0.000000,9474.636058
3787.128660,76.609550,-222.061783,9400.615463
3787.128974,0.000000,-0.000000,9326.594869
3787.129289,0.000000,370.102971,7920.203579
3787.129604,459.657299,-222.061783,8808.450710
3787.129919,689.485948,-1332.370696,9548.656652
3787.130233,459.657299,-1332.370696,10066.800811
3787.130548,-383.047749,-518.144159,9844.739029
3787.130863,-536.266849,-148.041188,9474.636058
3787.131177,0.000000,962.267725,9178.553681
3787.131492,536.266849,962.267725,8660.409521
3787.131807,689.485948,74.020594,8512.368333
3787.132121,766.095498,-74.020594,9104.533087
3787.132436,536.266849,-0.000000,9696.697840
3787.132751,459.657299,-222.061783,9770.718434
3787.133066,153.219100,-0.000000,9548.656652
3787.133380,0.000000,666.185348,9548.656652
3787.133695,76.609550,222.061783,9400.615463
3787.134010,229.828649,-740.205942,9474.636058
3787.134324,-229.828649,-814.226536,10288.862594
3787.134639,0.000000,-814.226536,10510.924376
3787.134954,-306.438199,-148.041188,9770.718434
3787.135268,-306.438199,518.144159,9030.512492
3787.135583,306.438199,814.226536,9030.512492
3787.135898,612.876398,-74.020594,9474.636058
3787.136212,1072.533697,-444.123565,9622.677246
3787.136527,229.828649,-666.185348,10066.800811
3787.136842,0.000000,-0.000000,9992.780217
3787.137157,0.000000,962.267725,9696.697840
3787.137471,153.219100,814.226536,9474.636058
3787.137786,689.485948,296.082377,9844.739029
3787.138101,0.000000,-0.000000,10214.842000
3787.138415,-612.876398,-370.102971,10510.924376
3787.138730,-612.876398,-74.020594,10436.903782
3787.139045,0.000000,222.061783,10362.883188
3787.139359,0.000000,814.226536,9548.656652
3787.139674,153.219100,370.102971,8956.491898
3787.139989,612.876398,-370.102971,9400.615463
3787.140304,459.657299,-444.123565,9400.615463
3787.140618,0.000000,-0.000000,10214.842000
3787.140933,-153.219100,74.020594,9474.636058
3787.141248,-459.657299,518.144159,9252.574275
3787.141562,0.000000,1036.288319,8808.450710
3787.141877,76.609550,-148.041188,9030.512492
3787.142192,0.000000,-518.144159,10066.800811
3787.142506,-229.828649,-222.061783,9622.677246
3787.142821,-153.219100,-222.061783,9918.759623
3787.143136,-689.485948,148.041188,9622.677246
3787.143450,-153.219100,592.164754,9178.553681
3787.143765,459.657299,740.205942,9030.512492
3787.144080,612.876398,-296.082377,9326.594869
3787.144395,306.438199,-444.123565,9474.636058
3787.144709,229.828649,-518.144159,9696.697840
3787.145024,306.438199,222.061783,8956.491898
3787.145339,76.609550,592.164754,9326.594869
3787.145653,459.657299,1036.288319,8290.306550
3787.145968,459.657299,222.061783,8956.491898
3787.146283,229.828649,-0.000000,9474.636058
3787.146597,306.438199,-666.185348,10288.862594
3787.146912,-153.219100,-74.020594,10288.862594
3787.147227,-536.266849,370.102971,9696.697840
3787.147542,-383.047749,1480.411884,9030.512492
3787.147856,536.266849,444.123565,9770.718434
3787.148171,919.314598,296.082377,9770.718434
3787.148486,459.657299,-0.000000,10288.862594
3787.148800,229.828649,962.267725,9696.697840
3787.149115,76.609550,1480.411884,9030.512492
3787.149430,383.047749,1776.494261,8956.491898
3787.149744,1072.533697,1258.350101,8364.327145
3787.150059,1149.143247,370.102971,9474.636058
3787.150374,536.266849,-222.061783,9622.677246
3787.150688,-306.438199,-592.164754,10362.883188
3787.151003,-536.266849,-444.123565,10658.965565
3787.151318,-766.095498,518.144159,10214.842000
3787.151633,-383.047749,1184.329507,9992.780217
3787.151947,306.438199,592.164754,9696.697840
3787.152262,766.095498,444.123565,9992.780217
3787.152577,689.485948,666.185348,9696.697840
3787.152891,842.705048,666.185348,10140.821405
3787.153206,459.657299,1184.329507,9252.574275
3787.153521,459.657299,1406.391290,8808.450710
3787.153835,995.924147,1110.308913,8956.491898
3787.154150,459.657299,296.082377,9326.594869
3787.154465,153.219100,-222.061783,10510.924376
3787.154780,0.000000,-1036.288319,11325.150913
3787.155094,-995.924147,-444.123565,10955.047942
3787.155409,-1149.143247,-0.000000,11029.068536
3787.155724,-842.705048,222.061783,9918.759623
3787.156038,536.266849,-222.061783,9992.780217
3787.156353,919.314598,-222.061783,9918.759623
3787.156668,536.266849,-370.102971,9178.553681
3787.156982,919.314598,370.102971,8882.471304
3787.157297,1072.533697,444.123565,9178.553681
3787.157612,842.705048,1406.391290,7772.162391
3787.157926,1608.800546,-0.000000,8216.285956
3787.158241,842.705048,-888.247130,9030.512492
3787.158556,0.000000,-1628.453072,10288.862594
3787.158871,-1072.533697,-1628.453072,11251.130318
3787.159185,-1225.752797,-1036.288319,11103.089130
3787.159500,-1149.143247,-222.061783,10510.924376
3787.159815,-766.095498,222.061783,9252.574275
3787.160129,536.266849,-0.000000,9104.533087
3787.160444,842.705048,222.061783,9400.615463
3787.160759,842.705048,-0.000000,9030.512492
3787.161073,689.485948,-0.000000,8364.327145
3787.161388,612.876398,740.205942,8142.265362
3787.161703,612.876398,592.164754,7846.182985
3787.162018,842.705048,-0.000000,8364.327145
3787.162332,76.609550,-1036.288319,9326.594869
3787.162647,0.000000,-1554.432478,9992.780217
3787.162962,-919.314598,-1406.391290,10140.821405
3787.163276,-1685.410096,-592.164754,10140.821405
3787.163591,-1149.143247,148.041188,9918.759623
3787.163906,-536.266849,666.185348,9104.533087
3787.164220,153.219100,-0.000000,8364.327145
3787.164535,0.000000,-370.102971,8808.450710
3787.164850,0.000000,-222.061783,8734.430116
3787.165164,-229.828649,-74.020594,8586.388927
3787.165479,-306.438199,592.164754,8956.491898
3787.165794,-995.924147,666.185348,8882.471304
3787.166109,-842.705048,-0.000000,9622.677246
3787.166423,-919.314598,-1036.288319,10140.821405
3787.166738,-2068.457845,-1554.432478,11473.192101
3787.167053,-2834.553343,-1110.308913,11843.295072
3787.167367,-2834.553343,-444.123565,11325.150913
3787.167682,-2221.676944,740.205942,10584.944971
3787.167997,-1915.238745,444.123565,9918.759623
3787.168311,-536.266849,-222.061783,9696.697840
3787.168626,-689.485948,-592.164754,9622.677246
3787.168941,-919.314598,-666.185348,9844.739029
3787.169256,-919.314598,-370.102971,9474.636058
3787.169570,-1149.143247,-0.000000,9474.636058
3787.169885,-612.876398,-0.000000,9770.718434
3787.170200,-1302.362347,-1110.308913,9622.677246
3787.170514,-1072.533697,-1924.535449,10140.821405
3787.170829,-1915.238745,-2294.638420,11325.150913
3787.171144,-2528.115143,-1776.494261,11695.253884
3787.171458,-2681.334243,-1332.370696,10436.903782
3787.171773,-2374.896044,-740.205942,10362.883188
3787.172088,-1762.019645,-444.123565,9178.553681
3787.172402,-1455.581446,-1036.288319,8882.471304
3787.172717,-612.876398,-1702.473667,9104.533087
3787.173032,-919.314598,-2072.576638,9474.636058
3787.173347,-1532.190996,-1924.535449,10140.821405
3787.173661,-1685.410096,-1776.494261,9622.677246
3787.173976,-1838.629195,-1554.432478,9400.615463
3787.174291,-1532.190996,-1406.391290,10214.842000
3787.174605,-2374.896044,-1924.535449,9474.636058
3787.174920,-2145.067394,-2442.679609,9252.574275
3787.175235,-2068.457845,-2368.659014,9474.636058
3787.175549,-1991.848295,-2146.597232,9474.636058
3787.175864,-1991.848295,-2516.700203,8808.450710
3787.176179,-1608.800546,-2960.823768,8808.450710
3787.176494,-1532.190996,-2590.720797,9178.553681
3787.176808,-1072.533697,-2886.803174,8956.491898
3787.177123,-919.314598,-2516.700203,8512.368333
3787.177438,-842.705048,-2812.782580,8734.430116
3787.177752,-689.485948,-2442.679609,9474.636058
3787.178067,-919.314598,-1776.494261,8660.409521
3787.178382,-766.095498,-1850.514855,8586.388927
3787.178696,-995.924147,-2368.659014,9252.574275
3787.179011,-1225.752797,-2294.638420,9030.512492
3787.179326,-1455.581446,-2220.617826,8364.327145
3787.179640,-1762.019645,-2294.638420,7846.182985
3787.179955,-1915.238745,-2812.782580,8660.409521
3787.180270,-2298.286494,-3404.947333,8808.450710
3787.180585,-2604.724693,-3627.009116,9918.759623
3787.180899,-3064.381992,-3849.070898,10584.944971
3787.181214,-2987.772442,-4145.153275,11251.130318
3787.181529,-3294.210641,-3775.050304,11251.130318
3787.181843,-2987.772442,-2738.761985,11251.130318
3787.182158,-2911.162892,-1776.494261,9992.780217
3787.182473,-1685.410096,-1332.370696,9030.512492
3787.182787,-1685.410096,-1110.308913,8438.347739
3787.183102,-1225.752797,-1554.432478,8734.430116
3787.183417,-1072.533697,-1480.411884,7920.203579
3787.183732,-1302.362347,-2294.638420,8586.388927
3787.184046,-1685.410096,-1998.556043,9474.636058
3787.184361,-2298.286494,-2516.700203,9622.677246
3787.184676,-2681.334243,-2960.823768,9696.697840
3787.184990,-3140.991542,-2442.679609,10288.862594
3787.185305,-3600.648841,-2368.659014,9844.739029
3787.185620,-3217.601092,-2738.761985,10140.821405
3787.185934,-3370.820191,-1998.556043,9400.615463
3787.186249,-3140.991542,-2442.679609,9474.636058
3787.186564,-3294.210641,-2664.741391,9696.697840
3787.186879,-2987.772442,-2590.720797,10288.862594
3787.187193,-1915.238745,-1924.535449,10658.965565
3787.187508,-2374.896044,-1332.370696,10881.027347
3787.187823,-1685.410096,-740.205942,10732.986159
3787.188137,-1072.533697,-74.020594,9622.677246
3787.188452,-1072.533697,-296.082377,9474.636058
3787.188767,-612.876398,-666.185348,9178.553681
3787.189081,-1149.143247,-1184.329507,8882.471304
3787.189396,-1685.410096,-1702.473667,8660.409521
3787.189711,-1685.410096,-2664.741391,9770.718434
3787.190025,-2221.676944,-2442.679609,10288.862594
3787.190340,-2681.334243,-3108.864956,10362.883188
3787.190655,-2604.724693,-2960.823768,11103.089130
3787.190970,-2374.896044,-2146.597232,11103.089130
3787.191284,-1608.800546,-1406.391290,10584.944971
3787.191599,-766.095498,-1184.329507,9844.739029
3787.191914,-689.485948,-592.164754,8808.450710
3787.192228,-612.876398,-740.205942,8068.244768
3787.192543,-229.828649,-888.247130,7624.121203
3787.192858,-306.438199,-962.267725,7994.224174
3787.193172,-612.876398,-1406.391290,8438.347739
3787.193487,-1455.581446,-1332.370696,8956.491898
3787.193802,-2221.676944,-2072.576638,9992.780217
3787.194117,-2834.553343,-2368.659014,11547.212695
3787.194431,-3753.867940,-2812.782580,12361.439231
3787.194746,-3830.477490,-3034.844362,12139.377449
3787.195061,-3447.429741,-2590.720797,11843.295072
3787.195375,-2604.724693,-1998.556043,11325.150913
3787.195690,-1378.971896,-1110.308913,9696.697840
3787.196005,0.000000,-222.061783,8142.265362
3787.196319,383.047749,-0.000000,6957.935855
3787.196634,1225.752797,222.061783,6365.771101
3787.196949,766.095498,-222.061783,5995.668130
3787.197263,76.609550,-1406.391290,6957.935855
3787.197578,-919.314598,-2072.576638,8734.430116
3787.197893,-2451.505594,-2960.823768,9992.780217
3787.198208,-3677.258390,-3330.926739,10955.047942
3787.198522,-4290.134789,-3627.009116,11843.295072
3787.198837,-3907.087040,-3404.947333,12361.439231
3787.199152,-3830.477490,-2812.782580,11621.233289
3787.199466,-3447.429741,-1480.411884,9918.759623
3787.199781,-2451.505594,-1258.350101,9030.512492
3787.200096,-1608.800546,-962.267725,8586.388927
3787.200410,-383.047749,-592.164754,7994.224174
3787.200725,153.219100,-592.164754,7920.203579
3787.201040,0.000000,-740.205942,8438.347739
3787.201355,-459.657299,-1184.329507,9030.512492
3787.201669,-1302.362347,-1554.432478,9622.677246
3787.201984,-1685.410096,-1554.432478,10436.903782
3787.202299,-2221.676944,-1554.432478,10510.924376
3787.202613,-2911.162892,-2220.617826,9770.718434
3787.202928,-3677.258390,-2590.720797,9474.636058
3787.203243,-3907.087040,-3182.885551,9252.574275
3787.203557,-4213.525239,-3478.967927,9474.636058
3787.203872,-4213.525239,-3478.967927,9548.656652
3787.204187,-3524.039291,-3256.906145,10066.800811
3787.204501,-3370.820191,-2516.700203,10510.924376
3787.204816,-2834.553343,-2516.700203,11251.130318
3787.205131,-2451.505594,-2146.597232,12065.356855
3787.205446,-1762.019645,-1554.432478,11547.212695
3787.205760,-1225.752797,-962.267725,10881.027347
3787.206075,-766.095498,-296.082377,9696.697840
3787.206390,-459.657299,-0.000000,8586.388927
3787.206704,-383.047749,-222.061783,7476.080014
3787.207019,-229.828649,-740.205942,6883.915261
3787.207334,-536.266849,-1554.432478,7402.059420
3787.207648,-1838.629195,-3108.864956,7772.162391
3787.207963,-2911.162892,-4589.276840,9474.636058
3787.208278,-3600.648841,-4737.318029,10584.944971
3787.208593,-4213.525239,-4811.338623,11621.233289
3787.208907,-4213.525239,-4737.318029,12139.377449
3787.209222,-3907.087040,-3997.112087,11991.336260
3787.209537,-2834.553343,-2664.741391,11029.068536
3787.209851,-1915.238745,-1924.535449,9696.697840
3787.210166,-536.266849,-592.164754,8290.306550
3787.210481,153.219100,-0.000000,7179.997637
3787.210795,842.705048,370.102971,6735.874072
3787.211110,1378.971896,-0.000000,6809.894666
3787.211425,919.314598,-518.144159,7402.059420
3787.211740,153.219100,-1554.432478,8512.368333
3787.212054,-1225.752797,-2368.659014,9252.574275
3787.212369,-2374.896044,-3256.906145,10510.924376
3787.212684,-2911.162892,-4145.153275,11473.192101
3787.212998,-3907.087040,-4219.173869,11399.171507
3787.213313,-3830.477490,-3997.112087,11547.212695
3787.213628,-3217.601092,-3701.029710,10436.903782
3787.213942,-1991.848295,-2368.659014,9326.594869
3787.214257,-1838.629195,-1702.473667,7994.224174
3787.214572,-919.314598,-518.144159,7476.080014
3787.214887,0.000000,-148.041188,7476.080014
3787.215201,842.705048,-296.082377,7846.182985
3787.215516,1072.533697,-444.123565,8882.471304
3787.215831,689.485948,-666.185348,9770.718434
3787.216145,536.266849,-888.247130,10436.903782
3787.216460,-153.219100,-962.267725,10658.965565
3787.216775,-459.657299,-888.247130,10436.903782
3787.217089,-536.266849,-1184.329507,10288.862594
3787.217404,-995.924147,-592.164754,9178.553681
3787.217719,-1149.143247,-518.144159,8068.244768
3787.218033,-1225.752797,-518.144159,8142.265362
3787.218348,-1225.752797,-814.226536,7550.100608
3787.218663,-1608.800546,-1406.391290,8438.347739
3787.218978,-2145.067394,-1924.535449,9474.636058
3787.219292,-2528.115143,-1998.556043,9918.759623
3787.219607,-2604.724693,-2146.597232,10881.027347
3787.219922,-2528.115143,-1480.411884,10955.047942
3787.220236,-2681.334243,-740.205942,11695.253884
3787.220551,-2604.724693,148.041188,11325.150913
3787.220866,-2298.286494,592.164754,10732.986159
3787.221180,-2145.067394,962.267725,10066.800811
3787.221495,-2298.286494,1110.308913,9918.759623
3787.221810,-2145.067394,814.226536,9844.739029
3787.222125,-2221.676944,-0.000000,9548.656652
3787.222439,-2528.115143,-666.185348,9770.718434
3787.222754,-3064.381992,-1702.473667,9844.739029
3787.223069,-3140.991542,-2738.761985,10510.924376
3787.223383,-3830.477490,-2368.659014,11103.089130
3787.223698,-4213.525239,-2664.741391,10881.027347
3787.224013,-4519.963438,-2812.782580,10732.986159
3787.224327,-4290.134789,-2590.720797,10584.944971
3787.224642,-4213.525239,-2738.761985,10732.986159
3787.224957,-3600.648841,-2368.659014,9844.739029
3787.225272,-3447.429741,-2072.576638,9474.636058
3787.225586,-2757.943793,-1776.494261,10066.800811
3787.225901,-2145.067394,-1924.535449,9918.759623
3787.226216,-2068.457845,-1628.453072,9622.677246
3787.226530,-2068.457845,-1850.514855,10214.842000
3787.226845,-1915.238745,-2294.638420,9770.718434
3787.227160,-1608.800546,-2664.741391,9918.759623
3787.227474,-995.924147,-3034.844362,9474.636058
3787.227789,-1838.629195,-3775.050304,9548.656652
3787.228104,-1915.238745,-3775.050304,9474.636058
