#time,accel_x,accel_y,accel_z
3872.884159,0.000000,74.020594,9474.636058
3872.884474,0.000000,-0.000000,9474.636058
3872.884788,0.000000,296.082377,9548.656652
3872.885103,153.219100,-0.000000,9548.656652
3872.885418,153.219100,-0.000000,9696.697840
3872.885733,306.438199,296.082377,9548.656652
3872.886047,0.000000,74.020594,9326.594869
3872.886362,229.828649,-0.000000,9178.553681
3872.886677,306.438199,148.041188,9622.677246
3872.886991,0.000000,-0.000000,9918.759623
3872.887306,229.828649,222.061783,9474.636058
3872.887621,0.000000,-0.000000,9474.636058
3872.887936,76.609550,-0.000000,9474.636058
3872.888250,383.047749,-0.000000,9622.677246
3872.888565,-153.219100,370.102971,9770.718434
3872.888880,0.000000,-0.000000,9474.636058
3872.889195,689.485948,222.061783,9474.636058
3872.889509,459.657299,444.123565,9474.636058
3872.889824,153.219100,370.102971,9622.677246
3872.890139,306.438199,296.082377,10066.800811
3872.890454,76.609550,296.082377,9548.656652
3872.890768,76.609550,222.061783,9400.615463
3872.891083,229.828649,444.123565,9622.677246
3872.891398,76.609550,296.082377,9770.718434
3872.891713,383.047749,-0.000000,9548.656652
3872.892027,229.828649,296.082377,9474.636058
3872.892342,76.609550,-0.000000,9474.636058
3872.892657,153.219100,-0.000000,9844.739029
3872.892972,153.219100,222.061783,9918.759623
3872.893286,0.000000,-0.000000,9844.739029
3872.893601,-229.828649,-0.000000,9844.739029
3872.893916,0.000000,-74.020594,9622.677246
3872.894231,0.000000,-222.061783,9770.718434
3872.894545,306.438199,-0.000000,9622.677246
3872.894860,153.219100,-0.000000,9474.636058
3872.895175,-76.609550,74.020594,9474.636058
3872.895490,0.000000,-0.000000,9548.656652
3872.895804,306.438199,-74.020594,9696.697840
3872.896119,0.000000,-74.020594,9548.656652
3872.896434,76.609550,-0.000000,9474.636058
3872.896749,76.609550,370.102971,9326.594869
3872.897063,0.000000,222.061783,9178.553681
3872.897378,0.000000,-0.000000,9474.636058
3872.897693,153.219100,-0.000000,9696.697840
3872.898008,0.000000,-0.000000,9474.636058
3872.898322,153.219100,222.061783,9326.594869
3872.898637,0.000000,-0.000000,9622.677246
3872.898952,229.828649,222.061783,9622.677246
3872.899267,153.219100,444.123565,10140.821405
3872.899581,76.609550,222.061783,9622.677246
3872.899896,153.219100,370.102971,9400.615463
3872.900211,0.000000,148.041188,9474.636058
3872.900526,459.657299,-148.041188,9400.615463
3872.900840,306.438199,-0.000000,9770.718434
3872.901155,0.000000,-0.000000,9474.636058
3872.901470,0.000000,-0.000000,9400.615463
3872.901785,229.828649,296.082377,9622.677246
3872.902099,76.609550,370.102971,9548.656652
3872.902414,229.828649,222.061783,10436.903782
3872.902729,0.000000,296.082377,9770.718434
3872.903044,0.000000,222.061783,9548.656652
3872.903358,229.828649,222.061783,9992.780217
3872.903673,0.000000,296.082377,9696.697840
3872.903988,0.000000,296.082377,9844.739029
3872.904303,153.219100,370.102971,9474.636058
3872.904617,459.657299,-0.000000,9622.677246
3872.904932,0.000000,-148.041188,9548.656652
3872.905247,383.047749,222.061783,9622.677246
3872.905561,0.000000,222.061783,9548.656652
3872.905876,0.000000,222.061783,9474.636058
3872.906191,0.000000,148.041188,9548.656652
3872.906506,76.609550,-0.000000,9474.636058
3872.906820,0.000000,-148.041188,9696.697840
3872.907135,76.609550,-0.000000,9622.677246
3872.907450,-306.438199,-148.041188,9474.636058
3872.907765,0.000000,-0.000000,9696.697840
3872.908079,0.000000,-0.000000,9992.780217
3872.908394,0.000000,-0.000000,9548.656652
3872.908709,383.047749,-0.000000,9548.656652
3872.909024,383.047749,296.082377,9400.615463
3872.909338,306.438199,-0.000000,9474.636058
3872.909653,459.657299,-0.000000,9696.697840
3872.909968,383.047749,-0.000000,9770.718434
3872.910283,459.657299,592.164754,10140.821405
3872.910597,153.219100,444.123565,9474.636058
3872.910912,766.095498,592.164754,9400.615463
3872.911227,919.314598,740.205942,9400.615463
3872.911542,842.705048,814.226536,9252.574275
3872.911856,766.095498,814.226536,8882.471304
3872.912171,766.095498,888.247130,9104.533087
3872.912486,919.314598,592.164754,9252.574275
3872.912801,842.705048,444.123565,9178.553681
3872.913115,689.485948,296.082377,9548.656652
3872.913430,766.095498,296.082377,9622.677246
3872.913745,766.095498,222.061783,9918.759623
3872.914060,459.657299,518.144159,9992.780217
3872.914374,306.438199,888.247130,9918.759623
3872.914689,459.657299,814.226536,9844.739029
3872.915004,919.314598,814.226536,9992.780217
3872.915319,1455.581446,888.247130,9622.677246
3872.915633,1838.629195,518.144159,9770.718434
3872.915948,2068.457845,1036.288319,9992.780217
3872.916263,2681.334243,1258.350101,9696.697840
3872.916578,2757.943793,1554.432478,9400.615463
3872.916892,3294.210641,2590.720797,9252.574275
3872.917207,3677.258390,2368.659014,8660.409521
3872.917522,3600.648841,2590.720797,8734.430116
3872.917837,3447.429741,2294.638420,8512.368333
3872.918151,3830.477490,2072.576638,8660.409521
3872.918466,3294.210641,2220.617826,9030.512492
3872.918781,3600.648841,1850.514855,9104.533087
3872.919096,2987.772442,1924.535449,9326.594869
3872.919410,2987.772442,2294.638420,9770.718434
3872.919725,3064.381992,2664.741391,9770.718434
3872.920040,2987.772442,2960.823768,9474.636058
3872.920355,2911.162892,3478.967927,9252.574275
3872.920669,2834.553343,3701.029710,9178.553681
3872.920984,2298.286494,3627.009116,8586.388927
3872.921299,2757.943793,3997.112087,9104.533087
3872.921614,2681.334243,3849.070898,9474.636058
3872.921928,2528.115143,3627.009116,10288.862594
3872.922243,2221.676944,3923.091493,10584.944971
3872.922558,1685.410096,3701.029710,10288.862594
3872.922872,1608.800546,3552.988522,10584.944971
3872.923187,1532.190996,3552.988522,10807.006753
3872.923502,1608.800546,3552.988522,10732.986159
3872.923817,1762.019645,3849.070898,11029.068536
3872.924131,995.924147,3256.906145,10362.883188
3872.924446,1608.800546,3552.988522,10214.842000
3872.924761,2221.676944,3775.050304,9992.780217
3872.925076,1838.629195,3849.070898,9770.718434
3872.925390,1608.800546,3775.050304,9918.759623
3872.925705,2451.505594,3701.029710,10436.903782
3872.926020,2298.286494,3552.988522,10066.800811
3872.926335,2221.676944,2960.823768,9622.677246
3872.926649,2068.457845,3330.926739,9992.780217
3872.926964,2298.286494,2886.803174,10288.862594
3872.927279,1915.238745,2886.803174,10066.800811
3872.927594,1991.848295,3108.864956,10066.800811
3872.927908,1685.410096,2812.782580,9844.739029
3872.928223,1608.800546,2886.803174,9844.739029
3872.928538,1915.238745,3034.844362,9622.677246
3872.928853,1915.238745,2812.782580,9474.636058
3872.929167,2221.676944,2960.823768,9548.656652
3872.929482,1685.410096,2146.597232,9400.615463
3872.929797,1532.190996,1998.556043,9696.697840
3872.930112,1532.190996,1924.535449,10214.842000
3872.930426,1991.848295,1480.411884,10214.842000
3872.930741,1915.238745,1554.432478,10436.903782
3872.931056,1608.800546,2072.576638,9992.780217
3872.931371,1455.581446,1924.535449,10140.821405
3872.931685,2298.286494,2146.597232,9474.636058
3872.932000,2298.286494,2368.659014,9400.615463
3872.932315,2757.943793,2294.638420,8734.430116
3872.932630,3447.429741,2220.617826,8660.409521
3872.932944,3447.429741,2072.576638,8956.491898
3872.933259,3217.601092,1702.473667,8956.491898
3872.933574,3140.991542,1850.514855,8734.430116
3872.933889,2987.772442,1406.391290,8882.471304
3872.934203,2681.334243,1480.411884,8882.471304
3872.934518,2298.286494,1332.370696,9326.594869
3872.934833,2221.676944,814.226536,8882.471304
3872.935148,1838.629195,444.123565,9104.533087
3872.935462,1762.019645,814.226536,9622.677246
3872.935777,1378.971896,-0.000000,9474.636058
3872.936092,1838.629195,370.102971,10584.944971
3872.936407,2145.067394,592.164754,10658.965565
3872.936721,2451.505594,1258.350101,10066.800811
3872.937036,2834.553343,1554.432478,9696.697840
3872.937351,3600.648841,2368.659014,8956.491898
3872.937666,3600.648841,2516.700203,9030.512492
3872.937980,3830.477490,2442.679609,7994.224174
3872.938295,3600.648841,2516.700203,7846.182985
3872.938610,3370.820191,1924.535449,7698.141797
3872.938925,2374.896044,888.247130,8438.347739
3872.939239,1685.410096,148.041188,9400.615463
3872.939554,689.485948,-0.000000,10288.862594
3872.939869,229.828649,-666.185348,11621.233289
3872.940184,-229.828649,-444.123565,12509.480420
3872.940498,0.000000,-74.020594,12657.521608
3872.940813,153.219100,962.267725,12139.377449
3872.941128,1685.410096,2368.659014,10955.047942
3872.941442,3064.381992,3034.844362,9770.718434
3872.941757,4136.915689,4441.235652,8364.327145
3872.942072,4673.182538,5033.400406,7105.977043
3872.942387,5056.230287,4441.235652,6587.832884
3872.942701,4903.011187,4367.215058,7031.956449
3872.943016,4366.744339,3182.885551,7772.162391
3872.943331,3140.991542,1924.535449,9104.533087
3872.943646,1225.752797,1036.288319,10584.944971
3872.943960,-229.828649,592.164754,11843.295072
3872.944275,-1225.752797,444.123565,12065.356855
3872.944590,-995.924147,888.247130,11991.336260
3872.944905,-919.314598,1924.535449,11103.089130
3872.945219,383.047749,2960.823768,10288.862594
3872.945534,1302.362347,3775.050304,8512.368333
3872.945849,3064.381992,4145.153275,7402.059420
3872.946164,4290.134789,4515.256246,8290.306550
3872.946478,4290.134789,4663.297435,8512.368333
3872.946793,4060.306139,4145.153275,8956.491898
3872.947108,3294.210641,3923.091493,9918.759623
3872.947423,2757.943793,2886.803174,10881.027347
3872.947737,1762.019645,2960.823768,11177.109724
3872.948052,995.924147,3256.906145,11029.068536
3872.948367,536.266849,3108.864956,10066.800811
3872.948682,1225.752797,2368.659014,9918.759623
3872.948996,1608.800546,1924.535449,9474.636058
3872.949311,1991.848295,1776.494261,8586.388927
3872.949626,2374.896044,2220.617826,8586.388927
3872.949941,2604.724693,2590.720797,8586.388927
3872.950255,3140.991542,3256.906145,9030.512492
3872.950570,3370.820191,3627.009116,8660.409521
3872.950885,2911.162892,3627.009116,8438.347739
3872.951200,2681.334243,2886.803174,10140.821405
3872.951514,2451.505594,2220.617826,11103.089130
3872.951829,1532.190996,1850.514855,11177.109724
3872.952144,1455.581446,2146.597232,11843.295072
3872.952459,2068.457845,2220.617826,11325.150913
3872.952773,2221.676944,3108.864956,10362.883188
3872.953088,2145.067394,3849.070898,9252.574275
3872.953403,3140.991542,3849.070898,7994.224174
3872.953718,3677.258390,3108.864956,8438.347739
3872.954032,3907.087040,2368.659014,8512.368333
3872.954347,3753.867940,1480.411884,9030.512492
3872.954662,2757.943793,592.164754,9918.759623
3872.954977,2298.286494,740.205942,11103.089130
3872.955291,1838.629195,1184.329507,10658.965565
3872.955606,1455.581446,1850.514855,10436.903782
3872.955921,1608.800546,1924.535449,11325.150913
3872.956235,2221.676944,2664.741391,9696.697840
3872.956550,2604.724693,3108.864956,8438.347739
3872.956865,2757.943793,3256.906145,8512.368333
3872.957180,3600.648841,3478.967927,7328.038826
3872.957494,3447.429741,2368.659014,8586.388927
3872.957809,3140.991542,1776.494261,8956.491898
3872.958124,2987.772442,814.226536,9104.533087
3872.958438,1762.019645,740.205942,9918.759623
3872.958753,995.924147,444.123565,11251.130318
3872.959068,0.000000,518.144159,11621.233289
3872.959382,0.000000,1110.308913,10807.006753
3872.959697,-459.657299,1850.514855,9992.780217
3872.960012,842.705048,814.226536,9770.718434
3872.960326,1762.019645,666.185348,10066.800811
3872.960641,2221.676944,1924.535449,9326.594869
3872.960956,3064.381992,2516.700203,8512.368333
3872.961270,3447.429741,3108.864956,7846.182985
3872.961585,3447.429741,3182.885551,7254.018232
3872.961900,3983.696590,2368.659014,8290.306550
3872.962214,3370.820191,1406.391290,8808.450710
3872.962529,2221.676944,814.226536,9178.553681
3872.962844,1149.143247,-74.020594,10362.883188
3872.963159,0.000000,296.082377,10436.903782
3872.963473,-459.657299,592.164754,10881.027347
3872.963788,0.000000,444.123565,10658.965565
3872.964103,766.095498,666.185348,10436.903782
3872.964417,995.924147,2146.597232,10214.842000
3872.964732,1838.629195,1924.535449,10214.842000
3872.965047,1915.238745,2738.761985,9104.533087
3872.965361,2528.115143,3182.885551,8512.368333
3872.965676,3677.258390,2738.761985,8734.430116
3872.965991,4060.306139,2220.617826,8660.409521
3872.966305,3217.601092,1924.535449,9252.574275
3872.966620,3140.991542,1554.432478,10362.883188
3872.966935,1838.629195,1924.535449,9696.697840
3872.967249,995.924147,2146.597232,9548.656652
3872.967564,1532.190996,1850.514855,10140.821405
3872.967879,842.705048,1702.473667,9844.739029
3872.968193,689.485948,962.267725,10510.924376
3872.968508,995.924147,888.247130,10214.842000
3872.968823,1685.410096,2590.720797,8364.327145
3872.969138,3217.601092,2738.761985,8660.409521
3872.969452,4519.963438,2738.761985,8808.450710
3872.969767,4213.525239,3182.885551,8216.285956
3872.970082,2834.553343,3034.844362,8808.450710
3872.970396,2451.505594,3552.988522,8364.327145
3872.970711,2068.457845,3182.885551,9326.594869
3872.971026,2374.896044,2368.659014,10436.903782
3872.971340,1991.848295,2220.617826,10584.944971
3872.971655,842.705048,1924.535449,10436.903782
3872.971970,76.609550,2146.597232,10140.821405
3872.972284,612.876398,1702.473667,11251.130318
3872.972599,1838.629195,1998.556043,11399.171507
3872.972914,3217.601092,2664.741391,9844.739029
3872.973228,2221.676944,3182.885551,9178.553681
3872.973543,2987.772442,3404.947333,8512.368333
3872.973858,3447.429741,3404.947333,8068.244768
3872.974172,3600.648841,3256.906145,8808.450710
3872.974487,3217.601092,3256.906145,8290.306550
3872.974802,1915.238745,3034.844362,8882.471304
3872.975117,306.438199,3330.926739,9400.615463
3872.975431,76.609550,1702.473667,9622.677246
3872.975746,0.000000,592.164754,11843.295072
3872.976061,-306.438199,1184.329507,11473.192101
3872.976375,-1072.533697,1406.391290,11621.233289
3872.976690,-1149.143247,2590.720797,10658.965565
3872.977005,-306.438199,2442.679609,10140.821405
3872.977319,1455.581446,1924.535449,10584.944971
3872.977634,1532.190996,2072.576638,10066.800811
3872.977949,995.924147,2516.700203,9178.553681
3872.978263,306.438199,3330.926739,8808.450710
3872.978578,995.924147,2442.679609,8216.285956
3872.978893,1225.752797,1480.411884,10288.862594
3872.979207,0.000000,592.164754,9548.656652
3872.979522,-919.314598,296.082377,9918.759623
3872.979837,-1685.410096,148.041188,10140.821405
3872.980151,-1149.143247,-148.041188,9992.780217
3872.980466,-306.438199,-814.226536,10066.800811
3872.980781,-383.047749,-740.205942,9474.636058
3872.981096,-766.095498,-296.082377,8808.450710
3872.981410,-689.485948,-148.041188,9030.512492
3872.981725,612.876398,-888.247130,9770.718434
3872.982040,995.924147,-0.000000,8956.491898
3872.982354,612.876398,-0.000000,9548.656652
3872.982669,0.000000,-0.000000,10140.821405
3872.982984,-306.438199,-222.061783,9696.697840
3872.983298,459.657299,-518.144159,10955.047942
3872.983613,689.485948,-1184.329507,10732.986159
3872.983928,459.657299,-518.144159,9548.656652
3872.984242,536.266849,-74.020594,9474.636058
3872.984557,1072.533697,-370.102971,8882.471304
3872.984872,2374.896044,-962.267725,9326.594869
3872.985186,919.314598,518.144159,6439.791695
3872.985501,2604.724693,-3108.864956,7994.224174
3872.985816,842.705048,148.041188,8142.265362
3872.986131,0.000000,-1110.308913,10362.883188
3872.986445,919.314598,-2368.659014,10066.800811
3872.986760,-842.705048,-2368.659014,9918.759623
3872.987075,-842.705048,-888.247130,10658.965565
3872.987389,-766.095498,-1554.432478,9252.574275
3872.987704,76.609550,-1036.288319,10658.965565
3872.988019,919.314598,-1480.411884,11177.109724
3872.988333,995.924147,-0.000000,7920.203579
3872.988648,1072.533697,-0.000000,7994.224174
3872.988963,1608.800546,-0.000000,8068.244768
3872.989277,1762.019645,-296.082377,9622.677246
3872.989592,1072.533697,-0.000000,8882.471304
3872.989907,766.095498,-1036.288319,8216.285956
3872.990221,-153.219100,-666.185348,8512.368333
3872.990536,-689.485948,-1850.514855,9474.636058
3872.990851,-383.047749,-2220.617826,10436.903782
3872.991165,-1302.362347,-2220.617826,9696.697840
3872.991480,-2298.286494,-1554.432478,9400.615463
3872.991795,-1608.800546,-1998.556043,9918.759623
3872.992110,-1685.410096,-1110.308913,9844.739029
3872.992424,-536.266849,-370.102971,10510.924376
3872.992739,153.219100,296.082377,8734.430116
3872.993054,-306.438199,1036.288319,7698.141797
3872.993368,689.485948,962.267725,8734.430116
3872.993683,766.095498,370.102971,8956.491898
3872.993998,229.828649,296.082377,9400.615463
3872.994312,-153.219100,-0.000000,10584.944971
3872.994627,-1532.190996,740.205942,9770.718434
3872.994942,-1455.581446,518.144159,10510.924376
3872.995256,-1302.362347,518.144159,10807.006753
3872.995571,-1072.533697,-148.041188,10955.047942
3872.995886,-1378.971896,888.247130,9400.615463
3872.996200,-842.705048,1184.329507,8956.491898
3872.996515,-229.828649,962.267725,9548.656652
3872.996830,383.047749,740.205942,10288.862594
3872.997144,766.095498,1406.391290,9400.615463
3872.997459,-459.657299,1554.432478,9400.615463
3872.997774,-306.438199,1332.370696,10066.800811
3872.998089,766.095498,888.247130,11029.068536
3872.998403,766.095498,1924.535449,10732.986159
3872.998718,229.828649,2220.617826,10732.986159
3872.999033,-459.657299,2960.823768,10362.883188
3872.999347,0.000000,2220.617826,9918.759623
3872.999662,766.095498,1554.432478,10658.965565
3872.999977,995.924147,1554.432478,9844.739029
3873.000291,459.657299,1406.391290,10214.842000
3873.000606,0.000000,1110.308913,9548.656652
3873.000921,536.266849,444.123565,10288.862594
3873.001235,1455.581446,518.144159,10658.965565
3873.001550,1072.533697,592.164754,9770.718434
3873.001865,459.657299,1184.329507,9992.780217
3873.002179,459.657299,1554.432478,9474.636058
3873.002494,995.924147,888.247130,9844.739029
3873.002809,1838.629195,666.185348,9622.677246
3873.003123,842.705048,444.123565,9252.574275
3873.003438,995.924147,962.267725,8290.306550
3873.003753,1072.533697,518.144159,9178.553681
3873.004068,1378.971896,-0.000000,10214.842000
3873.004382,1608.800546,-148.041188,10214.842000
3873.004697,383.047749,814.226536,8734.430116
3873.005012,76.609550,666.185348,9622.677246
3873.005326,153.219100,-148.041188,9992.780217
3873.005641,383.047749,-444.123565,10288.862594
3873.005956,383.047749,-0.000000,9104.533087
3873.006270,-76.609550,-0.000000,9622.677246
3873.006585,76.609550,-0.000000,9474.636058
3873.006900,459.657299,-222.061783,9918.759623
3873.007214,1225.752797,-444.123565,9844.739029
3873.007529,229.828649,296.082377,8808.450710
3873.007844,-306.438199,666.185348,8660.409521
3873.008158,459.657299,444.123565,8734.430116
3873.008473,76.609550,-666.185348,9400.615463
3873.008788,459.657299,-1332.370696,9696.697840
3873.009102,-459.657299,-1258.350101,9770.718434
3873.009417,-1225.752797,-592.164754,9252.574275
3873.009732,-689.485948,-740.205942,10066.800811
3873.010047,-459.657299,-592.164754,10436.903782
3873.010361,0.000000,-0.000000,9548.656652
3873.010676,-1302.362347,962.267725,8586.388927
3873.010991,-766.095498,444.123565,8956.491898
3873.011305,76.609550,-444.123565,9178.553681
3873.011620,0.000000,-518.144159,9104.533087
3873.011935,0.000000,-666.185348,8290.306550
3873.012249,-1225.752797,-518.144159,8734.430116
3873.012564,-1149.143247,-1258.350101,10436.903782
3873.012879,-689.485948,-2072.576638,11103.089130
3873.013193,-153.219100,-1998.556043,10510.924376
3873.013508,-995.924147,-666.185348,9622.677246
3873.013823,-1532.190996,-518.144159,9548.656652
3873.014137,-842.705048,-814.226536,10066.800811
3873.014452,0.000000,-1110.308913,10288.862594
3873.014767,0.000000,-888.247130,8956.491898
3873.015081,-612.876398,-962.267725,9474.636058
3873.015396,0.000000,-592.164754,9326.594869
3873.015711,459.657299,-1406.391290,9918.759623
3873.016026,689.485948,-1110.308913,9770.718434
3873.016340,153.219100,-740.205942,9844.739029
3873.016655,0.000000,-222.061783,9474.636058
3873.016970,229.828649,-296.082377,9474.636058
3873.017284,459.657299,-370.102971,9770.718434
3873.017599,612.876398,-518.144159,9548.656652
3873.017914,383.047749,-222.061783,9252.574275
3873.018228,0.000000,296.082377,8882.471304
3873.018543,536.266849,-0.000000,9918.759623
3873.018858,766.095498,-370.102971,10288.862594
3873.019172,919.314598,-148.041188,9622.677246
3873.019487,689.485948,-0.000000,9844.739029
3873.019802,-229.828649,1406.391290,9030.512492
3873.020116,0.000000,370.102971,9622.677246
3873.020431,1072.533697,148.041188,9844.739029
3873.020746,612.876398,370.102971,8882.471304
3873.021060,383.047749,1184.329507,9104.533087
3873.021375,536.266849,592.164754,9104.533087
3873.021690,459.657299,962.267725,9770.718434
3873.022005,459.657299,888.247130,9992.780217
3873.022319,76.609550,1184.329507,8956.491898
3873.022634,-229.828649,1406.391290,9104.533087
3873.022949,919.314598,1036.288319,9030.512492
3873.023263,1378.971896,888.247130,9474.636058
3873.023578,842.705048,1110.308913,9400.615463
3873.023893,153.219100,1480.411884,8956.491898
3873.024207,0.000000,1480.411884,8438.347739
3873.024522,612.876398,888.247130,9548.656652
3873.024837,1225.752797,-74.020594,11029.068536
3873.025151,306.438199,-0.000000,9696.697840
3873.025466,-842.705048,888.247130,9622.677246
3873.025781,-995.924147,1110.308913,9696.697840
3873.026095,-306.438199,740.205942,10362.883188
3873.026410,229.828649,888.247130,10732.986159
3873.026725,0.000000,1110.308913,9474.636058
3873.027039,-229.828649,1554.432478,8956.491898
3873.027354,536.266849,1998.556043,9400.615463
3873.027669,1378.971896,1110.308913,10584.944971
3873.027984,1225.752797,1036.288319,10436.903782
3873.028298,0.000000,1406.391290,10362.883188
3873.028613,0.000000,1480.411884,9622.677246
3873.028928,-306.438199,592.164754,11029.068536
3873.029242,306.438199,814.226536,11325.150913
3873.029557,-919.314598,592.164754,10066.800811
3873.029872,-1149.143247,814.226536,9474.636058
3873.030186,-459.657299,-0.000000,10288.862594
3873.030501,153.219100,-74.020594,10732.986159
3873.030816,766.095498,370.102971,10436.903782
3873.031130,76.609550,740.205942,9918.759623
3873.031445,0.000000,962.267725,9622.677246
3873.031760,536.266849,592.164754,9474.636058
3873.032074,842.705048,370.102971,10140.821405
3873.032389,689.485948,518.144159,10214.842000
3873.032704,76.609550,1480.411884,9104.533087
3873.033018,459.657299,1110.308913,7624.121203
3873.033333,612.876398,-148.041188,9252.574275
3873.033648,1378.971896,-444.123565,9844.739029
3873.033963,383.047749,-1036.288319,9918.759623
3873.034277,-766.095498,-370.102971,9104.533087
3873.034592,-689.485948,-222.061783,9474.636058
3873.034907,-306.438199,-592.164754,9474.636058
3873.035221,229.828649,-1554.432478,9474.636058
3873.035536,0.000000,-666.185348,8956.491898
3873.035851,-612.876398,-370.102971,8068.244768
3873.036165,-689.485948,-888.247130,8956.491898
3873.036480,153.219100,-1184.329507,9770.718434
3873.036795,612.876398,-1258.350101,9696.697840
3873.037109,76.609550,-148.041188,8808.450710
3873.037424,-612.876398,-296.082377,8660.409521
3873.037739,536.266849,-814.226536,9252.574275
3873.038053,842.705048,-296.082377,9622.677246
3873.038368,766.095498,-74.020594,8882.471304
3873.038683,306.438199,-222.061783,9104.533087
3873.038998,0.000000,-592.164754,8512.368333
3873.039312,76.609550,-1776.494261,10066.800811
3873.039627,536.266849,-1628.453072,10066.800811
3873.039942,-383.047749,-1850.514855,10881.027347
3873.040256,-689.485948,-74.020594,9696.697840
3873.040571,-383.047749,-888.247130,9844.739029
3873.040886,229.828649,-296.082377,10066.800811
3873.041200,919.314598,-814.226536,10214.842000
3873.041515,76.609550,-74.020594,9548.656652
3873.041830,76.609550,740.205942,8882.471304
3873.042144,0.000000,222.061783,9770.718434
3873.042459,766.095498,-370.102971,10140.821405
3873.042774,766.095498,-0.000000,9400.615463
3873.043088,229.828649,-0.000000,9400.615463
3873.043403,536.266849,740.205942,9474.636058
3873.043718,153.219100,592.164754,10214.842000
3873.044032,383.047749,148.041188,9770.718434
3873.044347,536.266849,148.041188,9400.615463
3873.044662,-842.705048,222.061783,9252.574275
3873.044977,-536.266849,-666.185348,10066.800811
3873.045291,0.000000,-370.102971,10288.862594
3873.045606,-229.828649,-0.000000,10362.883188
3873.045921,-229.828649,-0.000000,9696.697840
3873.046235,-1149.143247,592.164754,9474.636058
3873.046550,-612.876398,-0.000000,9622.677246
3873.046865,383.047749,-370.102971,10510.924376
3873.047179,229.828649,222.061783,9918.759623
3873.047494,0.000000,814.226536,8956.491898
3873.047809,-306.438199,1036.288319,8956.491898
3873.048123,383.047749,1184.329507,9622.677246
3873.048438,1225.752797,1110.308913,9992.780217
3873.048753,1072.533697,1924.535449,8660.409521
3873.049067,383.047749,1332.370696,7994.224174
3873.049382,153.219100,814.226536,9622.677246
3873.049697,536.266849,518.144159,9918.759623
3873.050011,229.828649,-518.144159,10214.842000
3873.050326,-919.314598,-0.000000,9030.512492
3873.050641,-919.314598,-444.123565,9400.615463
3873.050956,-689.485948,-0.000000,10732.986159
3873.051270,-229.828649,-0.000000,10510.924376
3873.051585,0.000000,296.082377,9844.739029
3873.051900,-536.266849,1998.556043,9844.739029
3873.052214,-459.657299,1480.411884,9474.636058
3873.052529,1149.143247,1110.308913,9844.739029
3873.052844,1991.848295,1924.535449,10066.800811
3873.053158,459.657299,1850.514855,9178.553681
3873.053473,76.609550,1998.556043,8882.471304
3873.053788,383.047749,1184.329507,9474.636058
3873.054102,536.266849,740.205942,10510.924376
3873.054417,689.485948,-74.020594,10362.883188
3873.054732,0.000000,370.102971,9474.636058
3873.055046,-459.657299,370.102971,9622.677246
3873.055361,-306.438199,-222.061783,9622.677246
3873.055676,0.000000,-592.164754,9918.759623
3873.055990,153.219100,-1110.308913,9474.636058
3873.056305,0.000000,-74.020594,8956.491898
3873.056620,612.876398,962.267725,8438.347739
3873.056922,1302.362347,444.123565,9104.533087
3873.057236,1378.971896,296.082377,9474.636058
3873.057551,1302.362347,-0.000000,9178.553681
3873.057866,229.828649,518.144159,8438.347739
3873.058181,383.047749,-0.000000,9696.697840
3873.058496,995.924147,-518.144159,10510.924376
3873.058811,995.924147,-1406.391290,10881.027347
3873.059125,0.000000,-148.041188,9844.739029
3873.059440,-1072.533697,148.041188,9030.512492
3873.059755,-689.485948,-370.102971,10510.924376
3873.060070,153.219100,-1258.350101,10881.027347
3873.060385,153.219100,-814.226536,9474.636058
3873.060700,-306.438199,-592.164754,8882.471304
3873.061014,-383.047749,-148.041188,8512.368333
3873.061329,306.438199,-962.267725,10140.821405
3873.061644,842.705048,-962.267725,9992.780217
3873.061959,306.438199,-296.082377,9474.636058
3873.062274,0.000000,222.061783,8660.409521
3873.062588,0.000000,-74.020594,9844.739029
3873.062903,383.047749,-74.020594,10214.842000
3873.063218,459.657299,-148.041188,10140.821405
3873.063533,-306.438199,-222.061783,9252.574275
3873.063848,-842.705048,-0.000000,8586.388927
3873.064163,-536.266849,-222.061783,9474.636058
3873.064477,0.000000,-740.205942,9918.759623
3873.064792,-383.047749,-814.226536,9474.636058
3873.065107,-919.314598,-370.102971,9474.636058
3873.065422,-536.266849,-222.061783,9030.512492
3873.065737,-689.485948,-814.226536,10140.821405
3873.066052,-306.438199,-740.205942,9992.780217
3873.066366,-689.485948,-888.247130,10066.800811
3873.066681,-689.485948,370.102971,9400.615463
3873.066996,0.000000,-0.000000,9326.594869
3873.067311,306.438199,666.185348,8734.430116
3873.067626,459.657299,-148.041188,9844.739029
3873.067941,383.047749,-0.000000,8808.450710
3873.068255,0.000000,296.082377,9178.553681
3873.068570,229.828649,-0.000000,9252.574275
3873.068885,-306.438199,-1110.308913,10807.006753
3873.069200,0.000000,-518.144159,9770.718434
3873.069515,-1225.752797,-296.082377,9474.636058
3873.069830,-689.485948,592.164754,8882.471304
3873.070144,0.000000,-444.123565,9918.759623
3873.070459,383.047749,-518.144159,10066.800811
3873.070774,689.485948,-148.041188,9844.739029
3873.071089,536.266849,814.226536,9252.574275
3873.071404,383.047749,518.144159,8882.471304
3873.071718,995.924147,666.185348,9770.718434
3873.072033,1302.362347,1036.288319,9474.636058
3873.072348,689.485948,370.102971,9696.697840
3873.072663,76.609550,888.247130,9252.574275
3873.072978,612.876398,666.185348,9474.636058
3873.073293,1072.533697,-0.000000,10140.821405
3873.073607,459.657299,-148.041188,9918.759623
3873.073922,-459.657299,296.082377,9918.759623
3873.074237,-689.485948,1036.288319,9622.677246
3873.074552,0.000000,444.123565,10066.800811
3873.074867,1072.533697,296.082377,10288.862594
3873.075182,766.095498,370.102971,10140.821405
3873.075496,306.438199,1406.391290,8956.491898
3873.075811,229.828649,1184.329507,9252.574275
3873.076126,766.095498,1184.329507,10066.800811
3873.076441,1302.362347,1184.329507,9696.697840
3873.076756,689.485948,740.205942,9104.533087
3873.077071,229.828649,1850.514855,9030.512492
3873.077385,766.095498,1406.391290,8956.491898
3873.077700,919.314598,1850.514855,9474.636058
3873.078015,612.876398,1258.350101,9622.677246
3873.078330,-76.609550,1258.350101,9474.636058
3873.078645,0.000000,1110.308913,8808.450710
3873.078959,-766.095498,370.102971,9992.780217
3873.079274,-153.219100,-0.000000,9992.780217
3873.079589,-1378.971896,370.102971,9770.718434
3873.079904,-1762.019645,-0.000000,9992.780217
3873.080219,-1455.581446,148.041188,10066.800811
3873.080534,-1302.362347,-666.185348,10732.986159
3873.080848,153.219100,-592.164754,10362.883188
3873.081163,153.219100,444.123565,10510.924376
3873.081478,-306.438199,2146.597232,9030.512492
3873.081793,383.047749,1628.453072,9030.512492
3873.082108,612.876398,1480.411884,9104.533087
3873.082423,1149.143247,518.144159,8956.491898
3873.082737,919.314598,-0.000000,8808.450710
3873.083052,76.609550,518.144159,8438.347739
3873.083367,0.000000,-740.205942,9770.718434
3873.083682,76.609550,-1480.411884,10214.842000
3873.083997,-689.485948,-1258.350101,10658.965565
3873.084312,-1608.800546,-740.205942,9696.697840
3873.084626,-1225.752797,-666.185348,10140.821405
3873.084941,-459.657299,-370.102971,10214.842000
3873.085256,229.828649,-962.267725,9474.636058
3873.085571,153.219100,-0.000000,9178.553681
3873.085886,0.000000,444.123565,9104.533087
3873.086200,459.657299,296.082377,9474.636058
3873.086515,1455.581446,-148.041188,10140.821405
3873.086830,1685.410096,-0.000000,9474.636058
3873.087145,1378.971896,592.164754,9030.512492
3873.087460,459.657299,592.164754,8660.409521
3873.087775,1072.533697,-592.164754,9844.739029
3873.088089,612.876398,-592.164754,9622.677246
3873.088404,459.657299,-1406.391290,9400.615463
3873.088719,-459.657299,-1110.308913,9030.512492
3873.089034,-612.876398,-1332.370696,8734.430116
3873.089349,306.438199,-2294.638420,9844.739029
3873.089664,153.219100,-2072.576638,10288.862594
3873.089978,-229.828649,-740.205942,9622.677246
3873.090293,0.000000,-296.082377,8586.388927
3873.090608,229.828649,-444.123565,8882.471304
3873.090923,1302.362347,-518.144159,9400.615463
3873.091238,1608.800546,-444.123565,9326.594869
3873.091553,919.314598,370.102971,7698.141797
3873.091867,689.485948,740.205942,8734.430116
3873.092182,995.924147,-0.000000,9548.656652
3873.092497,919.314598,-296.082377,9992.780217
3873.092812,689.485948,-74.020594,10140.821405
3873.093127,0.000000,-148.041188,9178.553681
3873.093441,-689.485948,-0.000000,9252.574275
3873.093756,-612.876398,-962.267725,9326.594869
3873.094071,-612.876398,-1332.370696,10066.800811
3873.094386,-919.314598,-592.164754,9548.656652
3873.094701,-1378.971896,-370.102971,8882.471304
3873.095016,-1149.143247,-296.082377,9400.615463
3873.095330,-306.438199,-0.000000,10214.842000
3873.095645,153.219100,-370.102971,10510.924376
3873.095960,229.828649,1258.350101,8956.491898
3873.096275,-536.266849,1850.514855,9474.636058
3873.096590,0.000000,1332.370696,9918.759623
3873.096905,306.438199,814.226536,10214.842000
3873.097219,76.609550,814.226536,10288.862594
3873.097534,-383.047749,1332.370696,9474.636058
3873.097849,-229.828649,666.185348,9474.636058
3873.098164,-153.219100,962.267725,10732.986159
3873.098479,-306.438199,-0.000000,10881.027347
3873.098794,-995.924147,-0.000000,9992.780217
3873.099108,-1072.533697,370.102971,9548.656652
3873.099423,0.000000,518.144159,9992.780217
3873.099738,0.000000,370.102971,10140.821405
3873.100053,229.828649,148.041188,10362.883188
3873.100368,-229.828649,1258.350101,9030.512492
3873.100682,-459.657299,2220.617826,8290.306550
3873.100997,766.095498,1036.288319,9696.697840
3873.101312,1455.581446,518.144159,9696.697840
3873.101627,1149.143247,518.144159,9548.656652
3873.101942,689.485948,888.247130,9104.533087
3873.102257,0.000000,1480.411884,8808.450710
3873.102571,0.000000,518.144159,11325.150913
3873.102886,-229.828649,740.205942,11177.109724
3873.103201,-229.828649,-222.061783,10214.842000
3873.103516,0.000000,666.185348,8956.491898
3873.103831,-153.219100,592.164754,9696.697840
3873.104146,689.485948,296.082377,10214.842000
3873.104460,1225.752797,-666.185348,10140.821405
3873.104775,766.095498,-0.000000,9844.739029
3873.105090,612.876398,740.205942,9104.533087
3873.105405,842.705048,518.144159,9252.574275
3873.105720,1762.019645,370.102971,9696.697840
3873.106035,1608.800546,148.041188,9918.759623
3873.106349,689.485948,1184.329507,8586.388927
3873.106664,306.438199,888.247130,8808.450710
3873.106979,766.095498,-74.020594,10066.800811
3873.107294,766.095498,-518.144159,10881.027347
3873.107609,229.828649,-444.123565,9548.656652
3873.107924,-229.828649,-0.000000,9178.553681
3873.108238,-153.219100,148.041188,9400.615463
3873.108553,76.609550,-888.247130,10807.006753
3873.108868,919.314598,-740.205942,10510.924376
3873.109183,0.000000,-0.000000,9178.553681
3873.109498,0.000000,444.123565,8438.347739
3873.109812,76.609550,444.123565,9104.533087
3873.110127,766.095498,-370.102971,10140.821405
3873.110442,1072.533697,-740.205942,9326.594869
3873.110757,76.609550,296.082377,8660.409521
3873.111072,76.609550,888.247130,8290.306550
3873.111387,459.657299,-0.000000,9770.718434
3873.111701,536.266849,666.185348,9178.553681
3873.112016,229.828649,-222.061783,8956.491898
3873.112331,-995.924147,222.061783,9104.533087
3873.112646,-919.314598,-222.061783,9474.636058
3873.112961,-842.705048,-1480.411884,9770.718434
3873.113276,0.000000,-2516.700203,10584.944971
3873.113590,-1149.143247,-1554.432478,10436.903782
3873.113905,-1838.629195,-296.082377,9696.697840
3873.114220,-1455.581446,296.082377,9770.718434
3873.114535,-383.047749,222.061783,9770.718434
3873.114850,153.219100,148.041188,9696.697840
3873.115165,536.266849,444.123565,8512.368333
3873.115479,153.219100,-0.000000,8364.327145
3873.115794,766.095498,-74.020594,9400.615463
3873.116109,459.657299,-296.082377,9548.656652
3873.116424,383.047749,-814.226536,9548.656652
3873.116739,-383.047749,-518.144159,9252.574275
3873.117053,-612.876398,-296.082377,9474.636058
3873.117368,-459.657299,-962.267725,10066.800811
3873.117683,-306.438199,-1332.370696,10658.965565
3873.117998,-612.876398,-1554.432478,10436.903782
3873.118313,-1685.410096,-888.247130,9622.677246
3873.118628,-919.314598,-148.041188,9918.759623
3873.118942,306.438199,-814.226536,10066.800811
3873.119257,919.314598,-592.164754,9622.677246
3873.119572,842.705048,518.144159,9696.697840
3873.119887,459.657299,1628.453072,8586.388927
3873.120202,919.314598,1628.453072,9474.636058
3873.120517,1991.848295,888.247130,9474.636058
3873.120831,1915.238745,222.061783,9696.697840
3873.121146,612.876398,962.267725,8808.450710
3873.121461,229.828649,592.164754,9696.697840
3873.121776,459.657299,518.144159,9770.718434
3873.122091,383.047749,-0.000000,10288.862594
3873.122406,-306.438199,370.102971,9326.594869
3873.122720,-612.876398,370.102971,8660.409521
3873.123035,-153.219100,-148.041188,9400.615463
3873.123350,766.095498,-0.000000,9474.636058
3873.123665,612.876398,-0.000000,9622.677246
3873.123980,0.000000,592.164754,9326.594869
3873.124294,0.000000,222.061783,9474.636058
3873.124609,536.266849,962.267725,9178.553681
3873.124924,1685.410096,888.247130,9474.636058
3873.125239,1915.238745,1554.432478,9030.512492
3873.125554,383.047749,2146.597232,9770.718434
3873.125869,0.000000,1924.535449,9252.574275
3873.126183,0.000000,740.205942,10510.924376
3873.126498,153.219100,222.061783,10140.821405
3873.126813,689.485948,-0.000000,10214.842000
3873.127128,-536.266849,814.226536,9474.636058
3873.127443,-842.705048,-0.000000,10066.800811
3873.127758,-306.438199,-148.041188,11029.068536
3873.128072,229.828649,-814.226536,10732.986159
3873.128387,-306.438199,814.226536,9326.594869
3873.128702,-919.314598,1184.329507,9474.636058
3873.129017,-153.219100,1110.308913,9918.759623
3873.129332,612.876398,148.041188,9844.739029
3873.129647,536.266849,1184.329507,9844.739029
3873.129961,153.219100,1406.391290,9030.512492
3873.130276,-153.219100,1628.453072,8956.491898
3873.130591,76.609550,962.267725,10214.842000
3873.130906,229.828649,-0.000000,10807.006753
3873.131221,0.000000,740.205942,9992.780217
3873.131535,-689.485948,814.226536,9178.553681
3873.131850,-689.485948,148.041188,10510.924376
3873.132165,-459.657299,-148.041188,10881.027347
3873.132480,-229.828649,-888.247130,9770.718434
3873.132795,-612.876398,-0.000000,9548.656652
3873.133110,-766.095498,444.123565,9400.615463
3873.133424,76.609550,-0.000000,9770.718434
3873.133739,689.485948,222.061783,9548.656652
3873.134054,995.924147,-74.020594,9622.677246
3873.134369,919.314598,518.144159,8512.368333
3873.134684,612.876398,888.247130,7994.224174
3873.134999,689.485948,-0.000000,9030.512492
3873.135313,1302.362347,-814.226536,10214.842000
3873.135628,689.485948,-222.061783,8956.491898
3873.135943,-383.047749,-370.102971,9104.533087
3873.136258,-229.828649,-222.061783,9992.780217
3873.136573,0.000000,-222.061783,10214.842000
3873.136888,0.000000,-962.267725,10140.821405
3873.137202,0.000000,-962.267725,9696.697840
3873.137517,-306.438199,518.144159,8734.430116
3873.137832,153.219100,-592.164754,8956.491898
3873.138147,766.095498,-370.102971,9400.615463
3873.138462,1302.362347,-592.164754,9474.636058
3873.138776,229.828649,-296.082377,8512.368333
3873.139091,153.219100,-740.205942,8734.430116
3873.139406,0.000000,-370.102971,9918.759623
3873.139721,306.438199,-444.123565,9992.780217
3873.140036,0.000000,-962.267725,9030.512492
3873.140351,-919.314598,-222.061783,9030.512492
3873.140665,-459.657299,-666.185348,9104.533087
3873.140980,-306.438199,-666.185348,9474.636058
3873.141295,-306.438199,-1406.391290,10066.800811
3873.141610,-459.657299,-1036.288319,9622.677246
3873.141925,-153.219100,-370.102971,9252.574275
3873.142240,-383.047749,-0.000000,9474.636058
3873.142554,459.657299,-666.185348,10362.883188
3873.142869,536.266849,-296.082377,10436.903782
3873.143184,0.000000,370.102971,8216.285956
3873.143499,76.609550,296.082377,9178.553681
3873.143814,919.314598,740.205942,9918.759623
3873.144129,1149.143247,444.123565,9474.636058
3873.144443,995.924147,518.144159,8808.450710
3873.144758,0.000000,1110.308913,8512.368333
3873.145073,0.000000,592.164754,9474.636058
3873.145388,0.000000,-0.000000,9918.759623
3873.145703,0.000000,-814.226536,10362.883188
3873.146017,-842.705048,-814.226536,10066.800811
3873.146332,-1149.143247,-0.000000,9622.677246
3873.146647,-766.095498,814.226536,9104.533087
3873.146962,-612.876398,-74.020594,11177.109724
3873.147277,76.609550,-0.000000,10881.027347
3873.147592,-612.876398,74.020594,9548.656652
3873.147906,-919.314598,666.185348,9474.636058
3873.148221,0.000000,1110.308913,10658.965565
3873.148536,459.657299,1184.329507,10436.903782
3873.148851,689.485948,1036.288319,9178.553681
3873.149166,306.438199,1628.453072,9252.574275
3873.149481,153.219100,1332.370696,8956.491898
3873.149795,1072.533697,814.226536,9474.636058
3873.150110,995.924147,222.061783,9918.759623
3873.150425,536.266849,370.102971,9548.656652
3873.150740,-459.657299,962.267725,8586.388927
3873.151055,-306.438199,222.061783,9918.759623
3873.151370,153.219100,-666.185348,10436.903782
3873.151684,383.047749,-592.164754,10362.883188
3873.151999,-536.266849,888.247130,8586.388927
3873.152314,-459.657299,1036.288319,8808.450710
3873.152629,229.828649,1184.329507,9844.739029
3873.152944,1378.971896,-148.041188,9844.739029
3873.153259,1302.362347,-0.000000,9326.594869
3873.153573,842.705048,962.267725,8660.409521
3873.153888,612.876398,1332.370696,9252.574275
3873.154203,1072.533697,814.226536,10140.821405
3873.154518,1685.410096,592.164754,11029.068536
3873.154833,536.266849,962.267725,9918.759623
3873.155147,0.000000,666.185348,9326.594869
3873.155462,-229.828649,740.205942,8956.491898
3873.155777,306.438199,222.061783,9844.739029
3873.156092,1149.143247,296.082377,9622.677246
3873.156406,0.000000,296.082377,8512.368333
3873.156721,-306.438199,-0.000000,9400.615463
3873.157036,306.438199,-74.020594,9622.677246
3873.157351,612.876398,-74.020594,10066.800811
3873.157665,536.266849,-222.061783,10214.842000
3873.157980,229.828649,444.123565,9400.615463
3873.158295,153.219100,1258.350101,9030.512492
3873.158610,153.219100,1184.329507,9622.677246
3873.158924,766.095498,666.185348,9992.780217
3873.159239,306.438199,-0.000000,9548.656652
3873.159554,-306.438199,666.185348,8956.491898
3873.159869,229.828649,-0.000000,9992.780217
3873.160184,383.047749,-222.061783,9918.759623
3873.160498,459.657299,-666.185348,10288.862594
3873.160813,-536.266849,-222.061783,9622.677246
3873.161128,-919.314598,-0.000000,9326.594869
3873.161443,-459.657299,-74.020594,9844.739029
3873.161757,0.000000,-1036.288319,9918.759623
3873.162072,0.000000,-1036.288319,9770.718434
3873.162387,-689.485948,-962.267725,8734.430116
3873.162702,-995.924147,-518.144159,8512.368333
3873.163016,-383.047749,-740.205942,10436.903782
3873.163331,459.657299,-222.061783,10214.842000
3873.163646,76.609550,-296.082377,9622.677246
3873.163961,-536.266849,740.205942,9030.512492
3873.164276,0.000000,666.185348,9844.739029
3873.164590,383.047749,-0.000000,9622.677246
3873.164905,536.266849,-0.000000,9474.636058
3873.165220,-383.047749,-444.123565,9548.656652
3873.165535,-689.485948,-222.061783,9622.677246
3873.165849,-306.438199,-370.102971,9992.780217
3873.166164,229.828649,-1036.288319,11029.068536
3873.166479,229.828649,-666.185348,9770.718434
3873.166794,-612.876398,296.082377,9178.553681
3873.167108,-536.266849,444.123565,9030.512492
3873.167423,229.828649,222.061783,9474.636058
3873.167738,1149.143247,-592.164754,9104.533087
3873.168053,383.047749,-296.082377,8216.285956
3873.168367,536.266849,-444.123565,8660.409521
3873.168682,153.219100,444.123565,9030.512492
3873.168997,0.000000,-0.000000,10362.883188
3873.169312,306.438199,-0.000000,10140.821405
3873.169627,0.000000,-222.061783,9252.574275
3873.169941,-383.047749,666.185348,9104.533087
3873.170256,-383.047749,444.123565,10066.800811
3873.170571,306.438199,222.061783,9844.739029
3873.170886,0.000000,-148.041188,9400.615463
3873.171200,0.000000,-0.000000,8734.430116
3873.171515,-459.657299,370.102971,9326.594869
3873.171830,612.876398,-0.000000,10288.862594
3873.172145,766.095498,-0.000000,9770.718434
3873.172459,0.000000,-222.061783,9252.574275
3873.172774,0.000000,370.102971,9474.636058
3873.173089,-229.828649,518.144159,8956.491898
3873.173404,153.219100,-0.000000,9474.636058
3873.173719,536.266849,296.082377,9474.636058
3873.174033,0.000000,296.082377,8660.409521
3873.174348,153.219100,222.061783,8882.471304
3873.174663,76.609550,-74.020594,10436.903782
3873.174978,919.314598,-0.000000,10362.883188
3873.175292,306.438199,-296.082377,9918.759623
3873.175607,842.705048,814.226536,9622.677246
3873.175922,76.609550,888.247130,10362.883188
3873.176237,383.047749,962.267725,10732.986159
3873.176551,919.314598,592.164754,10584.944971
3873.176866,383.047749,518.144159,9474.636058
3873.177181,0.000000,1480.411884,8808.450710
3873.177496,76.609550,888.247130,9696.697840
3873.177811,842.705048,666.185348,10436.903782
3873.178125,1149.143247,592.164754,10436.903782
3873.178440,306.438199,592.164754,9252.574275
3873.178755,459.657299,222.061783,9030.512492
3873.179070,0.000000,666.185348,10214.842000
3873.179384,76.609550,222.061783,10436.903782
3873.179699,76.609550,-0.000000,10066.800811
3873.180014,-842.705048,814.226536,9252.574275
3873.180329,-383.047749,-0.000000,10214.842000
3873.180643,-229.828649,370.102971,11103.089130
3873.180958,0.000000,444.123565,10881.027347
3873.181273,0.000000,814.226536,10214.842000
3873.181588,-229.828649,740.205942,9326.594869
3873.181902,76.609550,1184.329507,9622.677246
3873.182217,153.219100,666.185348,10066.800811
3873.182532,689.485948,-370.102971,9474.636058
3873.182847,0.000000,-0.000000,8956.491898
3873.183162,-306.438199,518.144159,8808.450710
3873.183476,-229.828649,444.123565,9104.533087
3873.183791,153.219100,-222.061783,9918.759623
3873.184106,536.266849,-888.247130,9326.594869
3873.184421,-229.828649,-444.123565,8956.491898
3873.184735,-766.095498,-222.061783,8512.368333
3873.185050,-229.828649,-0.000000,10140.821405
3873.185365,0.000000,-0.000000,9696.697840
3873.185680,0.000000,-0.000000,8808.450710
3873.185994,76.609550,-0.000000,7698.141797
3873.186309,459.657299,296.082377,9326.594869
3873.186624,689.485948,296.082377,10066.800811
3873.186939,689.485948,-666.185348,10140.821405
3873.187254,459.657299,-74.020594,9400.615463
3873.187568,0.000000,-0.000000,9178.553681
3873.187883,919.314598,592.164754,9622.677246
3873.188198,766.095498,-148.041188,10140.821405
3873.188513,459.657299,-0.000000,9474.636058
3873.188827,-229.828649,-74.020594,9400.615463
3873.189142,0.000000,592.164754,8586.388927
3873.189457,383.047749,-0.000000,9770.718434
3873.189772,919.314598,-222.061783,10510.924376
3873.190086,612.876398,-370.102971,9548.656652
3873.190401,-383.047749,-0.000000,9474.636058
3873.190716,-536.266849,-296.082377,10214.842000
3873.191031,459.657299,148.041188,10732.986159
3873.191345,383.047749,-296.082377,10362.883188
3873.191660,76.609550,-222.061783,9326.594869
3873.191975,0.000000,-74.020594,8808.450710
3873.192290,842.705048,-0.000000,9252.574275
3873.192605,0.000000,-0.000000,10881.027347
3873.192919,-459.657299,-0.000000,9844.739029
3873.193234,-383.047749,-666.185348,9474.636058
3873.193549,-153.219100,-222.061783,9030.512492
3873.193864,229.828649,-518.144159,9770.718434
3873.194178,383.047749,-962.267725,10214.842000
3873.194493,-306.438199,-888.247130,9474.636058
3873.194808,-766.095498,-74.020594,9474.636058
3873.195123,-612.876398,592.164754,9474.636058
3873.195437,536.266849,296.082377,9770.718434
3873.195752,689.485948,-0.000000,9548.656652
3873.196067,0.000000,-148.041188,9104.533087
3873.196382,-612.876398,-0.000000,8364.327145
3873.196697,153.219100,-74.020594,9326.594869
3873.197011,536.266849,-0.000000,9918.759623
3873.197326,153.219100,-0.000000,9474.636058
3873.197641,-306.438199,-222.061783,8660.409521
3873.197956,-536.266849,370.102971,8956.491898
3873.198270,0.000000,296.082377,9474.636058
3873.198585,229.828649,-444.123565,10066.800811
3873.198900,0.000000,296.082377,9770.718434
3873.199215,-536.266849,592.164754,9474.636058
3873.199529,-536.266849,-0.000000,9548.656652
3873.199844,459.657299,370.102971,9622.677246
3873.200159,842.705048,296.082377,9696.697840
3873.200474,0.000000,666.185348,9326.594869
3873.200788,-612.876398,1628.453072,9030.512492
3873.201103,76.609550,1258.350101,9770.718434
3873.201418,1072.533697,592.164754,9918.759623
3873.201733,995.924147,-0.000000,9844.739029
3873.202048,76.609550,592.164754,9844.739029
3873.202362,76.609550,1554.432478,9474.636058
3873.202677,612.876398,814.226536,10214.842000
3873.202992,0.000000,148.041188,10436.903782
3873.203307,842.705048,-0.000000,10140.821405
3873.203621,76.609550,666.185348,8956.491898
3873.203936,76.609550,814.226536,10066.800811
3873.204251,76.609550,740.205942,10140.821405
3873.204566,536.266849,-370.102971,9918.759623
3873.204880,-229.828649,-0.000000,9178.553681
3873.205195,-383.047749,592.164754,9918.759623
3873.205510,229.828649,518.144159,9548.656652
3873.205825,689.485948,-0.000000,10436.903782
3873.206140,842.705048,-0.000000,10288.862594
3873.206454,-383.047749,962.267725,8882.471304
3873.206769,-612.876398,1110.308913,9030.512492
3873.207084,306.438199,-0.000000,9770.718434
3873.207399,766.095498,-296.082377,9696.697840
3873.207713,766.095498,-740.205942,9622.677246
3873.208028,-306.438199,-222.061783,8956.491898
3873.208343,-153.219100,-370.102971,9474.636058
3873.208658,229.828649,-592.164754,10584.944971
3873.208972,536.266849,-296.082377,10066.800811
3873.209287,459.657299,-296.082377,9548.656652
3873.209602,-842.705048,370.102971,9178.553681
3873.209917,229.828649,222.061783,9844.739029
3873.210231,919.314598,370.102971,10140.821405
3873.210546,1225.752797,740.205942,9252.574275
3873.210861,76.609550,1110.308913,8290.306550
3873.211176,153.219100,888.247130,8438.347739
3873.211491,919.314598,1036.288319,9474.636058
3873.211805,1302.362347,-0.000000,9622.677246
3873.212120,76.609550,-74.020594,9400.615463
3873.212435,459.657299,-222.061783,9326.594869
3873.212750,-689.485948,296.082377,9178.553681
3873.213064,-612.876398,-296.082377,10807.006753
3873.213379,-306.438199,-814.226536,10881.027347
3873.213694,-689.485948,-592.164754,10066.800811
3873.214009,-1455.581446,444.123565,8882.471304
3873.214323,-919.314598,444.123565,9400.615463
3873.214638,-536.266849,-370.102971,10510.924376
3873.214953,-229.828649,-370.102971,10140.821405
3873.215268,-153.219100,296.082377,8956.491898
3873.215583,-229.828649,296.082377,9326.594869
3873.215897,76.609550,518.144159,10140.821405
3873.216212,459.657299,592.164754,9918.759623
3873.216527,383.047749,-0.000000,9326.594869
3873.216842,0.000000,444.123565,8438.347739
3873.217156,0.000000,222.061783,9400.615463
3873.217471,76.609550,-0.000000,9918.759623
3873.217786,76.609550,-518.144159,9770.718434
3873.218101,0.000000,-888.247130,9474.636058
3873.218415,-612.876398,-444.123565,9252.574275
3873.218730,-306.438199,-444.123565,10214.842000
3873.219045,459.657299,-814.226536,10510.924376
3873.219360,-153.219100,-1406.391290,10288.862594
3873.219674,0.000000,-148.041188,9696.697840
3873.219989,-76.609550,222.061783,8956.491898
3873.220304,229.828649,296.082377,9770.718434
3873.220619,1302.362347,-0.000000,10510.924376
3873.220934,1225.752797,-222.061783,9992.780217
3873.221248,612.876398,370.102971,8660.409521
3873.221563,383.047749,296.082377,9622.677246
3873.221878,1149.143247,222.061783,10214.842000
3873.222193,919.314598,-370.102971,10436.903782
3873.222507,306.438199,-0.000000,9400.615463
3873.222822,76.609550,-222.061783,9326.594869
3873.223137,229.828649,-370.102971,9844.739029
3873.223452,612.876398,-296.082377,9992.780217
3873.223766,536.266849,-444.123565,10214.842000
3873.224081,0.000000,-444.123565,9474.636058
3873.224396,229.828649,222.061783,8882.471304
3873.224711,306.438199,148.041188,9548.656652
3873.225026,766.095498,444.123565,10288.862594
3873.225340,383.047749,592.164754,9918.759623
3873.225655,383.047749,1184.329507,8660.409521
3873.225970,459.657299,1184.329507,8290.306550
3873.226285,766.095498,740.205942,9474.636058
3873.226599,689.485948,-0.000000,9622.677246
3873.226914,229.828649,-0.000000,9104.533087
3873.227229,-612.876398,592.164754,8290.306550
3873.227544,-995.924147,296.082377,9474.636058
3873.227858,-229.828649,-0.000000,10362.883188
3873.228173,-536.266849,-1110.308913,9918.759623
3873.228488,-1225.752797,-666.185348,9696.697840
3873.228803,-995.924147,-74.020594,9178.553681
3873.229117,-383.047749,518.144159,9474.636058
3873.229432,383.047749,888.247130,9918.759623
3873.229747,153.219100,740.205942,9252.574275
3873.230062,-229.828649,1480.411884,8956.491898
3873.230377,-383.047749,1184.329507,8216.285956
3873.230691,-153.219100,1110.308913,9400.615463
3873.231006,1838.629195,-1332.370696,11029.068536
3873.231321,0.000000,1332.370696,9696.697840
3873.231636,-2068.457845,444.123565,10510.924376
3873.231950,-1072.533697,666.185348,10288.862594
3873.232265,-1225.752797,888.247130,11621.233289
3873.232580,0.000000,1110.308913,10066.800811
3873.232895,0.000000,444.123565,9548.656652
3873.233209,-536.266849,1036.288319,9030.512492
3873.233524,-153.219100,-74.020594,10362.883188
3873.233839,612.876398,370.102971,10362.883188
3873.234154,0.000000,444.123565,11251.130318
3873.234469,-459.657299,1036.288319,9696.697840
3873.234783,76.609550,1036.288319,9326.594869
3873.235098,383.047749,1184.329507,9548.656652
3873.235413,842.705048,592.164754,10807.006753
3873.235728,306.438199,444.123565,10362.883188
3873.236042,-306.438199,370.102971,9104.533087
3873.236357,-306.438199,-0.000000,10140.821405
3873.236672,536.266849,148.041188,9622.677246
3873.236987,1072.533697,-1036.288319,10732.986159
3873.237301,612.876398,-0.000000,8882.471304
3873.237616,0.000000,148.041188,9178.553681
3873.237931,306.438199,740.205942,9474.636058
3873.238246,1072.533697,296.082377,10436.903782
3873.238561,1072.533697,222.061783,8142.265362
3873.238875,842.705048,-370.102971,8956.491898
3873.239190,0.000000,-0.000000,8734.430116
3873.239505,689.485948,-1110.308913,9696.697840
3873.239820,919.314598,-1258.350101,9844.739029
3873.240134,76.609550,-740.205942,9400.615463
3873.240449,-153.219100,222.061783,8956.491898
3873.240764,229.828649,-0.000000,8808.450710
3873.241079,919.314598,-148.041188,9178.553681
3873.241393,1455.581446,-888.247130,9474.636058
3873.241708,459.657299,-740.205942,8438.347739
3873.242023,-689.485948,-888.247130,8808.450710
3873.242338,-229.828649,-1110.308913,9770.718434
3873.242652,612.876398,-888.247130,9474.636058
3873.242967,842.705048,-1184.329507,9770.718434
3873.243282,76.609550,-148.041188,9474.636058
3873.243597,0.000000,814.226536,8290.306550
3873.243912,383.047749,740.205942,8882.471304
3873.244226,842.705048,-0.000000,9030.512492
3873.244541,842.705048,-0.000000,8364.327145
3873.244856,76.609550,296.082377,8068.244768
3873.245171,-459.657299,-444.123565,9104.533087
3873.245485,-229.828649,-740.205942,10510.924376
3873.245800,-229.828649,-1036.288319,10140.821405
3873.246115,-1072.533697,-666.185348,10584.944971
3873.246430,-1685.410096,222.061783,9992.780217
3873.246744,-1072.533697,296.082377,10955.047942
3873.247059,-766.095498,518.144159,10510.924376
3873.247374,-842.705048,-0.000000,10066.800811
3873.247689,-1072.533697,888.247130,9918.759623
3873.248004,-612.876398,666.185348,9104.533087
3873.248318,-153.219100,666.185348,10140.821405
3873.248633,459.657299,-0.000000,10214.842000
3873.248948,383.047749,-0.000000,10066.800811
3873.249263,-383.047749,444.123565,9696.697840
3873.249577,-459.657299,666.185348,9918.759623
3873.249892,0.000000,592.164754,10436.903782
3873.250207,229.828649,518.144159,10288.862594
3873.250522,76.609550,-74.020594,9918.759623
3873.250836,-995.924147,-148.041188,8956.491898
3873.251151,-689.485948,-444.123565,9548.656652
3873.251466,0.000000,-296.082377,10066.800811
3873.251781,383.047749,-370.102971,10140.821405
3873.252095,-306.438199,-0.000000,9696.697840
3873.252410,229.828649,814.226536,9474.636058
3873.252725,536.266849,814.226536,10214.842000
3873.253040,536.266849,740.205942,9992.780217
3873.253355,1225.752797,518.144159,9178.553681
3873.253669,536.266849,814.226536,8882.471304
3873.253984,383.047749,1110.308913,9178.553681
3873.254299,1302.362347,-74.020594,10658.965565
3873.254614,842.705048,444.123565,9696.697840
3873.254928,153.219100,370.102971,9548.656652
3873.255243,-459.657299,592.164754,8512.368333
3873.255558,76.609550,-0.000000,9474.636058
3873.255873,919.314598,148.041188,9622.677246
3873.256187,842.705048,-0.000000,9030.512492
3873.256502,306.438199,-0.000000,8290.306550
3873.256817,0.000000,-0.000000,8660.409521
3873.257131,306.438199,814.226536,9474.636058
3873.257446,689.485948,222.061783,10362.883188
3873.257761,995.924147,-148.041188,9844.739029
3873.258076,0.000000,444.123565,8882.471304
3873.258390,459.657299,1184.329507,9178.553681
3873.258705,1302.362347,814.226536,9474.636058
3873.259020,1072.533697,962.267725,9474.636058
3873.259334,536.266849,888.247130,8586.388927
3873.259649,689.485948,888.247130,8438.347739
3873.259964,995.924147,740.205942,8956.491898
3873.260279,842.705048,-0.000000,10140.821405
3873.260593,766.095498,-0.000000,10140.821405
3873.260908,0.000000,-74.020594,9400.615463
3873.261223,-995.924147,370.102971,9104.533087
3873.261537,383.047749,-222.061783,10288.862594
3873.261852,229.828649,444.123565,10510.924376
3873.262167,0.000000,814.226536,9474.636058
3873.262481,-459.657299,666.185348,8882.471304
3873.262796,0.000000,592.164754,9326.594869
3873.263111,536.266849,444.123565,10288.862594
3873.263426,1149.143247,222.061783,10881.027347
3873.263740,0.000000,888.247130,9992.780217
3873.264055,-766.095498,814.226536,9696.697840
3873.264370,-229.828649,370.102971,10584.944971
3873.264684,-306.438199,-74.020594,10881.027347
3873.264999,0.000000,-888.247130,10584.944971
3873.265314,-766.095498,-518.144159,10066.800811
3873.265629,-1532.190996,592.164754,9104.533087
3873.265943,-536.266849,-148.041188,10288.862594
3873.266258,-153.219100,-148.041188,9844.739029
3873.266573,-919.314598,-888.247130,10807.006753
3873.266887,-612.876398,-740.205942,9474.636058
3873.267202,-536.266849,-222.061783,8882.471304
3873.267517,842.705048,-74.020594,9696.697840
3873.267832,76.609550,-518.144159,10510.924376
3873.268146,-229.828649,-148.041188,9844.739029
3873.268461,-612.876398,-0.000000,8882.471304
3873.268776,-153.219100,814.226536,8660.409521
3873.269090,612.876398,-74.020594,9992.780217
3873.269405,306.438199,-444.123565,9548.656652
3873.269720,0.000000,-0.000000,9400.615463
3873.270035,-766.095498,-0.000000,8586.388927
3873.270349,-459.657299,-148.041188,9178.553681
3873.270664,0.000000,-592.164754,9474.636058
3873.270979,536.266849,-1036.288319,9252.574275
3873.271293,0.000000,-222.061783,9178.553681
3873.271608,-612.876398,518.144159,8882.471304
3873.271923,76.609550,740.205942,9252.574275
3873.272238,383.047749,-74.020594,9548.656652
3873.272552,153.219100,-222.061783,9030.512492
3873.272867,0.000000,222.061783,8438.347739
3873.273182,0.000000,-0.000000,8882.471304
3873.273496,842.705048,-74.020594,10140.821405
3873.273811,1149.143247,-0.000000,9992.780217
3873.274126,306.438199,222.061783,9178.553681
3873.274441,-459.657299,222.061783,8586.388927
3873.274755,612.876398,592.164754,9326.594869
3873.275070,919.314598,-296.082377,9918.759623
3873.275385,1149.143247,-222.061783,9844.739029
3873.275699,76.609550,-0.000000,9474.636058
3873.276014,-536.266849,148.041188,9178.553681
3873.276329,306.438199,-148.041188,10140.821405
3873.276644,1378.971896,-296.082377,10658.965565
3873.276958,766.095498,148.041188,9474.636058
3873.277273,306.438199,444.123565,8512.368333
3873.277588,1149.143247,1480.411884,8882.471304
3873.277902,1455.581446,1628.453072,9326.594869
3873.278217,1072.533697,222.061783,9918.759623
3873.278532,919.314598,296.082377,9622.677246
3873.278847,0.000000,-0.000000,9918.759623
3873.279161,76.609550,296.082377,9622.677246
3873.279476,306.438199,-0.000000,10732.986159
3873.279791,0.000000,-0.000000,11325.150913
3873.280105,-766.095498,592.164754,10140.821405
3873.280420,-919.314598,888.247130,9918.759623
3873.280735,-536.266849,518.144159,10807.006753
3873.281050,-383.047749,296.082377,11029.068536
3873.281364,-306.438199,444.123565,9918.759623
3873.281679,-842.705048,444.123565,9030.512492
3873.281994,-842.705048,962.267725,9252.574275
3873.282308,153.219100,962.267725,10066.800811
3873.282623,689.485948,296.082377,10362.883188
3873.282938,-153.219100,740.205942,9326.594869
3873.283253,-306.438199,1258.350101,9030.512492
3873.283567,0.000000,1332.370696,9696.697840
3873.283882,306.438199,666.185348,9548.656652
3873.284197,0.000000,-74.020594,9770.718434
3873.284511,-612.876398,-74.020594,9030.512492
3873.284826,0.000000,-0.000000,9474.636058
3873.285141,0.000000,444.123565,9622.677246
3873.285456,-229.828649,296.082377,9622.677246
3873.285770,-459.657299,-888.247130,10140.821405
3873.286085,-689.485948,-222.061783,8882.471304
3873.286400,-689.485948,-0.000000,9770.718434
3873.286714,-229.828649,-0.000000,9474.636058
3873.287029,383.047749,-1332.370696,10658.965565
3873.287344,153.219100,-296.082377,9030.512492
3873.287659,-306.438199,-370.102971,8956.491898
3873.287973,0.000000,814.226536,8882.471304
3873.288288,689.485948,-370.102971,9918.759623
3873.288603,1378.971896,-666.185348,9474.636058
3873.288917,383.047749,-370.102971,8808.450710
3873.289232,0.000000,-0.000000,8438.347739
3873.289547,-229.828649,-888.247130,9992.780217
3873.289862,229.828649,-1480.411884,9844.739029
3873.290176,-229.828649,-1554.432478,9844.739029
3873.290491,0.000000,-148.041188,8290.306550
3873.290806,76.609550,-0.000000,8956.491898
3873.291120,689.485948,222.061783,9844.739029
3873.291435,1072.533697,-444.123565,9770.718434
3873.291750,306.438199,-0.000000,8808.450710
3873.292065,76.609550,-74.020594,8734.430116
3873.292379,995.924147,-74.020594,8882.471304
3873.292694,1072.533697,-444.123565,9770.718434
3873.293009,995.924147,-370.102971,9918.759623
3873.293323,-306.438199,-370.102971,10214.842000
3873.293638,-229.828649,444.123565,9104.533087
3873.293953,229.828649,444.123565,9252.574275
3873.294268,766.095498,-0.000000,9918.759623
3873.294582,536.266849,-592.164754,9844.739029
3873.294897,0.000000,-740.205942,9548.656652
3873.295212,-76.609550,-0.000000,9622.677246
3873.295526,0.000000,148.041188,10288.862594
3873.295841,229.828649,-0.000000,10288.862594
3873.296156,383.047749,666.185348,9474.636058
3873.296471,153.219100,740.205942,7920.203579
3873.296785,689.485948,296.082377,9326.594869
3873.297100,919.314598,444.123565,10066.800811
3873.297415,153.219100,-74.020594,10436.903782
3873.297729,-229.828649,222.061783,9474.636058
3873.298044,0.000000,666.185348,9770.718434
3873.298359,-229.828649,962.267725,10066.800811
3873.298674,-153.219100,-0.000000,11251.130318
3873.298988,-536.266849,-0.000000,10140.821405
3873.299303,-1072.533697,1258.350101,9400.615463
3873.299618,-536.266849,1184.329507,9548.656652
3873.299932,0.000000,814.226536,9918.759623
3873.300247,76.609550,-444.123565,10881.027347
3873.300562,-229.828649,222.061783,9474.636058
3873.300877,-1072.533697,444.123565,9030.512492
3873.301191,-842.705048,444.123565,9696.697840
3873.301506,0.000000,-222.061783,10658.965565
3873.301821,76.609550,-0.000000,10658.965565
3873.302135,-612.876398,222.061783,9696.697840
3873.302450,-766.095498,814.226536,9030.512492
3873.302765,-536.266849,740.205942,9474.636058
3873.303079,76.609550,740.205942,9474.636058
3873.303394,76.609550,296.082377,9548.656652
3873.303709,0.000000,666.185348,8734.430116
3873.304024,383.047749,-592.164754,9992.780217
3873.304338,76.609550,-0.000000,9622.677246
3873.304653,0.000000,296.082377,10288.862594
3873.304968,0.000000,370.102971,9844.739029
3873.305282,-766.095498,1332.370696,8808.450710
3873.305597,76.609550,1406.391290,9474.636058
3873.305912,1072.533697,814.226536,9844.739029
3873.306227,1072.533697,-0.000000,9696.697840
3873.306541,766.095498,1036.288319,9104.533087
3873.306856,536.266849,1480.411884,8586.388927
3873.307171,689.485948,1036.288319,9104.533087
3873.307485,1225.752797,-0.000000,10510.924376
3873.307800,766.095498,-518.144159,10288.862594
3873.308115,0.000000,-666.185348,9400.615463
3873.308430,0.000000,222.061783,10140.821405
3873.308744,229.828649,740.205942,9326.594869
3873.309059,153.219100,-370.102971,9548.656652
3873.309374,612.876398,-666.185348,10140.821405
3873.309688,-536.266849,-518.144159,9400.615463
3873.310003,76.609550,-0.000000,8882.471304
3873.310318,76.609550,-740.205942,10140.821405
3873.310633,383.047749,-666.185348,9992.780217
3873.310947,689.485948,-0.000000,8882.471304
3873.311262,153.219100,962.267725,8142.265362
3873.311577,995.924147,518.144159,8586.388927
3873.311891,1072.533697,370.102971,9474.636058
3873.312206,919.314598,-222.061783,8882.471304
3873.312521,-153.219100,-592.164754,9030.512492
3873.312836,-383.047749,-74.020594,9844.739029
3873.313150,0.000000,-592.164754,10436.903782
3873.313465,-536.266849,-814.226536,10510.924376
3873.313780,-612.876398,-518.144159,9992.780217
3873.314094,-1378.971896,-592.164754,9696.697840
3873.314409,-689.485948,592.164754,9696.697840
3873.314724,-306.438199,-222.061783,10288.862594
3873.315039,153.219100,-0.000000,9770.718434
3873.315353,0.000000,-444.123565,9178.553681
3873.315668,0.000000,-0.000000,8882.471304
3873.315983,76.609550,-444.123565,9992.780217
3873.316297,689.485948,-74.020594,9474.636058
3873.316612,459.657299,-222.061783,9770.718434
3873.316927,229.828649,370.102971,9030.512492
3873.317242,76.609550,1110.308913,8808.450710
3873.317556,153.219100,444.123565,9400.615463
3873.317871,0.000000,-518.144159,9844.739029
3873.318186,-383.047749,-592.164754,9326.594869
3873.318500,-766.095498,-666.185348,9474.636058
3873.318815,-306.438199,222.061783,9548.656652
3873.319130,0.000000,222.061783,10732.986159
3873.319445,76.609550,-0.000000,10584.944971
3873.319759,-383.047749,-74.020594,10362.883188
3873.320074,-612.876398,518.144159,9474.636058
3873.320389,0.000000,1036.288319,9918.759623
3873.320703,612.876398,370.102971,9696.697840
3873.321018,919.314598,444.123565,9104.533087
3873.321333,229.828649,888.247130,8438.347739
3873.321648,76.609550,814.226536,8734.430116
3873.321962,612.876398,444.123565,9696.697840
3873.322277,1149.143247,-0.000000,10214.842000
3873.322592,536.266849,-814.226536,10140.821405
3873.322906,306.438199,148.041188,8586.388927
3873.323221,-153.219100,-148.041188,10066.800811
3873.323536,383.047749,-74.020594,10510.924376
3873.323851,459.657299,-666.185348,10732.986159
3873.324165,153.219100,666.185348,9104.533087
3873.324480,229.828649,370.102971,8882.471304
3873.324795,1225.752797,888.247130,9400.615463
3873.325109,1455.581446,518.144159,9918.759623
3873.325424,995.924147,296.082377,9696.697840
3873.325739,689.485948,370.102971,9770.718434
3873.326054,536.266849,740.205942,9474.636058
3873.326368,995.924147,-0.000000,10362.883188
3873.326683,459.657299,222.061783,9844.739029
3873.326998,153.219100,-0.000000,10140.821405
3873.327312,-383.047749,296.082377,8660.409521
3873.327627,76.609550,740.205942,9474.636058
3873.327942,612.876398,-0.000000,9696.697840
3873.328257,766.095498,-0.000000,10140.821405
3873.328571,229.828649,-0.000000,8808.450710
3873.328886,-459.657299,666.185348,8290.306550
3873.329201,0.000000,962.267725,10214.842000
3873.329515,689.485948,1036.288319,9548.656652
3873.329830,0.000000,740.205942,9770.718434
3873.330145,0.000000,888.247130,8734.430116
3873.330460,-459.657299,962.267725,9474.636058
3873.330774,-229.828649,666.185348,10214.842000
3873.331089,-766.095498,370.102971,10732.986159
3873.331404,-459.657299,518.144159,9918.759623
3873.331718,-766.095498,222.061783,9622.677246
3873.332033,-689.485948,1184.329507,10066.800811
3873.332348,229.828649,1332.370696,10214.842000
3873.332663,-536.266849,666.185348,9400.615463
3873.332977,-383.047749,592.164754,9178.553681
3873.333292,-995.924147,592.164754,8808.450710
3873.333607,-306.438199,-0.000000,9918.759623
3873.333921,383.047749,-296.082377,9400.615463
3873.334236,-306.438199,-740.205942,9918.759623
3873.334551,-383.047749,-740.205942,9252.574275
3873.334866,-842.705048,-740.205942,9178.553681
3873.335180,0.000000,-0.000000,9770.718434
3873.335495,689.485948,-222.061783,9844.739029
3873.335810,306.438199,-0.000000,9326.594869
3873.336124,306.438199,-0.000000,8734.430116
3873.336439,0.000000,222.061783,8586.388927
3873.336754,612.876398,-296.082377,9844.739029
3873.337069,0.000000,-888.247130,10362.883188
3873.337383,153.219100,-666.185348,9474.636058
3873.337698,76.609550,-148.041188,9326.594869
3873.338013,459.657299,-0.000000,9770.718434
3873.338327,612.876398,-444.123565,10584.944971
3873.338642,0.000000,-740.205942,10288.862594
3873.338957,0.000000,-1184.329507,9474.636058
3873.339272,-612.876398,-444.123565,8660.409521
3873.339586,306.438199,-518.144159,9696.697840
3873.339901,919.314598,-444.123565,9844.739029
3873.340216,842.705048,-666.185348,9400.615463
3873.340530,76.609550,-74.020594,9104.533087
3873.340845,383.047749,-296.082377,9400.615463
3873.341160,1225.752797,-222.061783,9992.780217
3873.341474,1149.143247,-222.061783,10214.842000
3873.341789,689.485948,-296.082377,9548.656652
3873.342104,-229.828649,444.123565,8882.471304
3873.342419,0.000000,-296.082377,9844.739029
3873.342733,842.705048,-444.123565,9844.739029
3873.343048,0.000000,-148.041188,9696.697840
3873.343363,-229.828649,370.102971,9104.533087
3873.343677,76.609550,518.144159,8956.491898
3873.343992,383.047749,-148.041188,9326.594869
3873.344307,1685.410096,-444.123565,9992.780217
3873.344622,0.000000,-148.041188,8290.306550
3873.344936,383.047749,-148.041188,8142.265362
3873.345251,229.828649,370.102971,8734.430116
3873.345566,459.657299,370.102971,8882.471304
3873.345880,459.657299,296.082377,9474.636058
3873.346195,0.000000,-0.000000,9252.574275
3873.346510,-383.047749,222.061783,9474.636058
3873.346825,-383.047749,-0.000000,9992.780217
3873.347139,-153.219100,-0.000000,9770.718434
3873.347454,-689.485948,-222.061783,10807.006753
3873.347769,-919.314598,370.102971,9474.636058
3873.348083,-1991.848295,-0.000000,9696.697840
3873.348398,-766.095498,222.061783,9770.718434
3873.348713,-612.876398,-296.082377,10584.944971
3873.349028,-536.266849,296.082377,10436.903782
3873.349342,-536.266849,814.226536,9770.718434
3873.349657,-459.657299,1258.350101,9622.677246
3873.349972,229.828649,1036.288319,9918.759623
3873.350286,306.438199,666.185348,10140.821405
3873.350601,306.438199,962.267725,9548.656652
3873.350916,536.266849,1258.350101,9400.615463
3873.351231,612.876398,1850.514855,9622.677246
3873.351545,0.000000,1332.370696,9622.677246
3873.351860,229.828649,-0.000000,9696.697840
3873.352175,0.000000,-0.000000,9696.697840
3873.352489,-842.705048,-74.020594,9992.780217
3873.352804,0.000000,444.123565,11029.068536
3873.353119,-153.219100,296.082377,10658.965565
3873.353434,0.000000,148.041188,10214.842000
3873.353748,0.000000,592.164754,9918.759623
3873.354063,-229.828649,666.185348,9770.718434
3873.354378,919.314598,666.185348,9400.615463
3873.354692,995.924147,1036.288319,9622.677246
3873.355007,842.705048,1036.288319,9326.594869
3873.355322,459.657299,962.267725,8290.306550
3873.355637,383.047749,592.164754,8660.409521
3873.355951,306.438199,-0.000000,9474.636058
3873.356266,766.095498,-962.267725,9474.636058
3873.356581,0.000000,-814.226536,9400.615463
3873.356895,-306.438199,-518.144159,9474.636058
3873.357210,0.000000,-1110.308913,10288.862594
3873.357525,383.047749,-370.102971,9474.636058
3873.357840,306.438199,-74.020594,9104.533087
3873.358154,76.609550,296.082377,8586.388927
3873.358469,76.609550,-0.000000,8956.491898
3873.358784,842.705048,370.102971,8956.491898
3873.359099,1378.971896,-74.020594,9252.574275
3873.359414,1225.752797,-444.123565,8438.347739
3873.359728,612.876398,-740.205942,8956.491898
3873.360043,536.266849,-518.144159,9770.718434
3873.360358,536.266849,-740.205942,10066.800811
3873.360673,612.876398,-592.164754,10140.821405
3873.360988,0.000000,-0.000000,9548.656652
3873.361303,0.000000,-148.041188,9400.615463
3873.361618,306.438199,-0.000000,9400.615463
3873.361933,153.219100,-592.164754,9400.615463
3873.362248,153.219100,-814.226536,9178.553681
3873.362562,-459.657299,-962.267725,9548.656652
3873.362877,0.000000,-148.041188,9400.615463
3873.363192,76.609550,-0.000000,10214.842000
3873.363507,76.609550,-0.000000,10214.842000
3873.363822,229.828649,-0.000000,10066.800811
3873.364137,0.000000,1110.308913,8512.368333
3873.364452,0.000000,592.164754,9696.697840
3873.364767,76.609550,592.164754,9844.739029
3873.365082,76.609550,518.144159,9992.780217
3873.365397,-383.047749,518.144159,9030.512492
3873.365711,-306.438199,-74.020594,9474.636058
3873.366026,-153.219100,518.144159,10362.883188
3873.366341,-459.657299,296.082377,10066.800811
3873.366656,0.000000,-0.000000,9992.780217
3873.366971,-919.314598,666.185348,9326.594869
3873.367286,-536.266849,592.164754,9400.615463
3873.367601,-842.705048,-0.000000,10214.842000
3873.367916,0.000000,-222.061783,10584.944971
3873.368231,-383.047749,-74.020594,9918.759623
3873.368545,-536.266849,-0.000000,9252.574275
3873.368860,-383.047749,592.164754,9918.759623
3873.369175,919.314598,666.185348,10510.924376
3873.369490,919.314598,888.247130,9770.718434
3873.369805,0.000000,666.185348,9326.594869
3873.370120,153.219100,814.226536,9178.553681
3873.370435,306.438199,370.102971,9770.718434
3873.370750,689.485948,666.185348,10140.821405
3873.371065,689.485948,-296.082377,10584.944971
3873.371380,-306.438199,-0.000000,9474.636058
3873.371694,0.000000,-74.020594,9696.697840
3873.372009,536.266849,-370.102971,10362.883188
3873.372324,919.314598,-296.082377,10288.862594
3873.372639,689.485948,-0.000000,9548.656652
3873.372954,0.000000,814.226536,8438.347739
3873.373269,0.000000,962.267725,9400.615463
3873.373584,383.047749,370.102971,9400.615463
3873.373899,612.876398,-592.164754,9622.677246
3873.374214,612.876398,-0.000000,9770.718434
3873.374529,229.828649,296.082377,9030.512492
3873.374843,306.438199,592.164754,9844.739029
3873.375158,536.266849,296.082377,10288.862594
3873.375473,536.266849,-222.061783,10584.944971
3873.375788,0.000000,222.061783,10214.842000
3873.376103,-229.828649,1110.308913,8882.471304
3873.376418,76.609550,370.102971,9770.718434
3873.376733,153.219100,296.082377,10066.800811
3873.377048,0.000000,-0.000000,8882.471304
3873.377363,-306.438199,222.061783,7920.203579
3873.377677,0.000000,-0.000000,8956.491898
3873.377992,383.047749,222.061783,9326.594869
3873.378307,842.705048,-148.041188,9622.677246
3873.378622,459.657299,1110.308913,8438.347739
3873.378937,76.609550,1110.308913,8142.265362
3873.379252,383.047749,1258.350101,8882.471304
3873.379567,383.047749,-0.000000,9696.697840
3873.379882,153.219100,-0.000000,9918.759623
3873.380197,-76.609550,518.144159,9252.574275
3873.380512,-612.876398,296.082377,8586.388927
3873.380826,-306.438199,-296.082377,10436.903782
3873.381141,0.000000,-592.164754,11103.089130
3873.381456,76.609550,-444.123565,10584.944971
3873.381771,-536.266849,444.123565,9770.718434
3873.382086,-306.438199,518.144159,10140.821405
3873.382401,0.000000,148.041188,9918.759623
3873.382716,842.705048,-296.082377,9992.780217
3873.383031,459.657299,-148.041188,9400.615463
3873.383346,153.219100,444.123565,8882.471304
3873.383660,0.000000,370.102971,9252.574275
3873.383975,1072.533697,-0.000000,9992.780217
3873.384290,689.485948,-592.164754,10658.965565
3873.384605,76.609550,-0.000000,9326.594869
3873.384920,-153.219100,-0.000000,9474.636058
3873.385235,76.609550,-370.102971,10362.883188
3873.385550,306.438199,-1036.288319,10658.965565
3873.385865,76.609550,-592.164754,10362.883188
3873.386180,-459.657299,-148.041188,9252.574275
3873.386495,-383.047749,-0.000000,10214.842000
3873.386809,306.438199,-296.082377,10066.800811
3873.387124,766.095498,444.123565,9252.574275
3873.387439,153.219100,-0.000000,10066.800811
3873.387754,-229.828649,814.226536,8808.450710
3873.388069,612.876398,444.123565,8956.491898
3873.388384,766.095498,-0.000000,9548.656652
3873.388699,536.266849,-296.082377,9104.533087
3873.389014,0.000000,-222.061783,9030.512492
3873.389329,153.219100,-0.000000,8882.471304
3873.389643,0.000000,-296.082377,10066.800811
3873.389958,383.047749,-444.123565,10066.800811
3873.390273,0.000000,-592.164754,9548.656652
3873.390588,-536.266849,-0.000000,8808.450710
3873.390903,-383.047749,666.185348,9474.636058
3873.391218,0.000000,814.226536,9252.574275
3873.391533,766.095498,370.102971,9400.615463
3873.391848,689.485948,740.205942,8660.409521
3873.392163,229.828649,370.102971,8734.430116
3873.392478,459.657299,962.267725,9252.574275
3873.392792,842.705048,592.164754,10436.903782
3873.393107,612.876398,444.123565,10214.842000
3873.393422,-153.219100,1036.288319,9252.574275
3873.393737,0.000000,814.226536,9548.656652
3873.394052,76.609550,-0.000000,10362.883188
3873.394367,0.000000,-0.000000,9918.759623
3873.394682,-536.266849,-148.041188,9622.677246
3873.394997,-766.095498,-0.000000,9400.615463
3873.395312,-766.095498,296.082377,9622.677246
3873.395627,0.000000,-148.041188,9474.636058
3873.395941,536.266849,-1110.308913,9918.759623
3873.396256,0.000000,-296.082377,10288.862594
3873.396571,0.000000,666.185348,9696.697840
3873.396886,-306.438199,814.226536,10288.862594
3873.397201,153.219100,222.061783,10732.986159
3873.397516,612.876398,296.082377,10362.883188
3873.397831,153.219100,666.185348,9030.512492
3873.398146,-229.828649,666.185348,9474.636058
3873.398461,-153.219100,444.123565,9696.697840
3873.398775,76.609550,-1184.329507,10584.944971
3873.399090,-306.438199,-222.061783,9992.780217
3873.399405,-919.314598,222.061783,9400.615463
3873.399720,-612.876398,-0.000000,9844.739029
3873.400035,76.609550,-0.000000,10140.821405
3873.400350,766.095498,-370.102971,9622.677246
3873.400665,995.924147,-0.000000,9030.512492
3873.400980,459.657299,666.185348,8290.306550
3873.401295,536.266849,1406.391290,9104.533087
3873.401610,1225.752797,888.247130,9400.615463
3873.401924,1225.752797,518.144159,9178.553681
3873.402239,612.876398,592.164754,8660.409521
3873.402554,76.609550,296.082377,8956.491898
3873.402869,383.047749,-148.041188,9696.697840
3873.403184,229.828649,-0.000000,9844.739029
3873.403499,-306.438199,-0.000000,9696.697840
3873.403814,-383.047749,-74.020594,9030.512492
3873.404129,-306.438199,-740.205942,9326.594869
3873.404444,-229.828649,-518.144159,9918.759623
3873.404758,0.000000,-814.226536,10214.842000
3873.405073,-383.047749,-444.123565,9104.533087
3873.405388,-383.047749,296.082377,8956.491898
3873.405703,229.828649,444.123565,9474.636058
3873.406018,459.657299,370.102971,9696.697840
3873.406333,842.705048,444.123565,8734.430116
3873.406648,536.266849,-0.000000,8734.430116
3873.406963,459.657299,-0.000000,8882.471304
3873.407278,0.000000,-222.061783,9474.636058
3873.407593,0.000000,-666.185348,10658.965565
3873.407907,-612.876398,-518.144159,10955.047942
3873.408222,-1072.533697,-962.267725,9844.739029
3873.408537,-919.314598,-740.205942,9622.677246
3873.408852,-229.828649,-666.185348,11177.109724
3873.409167,0.000000,-222.061783,10584.944971
3873.409482,76.609550,-148.041188,9696.697840
3873.409797,-612.876398,518.144159,9104.533087
3873.410112,76.609550,888.247130,9326.594869
3873.410427,459.657299,592.164754,9474.636058
3873.410741,536.266849,-222.061783,10066.800811
3873.411056,306.438199,-0.000000,9104.533087
3873.411371,459.657299,222.061783,8438.347739
3873.411686,306.438199,-148.041188,9104.533087
3873.412001,995.924147,-296.082377,10362.883188
3873.412316,383.047749,518.144159,9696.697840
3873.412631,0.000000,-0.000000,8956.491898
3873.412946,-306.438199,222.061783,8512.368333
3873.413261,-306.438199,-444.123565,10214.842000
3873.413576,-229.828649,-518.144159,10214.842000
3873.413890,-459.657299,-296.082377,9548.656652
3873.414205,-689.485948,370.102971,8734.430116
3873.414520,-306.438199,370.102971,9548.656652
3873.414835,229.828649,148.041188,9992.780217
3873.415150,459.657299,-148.041188,10436.903782
3873.415465,-306.438199,148.041188,9844.739029
3873.415780,-306.438199,962.267725,8808.450710
3873.416095,0.000000,1036.288319,9474.636058
3873.416410,612.876398,592.164754,10140.821405
3873.416725,306.438199,518.144159,10066.800811
3873.417039,76.609550,296.082377,8808.450710
3873.417354,612.876398,-0.000000,8438.347739
3873.417669,459.657299,296.082377,9770.718434
3873.417984,842.705048,-148.041188,9918.759623
3873.418299,0.000000,-0.000000,8660.409521
3873.418614,-766.095498,-0.000000,8586.388927
3873.418929,0.000000,-666.185348,9178.553681
3873.419244,0.000000,-666.185348,9992.780217
3873.419559,0.000000,-666.185348,10140.821405
3873.419873,-229.828649,-74.020594,9474.636058
3873.420188,-306.438199,666.185348,9252.574275
3873.420503,459.657299,222.061783,10362.883188
3873.420818,612.876398,814.226536,10140.821405
3873.421133,842.705048,592.164754,10436.903782
3873.421448,229.828649,962.267725,9030.512492
3873.421763,459.657299,888.247130,9030.512492
3873.422078,842.705048,296.082377,10066.800811
3873.422393,612.876398,222.061783,9178.553681
3873.422708,76.609550,-0.000000,9696.697840
3873.423022,-229.828649,-0.000000,9770.718434
3873.423337,0.000000,-0.000000,9696.697840
3873.423652,306.438199,-0.000000,10066.800811
3873.423967,459.657299,-0.000000,10584.944971
3873.424282,76.609550,740.205942,9400.615463
3873.424597,153.219100,1110.308913,8512.368333
3873.424912,1072.533697,814.226536,8808.450710
3873.425227,766.095498,1184.329507,9400.615463
3873.425542,459.657299,592.164754,9844.739029
3873.425856,0.000000,296.082377,9844.739029
3873.426171,0.000000,666.185348,9696.697840
3873.426486,459.657299,-0.000000,10807.006753
3873.426801,153.219100,-0.000000,10807.006753
3873.427116,76.609550,-0.000000,10658.965565
3873.427431,-306.438199,444.123565,9992.780217
3873.427746,0.000000,518.144159,10066.800811
3873.428061,766.095498,666.185348,9622.677246
3873.428376,459.657299,-0.000000,10288.862594
3873.428691,76.609550,-0.000000,9252.574275
3873.429005,-306.438199,296.082377,9252.574275
3873.429320,0.000000,370.102971,8882.471304
3873.429635,0.000000,-592.164754,9252.574275
3873.429950,-842.705048,-740.205942,9326.594869
3873.430265,-842.705048,-740.205942,9030.512492
3873.430580,-1072.533697,-814.226536,9326.594869
3873.430895,-1532.190996,-888.247130,10066.800811
3873.431210,-1838.629195,-1184.329507,9844.739029
3873.431525,-1838.629195,-1406.391290,10658.965565
3873.431840,-1915.238745,-740.205942,10214.842000
3873.432154,-1608.800546,-740.205942,10288.862594
3873.432469,-689.485948,-222.061783,9844.739029
3873.432784,-612.876398,-222.061783,9918.759623
3873.433099,-612.876398,-222.061783,8956.491898
3873.433414,-1072.533697,-222.061783,7920.203579
3873.433729,-995.924147,-518.144159,8808.450710
3873.434044,-536.266849,-1036.288319,9104.533087
3873.434359,-612.876398,-2072.576638,8808.450710
3873.434674,-1302.362347,-1998.556043,9474.636058
3873.434988,-1991.848295,-1406.391290,9178.553681
3873.435303,-2528.115143,-1628.453072,10288.862594
3873.435618,-2681.334243,-1998.556043,10362.883188
3873.435933,-2451.505594,-1702.473667,10066.800811
3873.436248,-2298.286494,-1850.514855,9992.780217
3873.436563,-2451.505594,-1776.494261,9696.697840
3873.436878,-2068.457845,-1258.350101,9548.656652
3873.437193,-1225.752797,-1036.288319,9326.594869
3873.437508,-1149.143247,-1110.308913,9030.512492
3873.437823,-919.314598,-1036.288319,8956.491898
3873.438137,-1532.190996,-592.164754,8882.471304
3873.438452,-1378.971896,-592.164754,8660.409521
3873.438767,-689.485948,-2072.576638,9252.574275
3873.439082,-995.924147,-2368.659014,9918.759623
3873.439397,-1991.848295,-2590.720797,9844.739029
3873.439712,-2681.334243,-2368.659014,10066.800811
3873.440027,-2451.505594,-2368.659014,9548.656652
3873.440342,-1685.410096,-2516.700203,9770.718434
3873.440657,-995.924147,-2368.659014,8882.471304
3873.440971,-1302.362347,-2294.638420,9400.615463
3873.441286,-1532.190996,-1850.514855,9104.533087
3873.441601,-1378.971896,-2368.659014,9030.512492
3873.441916,-1302.362347,-2442.679609,8438.347739
3873.442231,-1225.752797,-3330.926739,9252.574275
3873.442546,-1685.410096,-3256.906145,10288.862594
3873.442861,-1685.410096,-2664.741391,11029.068536
3873.443176,-2451.505594,-3108.864956,10955.047942
3873.443491,-2528.115143,-2368.659014,10807.006753
3873.443806,-1532.190996,-1702.473667,10436.903782
3873.444120,-1302.362347,-1258.350101,9844.739029
3873.444435,-1378.971896,-1406.391290,9696.697840
3873.444750,-1149.143247,-1702.473667,9326.594869
3873.445065,-1225.752797,-2368.659014,8956.491898
3873.445380,-1225.752797,-2442.679609,8882.471304
3873.445695,-766.095498,-2442.679609,9400.615463
3873.446010,-1685.410096,-1998.556043,9178.553681
3873.446325,-1685.410096,-2590.720797,9326.594869
3873.446640,-2068.457845,-2368.659014,9252.574275
3873.446954,-2757.943793,-2146.597232,9548.656652
3873.447269,-2298.286494,-2072.576638,9770.718434
3873.447584,-2374.896044,-2072.576638,9844.739029
3873.447899,-2834.553343,-1998.556043,9548.656652
3873.448214,-2528.115143,-2738.761985,10140.821405
3873.448529,-3294.210641,-1258.350101,8068.244768
3873.448844,-2681.334243,-2960.823768,9696.697840
3873.449159,-1455.581446,-1850.514855,9178.553681
3873.449474,-1991.848295,-1998.556043,8956.491898
3873.449789,-2451.505594,-1998.556043,9770.718434
3873.450103,-2298.286494,-2294.638420,10214.842000
3873.450418,-2987.772442,-1850.514855,9474.636058
3873.450733,-3140.991542,-1924.535449,9622.677246
3873.451048,-2145.067394,-2368.659014,9696.697840
3873.451363,-1991.848295,-1480.411884,8956.491898
3873.451678,-1991.848295,-2294.638420,9104.533087
3873.451993,-2451.505594,-2146.597232,9104.533087
3873.452308,-2604.724693,-2072.576638,9030.512492
3873.452623,-2145.067394,-1850.514855,8882.471304
3873.452938,-1915.238745,-962.267725,7624.121203
3873.453252,-1302.362347,-1850.514855,8290.306550
3873.453567,-1991.848295,-2368.659014,8512.368333
3873.453882,-2068.457845,-2812.782580,9622.677246
3873.454197,-2757.943793,-2886.803174,10510.924376
3873.454512,-3140.991542,-2590.720797,10955.047942
3873.454827,-2987.772442,-1406.391290,10584.944971
3873.455142,-2451.505594,-1258.350101,9622.677246
3873.455457,-2451.505594,-1110.308913,10140.821405
3873.455772,-2145.067394,-1332.370696,10436.903782
3873.456086,-1991.848295,-1628.453072,10510.924376
3873.456401,-1608.800546,-1998.556043,10140.821405
3873.456716,-1225.752797,-1998.556043,9622.677246
3873.457031,-766.095498,-222.061783,8882.471304
3873.457346,-536.266849,-518.144159,8512.368333
3873.457661,-612.876398,-1406.391290,9030.512492
3873.457976,-1072.533697,-2146.597232,9770.718434
3873.458290,-2298.286494,-2738.761985,10288.862594
3873.458605,-2221.676944,-2220.617826,10214.842000
3873.458920,-2068.457845,-2072.576638,10658.965565
3873.459235,-2374.896044,-1850.514855,10584.944971
3873.459550,-2145.067394,-1628.453072,10140.821405
3873.459864,-1762.019645,-1702.473667,9622.677246
3873.460179,-1378.971896,-1554.432478,9474.636058
3873.460494,-1225.752797,-1776.494261,9326.594869
3873.460809,-383.047749,-1036.288319,8882.471304
3873.461124,0.000000,-814.226536,9252.574275
3873.461439,-229.828649,-1258.350101,9474.636058
3873.461753,-919.314598,-1406.391290,9770.718434
3873.462068,-1991.848295,-1776.494261,9770.718434
3873.462383,-2221.676944,-1554.432478,9622.677246
3873.462698,-2604.724693,-1850.514855,9474.636058
3873.463013,-2528.115143,-2590.720797,9770.718434
3873.463328,-2757.943793,-2812.782580,10214.842000
3873.463642,-3294.210641,-3404.947333,10140.821405
3873.463957,-3140.991542,-3627.009116,10510.924376
3873.464272,-2911.162892,-3182.885551,10881.027347
3873.464587,-2221.676944,-2442.679609,10066.800811
3873.464902,-2145.067394,-1776.494261,8956.491898
3873.465217,-1532.190996,-1036.288319,8142.265362
3873.465531,-919.314598,-1184.329507,7846.182985
3873.465846,-766.095498,-1850.514855,8142.265362
3873.466161,-1532.190996,-2220.617826,8734.430116
3873.466476,-1762.019645,-2590.720797,9474.636058
3873.466791,-1762.019645,-2664.741391,9992.780217
3873.467106,-2145.067394,-2516.700203,10140.821405
3873.467420,-2298.286494,-1628.453072,10362.883188
3873.467735,-2604.724693,-1554.432478,9326.594869
3873.468050,-2298.286494,-1628.453072,8586.388927
3873.468365,-2298.286494,-1998.556043,8068.244768
3873.468680,-2221.676944,-2442.679609,8290.306550
3873.468994,-2451.505594,-3256.906145,8734.430116
3873.469309,-2528.115143,-3775.050304,9474.636058
3873.469624,-2834.553343,-3552.988522,10362.883188
3873.469939,-2987.772442,-2738.761985,11103.089130
3873.470254,-2834.553343,-2072.576638,11177.109724
3873.470569,-2145.067394,-1110.308913,10584.944971
3873.470883,-2145.067394,-444.123565,9918.759623
3873.471198,-1532.190996,-444.123565,8660.409521
3873.471513,-1378.971896,-1036.288319,8364.327145
3873.471828,-1225.752797,-1628.453072,8216.285956
3873.472143,-1455.581446,-2368.659014,7846.182985
3873.472458,-1378.971896,-2590.720797,7994.224174
3873.472772,-1991.848295,-2812.782580,9252.574275
3873.473087,-2145.067394,-2664.741391,10214.842000
3873.473402,-2451.505594,-2738.761985,10362.883188
3873.473717,-2528.115143,-2220.617826,11251.130318
3873.474032,-2221.676944,-1924.535449,10955.047942
3873.474347,-1838.629195,-1184.329507,10436.903782
3873.474661,-1915.238745,-814.226536,9104.533087
3873.474976,-1225.752797,-444.123565,8290.306550
3873.475291,-766.095498,-518.144159,7550.100608
3873.475606,-383.047749,-888.247130,7328.038826
3873.475921,-612.876398,-814.226536,7476.080014
3873.476236,-1149.143247,-1110.308913,8660.409521
3873.476550,-2068.457845,-1998.556043,10510.924376
3873.476865,-1991.848295,-2590.720797,11473.192101
3873.477180,-3217.601092,-2960.823768,12287.418637
3873.477495,-3907.087040,-2886.803174,13471.748144
3873.477810,-3140.991542,-2368.659014,12805.562797
3873.478125,-2374.896044,-1258.350101,11695.253884
3873.478439,-1915.238745,-592.164754,10214.842000
3873.478754,-536.266849,148.041188,8216.285956
3873.479069,0.000000,740.205942,6735.874072
3873.479384,1149.143247,-518.144159,7179.997637
3873.479699,1455.581446,-222.061783,7031.956449
3873.480013,-766.095498,-2146.597232,7920.203579
3873.480328,-1455.581446,-2812.782580,9400.615463
3873.480643,-2834.553343,-3404.947333,11177.109724
3873.480958,-3753.867940,-3256.906145,12139.377449
3873.481273,-4290.134789,-3701.029710,12953.603985
3873.481588,-3983.696590,-3034.844362,12805.562797
3873.481902,-3830.477490,-1850.514855,11251.130318
3873.482217,-3217.601092,-1184.329507,10140.821405
3873.482532,-2451.505594,-592.164754,9474.636058
3873.482847,-995.924147,-518.144159,8216.285956
3873.483162,459.657299,-666.185348,7402.059420
3873.483477,766.095498,-296.082377,7179.997637
3873.483791,919.314598,-814.226536,8290.306550
3873.484106,229.828649,-1554.432478,8882.471304
3873.484421,-842.705048,-1628.453072,9474.636058
3873.484736,-1455.581446,-1850.514855,10140.821405
3873.485051,-2451.505594,-2146.597232,10140.821405
3873.485366,-3140.991542,-2368.659014,9844.739029
3873.485680,-3600.648841,-2960.823768,9622.677246
3873.485995,-4519.963438,-3256.906145,8882.471304
3873.486310,-3907.087040,-3330.926739,8068.244768
3873.486625,-3600.648841,-2812.782580,8290.306550
3873.486940,-2911.162892,-2812.782580,9474.636058
3873.487255,-2528.115143,-2368.659014,9474.636058
3873.487569,-2298.286494,-2294.638420,10288.862594
3873.487884,-1608.800546,-2368.659014,11103.089130
3873.488199,-1149.143247,-1628.453072,11251.130318
3873.488514,-1072.533697,-1110.308913,11177.109724
3873.488829,-919.314598,-222.061783,9992.780217
3873.489144,-842.705048,222.061783,8660.409521
3873.489458,0.000000,444.123565,7550.100608
3873.489773,-919.314598,-740.205942,6809.894666
3873.490088,-1378.971896,-1998.556043,7402.059420
3873.490403,-2298.286494,-3108.864956,8068.244768
3873.490718,-3294.210641,-3997.112087,9030.512492
3873.491032,-4213.525239,-4737.318029,10214.842000
3873.491347,-4213.525239,-4959.379811,11695.253884
3873.491662,-3983.696590,-4663.297435,12435.459826
3873.491977,-3753.867940,-3552.988522,12361.439231
3873.492292,-3294.210641,-2664.741391,11843.295072
3873.492607,-2145.067394,-1628.453072,10140.821405
3873.492921,-689.485948,-0.000000,9252.574275
3873.493236,-229.828649,666.185348,8068.244768
3873.493551,153.219100,814.226536,7179.997637
3873.493866,306.438199,-0.000000,7105.977043
3873.494181,459.657299,-592.164754,7624.121203
3873.494496,-459.657299,-1628.453072,8956.491898
3873.494810,-1378.971896,-2516.700203,9770.718434
3873.495125,-2374.896044,-3552.988522,10881.027347
3873.495440,-3524.039291,-4441.235652,11917.315666
3873.495755,-4213.525239,-4663.297435,11917.315666
3873.496070,-4136.915689,-4219.173869,11399.171507
3873.496385,-3447.429741,-3552.988522,10658.965565
3873.496699,-2757.943793,-2220.617826,9400.615463
3873.497014,-1838.629195,-1110.308913,8216.285956
3873.497329,-689.485948,-296.082377,7254.018232
3873.497644,612.876398,-0.000000,7402.059420
3873.497959,1149.143247,-148.041188,8068.244768
3873.498274,536.266849,-370.102971,8808.450710
3873.498588,612.876398,-740.205942,9992.780217
3873.498903,536.266849,-888.247130,10807.006753
3873.499218,0.000000,-1332.370696,11103.089130
3873.499533,-383.047749,-1332.370696,10510.924376
3873.499848,-842.705048,-1406.391290,10140.821405
3873.500162,-612.876398,-1036.288319,9030.512492
3873.500477,-766.095498,-814.226536,8290.306550
3873.500792,-689.485948,-666.185348,7920.203579
3873.501107,-766.095498,-740.205942,7550.100608
3873.501422,-1225.752797,-1184.329507,7994.224174
3873.501737,-1762.019645,-1998.556043,8660.409521
3873.502051,-1991.848295,-2294.638420,9474.636058
3873.502366,-2298.286494,-2442.679609,10584.944971
3873.502681,-2374.896044,-2146.597232,10584.944971
3873.502996,-2757.943793,-1332.370696,11473.192101
3873.503311,-2528.115143,-814.226536,11843.295072
3873.503626,-1915.238745,-0.000000,11029.068536
3873.503940,-2145.067394,592.164754,10362.883188
3873.504255,-2451.505594,814.226536,9992.780217
3873.504570,-2298.286494,592.164754,9548.656652
3873.504885,-2221.676944,-370.102971,9400.615463
3873.505200,-2681.334243,-1258.350101,9548.656652
3873.505515,-2834.553343,-1702.473667,9844.739029
3873.505829,-3830.477490,-2146.597232,10140.821405
3873.506144,-4060.306139,-2590.720797,10510.924376
3873.506459,-4596.572988,-3034.844362,10881.027347
3873.506774,-4443.353888,-3256.906145,11103.089130
3873.507089,-4213.525239,-3034.844362,10732.986159
3873.507404,-4213.525239,-3034.844362,10510.924376
3873.507718,-3907.087040,-2516.700203,9992.780217
3873.508033,-3370.820191,-2146.597232,9696.697840
3873.508348,-2834.553343,-2146.597232,9474.636058
3873.508663,-2298.286494,-1776.494261,9474.636058
3873.508978,-2374.896044,-1554.432478,9474.636058
3873.509293,-1991.848295,-1406.391290,9400.615463
3873.509607,-1991.848295,-1776.494261,9548.656652
3873.509922,-1762.019645,-2368.659014,9992.780217
3873.510237,-2374.896044,-2812.782580,10214.842000
3873.510552,-2528.115143,-3182.885551,9918.759623
3873.510867,-2451.505594,-3256.906145,9622.677246
3873.511181,-2451.505594,-3478.967927,9474.636058
3873.511496,-2451.505594,-3701.029710,9474.636058
3873.511811,-2221.676944,-3701.029710,9474.636058
3873.512126,-2604.724693,-3552.988522,9104.533087
3873.512441,-2451.505594,-3552.988522,8068.244768
3873.512756,-2451.505594,-3627.009116,8586.388927
3873.513070,-1838.629195,-4145.153275,8808.450710
3873.513385,-995.924147,-3775.050304,8438.347739
3873.513700,-919.314598,-3404.947333,8734.430116
3873.514015,-919.314598,-3182.885551,8364.327145
3873.514330,-689.485948,-2664.741391,8364.327145
3873.514645,-76.609550,-2442.679609,8290.306550
3873.514959,-995.924147,-1924.535449,8364.327145
3873.515274,-842.705048,-2368.659014,8290.306550
3873.515589,-1378.971896,-3182.885551,9178.553681
3873.515904,-1991.848295,-3923.091493,10066.800811
3873.516219,-1762.019645,-3701.029710,10436.903782
3873.516534,-2451.505594,-3552.988522,10066.800811
3873.516848,-2068.457845,-3478.967927,9696.697840
3873.517163,-612.876398,-3182.885551,9548.656652
3873.517478,-229.828649,-2368.659014,8290.306550
3873.517793,0.000000,-1776.494261,6957.935855
3873.518108,153.219100,-1480.411884,7105.977043
3873.518423,459.657299,-1554.432478,6735.874072
3873.518737,76.609550,-1776.494261,6957.935855
3873.519052,-842.705048,-1850.514855,7328.038826
3873.519367,-1608.800546,-2590.720797,8290.306550
3873.519682,-2604.724693,-2960.823768,9474.636058
3873.519997,-3140.991542,-3404.947333,10807.006753
3873.520312,-3600.648841,-3256.906145,11843.295072
3873.520626,-3753.867940,-3034.844362,11843.295072
3873.520941,-2987.772442,-2220.617826,11473.192101
3873.521256,-2911.162892,-1702.473667,11177.109724
3873.521571,-2298.286494,-814.226536,10807.006753
3873.521886,-1915.238745,518.144159,9474.636058
3873.522200,-1149.143247,962.267725,8290.306550
3873.522515,-229.828649,888.247130,8586.388927
3873.522830,-612.876398,1036.288319,8660.409521
3873.523145,-1762.019645,-0.000000,9178.553681
3873.523460,-2681.334243,-814.226536,10510.924376
3873.523775,-3370.820191,-1554.432478,11769.274478
3873.524089,-4136.915689,-1998.556043,13249.686362
3873.524404,-4213.525239,-2146.597232,13027.624579
3873.524719,-4519.963438,-2146.597232,12657.521608
3873.525034,-3907.087040,-814.226536,12213.398043
3873.525349,-3140.991542,-0.000000,10510.924376
3873.525664,-2145.067394,1258.350101,9030.512492
3873.525978,-1072.533697,1776.494261,7402.059420
3873.526293,-306.438199,1554.432478,6809.894666
3873.526608,0.000000,370.102971,7402.059420
3873.526923,-612.876398,-444.123565,8882.471304
3873.527238,-2068.457845,-1406.391290,10214.842000
3873.527553,-2911.162892,-2368.659014,11991.336260
3873.527867,-3140.991542,-2146.597232,13693.809927
3873.528182,-3370.820191,-1850.514855,13989.892304
3873.528497,-3217.601092,-814.226536,12509.480420
3873.528812,-2911.162892,-444.123565,11473.192101
3873.529127,-1455.581446,-0.000000,9474.636058
3873.529442,-306.438199,-148.041188,7846.182985
3873.529756,229.828649,-222.061783,6587.832884
3873.530071,153.219100,-296.082377,5477.523971
3873.530386,76.609550,-1998.556043,6957.935855
3873.530701,-229.828649,-3034.844362,8142.265362
3873.531016,-536.266849,-3552.988522,9918.759623
3873.531330,-2068.457845,-3478.967927,11251.130318
3873.531645,-3140.991542,-2812.782580,11547.212695
3873.531960,-3524.039291,-3034.844362,11547.212695
3873.532275,-2834.553343,-2516.700203,11103.089130
3873.532590,-2374.896044,-1702.473667,9770.718434
3873.532905,-2451.505594,-1702.473667,7476.080014
3873.533219,-1608.800546,-1554.432478,7179.997637
3873.533534,-919.314598,-2368.659014,7179.997637
3873.533849,-306.438199,-2146.597232,7402.059420
3873.534164,-459.657299,-1702.473667,7920.203579
3873.534479,-1532.190996,-1554.432478,8882.471304
3873.534794,-1072.533697,-2368.659014,10510.924376
3873.535108,-919.314598,-2738.761985,11103.089130
3873.535423,-2221.676944,-2960.823768,10955.047942
3873.535738,-2528.115143,-3404.947333,11103.089130
3873.536053,-2834.553343,-3701.029710,10436.903782
3873.536368,-3140.991542,-2812.782580,10436.903782
3873.536683,-2987.772442,-2146.597232,8882.471304
3873.536997,-2221.676944,-1850.514855,6883.915261
3873.537312,-1378.971896,-1924.535449,5773.606348
3873.537627,-842.705048,-1850.514855,6735.874072
3873.537942,-1302.362347,-1924.535449,7105.977043
3873.538257,-1532.190996,-3404.947333,8364.327145
3873.538572,-2145.067394,-4441.235652,10066.800811
3873.538886,-2528.115143,-4589.276840,11325.150913
3873.539201,-3140.991542,-3330.926739,12065.356855
3873.539516,-2987.772442,-3108.864956,11103.089130
3873.539831,-3140.991542,-2442.679609,10584.944971
3873.540146,-2987.772442,-1554.432478,9992.780217
3873.540461,-3217.601092,-1258.350101,8512.368333
3873.540775,-2681.334243,-1850.514855,8586.388927
3873.541090,-2604.724693,-2368.659014,9030.512492
3873.541405,-2604.724693,-3034.844362,9104.533087
3873.541720,-2221.676944,-3627.009116,9400.615463
3873.542035,-2145.067394,-3552.988522,10807.006753
3873.542349,-2374.896044,-3182.885551,11177.109724
3873.542664,-2298.286494,-2960.823768,11621.233289
3873.542979,-1762.019645,-2220.617826,11251.130318
3873.543294,-1685.410096,-1702.473667,10732.986159
3873.543609,-1915.238745,-1110.308913,9252.574275
3873.543924,-1838.629195,-1406.391290,7994.224174
3873.544238,-2298.286494,-1554.432478,7624.121203
3873.544553,-1838.629195,-1628.453072,6883.915261
3873.544868,-1838.629195,-2368.659014,7550.100608
3873.545183,-2298.286494,-3034.844362,8956.491898
3873.545498,-2987.772442,-2442.679609,9474.636058
3873.545813,-2451.505594,-2664.741391,9844.739029
3873.546127,-2451.505594,-3330.926739,11029.068536
3873.546442,-2298.286494,-2812.782580,12065.356855
3873.546757,-2298.286494,-3256.906145,12509.480420
3873.547072,-1762.019645,-1776.494261,11621.233289
3873.547387,-2451.505594,-74.020594,10362.883188
3873.547702,-1378.971896,888.247130,9030.512492
3873.548016,-229.828649,1036.288319,7476.080014
3873.548331,459.657299,1406.391290,6587.832884
3873.548646,766.095498,-148.041188,7624.121203
3873.548961,76.609550,-1332.370696,7846.182985
3873.549276,-1149.143247,-2072.576638,8808.450710
3873.549591,-1685.410096,-2738.761985,9992.780217
3873.549905,-2145.067394,-2960.823768,10510.924376
3873.550220,-2298.286494,-2516.700203,11325.150913
3873.550535,-2221.676944,-2812.782580,11325.150913
3873.550850,-2604.724693,-1998.556043,10584.944971
3873.551165,-3064.381992,-740.205942,9992.780217
3873.551480,-2145.067394,296.082377,8956.491898
3873.551794,-1378.971896,592.164754,8216.285956
3873.552109,-383.047749,222.061783,7846.182985
3873.552424,0.000000,-592.164754,8364.327145
3873.552739,-919.314598,-592.164754,8734.430116
3873.553054,-995.924147,-1110.308913,9918.759623
3873.553368,-1149.143247,-1332.370696,10140.821405
3873.553683,-1455.581446,-1628.453072,10807.006753
3873.553998,-1762.019645,-1776.494261,11917.315666
3873.554313,-2757.943793,-1776.494261,11991.336260
3873.554628,-4060.306139,-1110.308913,11473.192101
3873.554943,-3753.867940,-1110.308913,11547.212695
3873.555257,-3140.991542,-740.205942,9918.759623
3873.555572,-2068.457845,-888.247130,9474.636058
3873.555887,-1455.581446,-444.123565,8808.450710
3873.556202,-1455.581446,-1184.329507,8364.327145
3873.556517,-1072.533697,-1258.350101,8068.244768
3873.556832,-689.485948,-1998.556043,8734.430116
3873.557146,-995.924147,-1924.535449,9844.739029
3873.557461,-1762.019645,-1998.556043,11177.109724
3873.557776,-2068.457845,-1924.535449,11029.068536
3873.558091,-3294.210641,-1110.308913,10584.944971
3873.558406,-2987.772442,-1406.391290,11103.089130
3873.558721,-2145.067394,-1480.411884,10955.047942
3873.559036,-2451.505594,-666.185348,10436.903782
3873.559351,-2298.286494,-0.000000,9770.718434
3873.559666,-1302.362347,-518.144159,8586.388927
3873.559981,-689.485948,-962.267725,8438.347739
3873.560295,306.438199,-1184.329507,9178.553681
3873.560610,1072.533697,-1998.556043,8660.409521
3873.560925,-229.828649,-1702.473667,9326.594869
3873.561240,0.000000,-1406.391290,9178.553681
3873.561555,0.000000,-1554.432478,9104.533087
3873.561870,459.657299,-1998.556043,9252.574275
3873.562185,-306.438199,-1406.391290,9400.615463
3873.562500,-1608.800546,-1850.514855,8512.368333
3873.562815,-1532.190996,-2294.638420,8660.409521
3873.563130,-842.705048,-1850.514855,8438.347739
3873.563445,-153.219100,-2590.720797,9326.594869
3873.563759,-229.828649,-2442.679609,9326.594869
3873.564074,-306.438199,-1850.514855,8808.450710
3873.564389,306.438199,-1258.350101,8660.409521
3873.564704,995.924147,-1258.350101,9992.780217
3873.565019,1762.019645,-1184.329507,10362.883188
3873.565334,1149.143247,-666.185348,9548.656652
3873.565649,1072.533697,-814.226536,10140.821405
3873.565964,766.095498,-74.020594,8882.471304
3873.566279,1302.362347,-222.061783,9622.677246
3873.566594,1302.362347,444.123565,8882.471304
3873.566908,612.876398,592.164754,8364.327145
3873.567223,0.000000,296.082377,7994.224174
3873.567538,153.219100,-0.000000,7846.182985
3873.567853,459.657299,-1332.370696,9474.636058
3873.568168,383.047749,-1258.350101,9252.574275
3873.568483,-612.876398,-814.226536,9104.533087
3873.568798,-1302.362347,-814.226536,9548.656652
3873.569113,-919.314598,-740.205942,10288.862594
3873.569428,-689.485948,-888.247130,10955.047942
3873.569743,-1302.362347,370.102971,10436.903782
3873.570058,-995.924147,1184.329507,10881.027347
3873.570372,-1608.800546,2590.720797,9844.739029
3873.570687,-459.657299,2146.597232,10510.924376
3873.571002,153.219100,1850.514855,9770.718434
3873.571317,0.000000,1332.370696,9548.656652
3873.571632,0.000000,1628.453072,9178.553681
3873.571947,842.705048,1110.308913,9104.533087
3873.572262,536.266849,814.226536,10436.903782
3873.572577,0.000000,666.185348,9696.697840
3873.572892,-1302.362347,296.082377,9474.636058
3873.573207,-919.314598,518.144159,11103.089130
3873.573521,-1915.238745,518.144159,11399.171507
3873.573836,-1149.143247,888.247130,11473.192101
3873.574151,-1225.752797,1184.329507,10510.924376
3873.574466,-919.314598,1702.473667,10066.800811
3873.574781,0.000000,1776.494261,8808.450710
3873.575096,1072.533697,1480.411884,10066.800811
3873.575411,1915.238745,1110.308913,10066.800811
3873.575726,1762.019645,1628.453072,8956.491898
3873.576041,1532.190996,2368.659014,8660.409521
3873.576356,1608.800546,1924.535449,9474.636058
3873.576671,1455.581446,1258.350101,10288.862594
3873.576985,612.876398,296.082377,10658.965565
3873.577300,-306.438199,518.144159,9400.615463
3873.577615,-306.438199,148.041188,10436.903782
3873.577930,0.000000,-0.000000,10510.924376
3873.578245,0.000000,-0.000000,10658.965565
3873.578560,0.000000,222.061783,10362.883188
3873.578875,76.609550,296.082377,9400.615463
3873.579190,1149.143247,1036.288319,8734.430116
3873.579505,1685.410096,666.185348,9252.574275
3873.579820,2298.286494,296.082377,9474.636058
3873.580134,1991.848295,740.205942,8808.450710
3873.580449,1685.410096,666.185348,8216.285956
3873.580764,1838.629195,1628.453072,8956.491898
3873.581079,1608.800546,1036.288319,9918.759623
3873.581394,995.924147,666.185348,9622.677246
3873.581709,306.438199,1110.308913,9252.574275
3873.582024,-153.219100,814.226536,8512.368333
3873.582339,383.047749,666.185348,10140.821405
3873.582654,536.266849,-444.123565,9844.739029
3873.582969,229.828649,-888.247130,9252.574275
3873.583284,0.000000,-444.123565,8216.285956
3873.583598,0.000000,-148.041188,8290.306550
3873.583913,0.000000,-148.041188,9622.677246
3873.584228,383.047749,-222.061783,10214.842000
3873.584543,459.657299,296.082377,9474.636058
3873.584858,-689.485948,444.123565,9474.636058
3873.585173,-536.266849,592.164754,9622.677246
3873.585488,-229.828649,-518.144159,10732.986159
3873.585803,-612.876398,-370.102971,10362.883188
3873.586118,-1072.533697,148.041188,10066.800811
3873.586433,-1378.971896,-74.020594,9844.739029
3873.586747,-306.438199,-222.061783,10066.800811
3873.587062,689.485948,-1258.350101,10288.862594
3873.587377,0.000000,-1332.370696,9622.677246
3873.587692,-612.876398,-740.205942,9474.636058
3873.588007,-1455.581446,-370.102971,9030.512492
3873.588322,-1225.752797,-1406.391290,10288.862594
3873.588637,-766.095498,-1480.411884,10732.986159
3873.588952,-1225.752797,-1036.288319,9992.780217
3873.589267,-1685.410096,-592.164754,9474.636058
3873.589582,-1378.971896,-444.123565,9474.636058
3873.589897,-306.438199,-740.205942,9992.780217
3873.590211,229.828649,-0.000000,9696.697840
3873.590526,-229.828649,-0.000000,8216.285956
3873.590841,-306.438199,296.082377,7994.224174
3873.591156,229.828649,-370.102971,9104.533087
3873.591471,306.438199,-1406.391290,10436.903782
3873.591786,153.219100,-1184.329507,9844.739029
3873.592101,-612.876398,-814.226536,9400.615463
3873.592416,-1149.143247,-74.020594,9474.636058
3873.592731,-689.485948,-296.082377,10362.883188
3873.593046,-459.657299,-740.205942,10881.027347
3873.593360,0.000000,-666.185348,9474.636058
3873.593675,306.438199,-444.123565,9326.594869
3873.593990,229.828649,-0.000000,8512.368333
3873.594305,1072.533697,-370.102971,9252.574275
3873.594620,2298.286494,-0.000000,8438.347739
3873.594935,1455.581446,-74.020594,7846.182985
3873.595250,1838.629195,518.144159,7698.141797
3873.595565,2451.505594,666.185348,8068.244768
3873.595880,2374.896044,518.144159,9918.759623
3873.596195,1532.190996,666.185348,9474.636058
3873.596510,536.266849,666.185348,8660.409521
3873.596824,-229.828649,-74.020594,9104.533087
3873.597139,536.266849,-148.041188,9622.677246
3873.597454,919.314598,-1036.288319,10732.986159
3873.597769,689.485948,-222.061783,9474.636058
3873.598084,229.828649,-0.000000,9474.636058
3873.598399,459.657299,962.267725,8512.368333
3873.598714,766.095498,518.144159,9844.739029
3873.599029,842.705048,370.102971,10955.047942
3873.599344,689.485948,888.247130,9548.656652
3873.599659,0.000000,1406.391290,9326.594869
3873.599973,459.657299,1702.473667,9992.780217
3873.600288,153.219100,666.185348,11473.192101
3873.600603,153.219100,592.164754,10658.965565
3873.600918,-536.266849,1406.391290,10362.883188
3873.601233,-612.876398,1406.391290,9548.656652
3873.601548,-229.828649,1110.308913,9992.780217
3873.601863,306.438199,592.164754,10214.842000
3873.602178,153.219100,1110.308913,9548.656652
3873.602493,-995.924147,888.247130,8956.491898
3873.602808,-536.266849,1184.329507,8438.347739
3873.603123,-229.828649,-0.000000,10436.903782
3873.603437,-229.828649,222.061783,10955.047942
3873.603752,-919.314598,518.144159,10140.821405
3873.604067,-1072.533697,1702.473667,9992.780217
3873.604382,-536.266849,1628.453072,10288.862594
3873.604697,306.438199,888.247130,11695.253884
3873.605012,-612.876398,1406.391290,9992.780217
3873.605327,-919.314598,1258.350101,9400.615463
3873.605642,0.000000,1480.411884,8808.450710
3873.605957,229.828649,814.226536,9252.574275
3873.606272,919.314598,222.061783,10066.800811
3873.606586,76.609550,-0.000000,9178.553681
3873.606901,-1072.533697,-0.000000,9696.697840
3873.607216,-1225.752797,222.061783,10140.821405
3873.607531,-536.266849,-518.144159,10584.944971
3873.607846,0.000000,-444.123565,10658.965565
3873.608161,-306.438199,-74.020594,10658.965565
3873.608476,0.000000,518.144159,9400.615463
3873.608791,76.609550,222.061783,8734.430116
3873.609106,1302.362347,-0.000000,9474.636058
3873.609421,1455.581446,-222.061783,9474.636058
3873.609736,1149.143247,-0.000000,8142.265362
3873.610050,1608.800546,-74.020594,8290.306550
3873.610365,1302.362347,-0.000000,8882.471304
3873.610680,689.485948,-1184.329507,10066.800811
3873.610995,459.657299,-1036.288319,9696.697840
3873.611310,0.000000,-814.226536,9178.553681
3873.611625,-306.438199,-444.123565,8956.491898
3873.611940,383.047749,-1036.288319,9696.697840
3873.612255,383.047749,-1258.350101,9474.636058
3873.612570,459.657299,-1332.370696,9844.739029
3873.612885,0.000000,-1184.329507,8808.450710
3873.613199,536.266849,-888.247130,8882.471304
3873.613514,1225.752797,-1332.370696,10140.821405
3873.613829,1608.800546,-888.247130,9252.574275
3873.614144,766.095498,-148.041188,8068.244768
3873.614459,229.828649,-222.061783,8290.306550
3873.614774,306.438199,-518.144159,9104.533087
3873.615089,612.876398,-1480.411884,10214.842000
3873.615404,536.266849,-888.247130,8808.450710
3873.615719,76.609550,-666.185348,9178.553681
3873.616034,-383.047749,-444.123565,8660.409521
3873.616349,536.266849,-666.185348,9548.656652
3873.616663,1072.533697,-0.000000,9252.574275
3873.616978,1532.190996,-518.144159,8956.491898
3873.617293,995.924147,370.102971,7772.162391
3873.617608,612.876398,518.144159,8142.265362
3873.617923,459.657299,-0.000000,9622.677246
3873.618238,0.000000,-888.247130,9770.718434
3873.618553,-1072.533697,-1184.329507,10362.883188
3873.618868,-1378.971896,-444.123565,9918.759623
3873.619183,-1532.190996,-666.185348,11399.171507
3873.619498,-1225.752797,-0.000000,11473.192101
3873.619812,-1225.752797,-148.041188,10584.944971
3873.620127,-919.314598,666.185348,9622.677246
3873.620442,-1072.533697,1628.453072,9030.512492
3873.620757,-229.828649,1702.473667,9696.697840
3873.621072,0.000000,1258.350101,10214.842000
3873.621387,-153.219100,1628.453072,9104.533087
3873.621702,-383.047749,1406.391290,9326.594869
3873.622017,0.000000,370.102971,9474.636058
3873.622332,-306.438199,-222.061783,11621.233289
3873.622647,-995.924147,-592.164754,11399.171507
3873.622962,-1455.581446,444.123565,9696.697840
3873.623276,-1225.752797,666.185348,10362.883188
3873.623591,-842.705048,1554.432478,9474.636058
3873.623906,0.000000,444.123565,9548.656652
3873.624221,153.219100,370.102971,9030.512492
3873.624536,459.657299,-0.000000,8882.471304
3873.624851,306.438199,1036.288319,8956.491898
3873.625166,612.876398,1258.350101,9992.780217
3873.625481,1072.533697,740.205942,10510.924376
3873.625796,919.314598,740.205942,10140.821405
3873.626111,383.047749,740.205942,9622.677246
3873.626425,766.095498,1628.453072,10288.862594
3873.626740,842.705048,1332.370696,10140.821405
3873.627055,536.266849,1332.370696,9696.697840
3873.627370,459.657299,1036.288319,8882.471304
3873.627685,306.438199,444.123565,9104.533087
3873.628000,229.828649,-0.000000,9474.636058
3873.628315,459.657299,-814.226536,10584.944971
3873.628630,536.266849,-222.061783,9548.656652
3873.628945,0.000000,-0.000000,9178.553681
3873.629260,-306.438199,888.247130,9178.553681
3873.629575,766.095498,370.102971,10140.821405
3873.629889,536.266849,148.041188,10881.027347
3873.630204,536.266849,-0.000000,9992.780217
3873.630519,306.438199,370.102971,8808.450710
3873.630834,612.876398,740.205942,8808.450710
3873.631149,689.485948,148.041188,9918.759623
3873.631464,1378.971896,370.102971,10140.821405
3873.631779,612.876398,592.164754,9104.533087
3873.632094,153.219100,1184.329507,8956.491898
3873.632409,536.266849,888.247130,9474.636058
3873.632724,459.657299,-0.000000,9844.739029
3873.633038,-306.438199,-296.082377,10066.800811
3873.633353,-919.314598,-370.102971,9474.636058
3873.633668,-689.485948,-814.226536,9474.636058
3873.633983,229.828649,-222.061783,10362.883188
3873.634298,306.438199,-296.082377,10214.842000
3873.634613,76.609550,-74.020594,9326.594869
3873.634928,306.438199,222.061783,8586.388927
3873.635243,-153.219100,1258.350101,7920.203579
3873.635558,842.705048,666.185348,9622.677246
3873.635873,536.266849,-0.000000,9622.677246
3873.636188,-306.438199,-222.061783,9104.533087
3873.636502,-1072.533697,-444.123565,9326.594869
3873.636817,-766.095498,-1036.288319,9992.780217
3873.637132,-229.828649,-814.226536,11399.171507
3873.637447,-612.876398,-814.226536,10732.986159
3873.637762,-1149.143247,-370.102971,9844.739029
3873.638077,-842.705048,-0.000000,9696.697840
3873.638392,-689.485948,-0.000000,9844.739029
3873.638707,383.047749,-0.000000,9474.636058
3873.639022,306.438199,-592.164754,9326.594869
3873.639337,0.000000,-0.000000,8882.471304
3873.639651,-383.047749,962.267725,8290.306550
3873.639966,459.657299,-0.000000,9622.677246
3873.640281,536.266849,-888.247130,10732.986159
3873.640596,153.219100,-444.123565,9548.656652
3873.640911,-306.438199,-74.020594,9178.553681
3873.641226,76.609550,-0.000000,9622.677246
3873.641541,306.438199,-222.061783,10807.006753
3873.641856,306.438199,-0.000000,9326.594869
3873.642171,0.000000,-74.020594,9400.615463
3873.642486,-383.047749,296.082377,8882.471304
3873.642801,229.828649,148.041188,9548.656652
3873.643115,689.485948,-0.000000,9770.718434
3873.643430,76.609550,-0.000000,9770.718434
3873.643745,-536.266849,-148.041188,10066.800811
3873.644060,-689.485948,222.061783,9696.697840
3873.644375,459.657299,-370.102971,10732.986159
3873.644690,689.485948,-592.164754,10288.862594
3873.645005,689.485948,296.082377,9252.574275
3873.645320,153.219100,1110.308913,7920.203579
3873.645635,229.828649,814.226536,8512.368333
3873.645950,919.314598,-0.000000,9548.656652
3873.646264,766.095498,-222.061783,9252.574275
3873.646579,-383.047749,-0.000000,9252.574275
3873.646894,-689.485948,-74.020594,8660.409521
3873.647209,-459.657299,-444.123565,9696.697840
3873.647524,0.000000,-1406.391290,10881.027347
3873.647839,0.000000,-1036.288319,10214.842000
3873.648154,-612.876398,-370.102971,9474.636058
3873.648469,-612.876398,666.185348,9030.512492
3873.648784,153.219100,740.205942,9622.677246
3873.649099,1302.362347,962.267725,9770.718434
3873.649414,766.095498,1850.514855,8586.388927
3873.649728,383.047749,1554.432478,8438.347739
3873.650043,1072.533697,1110.308913,9252.574275
3873.650358,995.924147,444.123565,9474.636058
3873.650673,766.095498,-370.102971,9474.636058
3873.650988,0.000000,-0.000000,9548.656652
3873.651303,-919.314598,222.061783,10288.862594
3873.651618,-612.876398,-592.164754,10510.924376
3873.651933,-306.438199,-888.247130,11251.130318
3873.652248,-383.047749,-888.247130,10288.862594
3873.652563,-1149.143247,-296.082377,9622.677246
3873.652877,-306.438199,740.205942,9770.718434
3873.653192,306.438199,518.144159,10140.821405
3873.653507,995.924147,222.061783,10066.800811
3873.653822,995.924147,888.247130,9252.574275
3873.654137,459.657299,1406.391290,8882.471304
3873.654452,1149.143247,1998.556043,9252.574275
3873.654767,1685.410096,1406.391290,9548.656652
3873.655082,1608.800546,740.205942,9918.759623
3873.655397,842.705048,1036.288319,9770.718434
3873.655712,-306.438199,962.267725,9474.636058
3873.656027,0.000000,-0.000000,9474.636058
3873.656341,0.000000,-814.226536,11103.089130
3873.656656,-383.047749,-444.123565,9844.739029
3873.656971,0.000000,-0.000000,9178.553681
3873.657286,-919.314598,740.205942,8364.327145
3873.657601,0.000000,-74.020594,9918.759623
3873.657916,229.828649,-370.102971,9548.656652
3873.658231,459.657299,-0.000000,9326.594869
3873.658546,0.000000,518.144159,8734.430116
3873.658860,0.000000,592.164754,9474.636058
3873.659175,919.314598,518.144159,9844.739029
3873.659490,1072.533697,296.082377,9770.718434
3873.659805,76.609550,444.123565,9178.553681
3873.660120,0.000000,814.226536,9474.636058
3873.660435,153.219100,962.267725,9696.697840
3873.660750,306.438199,-370.102971,10658.965565
3873.661064,-459.657299,-296.082377,9696.697840
3873.661379,-1302.362347,-814.226536,9030.512492
3873.661694,-919.314598,-518.144159,9326.594869
3873.662009,-383.047749,-370.102971,9622.677246
3873.662324,0.000000,-1184.329507,10732.986159
3873.662639,-536.266849,-518.144159,9770.718434
3873.662953,-842.705048,-0.000000,9178.553681
3873.663268,153.219100,1258.350101,9104.533087
3873.663583,612.876398,-0.000000,10288.862594
3873.663898,689.485948,296.082377,9474.636058
3873.664213,153.219100,666.185348,8586.388927
3873.664528,0.000000,222.061783,8364.327145
3873.664842,0.000000,-74.020594,9252.574275
3873.665157,0.000000,-592.164754,10140.821405
3873.665472,-229.828649,-814.226536,9622.677246
3873.665787,-1149.143247,-666.185348,9030.512492
3873.666102,-995.924147,-518.144159,9622.677246
3873.666417,-612.876398,-814.226536,10510.924376
3873.666731,-76.609550,-444.123565,10066.800811
3873.667046,0.000000,-296.082377,9474.636058
3873.667361,0.000000,518.144159,8586.388927
3873.667676,612.876398,888.247130,8512.368333
3873.667991,1532.190996,666.185348,9178.553681
3873.668306,1762.019645,296.082377,9474.636058
3873.668621,1072.533697,296.082377,9030.512492
3873.668935,306.438199,370.102971,8882.471304
3873.669250,306.438199,-0.000000,9252.574275
3873.669565,995.924147,-222.061783,10658.965565
3873.669880,919.314598,-0.000000,9844.739029
3873.670195,76.609550,-74.020594,9696.697840
3873.670510,76.609550,518.144159,8956.491898
3873.670824,383.047749,-148.041188,9770.718434
3873.671139,766.095498,-444.123565,10658.965565
3873.671454,536.266849,-74.020594,9770.718434
3873.671769,612.876398,-0.000000,8734.430116
3873.672084,689.485948,962.267725,8808.450710
3873.672399,1455.581446,222.061783,9918.759623
3873.672713,1378.971896,-0.000000,9696.697840
3873.673028,612.876398,518.144159,8882.471304
3873.673343,0.000000,444.123565,9178.553681
3873.673658,-229.828649,814.226536,9474.636058
3873.673973,153.219100,-666.185348,10881.027347
3873.674288,0.000000,-740.205942,10807.006753
3873.674603,-842.705048,-0.000000,9696.697840
3873.674917,-1302.362347,222.061783,9474.636058
3873.675232,0.000000,-0.000000,10584.944971
3873.675547,459.657299,-370.102971,10732.986159
3873.675862,0.000000,370.102971,10362.883188
3873.676177,-76.609550,962.267725,8438.347739
3873.676492,-229.828649,1110.308913,8882.471304
3873.676806,383.047749,296.082377,9918.759623
3873.677121,612.876398,370.102971,10140.821405
3873.677436,0.000000,666.185348,9178.553681
3873.677751,-766.095498,592.164754,9030.512492
3873.678066,-766.095498,148.041188,9474.636058
3873.678381,-536.266849,296.082377,9770.718434
3873.678695,-383.047749,-0.000000,9252.574275
3873.679010,-1072.533697,518.144159,8142.265362
3873.679325,-612.876398,518.144159,8586.388927
3873.679640,-612.876398,-0.000000,9474.636058
3873.679955,153.219100,-370.102971,10362.883188
3873.680270,0.000000,-222.061783,9992.780217
3873.680585,-536.266849,962.267725,9104.533087
3873.680899,0.000000,814.226536,9252.574275
3873.681214,612.876398,518.144159,10288.862594
3873.681529,1225.752797,-0.000000,10510.924376
3873.681844,459.657299,370.102971,9992.780217
3873.682159,0.000000,1036.288319,9326.594869
3873.682474,459.657299,1406.391290,8660.409521
3873.682788,1302.362347,444.123565,9770.718434
3873.683103,1149.143247,222.061783,9252.574275
