#time,accel_x,accel_y,accel_z
3996.398718,-2987.772442,-740.205942,10214.842000
3996.399033,-2604.724693,-444.123565,10140.821405
3996.399348,-1762.019645,-148.041188,9474.636058
3996.399663,-919.314598,222.061783,8808.450710
3996.399978,-229.828649,1036.288319,8512.368333
3996.400293,306.438199,1258.350101,8216.285956
3996.400608,612.876398,1628.453072,8068.244768
3996.400923,1072.533697,1480.411884,8512.368333
3996.401238,919.314598,1406.391290,8512.368333
3996.401553,766.095498,814.226536,9252.574275
3996.401868,306.438199,222.061783,9622.677246
3996.402183,-153.219100,-222.061783,10436.903782
3996.402498,-229.828649,-814.226536,10881.027347
3996.402813,-306.438199,-1258.350101,10584.944971
3996.403128,0.000000,-1480.411884,10214.842000
3996.403443,229.828649,-1184.329507,9770.718434
3996.403758,306.438199,-1480.411884,9474.636058
3996.404073,689.485948,-888.247130,9104.533087
3996.404388,766.095498,-592.164754,8956.491898
3996.404703,612.876398,-370.102971,9178.553681
3996.405018,842.705048,-444.123565,8808.450710
3996.405333,995.924147,-518.144159,8586.388927
3996.405648,995.924147,-814.226536,8956.491898
3996.405963,842.705048,-666.185348,9326.594869
3996.406278,383.047749,-1036.288319,9992.780217
3996.406593,459.657299,-1184.329507,9622.677246
3996.406908,383.047749,-1258.350101,9770.718434
3996.407223,383.047749,-962.267725,9474.636058
3996.407538,153.219100,-740.205942,9474.636058
3996.407853,0.000000,-666.185348,9326.594869
3996.408168,-536.266849,-592.164754,9400.615463
3996.408483,-919.314598,-296.082377,9178.553681
3996.408798,-995.924147,-148.041188,8882.471304
3996.409113,-919.314598,-74.020594,9326.594869
3996.409428,-1149.143247,-222.061783,9400.615463
3996.409743,-1149.143247,-222.061783,9844.739029
3996.410058,-1302.362347,-444.123565,9548.656652
3996.410373,-1072.533697,-370.102971,9400.615463
3996.410688,-919.314598,222.061783,9696.697840
3996.411003,-842.705048,370.102971,9400.615463
3996.411318,-306.438199,888.247130,8660.409521
3996.411633,0.000000,1184.329507,8882.471304
3996.411948,153.219100,1406.391290,8808.450710
3996.412263,-153.219100,1184.329507,9104.533087
3996.412578,-383.047749,962.267725,9178.553681
3996.412893,0.000000,962.267725,9400.615463
3996.413208,0.000000,1258.350101,9548.656652
3996.413523,0.000000,1036.288319,9770.718434
3996.413838,536.266849,1110.308913,9548.656652
3996.414153,689.485948,888.247130,9474.636058
3996.414468,919.314598,814.226536,9400.615463
3996.414783,1149.143247,1110.308913,9474.636058
3996.415097,1149.143247,1258.350101,9252.574275
3996.415412,1302.362347,1406.391290,9696.697840
3996.415727,766.095498,1554.432478,9844.739029
3996.416042,229.828649,1776.494261,9770.718434
3996.416357,536.266849,1258.350101,10436.903782
3996.416672,229.828649,962.267725,10584.944971
3996.416987,612.876398,888.247130,10584.944971
3996.417302,459.657299,518.144159,10362.883188
3996.417617,459.657299,444.123565,10584.944971
3996.417932,383.047749,592.164754,10584.944971
3996.418247,153.219100,592.164754,10658.965565
3996.418562,229.828649,444.123565,10510.924376
3996.418877,306.438199,222.061783,10140.821405
3996.419192,76.609550,370.102971,9918.759623
3996.419507,0.000000,-0.000000,9992.780217
3996.419822,0.000000,-0.000000,10066.800811
3996.420137,76.609550,-0.000000,10214.842000
3996.420452,0.000000,-74.020594,10140.821405
3996.420767,459.657299,-74.020594,10066.800811
3996.421082,536.266849,-222.061783,9770.718434
3996.421397,153.219100,-222.061783,9548.656652
3996.421712,383.047749,-222.061783,9918.759623
3996.422027,459.657299,-222.061783,9474.636058
3996.422342,383.047749,-296.082377,9400.615463
3996.422657,459.657299,-74.020594,9474.636058
3996.422972,229.828649,-0.000000,9252.574275
3996.423287,76.609550,-0.000000,8734.430116
3996.423602,0.000000,-148.041188,8364.327145
3996.423917,229.828649,-370.102971,9030.512492
3996.424232,0.000000,-518.144159,9178.553681
3996.424547,0.000000,-592.164754,9326.594869
3996.424862,-229.828649,-592.164754,9474.636058
3996.425177,-306.438199,-518.144159,8956.491898
3996.425492,0.000000,-296.082377,9104.533087
3996.425807,-306.438199,-518.144159,9178.553681
3996.426122,-306.438199,-740.205942,9030.512492
3996.426437,-229.828649,-518.144159,9030.512492
3996.426752,-306.438199,-518.144159,8956.491898
3996.427067,-229.828649,-592.164754,9178.553681
3996.427382,0.000000,-222.061783,9326.594869
3996.427697,0.000000,-370.102971,9326.594869
3996.428012,0.000000,-592.164754,9474.636058
3996.428327,0.000000,-666.185348,9326.594869
3996.428642,76.609550,-740.205942,9474.636058
3996.428957,229.828649,-740.205942,9474.636058
3996.429272,153.219100,-592.164754,9918.759623
3996.429587,0.000000,-592.164754,9474.636058
3996.429902,459.657299,-666.185348,9548.656652
3996.430217,76.609550,-518.144159,9696.697840
3996.430532,76.609550,-592.164754,9622.677246
3996.430847,383.047749,-444.123565,9844.739029
3996.431162,536.266849,-222.061783,9992.780217
3996.431477,229.828649,-296.082377,9992.780217
3996.431792,459.657299,148.041188,9918.759623
3996.432107,459.657299,-0.000000,9548.656652
3996.432422,229.828649,-0.000000,10214.842000
3996.432737,306.438199,148.041188,9992.780217
3996.433052,0.000000,370.102971,9918.759623
3996.433367,0.000000,370.102971,10140.821405
3996.433682,0.000000,666.185348,10140.821405
3996.433997,0.000000,444.123565,9844.739029
3996.434312,-536.266849,666.185348,9400.615463
3996.434627,-459.657299,740.205942,10140.821405
3996.434942,0.000000,666.185348,10288.862594
3996.435257,-306.438199,740.205942,10140.821405
3996.435572,0.000000,814.226536,9918.759623
3996.435887,76.609550,962.267725,9770.718434
3996.436202,229.828649,1110.308913,9696.697840
3996.436517,0.000000,1036.288319,9696.697840
3996.436832,0.000000,1184.329507,9696.697840
3996.437147,0.000000,1184.329507,9696.697840
3996.437462,-153.219100,1110.308913,9474.636058
3996.437777,-383.047749,1184.329507,9918.759623
3996.438092,76.609550,1110.308913,9696.697840
3996.438407,153.219100,962.267725,9844.739029
3996.438722,0.000000,888.247130,9548.656652
3996.439037,0.000000,444.123565,9622.677246
3996.439352,0.000000,814.226536,9474.636058
3996.439667,229.828649,592.164754,9770.718434
3996.439983,0.000000,370.102971,9548.656652
3996.440298,76.609550,518.144159,9400.615463
3996.440613,-153.219100,222.061783,9104.533087
3996.440928,306.438199,296.082377,9770.718434
3996.441243,-153.219100,222.061783,9400.615463
3996.441559,0.000000,-0.000000,9696.697840
3996.441874,0.000000,222.061783,9770.718434
3996.442189,0.000000,-222.061783,9844.739029
3996.442504,306.438199,-0.000000,9474.636058
3996.442819,0.000000,-74.020594,9326.594869
3996.443134,76.609550,-74.020594,9696.697840
3996.443450,0.000000,-148.041188,9622.677246
3996.443765,229.828649,-148.041188,9696.697840
3996.444080,536.266849,-296.082377,9474.636058
3996.444395,536.266849,-296.082377,9622.677246
3996.444710,306.438199,-296.082377,9474.636058
3996.445026,153.219100,-74.020594,9252.574275
3996.445341,536.266849,-740.205942,9474.636058
3996.445656,153.219100,-370.102971,9326.594869
3996.445971,459.657299,-444.123565,9474.636058
3996.446286,153.219100,-518.144159,9178.553681
3996.446602,153.219100,-148.041188,9104.533087
3996.446917,536.266849,-0.000000,9548.656652
3996.447232,153.219100,-74.020594,9474.636058
3996.447547,0.000000,-444.123565,9400.615463
3996.447862,229.828649,-74.020594,9104.533087
3996.448178,0.000000,-0.000000,9252.574275
3996.448493,306.438199,-296.082377,9252.574275
3996.448808,0.000000,-0.000000,9104.533087
3996.449123,0.000000,-0.000000,8882.471304
3996.449438,0.000000,-0.000000,9326.594869
3996.449754,153.219100,-148.041188,9252.574275
3996.450069,0.000000,-148.041188,8882.471304
3996.450384,0.000000,-0.000000,9400.615463
3996.450699,0.000000,-0.000000,9474.636058
3996.451014,-229.828649,-74.020594,9474.636058
3996.451330,153.219100,-148.041188,9252.574275
3996.451645,229.828649,-0.000000,9548.656652
3996.451960,153.219100,-0.000000,9474.636058
3996.452275,229.828649,222.061783,9474.636058
3996.452590,229.828649,222.061783,9474.636058
3996.452905,459.657299,-0.000000,9844.739029
3996.453221,0.000000,-0.000000,9770.718434
3996.453536,229.828649,370.102971,9548.656652
3996.453851,229.828649,148.041188,9696.697840
3996.454166,306.438199,444.123565,9844.739029
3996.454481,229.828649,296.082377,10066.800811
3996.454797,153.219100,518.144159,9918.759623
3996.455112,153.219100,370.102971,10214.842000
3996.455427,76.609550,666.185348,10066.800811
3996.455742,153.219100,518.144159,9844.739029
3996.456057,229.828649,222.061783,9844.739029
3996.456373,76.609550,370.102971,10214.842000
3996.456688,459.657299,666.185348,10362.883188
3996.457003,76.609550,888.247130,10066.800811
3996.457318,383.047749,888.247130,10140.821405
3996.457633,229.828649,666.185348,10066.800811
3996.457949,153.219100,592.164754,10066.800811
3996.458264,0.000000,666.185348,10066.800811
3996.458579,76.609550,814.226536,9622.677246
3996.458894,153.219100,740.205942,9918.759623
3996.459209,0.000000,666.185348,9696.697840
3996.459525,306.438199,666.185348,10066.800811
3996.459840,153.219100,888.247130,9770.718434
3996.460155,76.609550,592.164754,9770.718434
3996.460470,0.000000,518.144159,9696.697840
3996.460785,306.438199,814.226536,9178.553681
3996.461101,153.219100,592.164754,9622.677246
3996.461416,0.000000,518.144159,9622.677246
3996.461731,0.000000,370.102971,9696.697840
3996.462046,76.609550,444.123565,9844.739029
3996.462361,-229.828649,222.061783,9770.718434
3996.462676,0.000000,370.102971,9548.656652
3996.462992,-229.828649,370.102971,9474.636058
3996.463307,229.828649,-0.000000,9474.636058
3996.463622,76.609550,-148.041188,9474.636058
3996.463937,229.828649,-370.102971,9400.615463
3996.464252,0.000000,-74.020594,9326.594869
3996.464568,0.000000,-148.041188,9252.574275
3996.464883,76.609550,-296.082377,9326.594869
3996.465198,0.000000,-592.164754,9326.594869
3996.465513,153.219100,-0.000000,9696.697840
3996.465828,383.047749,-222.061783,9548.656652
3996.466144,0.000000,-444.123565,9400.615463
3996.466459,153.219100,-222.061783,9326.594869
3996.466774,76.609550,-148.041188,9474.636058
3996.467089,306.438199,-370.102971,9252.574275
3996.467404,0.000000,-296.082377,9696.697840
3996.467720,76.609550,-222.061783,9474.636058
3996.468035,76.609550,-74.020594,9474.636058
3996.468350,536.266849,-0.000000,9548.656652
3996.468665,0.000000,-148.041188,9770.718434
3996.468980,0.000000,-592.164754,9474.636058
3996.469296,76.609550,-74.020594,9474.636058
3996.469611,76.609550,-148.041188,9252.574275
3996.469926,0.000000,-148.041188,9400.615463
3996.470241,0.000000,-148.041188,9622.677246
3996.470556,0.000000,-0.000000,9400.615463
3996.470872,0.000000,-0.000000,9474.636058
3996.471187,0.000000,-148.041188,9622.677246
3996.471502,-306.438199,-222.061783,9474.636058
3996.471817,76.609550,-0.000000,9622.677246
3996.472132,229.828649,-0.000000,9252.574275
3996.472448,0.000000,-148.041188,9326.594869
3996.472763,76.609550,-0.000000,9548.656652
3996.473078,459.657299,-0.000000,9474.636058
3996.473393,0.000000,-0.000000,9474.636058
3996.473708,383.047749,-0.000000,9696.697840
3996.474023,153.219100,-0.000000,9474.636058
3996.474339,76.609550,-0.000000,9326.594869
3996.474654,306.438199,-0.000000,9474.636058
3996.474969,229.828649,148.041188,9474.636058
3996.475284,76.609550,-0.000000,9474.636058
3996.475599,0.000000,296.082377,9622.677246
3996.475915,0.000000,296.082377,9474.636058
3996.476230,153.219100,-74.020594,9474.636058
3996.476545,0.000000,592.164754,9844.739029
3996.476860,153.219100,444.123565,9770.718434
3996.477175,153.219100,518.144159,9844.739029
3996.477491,0.000000,592.164754,9474.636058
3996.477806,0.000000,370.102971,9696.697840
3996.478121,76.609550,370.102971,9918.759623
3996.478436,0.000000,518.144159,10214.842000
3996.478751,0.000000,518.144159,9770.718434
3996.479067,0.000000,444.123565,9622.677246
3996.479382,76.609550,370.102971,10140.821405
3996.479697,0.000000,444.123565,9992.780217
3996.480012,-229.828649,444.123565,9992.780217
3996.480327,0.000000,592.164754,9622.677246
3996.480643,153.219100,370.102971,9844.739029
3996.480958,-229.828649,518.144159,9918.759623
3996.481273,383.047749,592.164754,9696.697840
3996.481588,0.000000,222.061783,9696.697840
3996.481903,0.000000,370.102971,9770.718434
3996.482219,76.609550,444.123565,9622.677246
3996.482534,76.609550,148.041188,9918.759623
3996.482849,153.219100,-0.000000,9474.636058
3996.483164,0.000000,-0.000000,9474.636058
3996.483479,0.000000,222.061783,9844.739029
3996.483794,76.609550,-0.000000,9770.718434
3996.484110,229.828649,-74.020594,9622.677246
3996.484425,0.000000,-0.000000,9770.718434
3996.484740,0.000000,-0.000000,9474.636058
3996.485055,76.609550,-0.000000,9178.553681
3996.485370,153.219100,-0.000000,9474.636058
3996.485686,383.047749,-148.041188,9474.636058
3996.486001,229.828649,-0.000000,9252.574275
3996.486316,229.828649,-148.041188,9252.574275
3996.486631,306.438199,-74.020594,9400.615463
3996.486946,229.828649,-222.061783,9474.636058
3996.487262,0.000000,-148.041188,9474.636058
3996.487577,0.000000,-296.082377,9548.656652
3996.487892,306.438199,-0.000000,9474.636058
3996.488207,153.219100,-74.020594,9326.594869
3996.488522,76.609550,296.082377,9548.656652
3996.488838,0.000000,-0.000000,9622.677246
3996.489153,0.000000,-0.000000,9474.636058
3996.489468,76.609550,-0.000000,9474.636058
3996.489783,-459.657299,-74.020594,9474.636058
3996.490098,76.609550,-518.144159,9622.677246
3996.490414,76.609550,-74.020594,9474.636058
3996.490729,383.047749,-0.000000,9474.636058
3996.491044,0.000000,222.061783,9474.636058
3996.491359,306.438199,-0.000000,9252.574275
3996.491674,153.219100,-0.000000,9400.615463
3996.491990,0.000000,-0.000000,9474.636058
3996.492305,-153.219100,-0.000000,9400.615463
3996.492620,0.000000,-0.000000,9474.636058
3996.492935,-306.438199,-222.061783,9696.697840
3996.493250,153.219100,-0.000000,9992.780217
3996.493565,0.000000,222.061783,9474.636058
3996.493881,153.219100,-0.000000,9030.512492
3996.494196,229.828649,370.102971,9918.759623
3996.494511,0.000000,-0.000000,9474.636058
3996.494826,229.828649,-0.000000,9696.697840
3996.495141,306.438199,296.082377,9770.718434
3996.495457,76.609550,148.041188,9474.636058
3996.495772,0.000000,-0.000000,9696.697840
3996.496087,383.047749,222.061783,9696.697840
3996.496402,383.047749,148.041188,9770.718434
3996.496717,153.219100,74.020594,9474.636058
3996.497033,76.609550,296.082377,9548.656652
3996.497348,0.000000,-0.000000,9548.656652
3996.497663,459.657299,370.102971,9696.697840
3996.497978,383.047749,444.123565,9622.677246
3996.498293,0.000000,444.123565,9918.759623
3996.498609,306.438199,370.102971,9622.677246
3996.498924,0.000000,518.144159,9548.656652
3996.499239,0.000000,666.185348,9474.636058
3996.499554,459.657299,-0.000000,9844.739029
3996.499869,0.000000,444.123565,9770.718434
3996.500185,0.000000,666.185348,9918.759623
3996.500500,0.000000,-0.000000,10140.821405
3996.500815,229.828649,666.185348,9622.677246
3996.501130,0.000000,666.185348,9474.636058
3996.501445,0.000000,592.164754,9400.615463
3996.501761,229.828649,592.164754,9622.677246
3996.502076,-229.828649,444.123565,9770.718434
3996.502391,0.000000,518.144159,9548.656652
3996.502706,76.609550,444.123565,9696.697840
3996.503021,0.000000,370.102971,9548.656652
3996.503337,-153.219100,296.082377,9474.636058
3996.503652,76.609550,740.205942,9400.615463
3996.503967,0.000000,-0.000000,9992.780217
3996.504282,306.438199,222.061783,9326.594869
3996.504597,153.219100,148.041188,9030.512492
3996.504912,229.828649,222.061783,9622.677246
3996.505228,229.828649,222.061783,9326.594869
3996.505543,229.828649,-0.000000,9474.636058
3996.505858,0.000000,-222.061783,9844.739029
3996.506173,306.438199,-148.041188,9474.636058
3996.506488,229.828649,-0.000000,9326.594869
3996.506804,612.876398,-0.000000,9474.636058
3996.507119,229.828649,-74.020594,9770.718434
3996.507434,153.219100,-148.041188,9474.636058
3996.507749,76.609550,-0.000000,9400.615463
3996.508064,-306.438199,-148.041188,9622.677246
3996.508380,76.609550,-148.041188,9622.677246
3996.508695,76.609550,-74.020594,9548.656652
3996.509010,229.828649,-0.000000,9696.697840
3996.509325,153.219100,-74.020594,9770.718434
3996.509640,306.438199,-0.000000,9178.553681
3996.509956,0.000000,-0.000000,9474.636058
3996.510271,306.438199,-0.000000,9844.739029
3996.510586,76.609550,-0.000000,9770.718434
3996.510901,0.000000,-74.020594,9696.697840
3996.511216,153.219100,-0.000000,9844.739029
3996.511532,76.609550,148.041188,9770.718434
3996.511847,0.000000,-74.020594,9474.636058
3996.512162,76.609550,148.041188,9474.636058
3996.512477,229.828649,148.041188,9844.739029
3996.512792,459.657299,74.020594,9474.636058
3996.513108,229.828649,222.061783,9548.656652
3996.513423,306.438199,296.082377,9474.636058
3996.513738,-306.438199,222.061783,9474.636058
3996.514053,0.000000,-0.000000,9474.636058
3996.514368,0.000000,-0.000000,9474.636058
3996.514683,0.000000,-0.000000,9844.739029
3996.514999,0.000000,222.061783,9622.677246
3996.515314,0.000000,222.061783,9252.574275
3996.515629,0.000000,296.082377,9400.615463
3996.515944,459.657299,-0.000000,9252.574275
3996.516259,383.047749,592.164754,9918.759623
3996.516575,306.438199,-0.000000,9474.636058
3996.516890,306.438199,296.082377,9696.697840
3996.517205,306.438199,296.082377,9474.636058
3996.517520,153.219100,-0.000000,9548.656652
3996.517835,459.657299,222.061783,9918.759623
3996.518151,306.438199,-0.000000,9770.718434
3996.518466,153.219100,-0.000000,9770.718434
3996.518781,0.000000,-148.041188,9622.677246
3996.519096,306.438199,-0.000000,9770.718434
3996.519411,306.438199,-0.000000,9770.718434
3996.519727,459.657299,296.082377,9696.697840
3996.520042,153.219100,148.041188,9844.739029
3996.520357,0.000000,148.041188,9548.656652
3996.520672,0.000000,222.061783,9770.718434
3996.520987,229.828649,296.082377,10436.903782
3996.521303,153.219100,222.061783,9844.739029
3996.521618,0.000000,370.102971,10066.800811
3996.521933,-76.609550,296.082377,9622.677246
3996.522248,76.609550,222.061783,9696.697840
3996.522563,0.000000,-0.000000,9770.718434
3996.522879,0.000000,370.102971,9696.697840
3996.523194,0.000000,222.061783,9696.697840
3996.523509,0.000000,370.102971,9918.759623
3996.523824,536.266849,-74.020594,9474.636058
3996.524139,76.609550,370.102971,9474.636058
3996.524455,0.000000,222.061783,9474.636058
3996.524770,153.219100,296.082377,9474.636058
3996.525085,153.219100,222.061783,9474.636058
3996.525400,306.438199,-74.020594,9474.636058
3996.525715,0.000000,-0.000000,9400.615463
3996.526030,-229.828649,148.041188,9326.594869
3996.526346,153.219100,-0.000000,9252.574275
3996.526661,76.609550,-0.000000,9326.594869
3996.526976,153.219100,148.041188,9326.594869
3996.527291,76.609550,-0.000000,9548.656652
3996.527606,153.219100,-0.000000,9326.594869
3996.527922,153.219100,148.041188,9178.553681
3996.528237,306.438199,-0.000000,9326.594869
3996.528552,76.609550,-0.000000,9622.677246
3996.528867,229.828649,-0.000000,9474.636058
3996.529182,229.828649,-0.000000,9326.594869
3996.529498,76.609550,-0.000000,9474.636058
3996.529813,153.219100,296.082377,9548.656652
3996.530128,76.609550,-0.000000,9622.677246
3996.530443,76.609550,-0.000000,9844.739029
3996.530758,76.609550,-74.020594,9548.656652
3996.531074,76.609550,222.061783,9326.594869
3996.531389,153.219100,148.041188,9548.656652
3996.531704,536.266849,-0.000000,9770.718434
3996.532019,0.000000,370.102971,9844.739029
3996.532334,-229.828649,-0.000000,9696.697840
3996.532650,0.000000,-0.000000,9474.636058
3996.532965,229.828649,-0.000000,9696.697840
3996.533280,0.000000,222.061783,9992.780217
3996.533595,76.609550,222.061783,9770.718434
3996.533910,0.000000,296.082377,9696.697840
3996.534226,0.000000,-0.000000,9622.677246
3996.534541,0.000000,370.102971,9622.677246
3996.534856,0.000000,222.061783,9696.697840
3996.535171,0.000000,-74.020594,9548.656652
3996.535486,0.000000,222.061783,9474.636058
3996.535801,76.609550,-0.000000,9474.636058
3996.536117,153.219100,148.041188,9696.697840
3996.536432,153.219100,296.082377,9696.697840
3996.536747,0.000000,370.102971,9474.636058
3996.537062,0.000000,370.102971,9400.615463
3996.537377,153.219100,296.082377,9548.656652
3996.537693,229.828649,-0.000000,9400.615463
3996.538008,306.438199,-0.000000,9474.636058
3996.538323,0.000000,296.082377,9400.615463
3996.538638,76.609550,296.082377,9326.594869
3996.538953,229.828649,222.061783,9474.636058
3996.539269,76.609550,148.041188,9696.697840
3996.539584,229.828649,-0.000000,9696.697840
3996.539899,0.000000,222.061783,9400.615463
3996.540214,0.000000,370.102971,9548.656652
3996.540529,76.609550,148.041188,9992.780217
3996.540844,229.828649,444.123565,9548.656652
3996.541159,306.438199,222.061783,9696.697840
3996.541474,0.000000,-0.000000,9548.656652
3996.541789,0.000000,370.102971,9474.636058
3996.542104,689.485948,-0.000000,9844.739029
3996.542419,0.000000,296.082377,9992.780217
3996.542734,0.000000,222.061783,9770.718434
3996.543049,0.000000,148.041188,9696.697840
3996.543364,153.219100,-0.000000,9770.718434
3996.543680,306.438199,-148.041188,10066.800811
3996.543995,153.219100,-148.041188,9622.677246
3996.544310,0.000000,296.082377,10288.862594
3996.544625,-229.828649,-74.020594,9770.718434
3996.544940,0.000000,-0.000000,9696.697840
3996.545255,0.000000,-0.000000,10066.800811
3996.545570,0.000000,370.102971,9844.739029
3996.545885,0.000000,-0.000000,9844.739029
3996.546200,0.000000,-0.000000,9622.677246
3996.546515,0.000000,222.061783,9696.697840
3996.546830,76.609550,-0.000000,9548.656652
3996.547145,306.438199,-0.000000,9474.636058
3996.547460,76.609550,592.164754,9696.697840
3996.547775,-229.828649,222.061783,9326.594869
3996.548090,-306.438199,296.082377,9474.636058
3996.548406,76.609550,296.082377,9178.553681
3996.548721,-383.047749,518.144159,9030.512492
3996.549036,-459.657299,370.102971,9474.636058
3996.549351,-766.095498,740.205942,9326.594869
3996.549666,-766.095498,222.061783,9474.636058
3996.549981,-766.095498,444.123565,9474.636058
3996.550296,-536.266849,518.144159,9474.636058
3996.550611,-459.657299,592.164754,9474.636058
3996.550926,-919.314598,370.102971,9326.594869
3996.551241,-229.828649,296.082377,9474.636058
3996.551556,-612.876398,814.226536,9400.615463
3996.551871,-1072.533697,1110.308913,9178.553681
3996.552186,-1072.533697,1110.308913,8808.450710
3996.552501,-995.924147,1406.391290,8956.491898
3996.552816,-1455.581446,1258.350101,9104.533087
3996.553132,-2068.457845,1110.308913,8956.491898
3996.553447,-2604.724693,1184.329507,9696.697840
3996.553762,-2451.505594,1258.350101,9770.718434
3996.554077,-2528.115143,1258.350101,9918.759623
3996.554392,-2604.724693,1406.391290,9992.780217
3996.554707,-2987.772442,1554.432478,10214.842000
3996.555022,-2374.896044,1850.514855,10510.924376
3996.555337,-2145.067394,1776.494261,10140.821405
3996.555652,-1991.848295,1702.473667,9992.780217
3996.555967,-1838.629195,2664.741391,9770.718434
3996.556282,-1532.190996,2590.720797,9622.677246
3996.556597,-1225.752797,2886.803174,9474.636058
3996.556912,0.000000,2960.823768,9178.553681
3996.557227,-1225.752797,2368.659014,9474.636058
3996.557542,-1762.019645,2442.679609,9104.533087
3996.557857,-1762.019645,2442.679609,9696.697840
3996.558173,-1838.629195,2442.679609,9696.697840
3996.558488,-2145.067394,1702.473667,9696.697840
3996.558803,-1991.848295,2072.576638,10140.821405
3996.559118,-1991.848295,1776.494261,10066.800811
3996.559433,-1532.190996,1924.535449,10288.862594
3996.559748,-1149.143247,2516.700203,10066.800811
3996.560063,-766.095498,3108.864956,10066.800811
3996.560378,0.000000,3404.947333,9770.718434
3996.560693,0.000000,3627.009116,9252.574275
3996.561008,0.000000,3552.988522,9474.636058
3996.561323,-306.438199,3478.967927,9548.656652
3996.561638,-536.266849,2960.823768,9548.656652
3996.561953,-842.705048,2590.720797,10362.883188
3996.562268,-842.705048,2294.638420,10658.965565
3996.562583,-1149.143247,2146.597232,10732.986159
3996.562899,-1072.533697,1628.453072,10214.842000
3996.563214,-1072.533697,1850.514855,10214.842000
3996.563529,-612.876398,1998.556043,10732.986159
3996.563844,-383.047749,1850.514855,9844.739029
3996.564159,0.000000,2368.659014,9622.677246
3996.564474,229.828649,2146.597232,9326.594869
3996.564789,229.828649,1924.535449,9252.574275
3996.565104,383.047749,2146.597232,9474.636058
3996.565419,153.219100,2072.576638,9770.718434
3996.565734,76.609550,1776.494261,10066.800811
3996.566049,153.219100,1184.329507,10140.821405
3996.566364,306.438199,962.267725,10436.903782
3996.566679,153.219100,444.123565,10510.924376
3996.566994,229.828649,222.061783,11029.068536
3996.567309,459.657299,-222.061783,10584.944971
3996.567625,1072.533697,-222.061783,9844.739029
3996.567940,1608.800546,-592.164754,9474.636058
3996.568255,1455.581446,-74.020594,8956.491898
3996.568570,1455.581446,444.123565,8808.450710
3996.568885,1455.581446,740.205942,8660.409521
3996.569200,766.095498,370.102971,8142.265362
3996.569515,229.828649,-0.000000,8142.265362
3996.569830,-153.219100,-666.185348,9030.512492
3996.570145,-766.095498,-1258.350101,9252.574275
3996.570460,-1149.143247,-1776.494261,10214.842000
3996.570775,-1455.581446,-2072.576638,10214.842000
3996.571090,-1225.752797,-2072.576638,10658.965565
3996.571405,-1378.971896,-2072.576638,10436.903782
3996.571720,-842.705048,-1628.453072,10510.924376
3996.572035,-536.266849,-962.267725,10140.821405
3996.572351,76.609550,-740.205942,9030.512492
3996.572666,0.000000,-296.082377,9104.533087
3996.572981,306.438199,-0.000000,8660.409521
3996.573296,383.047749,-0.000000,8290.306550
3996.573611,0.000000,-814.226536,7920.203579
3996.573926,-383.047749,-1332.370696,8142.265362
3996.574241,-842.705048,-1850.514855,9104.533087
3996.574556,-1149.143247,-2368.659014,9918.759623
3996.574871,-1608.800546,-2960.823768,10288.862594
3996.575186,-1378.971896,-3182.885551,10510.924376
3996.575501,-1149.143247,-2886.803174,10140.821405
3996.575816,-536.266849,-2664.741391,10362.883188
3996.576131,76.609550,-2072.576638,10066.800811
3996.576446,1072.533697,-1110.308913,9178.553681
3996.576761,1685.410096,-592.164754,8290.306550
3996.577077,2451.505594,-0.000000,7179.997637
3996.577392,2221.676944,740.205942,7550.100608
3996.577707,1915.238745,740.205942,7698.141797
3996.578022,1608.800546,-0.000000,8068.244768
3996.578337,689.485948,-592.164754,8068.244768
3996.578652,0.000000,-1628.453072,8660.409521
3996.578967,-1225.752797,-2072.576638,9548.656652
3996.579282,-1685.410096,-2442.679609,10436.903782
3996.579597,-1838.629195,-2516.700203,10807.006753
3996.579912,-2221.676944,-2368.659014,10288.862594
3996.580227,-1532.190996,-1184.329507,10510.924376
3996.580542,-766.095498,-148.041188,9548.656652
3996.580857,0.000000,666.185348,8956.491898
3996.581172,689.485948,1406.391290,8660.409521
3996.581487,1302.362347,2072.576638,8660.409521
3996.581803,1302.362347,2146.597232,8882.471304
3996.582118,1608.800546,2220.617826,8364.327145
3996.582433,1225.752797,1924.535449,8956.491898
3996.582748,919.314598,1406.391290,9696.697840
3996.583063,306.438199,888.247130,9770.718434
3996.583378,0.000000,962.267725,10214.842000
3996.583693,-459.657299,518.144159,10584.944971
3996.584008,-383.047749,296.082377,10807.006753
3996.584323,-459.657299,444.123565,10362.883188
3996.584638,0.000000,444.123565,9844.739029
3996.584953,612.876398,1110.308913,10658.965565
3996.585268,1225.752797,1480.411884,10214.842000
3996.585583,2221.676944,2146.597232,9696.697840
3996.585898,2528.115143,2812.782580,9400.615463
3996.586213,2681.334243,2886.803174,9326.594869
3996.586528,2757.943793,3182.885551,9178.553681
3996.586844,2451.505594,3256.906145,9548.656652
3996.587159,1915.238745,2812.782580,9622.677246
3996.587474,842.705048,2146.597232,10066.800811
3996.587789,-306.438199,1406.391290,10510.924376
3996.588104,-919.314598,592.164754,11177.109724
3996.588419,-1608.800546,-0.000000,11473.192101
3996.588734,-2145.067394,-74.020594,11621.233289
3996.589049,-2221.676944,222.061783,11547.212695
3996.589364,-1685.410096,370.102971,11251.130318
3996.589679,-1302.362347,666.185348,10362.883188
3996.589994,-766.095498,962.267725,10732.986159
3996.590309,-229.828649,1480.411884,9844.739029
3996.590624,0.000000,1554.432478,9400.615463
3996.590939,306.438199,1628.453072,9474.636058
3996.591254,536.266849,1110.308913,9030.512492
3996.591570,612.876398,1332.370696,9030.512492
3996.591885,76.609550,666.185348,9104.533087
3996.592200,-153.219100,444.123565,9326.594869
3996.592515,-919.314598,-296.082377,10288.862594
3996.592830,-919.314598,-1036.288319,9844.739029
3996.593145,-1149.143247,-1480.411884,9918.759623
3996.593460,-1302.362347,-1554.432478,10436.903782
3996.593775,-995.924147,-1628.453072,10214.842000
3996.594090,459.657299,-1628.453072,9622.677246
3996.594405,919.314598,-1332.370696,9474.636058
3996.594720,1685.410096,-444.123565,8956.491898
3996.595035,2298.286494,-0.000000,8068.244768
3996.595350,2528.115143,888.247130,7254.018232
3996.595665,2681.334243,1184.329507,7772.162391
3996.595980,2068.457845,518.144159,7476.080014
3996.596296,1608.800546,-0.000000,7772.162391
3996.596611,536.266849,-518.144159,8142.265362
3996.596926,-153.219100,-1702.473667,8734.430116
3996.597241,-995.924147,-2220.617826,9326.594869
3996.597556,-1838.629195,-2590.720797,10362.883188
3996.597871,-2374.896044,-2516.700203,10510.924376
3996.598186,-2145.067394,-2294.638420,10807.006753
3996.598501,-1915.238745,-1850.514855,10288.862594
3996.598816,-1149.143247,-1110.308913,9918.759623
3996.599131,-459.657299,-592.164754,9844.739029
3996.599446,-229.828649,-296.082377,9474.636058
3996.599761,383.047749,-0.000000,9030.512492
3996.600076,536.266849,370.102971,8734.430116
3996.600391,919.314598,518.144159,8290.306550
3996.600706,1072.533697,444.123565,8956.491898
3996.601022,689.485948,-222.061783,9400.615463
3996.601337,153.219100,-962.267725,9548.656652
3996.601652,0.000000,-1480.411884,10214.842000
3996.601967,-612.876398,-1998.556043,10510.924376
3996.602282,-766.095498,-2294.638420,10732.986159
3996.602597,-689.485948,-2368.659014,11177.109724
3996.602912,0.000000,-2072.576638,10732.986159
3996.603227,689.485948,-1332.370696,10362.883188
3996.603542,1378.971896,-370.102971,9178.553681
3996.603857,1915.238745,666.185348,8364.327145
3996.604172,2374.896044,1702.473667,8438.347739
3996.604487,2068.457845,1998.556043,7772.162391
3996.604802,2451.505594,2072.576638,7846.182985
3996.605117,1838.629195,1480.411884,8512.368333
3996.605432,1225.752797,740.205942,8956.491898
3996.605748,153.219100,-0.000000,9770.718434
3996.606063,-536.266849,-666.185348,9770.718434
3996.606378,-1378.971896,-370.102971,10881.027347
3996.606693,-2068.457845,-518.144159,10881.027347
3996.607008,-1915.238745,-222.061783,11029.068536
3996.607323,-1608.800546,370.102971,10584.944971
3996.607638,-919.314598,370.102971,9844.739029
3996.607953,-1149.143247,1406.391290,9474.636058
3996.608268,0.000000,2146.597232,9474.636058
3996.608583,153.219100,2294.638420,9326.594869
3996.608898,153.219100,2664.741391,8956.491898
3996.609213,306.438199,2368.659014,9030.512492
3996.609528,306.438199,2220.617826,9326.594869
3996.609843,0.000000,1702.473667,9696.697840
3996.610158,-689.485948,1184.329507,10510.924376
3996.610473,-766.095498,296.082377,10584.944971
3996.610789,-919.314598,-0.000000,10584.944971
3996.611104,-1225.752797,-0.000000,10362.883188
3996.611419,-612.876398,-74.020594,10732.986159
3996.611734,0.000000,296.082377,10288.862594
3996.612049,766.095498,592.164754,10066.800811
3996.612364,1378.971896,1332.370696,9252.574275
3996.612679,2068.457845,1702.473667,8660.409521
3996.612994,2528.115143,2294.638420,8512.368333
3996.613309,2145.067394,2442.679609,8364.327145
3996.613624,1915.238745,1924.535449,8290.306550
3996.613939,1378.971896,1184.329507,8142.265362
3996.614254,689.485948,740.205942,9030.512492
3996.614569,-229.828649,-0.000000,9696.697840
3996.614884,-689.485948,-222.061783,9992.780217
3996.615199,-1302.362347,-592.164754,9992.780217
3996.615515,-1378.971896,-222.061783,10436.903782
3996.615830,-1455.581446,-0.000000,10658.965565
3996.616145,-1455.581446,444.123565,10362.883188
3996.616460,-919.314598,666.185348,10140.821405
3996.616775,-383.047749,1036.288319,9622.677246
3996.617090,0.000000,814.226536,9178.553681
3996.617405,76.609550,1036.288319,9696.697840
3996.617720,306.438199,962.267725,9400.615463
3996.618035,306.438199,1036.288319,9400.615463
3996.618350,153.219100,888.247130,9252.574275
3996.618665,0.000000,370.102971,9400.615463
3996.618980,-306.438199,-0.000000,9696.697840
3996.619295,-612.876398,-666.185348,10140.821405
3996.619610,-459.657299,-1036.288319,9918.759623
3996.619925,-459.657299,-1332.370696,10140.821405
3996.620241,-689.485948,-1406.391290,10288.862594
3996.620556,0.000000,-814.226536,10214.842000
3996.620871,842.705048,-962.267725,9770.718434
3996.621186,1455.581446,-592.164754,9474.636058
3996.621501,1685.410096,-0.000000,9474.636058
3996.621816,2145.067394,370.102971,8512.368333
3996.622131,2374.896044,888.247130,8660.409521
3996.622446,2145.067394,444.123565,7846.182985
3996.622761,1532.190996,-0.000000,8216.285956
3996.623076,1072.533697,-296.082377,8808.450710
3996.623391,153.219100,-592.164754,9104.533087
3996.623706,-612.876398,-1480.411884,9548.656652
3996.624021,-1072.533697,-1702.473667,10214.842000
3996.624336,-1608.800546,-2146.597232,10214.842000
3996.624651,-1685.410096,-2220.617826,10510.924376
3996.624967,-1762.019645,-1554.432478,10658.965565
3996.625282,-1225.752797,-1406.391290,10510.924376
3996.625597,-612.876398,-814.226536,10140.821405
3996.625912,0.000000,-296.082377,9252.574275
3996.626227,153.219100,-74.020594,9252.574275
3996.626542,383.047749,370.102971,9400.615463
3996.626857,612.876398,518.144159,9030.512492
3996.627172,459.657299,-0.000000,9030.512492
3996.627487,0.000000,-444.123565,9178.553681
3996.627802,-689.485948,-592.164754,9622.677246
3996.628117,-612.876398,-1184.329507,10140.821405
3996.628432,-689.485948,-1628.453072,10732.986159
3996.628747,-995.924147,-1628.453072,10955.047942
3996.629062,-536.266849,-2072.576638,11029.068536
3996.629377,-229.828649,-1554.432478,10362.883188
3996.629693,919.314598,-1184.329507,9696.697840
3996.630008,1378.971896,-222.061783,9178.553681
3996.630323,1762.019645,666.185348,8438.347739
3996.630638,1991.848295,1554.432478,7846.182985
3996.630953,2221.676944,1702.473667,7698.141797
3996.631268,2298.286494,1554.432478,7476.080014
3996.631583,1532.190996,1258.350101,8142.265362
3996.631898,229.828649,1110.308913,8660.409521
3996.632213,0.000000,-148.041188,9474.636058
3996.632528,-995.924147,-444.123565,9696.697840
3996.632843,-1455.581446,-740.205942,10658.965565
3996.633158,-1838.629195,-444.123565,10510.924376
3996.633473,-1685.410096,-370.102971,10658.965565
3996.633788,-1378.971896,592.164754,10584.944971
3996.634103,-995.924147,888.247130,9844.739029
3996.634418,-229.828649,1184.329507,9474.636058
3996.634734,76.609550,1776.494261,9474.636058
3996.635049,229.828649,1924.535449,8956.491898
3996.635364,766.095498,2072.576638,8808.450710
3996.635679,919.314598,1850.514855,9030.512492
3996.635994,459.657299,1332.370696,9474.636058
3996.636309,0.000000,1036.288319,9918.759623
3996.636624,0.000000,592.164754,10140.821405
3996.636939,-689.485948,296.082377,10584.944971
3996.637254,-689.485948,-0.000000,11103.089130
3996.637569,-612.876398,-0.000000,11251.130318
3996.637884,-306.438199,-0.000000,11103.089130
3996.638199,229.828649,-0.000000,10436.903782
3996.638514,1072.533697,592.164754,10066.800811
3996.638829,1685.410096,1110.308913,9770.718434
3996.639144,2451.505594,1850.514855,9474.636058
3996.639460,2604.724693,2368.659014,9104.533087
3996.639775,2374.896044,2294.638420,8956.491898
3996.640090,2451.505594,1998.556043,8660.409521
3996.640405,1532.190996,1776.494261,9030.512492
3996.640720,766.095498,814.226536,9326.594869
3996.641035,0.000000,444.123565,9696.697840
3996.641350,-766.095498,-74.020594,10066.800811
3996.641665,-1072.533697,-296.082377,10362.883188
3996.641980,-1685.410096,-370.102971,10362.883188
3996.642295,-1762.019645,-222.061783,10436.903782
3996.642611,-1915.238745,-74.020594,10436.903782
3996.642926,-1225.752797,-0.000000,10140.821405
3996.643241,-995.924147,444.123565,9770.718434
3996.643556,-383.047749,666.185348,9400.615463
3996.643871,0.000000,666.185348,8882.471304
3996.644186,0.000000,888.247130,8734.430116
3996.644501,229.828649,888.247130,9252.574275
3996.644816,306.438199,814.226536,9030.512492
3996.645131,0.000000,222.061783,9178.553681
3996.645446,-383.047749,-148.041188,9474.636058
3996.645762,-612.876398,-1110.308913,9474.636058
3996.646077,-612.876398,-1480.411884,10066.800811
3996.646392,-919.314598,-1480.411884,10140.821405
3996.646707,-689.485948,-1776.494261,10214.842000
3996.647022,-306.438199,-1406.391290,9992.780217
3996.647337,612.876398,-1332.370696,9326.594869
3996.647652,1225.752797,-666.185348,8660.409521
3996.647967,1762.019645,-74.020594,8364.327145
3996.648282,1838.629195,-0.000000,8068.244768
3996.648598,1762.019645,518.144159,8290.306550
3996.648913,1915.238745,666.185348,7920.203579
3996.649228,1302.362347,222.061783,7920.203579
3996.649543,612.876398,-74.020594,8438.347739
3996.649858,0.000000,-592.164754,9400.615463
3996.650173,-612.876398,-1850.514855,10214.842000
3996.650488,-1302.362347,-1628.453072,10584.944971
3996.650803,-1685.410096,-1480.411884,10140.821405
3996.651118,-1991.848295,-1258.350101,10807.006753
3996.651433,-1762.019645,-1110.308913,10658.965565
3996.651749,-919.314598,-814.226536,10510.924376
3996.652064,-689.485948,-148.041188,10510.924376
3996.652379,-536.266849,222.061783,9770.718434
3996.652694,0.000000,740.205942,9474.636058
3996.653009,229.828649,888.247130,9326.594869
3996.653324,536.266849,740.205942,9326.594869
3996.653639,306.438199,814.226536,8882.471304
3996.653954,76.609550,370.102971,9178.553681
3996.654269,0.000000,-0.000000,9918.759623
3996.654584,-536.266849,-74.020594,10436.903782
3996.654900,-536.266849,-1036.288319,10288.862594
3996.655215,-842.705048,-962.267725,10732.986159
3996.655530,-689.485948,-1110.308913,10510.924376
3996.655845,0.000000,-888.247130,10658.965565
3996.656160,842.705048,-592.164754,10066.800811
3996.656475,1378.971896,370.102971,9474.636058
3996.656790,1762.019645,1110.308913,8586.388927
3996.657105,2221.676944,1924.535449,8142.265362
3996.657420,2451.505594,2146.597232,8290.306550
3996.657736,2298.286494,1702.473667,7920.203579
3996.658051,1762.019645,1628.453072,8364.327145
3996.658366,842.705048,1258.350101,8734.430116
3996.658681,0.000000,592.164754,9252.574275
3996.658996,-459.657299,-74.020594,10066.800811
3996.659311,-995.924147,-518.144159,10436.903782
3996.659626,-1608.800546,-296.082377,10510.924376
3996.659941,-1762.019645,-222.061783,10362.883188
3996.660256,-1455.581446,-0.000000,10214.842000
3996.660571,-1072.533697,444.123565,10436.903782
3996.660887,-612.876398,1036.288319,9844.739029
3996.661202,-76.609550,1628.453072,9770.718434
3996.661517,229.828649,1776.494261,9326.594869
3996.661832,459.657299,1850.514855,9474.636058
3996.662147,459.657299,1998.556043,9326.594869
3996.662462,766.095498,1776.494261,9400.615463
3996.662777,306.438199,1332.370696,10066.800811
3996.663092,0.000000,444.123565,9696.697840
3996.663407,-536.266849,-0.000000,10510.924376
3996.663723,-612.876398,-666.185348,10955.047942
3996.664038,-689.485948,-518.144159,10732.986159
3996.664353,-383.047749,-518.144159,10362.883188
3996.664668,-229.828649,-666.185348,10066.800811
3996.664983,919.314598,-148.041188,9918.759623
3996.665298,1455.581446,296.082377,9326.594869
3996.665613,1685.410096,962.267725,8438.347739
3996.665928,2374.896044,1554.432478,8364.327145
3996.666243,2145.067394,1702.473667,8142.265362
3996.666558,1991.848295,1628.453072,8364.327145
3996.666874,1225.752797,1110.308913,8512.368333
3996.667189,1072.533697,666.185348,8512.368333
3996.667504,153.219100,-0.000000,8882.471304
3996.667819,-459.657299,-370.102971,9548.656652
3996.668134,-995.924147,-814.226536,10362.883188
3996.668449,-1685.410096,-888.247130,10288.862594
3996.668764,-1838.629195,-296.082377,10362.883188
3996.669079,-1838.629195,-222.061783,10066.800811
3996.669394,-995.924147,-0.000000,9992.780217
3996.669710,-536.266849,222.061783,9992.780217
3996.670025,-612.876398,518.144159,9474.636058
3996.670340,0.000000,444.123565,9548.656652
3996.670655,-153.219100,-0.000000,9252.574275
3996.670970,383.047749,1184.329507,9030.512492
3996.671285,459.657299,888.247130,9252.574275
3996.671600,459.657299,444.123565,9474.636058
3996.671915,-229.828649,-0.000000,9548.656652
3996.672230,0.000000,-1110.308913,9696.697840
3996.672545,-383.047749,-1110.308913,10510.924376
3996.672861,-766.095498,-1406.391290,10362.883188
3996.673176,-766.095498,-1258.350101,10510.924376
3996.673491,-306.438199,-962.267725,10658.965565
3996.673806,1072.533697,-888.247130,10658.965565
3996.674121,1378.971896,-444.123565,9474.636058
3996.674436,1378.971896,-0.000000,9252.574275
3996.674751,1838.629195,444.123565,8660.409521
3996.675066,2298.286494,1110.308913,8512.368333
3996.675381,2145.067394,592.164754,8364.327145
3996.675697,1608.800546,296.082377,7994.224174
3996.676012,1225.752797,-0.000000,8438.347739
3996.676327,153.219100,-296.082377,8956.491898
3996.676642,-229.828649,-1036.288319,9474.636058
3996.676957,-995.924147,-1702.473667,10140.821405
3996.677272,-1608.800546,-1776.494261,10584.944971
3996.677587,-1762.019645,-1776.494261,10732.986159
3996.677902,-1455.581446,-1406.391290,10362.883188
3996.678217,-995.924147,-740.205942,10214.842000
3996.678532,-459.657299,-518.144159,10214.842000
3996.678848,-229.828649,-0.000000,9622.677246
3996.679163,229.828649,518.144159,9252.574275
3996.679478,612.876398,814.226536,8882.471304
3996.679793,1225.752797,1110.308913,8734.430116
3996.680108,1072.533697,814.226536,8956.491898
3996.680423,536.266849,518.144159,9104.533087
3996.680738,383.047749,370.102971,9548.656652
3996.681053,0.000000,-370.102971,9770.718434
3996.681368,-153.219100,-814.226536,9992.780217
3996.681683,-459.657299,-962.267725,10510.924376
3996.681999,-306.438199,-1110.308913,10288.862594
3996.682314,0.000000,-666.185348,10362.883188
3996.682629,536.266849,-296.082377,10140.821405
3996.682944,1225.752797,296.082377,9474.636058
3996.683259,1302.362347,740.205942,8956.491898
3996.683574,2145.067394,1332.370696,8660.409521
3996.683889,2451.505594,2220.617826,8142.265362
3996.684204,2145.067394,1924.535449,7920.203579
3996.684519,1991.848295,1554.432478,8512.368333
3996.684835,1225.752797,1036.288319,8956.491898
3996.685150,76.609550,370.102971,9400.615463
3996.685465,-536.266849,-74.020594,9844.739029
3996.685780,-1225.752797,-296.082377,10436.903782
3996.686095,-1608.800546,-518.144159,10732.986159
3996.686410,-1762.019645,-592.164754,10881.027347
3996.686725,-1685.410096,-0.000000,10510.924376
3996.687040,-1762.019645,-0.000000,10140.821405
3996.687355,-1072.533697,518.144159,10140.821405
3996.687670,-1225.752797,1036.288319,10066.800811
3996.687986,-153.219100,1258.350101,9474.636058
3996.688301,0.000000,1480.411884,9474.636058
3996.688616,536.266849,1332.370696,9400.615463
3996.688931,459.657299,1406.391290,9326.594869
3996.689246,0.000000,962.267725,9696.697840
3996.689561,0.000000,666.185348,10288.862594
3996.689876,-766.095498,-0.000000,10362.883188
3996.690191,-766.095498,-222.061783,10436.903782
3996.690506,-995.924147,-370.102971,10584.944971
3996.690822,-689.485948,-1110.308913,10288.862594
3996.691137,-306.438199,-370.102971,10584.944971
3996.691452,383.047749,-222.061783,10436.903782
3996.691767,995.924147,-0.000000,9770.718434
3996.692082,1302.362347,740.205942,9400.615463
3996.692397,2451.505594,1184.329507,8882.471304
3996.692712,2451.505594,1850.514855,8364.327145
3996.693027,2528.115143,1850.514855,8142.265362
3996.693342,2068.457845,1332.370696,8142.265362
3996.693657,1378.971896,962.267725,8438.347739
3996.693973,612.876398,-74.020594,9030.512492
3996.694288,0.000000,-222.061783,9474.636058
3996.694603,-612.876398,-518.144159,9918.759623
3996.694918,-1302.362347,-740.205942,10066.800811
3996.695233,-1302.362347,-1036.288319,10362.883188
3996.695548,-1455.581446,-740.205942,10436.903782
3996.695863,-1532.190996,-444.123565,10584.944971
3996.696178,-766.095498,-0.000000,9918.759623
3996.696493,-229.828649,370.102971,9696.697840
3996.696809,0.000000,518.144159,9474.636058
3996.697124,153.219100,666.185348,9474.636058
3996.697439,612.876398,888.247130,8956.491898
3996.697754,383.047749,666.185348,8882.471304
3996.698069,536.266849,148.041188,9104.533087
3996.698384,76.609550,-148.041188,9400.615463
3996.698699,0.000000,-962.267725,9770.718434
3996.699014,0.000000,-1110.308913,10140.821405
3996.699329,-383.047749,-962.267725,10288.862594
3996.699644,-459.657299,-1406.391290,10584.944971
3996.699960,153.219100,-1406.391290,10362.883188
3996.700275,459.657299,-1258.350101,10362.883188
3996.700590,1149.143247,-888.247130,9474.636058
3996.700905,1838.629195,-74.020594,9104.533087
3996.701220,2068.457845,444.123565,8808.450710
3996.701535,2221.676944,962.267725,8142.265362
3996.701850,2068.457845,1036.288319,8142.265362
3996.702165,1762.019645,740.205942,8142.265362
3996.702480,1302.362347,518.144159,8586.388927
3996.702796,383.047749,-0.000000,8660.409521
3996.703111,-229.828649,-518.144159,9400.615463
3996.703426,-842.705048,-962.267725,9844.739029
3996.703741,-1532.190996,-814.226536,10584.944971
3996.704056,-1915.238745,-666.185348,10584.944971
3996.704371,-1991.848295,-592.164754,10658.965565
3996.704686,-1149.143247,-0.000000,11103.089130
3996.705001,-1378.971896,222.061783,10436.903782
3996.705316,-919.314598,962.267725,10214.842000
3996.705631,-383.047749,1110.308913,9622.677246
3996.705947,-459.657299,1258.350101,9474.636058
3996.706262,383.047749,1258.350101,9474.636058
3996.706577,153.219100,1480.411884,9178.553681
3996.706892,0.000000,814.226536,9252.574275
3996.707207,-536.266849,814.226536,9622.677246
3996.707522,-153.219100,-148.041188,9918.759623
3996.707837,-1072.533697,-518.144159,10214.842000
3996.708152,-766.095498,-592.164754,10732.986159
3996.708467,-766.095498,-592.164754,10732.986159
3996.708782,-536.266849,-814.226536,10362.883188
3996.709098,306.438199,-222.061783,10362.883188
3996.709413,1225.752797,-74.020594,9992.780217
3996.709728,1685.410096,814.226536,9474.636058
3996.710043,2221.676944,1110.308913,8660.409521
3996.710358,2145.067394,2072.576638,7920.203579
3996.710673,2451.505594,1628.453072,7846.182985
3996.710988,1991.848295,1406.391290,8290.306550
3996.711303,1455.581446,666.185348,8660.409521
3996.711618,383.047749,222.061783,9326.594869
3996.711934,0.000000,-296.082377,9696.697840
3996.712249,76.609550,-962.267725,10066.800811
3996.712564,-995.924147,-666.185348,10732.986159
3996.712879,-1302.362347,-444.123565,10510.924376
3996.713194,-1072.533697,-518.144159,10584.944971
3996.713509,-842.705048,-0.000000,10140.821405
3996.713824,-383.047749,888.247130,10066.800811
3996.714139,0.000000,962.267725,9400.615463
3996.714454,76.609550,814.226536,9474.636058
3996.714769,306.438199,1258.350101,9178.553681
3996.715085,536.266849,1184.329507,8956.491898
3996.715400,459.657299,1110.308913,9400.615463
3996.715715,306.438199,1036.288319,9474.636058
3996.716030,76.609550,666.185348,9918.759623
3996.716345,-306.438199,-0.000000,10288.862594
3996.716660,-612.876398,-370.102971,10362.883188
3996.716975,-919.314598,-814.226536,10955.047942
3996.717290,-689.485948,-888.247130,10510.924376
3996.717605,-229.828649,-666.185348,10436.903782
3996.717921,536.266849,-296.082377,9696.697840
3996.718236,1149.143247,-0.000000,9474.636058
3996.718551,1685.410096,444.123565,8882.471304
3996.718866,1991.848295,1110.308913,8808.450710
3996.719181,2068.457845,1406.391290,8290.306550
3996.719496,1915.238745,1332.370696,7920.203579
3996.719811,1685.410096,1110.308913,8290.306550
3996.720126,995.924147,296.082377,8290.306550
3996.720441,153.219100,-0.000000,8956.491898
3996.720756,-383.047749,-148.041188,9474.636058
3996.721072,-919.314598,-888.247130,9622.677246
3996.721387,-1378.971896,-1110.308913,10288.862594
3996.721702,-1991.848295,-962.267725,10584.944971
3996.722017,-1838.629195,-1110.308913,10732.986159
3996.722332,-1455.581446,-740.205942,10807.006753
3996.722647,-995.924147,-666.185348,9918.759623
3996.722962,-612.876398,-0.000000,10066.800811
3996.723277,-306.438199,370.102971,9696.697840
3996.723592,229.828649,592.164754,9548.656652
3996.723908,995.924147,592.164754,8882.471304
3996.724223,76.609550,962.267725,9104.533087
3996.724538,229.828649,888.247130,9548.656652
3996.724853,0.000000,148.041188,9400.615463
3996.725168,-459.657299,-444.123565,9918.759623
3996.725483,-383.047749,-1184.329507,10436.903782
3996.725798,-995.924147,-1554.432478,10362.883188
3996.726113,-689.485948,-1480.411884,10584.944971
3996.726428,-459.657299,-1184.329507,10732.986159
3996.726743,383.047749,-1184.329507,10362.883188
3996.727059,1225.752797,-666.185348,9474.636058
3996.727374,1685.410096,-0.000000,8956.491898
3996.727689,1915.238745,814.226536,8734.430116
3996.728004,2451.505594,1406.391290,8364.327145
3996.728319,2221.676944,1480.411884,7846.182985
3996.728634,2068.457845,1184.329507,7624.121203
3996.728949,1455.581446,592.164754,7920.203579
3996.729264,689.485948,296.082377,8660.409521
3996.729579,-229.828649,-518.144159,9474.636058
3996.729895,-919.314598,-666.185348,9918.759623
3996.730210,-1608.800546,-1036.288319,10140.821405
3996.730525,-1685.410096,-1628.453072,10584.944971
3996.730840,-1455.581446,-1110.308913,10140.821405
3996.731155,-1225.752797,-444.123565,10510.924376
3996.731470,-995.924147,-0.000000,10140.821405
3996.731785,-383.047749,444.123565,9474.636058
3996.732100,229.828649,1184.329507,9548.656652
3996.732415,536.266849,1480.411884,8882.471304
3996.732730,612.876398,1554.432478,9030.512492
3996.733046,842.705048,1332.370696,9252.574275
3996.733361,612.876398,962.267725,8882.471304
3996.733676,306.438199,518.144159,9326.594869
3996.733991,0.000000,-0.000000,10140.821405
3996.734306,-153.219100,-370.102971,10288.862594
3996.734621,-766.095498,-592.164754,10362.883188
3996.734936,-995.924147,-888.247130,10362.883188
3996.735251,-536.266849,-1110.308913,11029.068536
3996.735566,229.828649,-222.061783,10510.924376
3996.735881,995.924147,-0.000000,10066.800811
3996.736197,1378.971896,740.205942,9474.636058
3996.736512,2221.676944,1406.391290,9030.512492
3996.736827,2451.505594,1998.556043,8512.368333
3996.737142,2068.457845,2146.597232,8364.327145
3996.737457,1762.019645,1924.535449,8734.430116
3996.737772,995.924147,1480.411884,8586.388927
3996.738087,229.828649,1110.308913,9252.574275
3996.738402,-536.266849,-0.000000,10214.842000
3996.738717,-1225.752797,-296.082377,10436.903782
3996.739033,-1915.238745,-592.164754,10807.006753
3996.739348,-1991.848295,-666.185348,10955.047942
3996.739663,-2145.067394,-740.205942,11029.068536
3996.739978,-1378.971896,-0.000000,10436.903782
3996.740293,-1149.143247,592.164754,10288.862594
3996.740608,-383.047749,1110.308913,9770.718434
3996.740923,-306.438199,1036.288319,9474.636058
3996.741238,0.000000,1184.329507,9178.553681
3996.741553,383.047749,1480.411884,8882.471304
3996.741868,536.266849,1480.411884,9400.615463
3996.742183,383.047749,962.267725,9252.574275
3996.742498,229.828649,370.102971,9474.636058
3996.742813,0.000000,-222.061783,9844.739029
3996.743128,-842.705048,-814.226536,10214.842000
3996.743443,-1225.752797,-888.247130,10362.883188
3996.743758,-919.314598,-1036.288319,10881.027347
3996.744073,-612.876398,-1110.308913,10436.903782
3996.744389,0.000000,-814.226536,10140.821405
3996.744704,919.314598,-444.123565,9844.739029
3996.745019,1685.410096,148.041188,9252.574275
3996.745334,1762.019645,814.226536,8734.430116
3996.745649,2068.457845,1110.308913,7920.203579
3996.745964,2528.115143,1406.391290,7994.224174
3996.746279,1991.848295,1184.329507,8068.244768
3996.746594,1608.800546,888.247130,8586.388927
3996.746909,612.876398,-0.000000,8734.430116
3996.747224,-153.219100,-1036.288319,9326.594869
3996.747539,-842.705048,-962.267725,9918.759623
3996.747854,-1378.971896,-1184.329507,10362.883188
3996.748169,-1532.190996,-1554.432478,10510.924376
3996.748484,-1762.019645,-1184.329507,10807.006753
3996.748799,-1532.190996,-518.144159,10436.903782
3996.749114,-1072.533697,-222.061783,10214.842000
3996.749429,0.000000,296.082377,9696.697840
3996.749744,76.609550,740.205942,9622.677246
3996.750059,459.657299,962.267725,9178.553681
3996.750374,919.314598,444.123565,8438.347739
3996.750689,842.705048,962.267725,8808.450710
3996.751004,689.485948,814.226536,9104.533087
3996.751319,153.219100,148.041188,9474.636058
3996.751634,0.000000,-296.082377,9918.759623
3996.751949,-842.705048,-814.226536,9992.780217
3996.752264,-612.876398,-962.267725,10510.924376
3996.752579,-842.705048,-1406.391290,10436.903782
3996.752894,-306.438199,-1406.391290,10436.903782
3996.753209,0.000000,-814.226536,10214.842000
3996.753524,919.314598,-592.164754,9844.739029
3996.753839,1608.800546,296.082377,8956.491898
3996.754154,2221.676944,814.226536,8438.347739
3996.754470,2451.505594,1554.432478,8512.368333
3996.754785,2604.724693,1628.453072,7920.203579
3996.755100,2298.286494,1628.453072,7920.203579
3996.755415,1685.410096,1332.370696,8734.430116
3996.755730,919.314598,740.205942,9104.533087
3996.756045,0.000000,-222.061783,9474.636058
3996.756360,-1149.143247,-814.226536,10362.883188
3996.756675,-1608.800546,-962.267725,10658.965565
3996.756990,-1838.629195,-1036.288319,10881.027347
3996.757305,-1915.238745,-740.205942,11029.068536
3996.757620,-1762.019645,-222.061783,10584.944971
3996.757935,-1072.533697,148.041188,10288.862594
3996.758250,-612.876398,518.144159,9844.739029
3996.758565,-229.828649,888.247130,9992.780217
3996.758880,0.000000,962.267725,9474.636058
3996.759195,153.219100,1628.453072,9178.553681
3996.759510,459.657299,1554.432478,9104.533087
3996.759825,306.438199,1110.308913,9178.553681
3996.760140,153.219100,740.205942,9622.677246
3996.760455,-306.438199,-0.000000,10140.821405
3996.760770,-919.314598,-296.082377,10362.883188
3996.761085,-995.924147,-518.144159,10510.924376
3996.761400,-995.924147,-1036.288319,10362.883188
3996.761715,-459.657299,-740.205942,10510.924376
3996.762030,153.219100,-592.164754,10436.903782
3996.762345,766.095498,-518.144159,9696.697840
3996.762660,1455.581446,370.102971,9178.553681
3996.762975,1991.848295,1036.288319,8586.388927
3996.763290,2068.457845,1480.411884,8364.327145
3996.763605,2374.896044,1554.432478,7772.162391
3996.763920,2068.457845,1480.411884,7994.224174
3996.764235,1378.971896,962.267725,8216.285956
3996.764550,612.876398,222.061783,8586.388927
3996.764866,-153.219100,-148.041188,9400.615463
3996.765181,-612.876398,-1184.329507,9992.780217
3996.765496,-1225.752797,-740.205942,10066.800811
3996.765811,-1762.019645,-1184.329507,10584.944971
3996.766126,-1532.190996,-888.247130,10881.027347
3996.766441,-1455.581446,-370.102971,10658.965565
3996.766756,-995.924147,-74.020594,10436.903782
3996.767071,-612.876398,666.185348,9622.677246
3996.767386,0.000000,740.205942,9548.656652
3996.767701,536.266849,1036.288319,9400.615463
3996.768016,1072.533697,1110.308913,9400.615463
3996.768331,1072.533697,1258.350101,9030.512492
3996.768646,919.314598,888.247130,9030.512492
3996.768961,459.657299,370.102971,9178.553681
3996.769276,0.000000,-0.000000,9992.780217
3996.769591,-306.438199,-740.205942,10436.903782
3996.769906,-536.266849,-1036.288319,10288.862594
3996.770221,-995.924147,-1184.329507,10510.924376
3996.770536,-229.828649,-1110.308913,10881.027347
3996.770851,0.000000,-1036.288319,9770.718434
3996.771166,766.095498,-740.205942,10066.800811
3996.771481,1302.362347,-74.020594,9474.636058
3996.771796,2068.457845,740.205942,9400.615463
3996.772111,2221.676944,1406.391290,8512.368333
3996.772426,2145.067394,1406.391290,8216.285956
3996.772741,1991.848295,1110.308913,8142.265362
3996.773056,1302.362347,814.226536,8438.347739
3996.773371,383.047749,-0.000000,8808.450710
3996.773686,0.000000,-370.102971,9400.615463
3996.774001,-689.485948,-740.205942,9918.759623
3996.774316,-1455.581446,-1184.329507,10066.800811
3996.774631,-1991.848295,-1258.350101,10510.924376
3996.774947,-1685.410096,-1184.329507,10955.047942
3996.775262,-1455.581446,-370.102971,10288.862594
3996.775577,-1225.752797,-74.020594,9844.739029
3996.775892,-766.095498,-0.000000,9696.697840
3996.776207,-536.266849,296.082377,9474.636058
3996.776522,0.000000,962.267725,9326.594869
3996.776837,229.828649,1110.308913,9252.574275
3996.777152,536.266849,1406.391290,9104.533087
3996.777467,536.266849,888.247130,9474.636058
3996.777782,153.219100,-0.000000,8586.388927
3996.778097,-153.219100,-0.000000,9400.615463
3996.778412,-306.438199,-222.061783,10140.821405
3996.778727,-306.438199,-592.164754,10584.944971
3996.779042,-766.095498,-888.247130,10436.903782
3996.779357,-459.657299,-962.267725,10362.883188
3996.779672,0.000000,-370.102971,10214.842000
3996.779987,842.705048,-222.061783,9918.759623
3996.780302,1225.752797,-0.000000,9474.636058
3996.780617,1762.019645,888.247130,8956.491898
3996.780932,2374.896044,1332.370696,8142.265362
3996.781247,2145.067394,1850.514855,7994.224174
3996.781562,1915.238745,1554.432478,8438.347739
3996.781877,1149.143247,1184.329507,8586.388927
3996.782192,229.828649,370.102971,8660.409521
3996.782507,0.000000,-0.000000,9326.594869
3996.782822,-383.047749,-444.123565,9770.718434
3996.783137,-995.924147,-518.144159,10214.842000
3996.783452,-1608.800546,-666.185348,10510.924376
3996.783767,-1762.019645,-444.123565,11177.109724
3996.784082,-1532.190996,-148.041188,10807.006753
3996.784397,-995.924147,222.061783,10288.862594
3996.784712,-306.438199,666.185348,9918.759623
3996.785028,0.000000,888.247130,9696.697840
3996.785343,459.657299,1184.329507,9400.615463
3996.785658,536.266849,1258.350101,9030.512492
3996.785973,689.485948,1480.411884,9178.553681
3996.786288,536.266849,888.247130,9252.574275
3996.786603,229.828649,296.082377,9178.553681
3996.786918,306.438199,148.041188,9622.677246
3996.787233,0.000000,-296.082377,9992.780217
3996.787548,-383.047749,-666.185348,10436.903782
3996.787863,-612.876398,-814.226536,10584.944971
3996.788178,-459.657299,-592.164754,10807.006753
3996.788493,0.000000,-740.205942,10510.924376
3996.788808,536.266849,-74.020594,9696.697840
3996.789123,1685.410096,444.123565,9326.594869
3996.789438,1762.019645,740.205942,9252.574275
3996.789753,1991.848295,1480.411884,8734.430116
3996.790068,2068.457845,1184.329507,8216.285956
3996.790383,1608.800546,1332.370696,7994.224174
3996.790698,995.924147,1110.308913,8882.471304
3996.791013,306.438199,444.123565,9030.512492
3996.791328,-229.828649,-74.020594,9474.636058
3996.791643,-995.924147,-444.123565,9992.780217
3996.791958,-1455.581446,-592.164754,9918.759623
3996.792273,-1762.019645,-592.164754,10288.862594
3996.792588,-1991.848295,-740.205942,10881.027347
3996.792903,-1762.019645,-518.144159,10584.944971
3996.793218,-1225.752797,518.144159,10288.862594
3996.793533,-459.657299,370.102971,9474.636058
3996.793848,0.000000,666.185348,9474.636058
3996.794163,-153.219100,962.267725,9474.636058
3996.794478,229.828649,814.226536,9326.594869
3996.794793,153.219100,666.185348,9104.533087
3996.795109,229.828649,740.205942,9104.533087
3996.795424,0.000000,296.082377,9474.636058
3996.795739,-306.438199,-222.061783,9844.739029
3996.796054,-383.047749,-814.226536,10140.821405
3996.796369,229.828649,-1406.391290,10362.883188
3996.796684,-612.876398,-1184.329507,10288.862594
3996.796999,-459.657299,-1036.288319,10732.986159
3996.797314,153.219100,-962.267725,10066.800811
3996.797629,919.314598,-518.144159,9696.697840
3996.797944,1608.800546,-222.061783,9252.574275
3996.798259,2068.457845,370.102971,8660.409521
3996.798574,2451.505594,814.226536,8586.388927
3996.798889,2374.896044,1184.329507,8290.306550
3996.799204,2298.286494,1110.308913,7772.162391
3996.799519,1455.581446,666.185348,7994.224174
3996.799834,536.266849,222.061783,8808.450710
3996.800149,0.000000,-148.041188,9622.677246
3996.800464,-766.095498,-592.164754,9992.780217
3996.800779,-1302.362347,-1036.288319,10362.883188
3996.801094,-1685.410096,-962.267725,10288.862594
3996.801409,-1685.410096,-740.205942,10881.027347
3996.801724,-1302.362347,-444.123565,10584.944971
3996.802039,-1072.533697,-74.020594,10214.842000
3996.802354,-689.485948,370.102971,9844.739029
3996.802669,0.000000,888.247130,9252.574275
3996.802984,229.828649,1110.308913,9400.615463
3996.803299,383.047749,1332.370696,9104.533087
3996.803614,536.266849,1258.350101,8956.491898
3996.803929,0.000000,962.267725,8660.409521
3996.804244,0.000000,666.185348,9030.512492
3996.804559,0.000000,222.061783,9844.739029
3996.804874,-383.047749,-518.144159,9992.780217
3996.805190,-612.876398,-1110.308913,10362.883188
3996.805505,-919.314598,-444.123565,10732.986159
3996.805820,-842.705048,-1036.288319,10807.006753
3996.806135,0.000000,-444.123565,10584.944971
3996.806450,919.314598,-222.061783,9992.780217
3996.806765,1302.362347,296.082377,9326.594869
3996.807080,1838.629195,814.226536,8586.388927
3996.807395,2298.286494,1332.370696,8438.347739
3996.807710,1991.848295,1406.391290,8290.306550
3996.808025,2068.457845,1628.453072,8216.285956
3996.808340,1762.019645,1184.329507,8216.285956
3996.808655,459.657299,-0.000000,8808.450710
3996.808970,0.000000,-0.000000,9622.677246
3996.809285,-612.876398,-592.164754,10066.800811
3996.809600,-1378.971896,-740.205942,10362.883188
3996.809915,-1608.800546,-740.205942,10436.903782
3996.810230,-1532.190996,-666.185348,10658.965565
3996.810545,-1532.190996,-370.102971,10510.924376
3996.810860,-1149.143247,-74.020594,10362.883188
3996.811175,-229.828649,666.185348,9918.759623
3996.811490,0.000000,962.267725,9474.636058
3996.811805,0.000000,1110.308913,9548.656652
3996.812120,459.657299,1702.473667,9622.677246
3996.812435,536.266849,1406.391290,9400.615463
3996.812750,689.485948,1036.288319,9030.512492
3996.813065,306.438199,888.247130,9548.656652
3996.813380,-383.047749,370.102971,9474.636058
3996.813695,-383.047749,-74.020594,10214.842000
3996.814010,-612.876398,-518.144159,10362.883188
3996.814325,-919.314598,-740.205942,10140.821405
3996.814640,-459.657299,-962.267725,10362.883188
3996.814955,306.438199,-740.205942,10140.821405
3996.815271,842.705048,-518.144159,10214.842000
3996.815586,1455.581446,-222.061783,9178.553681
3996.815901,1838.629195,444.123565,8586.388927
3996.816216,2221.676944,888.247130,8512.368333
3996.816531,2221.676944,1554.432478,8142.265362
3996.816846,2374.896044,1406.391290,7994.224174
3996.817161,1532.190996,1258.350101,8142.265362
3996.817476,1072.533697,518.144159,8586.388927
3996.817791,229.828649,-222.061783,8808.450710
3996.818106,-612.876398,-518.144159,9696.697840
3996.818421,-1225.752797,-1110.308913,10362.883188
3996.818736,-1762.019645,-1184.329507,10436.903782
3996.819051,-1685.410096,-1036.288319,10436.903782
3996.819366,-1762.019645,-592.164754,10658.965565
3996.819681,-1378.971896,-518.144159,10436.903782
3996.819996,-536.266849,222.061783,10066.800811
3996.820311,-229.828649,592.164754,9548.656652
3996.820626,306.438199,740.205942,9548.656652
3996.820941,612.876398,1184.329507,9326.594869
3996.821256,842.705048,1406.391290,8882.471304
3996.821571,612.876398,814.226536,9326.594869
3996.821886,153.219100,-0.000000,9474.636058
3996.822201,-229.828649,-148.041188,9474.636058
3996.822516,-536.266849,-666.185348,9844.739029
3996.822831,-612.876398,-888.247130,10362.883188
3996.823146,-612.876398,-1406.391290,10584.944971
3996.823461,-995.924147,-1036.288319,10436.903782
3996.823776,0.000000,-962.267725,10584.944971
3996.824091,383.047749,-740.205942,9844.739029
3996.824406,1455.581446,-0.000000,9474.636058
3996.824721,1608.800546,740.205942,8956.491898
3996.825036,2451.505594,962.267725,8216.285956
3996.825352,1991.848295,1554.432478,8216.285956
3996.825667,2221.676944,1554.432478,7846.182985
3996.825982,1608.800546,1036.288319,8068.244768
3996.826297,1072.533697,444.123565,8438.347739
3996.826612,0.000000,-0.000000,8882.471304
3996.826927,-612.876398,-518.144159,9770.718434
3996.827242,-1455.581446,-814.226536,10214.842000
3996.827557,-1838.629195,-1036.288319,10436.903782
3996.827872,-1838.629195,-814.226536,10732.986159
3996.828187,-1685.410096,-518.144159,10510.924376
3996.828502,-1302.362347,-74.020594,10140.821405
3996.828817,-919.314598,370.102971,9770.718434
3996.829132,-306.438199,888.247130,9548.656652
3996.829447,76.609550,1110.308913,9178.553681
3996.829762,229.828649,1332.370696,9326.594869
3996.830077,536.266849,1110.308913,9030.512492
3996.830392,536.266849,1110.308913,9178.553681
3996.830707,306.438199,962.267725,9696.697840
3996.831022,-229.828649,370.102971,9622.677246
3996.831337,-306.438199,-222.061783,10214.842000
3996.831652,-612.876398,-444.123565,10288.862594
3996.831967,-766.095498,-592.164754,10362.883188
3996.832282,-459.657299,-962.267725,10881.027347
3996.832597,0.000000,-962.267725,10658.965565
3996.832912,766.095498,-370.102971,10288.862594
3996.833227,1149.143247,-0.000000,9548.656652
3996.833542,1378.971896,1110.308913,9104.533087
3996.833857,1915.238745,1554.432478,8586.388927
3996.834172,2221.676944,1850.514855,8216.285956
3996.834487,2451.505594,1850.514855,8216.285956
3996.834802,1532.190996,1332.370696,8216.285956
3996.835117,842.705048,1110.308913,8734.430116
3996.835433,0.000000,148.041188,9326.594869
3996.835748,-1225.752797,-592.164754,9696.697840
3996.836063,-1302.362347,-592.164754,10584.944971
3996.836378,-1762.019645,-1036.288319,10732.986159
3996.836693,-1838.629195,-888.247130,10658.965565
3996.837008,-1532.190996,-666.185348,10955.047942
3996.837323,-1302.362347,-0.000000,10732.986159
3996.837638,-766.095498,370.102971,9992.780217
3996.837953,-306.438199,888.247130,9548.656652
3996.838268,459.657299,1110.308913,9104.533087
3996.838583,842.705048,1332.370696,8956.491898
3996.838898,995.924147,1258.350101,8882.471304
3996.839213,1072.533697,1110.308913,8586.388927
3996.839528,689.485948,666.185348,9178.553681
3996.839843,153.219100,-0.000000,9474.636058
3996.840158,-306.438199,-444.123565,10140.821405
3996.840473,-153.219100,-666.185348,10584.944971
3996.840788,-766.095498,-1184.329507,10436.903782
3996.841103,-536.266849,-1332.370696,10658.965565
3996.841418,0.000000,-1036.288319,10807.006753
3996.841733,536.266849,-444.123565,10214.842000
3996.842048,1532.190996,-74.020594,9844.739029
3996.842363,1915.238745,444.123565,8882.471304
3996.842678,2681.334243,1184.329507,8438.347739
3996.842993,2451.505594,1628.453072,7994.224174
3996.843308,2298.286494,1406.391290,8290.306550
3996.843623,2145.067394,1036.288319,8216.285956
3996.843938,766.095498,370.102971,8512.368333
3996.844253,229.828649,-296.082377,9104.533087
3996.844568,-612.876398,-592.164754,9696.697840
3996.844883,-1302.362347,-1258.350101,10362.883188
3996.845198,-2145.067394,-1554.432478,11177.109724
3996.845513,-2298.286494,-1702.473667,11103.089130
3996.845828,-1991.848295,-888.247130,10658.965565
3996.846143,-1455.581446,-74.020594,10288.862594
3996.846459,-766.095498,-0.000000,9992.780217
3996.846774,0.000000,444.123565,9474.636058
3996.847089,-76.609550,962.267725,9178.553681
3996.847404,306.438199,1036.288319,9252.574275
3996.847719,766.095498,1258.350101,8956.491898
3996.848034,459.657299,962.267725,9030.512492
3996.848349,229.828649,518.144159,9326.594869
3996.848664,-153.219100,-0.000000,9474.636058
3996.848979,-383.047749,-518.144159,10140.821405
3996.849294,-995.924147,-1110.308913,10362.883188
3996.849609,-919.314598,-1480.411884,10584.944971
3996.849924,-383.047749,-1036.288319,11029.068536
3996.850239,-153.219100,-888.247130,10214.842000
3996.850554,229.828649,-592.164754,10214.842000
3996.850869,1302.362347,-296.082377,9474.636058
3996.851184,1838.629195,592.164754,8956.491898
3996.851499,2451.505594,814.226536,8364.327145
3996.851814,2528.115143,1628.453072,8068.244768
3996.852129,2451.505594,1998.556043,8216.285956
3996.852444,2068.457845,1554.432478,8142.265362
3996.852759,1072.533697,518.144159,8586.388927
3996.853074,229.828649,370.102971,8882.471304
3996.853389,-383.047749,-518.144159,9474.636058
3996.853704,-612.876398,-666.185348,10658.965565
3996.854019,-1532.190996,-740.205942,10881.027347
3996.854334,-1608.800546,-1258.350101,10807.006753
3996.854649,-1608.800546,-370.102971,10881.027347
3996.854964,-1455.581446,-74.020594,10362.883188
3996.855279,-612.876398,370.102971,10140.821405
3996.855594,0.000000,1110.308913,9622.677246
3996.855909,459.657299,1332.370696,9400.615463
3996.856224,689.485948,1702.473667,8808.450710
3996.856539,1149.143247,1628.453072,9104.533087
3996.856854,995.924147,1406.391290,9104.533087
3996.857169,383.047749,962.267725,9400.615463
3996.857484,229.828649,-0.000000,9622.677246
3996.857799,-459.657299,-148.041188,9992.780217
3996.858114,-689.485948,-592.164754,10362.883188
3996.858429,-766.095498,-962.267725,10510.924376
3996.858744,-612.876398,-962.267725,10436.903782
3996.859059,-306.438199,-1036.288319,10362.883188
3996.859375,383.047749,-148.041188,9918.759623
3996.859690,1302.362347,-0.000000,9474.636058
3996.860005,1991.848295,666.185348,8882.471304
3996.860320,2451.505594,1554.432478,8438.347739
3996.860635,2451.505594,1924.535449,7846.182985
3996.860950,2681.334243,1924.535449,8068.244768
3996.861265,2068.457845,1480.411884,8142.265362
3996.861580,1378.971896,666.185348,8734.430116
3996.861895,306.438199,-0.000000,8956.491898
3996.862210,-306.438199,-74.020594,9622.677246
3996.862525,-1149.143247,-666.185348,9992.780217
3996.862840,-1532.190996,-1036.288319,10658.965565
3996.863155,-1915.238745,-740.205942,10807.006753
3996.863470,-2298.286494,-1184.329507,10658.965565
3996.863785,-1532.190996,-0.000000,10510.924376
3996.864100,-842.705048,518.144159,10066.800811
3996.864415,-153.219100,740.205942,9474.636058
3996.864730,0.000000,1110.308913,9696.697840
3996.865045,306.438199,1332.370696,9474.636058
3996.865360,536.266849,1480.411884,9326.594869
3996.865675,612.876398,1110.308913,9030.512492
3996.865990,0.000000,666.185348,9474.636058
3996.866305,-383.047749,296.082377,9918.759623
3996.866620,-689.485948,-296.082377,10066.800811
3996.866935,-919.314598,-814.226536,10436.903782
3996.867250,-1149.143247,-1184.329507,10807.006753
3996.867565,-1532.190996,-1258.350101,10881.027347
3996.867880,-842.705048,-1036.288319,11177.109724
3996.868195,-383.047749,-1332.370696,10140.821405
3996.868510,766.095498,-666.185348,9548.656652
3996.868825,1762.019645,222.061783,9104.533087
3996.869140,2145.067394,814.226536,8438.347739
3996.869455,2145.067394,1332.370696,8216.285956
3996.869770,1991.848295,1184.329507,7550.100608
3996.870085,1915.238745,1184.329507,7920.203579
3996.870400,1225.752797,592.164754,8142.265362
3996.870715,306.438199,-296.082377,8734.430116
3996.871030,-536.266849,-370.102971,9474.636058
3996.871345,-995.924147,-1184.329507,9696.697840
3996.871660,-1302.362347,-1184.329507,10362.883188
3996.871976,-1685.410096,-1406.391290,10658.965565
3996.872291,-1455.581446,-1554.432478,10584.944971
3996.872606,-919.314598,-518.144159,10362.883188
3996.872921,-383.047749,-222.061783,9696.697840
3996.873236,-229.828649,-0.000000,9474.636058
3996.873551,383.047749,962.267725,9326.594869
3996.873866,459.657299,1258.350101,9252.574275
3996.874181,766.095498,1036.288319,8660.409521
3996.874496,995.924147,1110.308913,8660.409521
3996.874811,689.485948,888.247130,9104.533087
3996.875126,76.609550,-74.020594,9400.615463
3996.875441,229.828649,-518.144159,9844.739029
3996.875756,-459.657299,-888.247130,10658.965565
3996.876071,-612.876398,-1036.288319,10658.965565
3996.876386,-612.876398,-1036.288319,10658.965565
3996.876701,-536.266849,-740.205942,10658.965565
3996.877016,229.828649,-518.144159,10362.883188
3996.877331,1072.533697,-296.082377,9622.677246
3996.877646,1608.800546,888.247130,9030.512492
3996.877961,2068.457845,1332.370696,8734.430116
3996.878276,2145.067394,1850.514855,8586.388927
3996.878591,2528.115143,1332.370696,8364.327145
3996.878906,1762.019645,1480.411884,8364.327145
3996.879221,1149.143247,1110.308913,8660.409521
3996.879536,306.438199,-0.000000,9104.533087
3996.879851,-459.657299,-370.102971,9696.697840
3996.880166,-1302.362347,-740.205942,10436.903782
3996.880481,-1838.629195,-962.267725,10584.944971
3996.880796,-2068.457845,-592.164754,10214.842000
3996.881111,-1915.238745,-222.061783,10362.883188
3996.881426,-1302.362347,-0.000000,10658.965565
3996.881741,-766.095498,222.061783,9992.780217
3996.882056,-459.657299,1258.350101,9622.677246
3996.882371,0.000000,1332.370696,9326.594869
3996.882686,459.657299,1702.473667,8956.491898
3996.883001,612.876398,1258.350101,9178.553681
3996.883316,919.314598,1406.391290,9474.636058
3996.883631,76.609550,814.226536,9400.615463
3996.883946,-153.219100,666.185348,9844.739029
3996.884261,-306.438199,-0.000000,10288.862594
3996.884577,-383.047749,-518.144159,10510.924376
3996.884892,-689.485948,-740.205942,10510.924376
3996.885207,-842.705048,-592.164754,10362.883188
3996.885522,-459.657299,-592.164754,10807.006753
3996.885837,383.047749,-74.020594,10436.903782
3996.886152,1072.533697,-0.000000,9992.780217
3996.886467,1608.800546,444.123565,9104.533087
3996.886782,1838.629195,1036.288319,8586.388927
3996.887097,2068.457845,1554.432478,8142.265362
3996.887412,2298.286494,1480.411884,8290.306550
3996.887727,2068.457845,1258.350101,8438.347739
3996.888042,1149.143247,814.226536,8586.388927
3996.888357,536.266849,222.061783,8956.491898
3996.888672,-459.657299,-444.123565,9844.739029
3996.888987,-919.314598,-814.226536,10362.883188
3996.889302,-1685.410096,-1332.370696,10510.924376
3996.889617,-1685.410096,-962.267725,10140.821405
3996.889932,-1225.752797,-740.205942,10214.842000
3996.890247,-995.924147,-370.102971,9844.739029
3996.890562,0.000000,-74.020594,9844.739029
3996.890877,-383.047749,444.123565,9622.677246
3996.891192,0.000000,740.205942,9104.533087
3996.891507,689.485948,1184.329507,8808.450710
3996.891822,536.266849,814.226536,8956.491898
3996.892137,689.485948,592.164754,9104.533087
3996.892452,536.266849,518.144159,8882.471304
3996.892767,153.219100,-0.000000,9326.594869
3996.893082,0.000000,-518.144159,9992.780217
3996.893397,-459.657299,-888.247130,10066.800811
3996.893712,-766.095498,-1406.391290,10510.924376
3996.894027,-536.266849,-1702.473667,10510.924376
3996.894342,-459.657299,-1480.411884,10436.903782
3996.894657,689.485948,-888.247130,10066.800811
3996.894972,1378.971896,-518.144159,9548.656652
3996.895287,1991.848295,-74.020594,9252.574275
3996.895602,2145.067394,592.164754,8586.388927
3996.895917,2298.286494,1258.350101,7994.224174
3996.896232,2298.286494,1332.370696,8068.244768
3996.896547,1608.800546,962.267725,7846.182985
3996.896862,995.924147,370.102971,8438.347739
3996.897178,459.657299,-0.000000,8956.491898
3996.897493,-689.485948,-740.205942,9696.697840
3996.897808,-1455.581446,-1406.391290,10362.883188
3996.898123,-1378.971896,-1184.329507,10881.027347
3996.898438,-1532.190996,-1480.411884,10955.047942
3996.898753,-1685.410096,-888.247130,10732.986159
3996.899068,-1302.362347,-148.041188,10362.883188
3996.899383,-919.314598,222.061783,10066.800811
3996.899698,-383.047749,814.226536,9622.677246
3996.900013,0.000000,814.226536,9474.636058
3996.900328,383.047749,1184.329507,9030.512492
3996.900643,153.219100,1184.329507,9178.553681
3996.900958,689.485948,1036.288319,9178.553681
3996.901273,689.485948,814.226536,9030.512492
3996.901588,0.000000,-0.000000,10140.821405
3996.901903,-689.485948,-0.000000,9844.739029
3996.902218,-689.485948,-370.102971,10140.821405
3996.902533,-995.924147,-1036.288319,10436.903782
3996.902848,-1072.533697,-1184.329507,10362.883188
3996.903163,-459.657299,-888.247130,10510.924376
3996.903478,0.000000,-962.267725,10140.821405
3996.903793,1072.533697,-370.102971,9992.780217
3996.904108,1762.019645,666.185348,9030.512492
3996.904423,1762.019645,740.205942,8512.368333
3996.904738,2068.457845,1628.453072,8660.409521
3996.905053,2528.115143,1554.432478,7994.224174
3996.905368,2068.457845,1332.370696,8290.306550
3996.905683,1225.752797,962.267725,8512.368333
3996.905998,612.876398,296.082377,8808.450710
3996.906313,-383.047749,-296.082377,9548.656652
3996.906628,-766.095498,-888.247130,9770.718434
3996.906943,-1149.143247,-740.205942,10658.965565
3996.907258,-1302.362347,-740.205942,10732.986159
3996.907573,-1378.971896,-370.102971,10807.006753
3996.907888,-1149.143247,-74.020594,10362.883188
3996.908203,-459.657299,148.041188,9770.718434
3996.908518,0.000000,740.205942,9474.636058
3996.908833,229.828649,1406.391290,9622.677246
3996.909148,612.876398,1628.453072,9400.615463
3996.909463,1302.362347,1554.432478,9326.594869
3996.909778,1149.143247,1184.329507,9326.594869
3996.910094,842.705048,1036.288319,9474.636058
3996.910409,229.828649,666.185348,9474.636058
3996.910724,-536.266849,-0.000000,10066.800811
3996.911039,-536.266849,-592.164754,10066.800811
3996.911354,-766.095498,-592.164754,10362.883188
3996.911669,-689.485948,-1036.288319,10584.944971
3996.911984,-612.876398,-814.226536,10510.924376
3996.912299,0.000000,-222.061783,10510.924376
3996.912614,689.485948,-148.041188,9844.739029
3996.912929,1685.410096,592.164754,9178.553681
3996.913244,1915.238745,1184.329507,8586.388927
3996.913559,2374.896044,1258.350101,7920.203579
3996.913874,1991.848295,1850.514855,7920.203579
3996.914189,1915.238745,1258.350101,7994.224174
3996.914504,1608.800546,1110.308913,8660.409521
3996.914819,689.485948,296.082377,8586.388927
3996.915134,-536.266849,-518.144159,9326.594869
3996.915449,-995.924147,-666.185348,10140.821405
3996.915764,-1838.629195,-1332.370696,10214.842000
3996.916079,-1915.238745,-888.247130,10510.924376
3996.916394,-2145.067394,-1036.288319,10807.006753
3996.916709,-1685.410096,-296.082377,10658.965565
3996.917024,-995.924147,-0.000000,9992.780217
3996.917339,-459.657299,740.205942,9548.656652
3996.917654,0.000000,1110.308913,9474.636058
3996.917969,306.438199,1406.391290,9474.636058
3996.918284,536.266849,1258.350101,8956.491898
3996.918599,306.438199,1480.411884,9104.533087
3996.918914,306.438199,370.102971,9178.553681
3996.919229,0.000000,370.102971,9770.718434
3996.919544,-383.047749,-0.000000,10362.883188
3996.919859,-919.314598,-888.247130,10584.944971
3996.920174,-995.924147,-1184.329507,10658.965565
3996.920489,-1378.971896,-1332.370696,10732.986159
3996.920804,-842.705048,-1258.350101,10436.903782
3996.921119,0.000000,-814.226536,10362.883188
3996.921434,766.095498,-444.123565,10066.800811
3996.921749,1225.752797,296.082377,9178.553681
3996.922064,2068.457845,814.226536,8660.409521
3996.922379,2298.286494,1554.432478,7772.162391
3996.922695,2451.505594,1258.350101,7772.162391
3996.923010,2145.067394,1554.432478,8290.306550
3996.923325,1455.581446,518.144159,8216.285956
3996.923640,766.095498,444.123565,8660.409521
3996.923955,-229.828649,-444.123565,9178.553681
3996.924270,-689.485948,-666.185348,9474.636058
3996.924585,-1225.752797,-1036.288319,10140.821405
3996.924900,-1532.190996,-1406.391290,10436.903782
3996.925215,-1455.581446,-1110.308913,10807.006753
3996.925530,-1149.143247,-740.205942,9992.780217
3996.925845,-842.705048,-370.102971,9770.718434
3996.926160,76.609550,148.041188,9844.739029
3996.926475,76.609550,962.267725,9400.615463
3996.926790,612.876398,1554.432478,9104.533087
3996.927105,919.314598,1480.411884,8882.471304
3996.927420,995.924147,1332.370696,8956.491898
3996.927735,536.266849,740.205942,9030.512492
3996.928050,306.438199,518.144159,9400.615463
3996.928365,0.000000,-0.000000,9770.718434
3996.928680,-306.438199,-296.082377,10436.903782
3996.928995,-536.266849,-740.205942,10732.986159
3996.929310,-766.095498,-962.267725,10658.965565
3996.929625,-766.095498,-962.267725,11029.068536
3996.929940,0.000000,-518.144159,10510.924376
3996.930255,766.095498,-0.000000,10362.883188
3996.930570,1532.190996,370.102971,10140.821405
3996.930885,1991.848295,740.205942,8956.491898
3996.931200,2221.676944,1776.494261,8290.306550
3996.931515,2451.505594,1924.535449,8216.285956
3996.931830,2145.067394,1776.494261,8290.306550
3996.932145,1455.581446,962.267725,8808.450710
3996.932460,459.657299,518.144159,9178.553681
3996.932775,-459.657299,-0.000000,9400.615463
3996.933090,-842.705048,-666.185348,9918.759623
3996.933405,-1532.190996,-518.144159,10436.903782
3996.933720,-1991.848295,-1036.288319,11177.109724
3996.934035,-2298.286494,-1110.308913,10955.047942
3996.934350,-1915.238745,-222.061783,10436.903782
3996.934665,-1378.971896,-0.000000,10288.862594
3996.934980,-612.876398,444.123565,9918.759623
3996.935296,306.438199,814.226536,9474.636058
3996.935611,153.219100,1406.391290,9400.615463
3996.935926,459.657299,1406.391290,8808.450710
3996.936241,612.876398,1332.370696,8882.471304
3996.936556,459.657299,814.226536,8956.491898
3996.936871,0.000000,518.144159,9326.594869
3996.937186,-306.438199,-0.000000,9548.656652
3996.937501,-536.266849,-518.144159,10140.821405
3996.937816,-383.047749,-888.247130,10362.883188
3996.938131,-689.485948,-1184.329507,10732.986159
3996.938446,-612.876398,-1628.453072,10288.862594
3996.938761,0.000000,-962.267725,10214.842000
3996.939076,919.314598,-518.144159,9622.677246
3996.939391,1762.019645,-0.000000,9178.553681
3996.939706,2145.067394,296.082377,8734.430116
3996.940021,2451.505594,1258.350101,8068.244768
3996.940336,2298.286494,1258.350101,7105.977043
3996.940651,2145.067394,1628.453072,7624.121203
3996.940966,2145.067394,1258.350101,8512.368333
3996.941281,919.314598,296.082377,8660.409521
3996.941596,229.828649,-296.082377,9474.636058
3996.941911,-842.705048,-888.247130,9622.677246
3996.942226,-1378.971896,-1036.288319,9992.780217
3996.942541,-1762.019645,-1184.329507,10510.924376
3996.942856,-1762.019645,-1332.370696,10658.965565
3996.943171,-1532.190996,-962.267725,10362.883188
3996.943487,-995.924147,-370.102971,10214.842000
3996.943802,-459.657299,370.102971,9696.697840
3996.944117,383.047749,888.247130,9474.636058
3996.944432,459.657299,1184.329507,9326.594869
3996.944747,306.438199,1332.370696,9252.574275
3996.945063,612.876398,1036.288319,8956.491898
3996.945378,536.266849,888.247130,9252.574275
3996.945693,383.047749,444.123565,9252.574275
3996.946008,-229.828649,-0.000000,10066.800811
3996.946323,-459.657299,-666.185348,10362.883188
3996.946639,-766.095498,-962.267725,10584.944971
3996.946954,-919.314598,-1258.350101,10584.944971
3996.947269,-689.485948,-1184.329507,11029.068536
3996.947584,0.000000,-888.247130,10436.903782
3996.947899,842.705048,-444.123565,9918.759623
3996.948214,1149.143247,74.020594,9326.594869
3996.948530,1915.238745,1036.288319,8734.430116
3996.948845,2451.505594,1628.453072,8290.306550
3996.949160,2145.067394,2072.576638,7920.203579
3996.949475,1915.238745,2072.576638,7994.224174
3996.949790,1608.800546,1332.370696,7994.224174
3996.950106,842.705048,888.247130,8956.491898
3996.950421,-306.438199,-0.000000,9696.697840
3996.950736,-1072.533697,-518.144159,10362.883188
3996.951051,-1455.581446,-518.144159,10807.006753
3996.951366,-1838.629195,-1110.308913,10584.944971
3996.951682,-1991.848295,-814.226536,10881.027347
3996.951997,-1685.410096,-518.144159,10732.986159
3996.952312,-1455.581446,-0.000000,10214.842000
3996.952627,-612.876398,444.123565,9622.677246
3996.952942,153.219100,1258.350101,9326.594869
3996.953258,306.438199,1480.411884,9474.636058
3996.953573,689.485948,1406.391290,9326.594869
3996.953888,1072.533697,1110.308913,9104.533087
3996.954203,842.705048,518.144159,8956.491898
3996.954518,153.219100,296.082377,9400.615463
3996.954833,0.000000,-0.000000,9770.718434
3996.955149,-612.876398,-814.226536,10140.821405
3996.955464,-842.705048,-1184.329507,11029.068536
3996.955779,-1225.752797,-1332.370696,10881.027347
3996.956094,-919.314598,-1258.350101,10658.965565
3996.956409,-153.219100,-962.267725,10584.944971
3996.956725,612.876398,-518.144159,9992.780217
3996.957040,1455.581446,-74.020594,9474.636058
3996.957355,1991.848295,888.247130,8808.450710
3996.957670,2374.896044,1702.473667,8290.306550
3996.957985,2374.896044,1850.514855,8364.327145
3996.958301,2451.505594,1776.494261,7920.203579
3996.958616,1685.410096,1184.329507,8068.244768
3996.958931,1072.533697,888.247130,8290.306550
3996.959246,306.438199,222.061783,8882.471304
3996.959561,-306.438199,-666.185348,9696.697840
3996.959877,-612.876398,-1036.288319,9992.780217
3996.960192,-1378.971896,-1406.391290,10510.924376
3996.960507,-1685.410096,-1036.288319,10584.944971
3996.960822,-1455.581446,-888.247130,10584.944971
3996.961137,-1072.533697,-444.123565,10362.883188
3996.961452,-612.876398,370.102971,9696.697840
3996.961768,0.000000,592.164754,9178.553681
3996.962083,306.438199,1036.288319,8956.491898
3996.962398,383.047749,1332.370696,9030.512492
3996.962713,612.876398,1258.350101,9104.533087
3996.963028,842.705048,1110.308913,9548.656652
3996.963344,459.657299,1036.288319,9474.636058
3996.963659,-306.438199,370.102971,9474.636058
3996.963974,-612.876398,-296.082377,10436.903782
3996.964289,-995.924147,-666.185348,10955.047942
3996.964604,-1225.752797,-1406.391290,10807.006753
3996.964920,-689.485948,-1184.329507,10807.006753
3996.965235,-306.438199,-1036.288319,10732.986159
3996.965550,536.266849,-370.102971,10288.862594
3996.965865,1225.752797,-0.000000,9474.636058
3996.966180,1685.410096,518.144159,8882.471304
3996.966495,2221.676944,1554.432478,8438.347739
3996.966811,1915.238745,1850.514855,7994.224174
3996.967126,1991.848295,1554.432478,7772.162391
3996.967441,1532.190996,1036.288319,7994.224174
3996.967756,766.095498,148.041188,8882.471304
3996.968071,76.609550,-74.020594,9104.533087
3996.968387,-995.924147,-666.185348,9696.697840
3996.968702,-1532.190996,-888.247130,10214.842000
3996.969017,-1991.848295,-814.226536,10436.903782
3996.969332,-1762.019645,-814.226536,10584.944971
3996.969647,-1762.019645,-666.185348,10288.862594
3996.969963,-1149.143247,148.041188,10066.800811
3996.970278,-459.657299,518.144159,9548.656652
3996.970593,0.000000,1110.308913,9474.636058
3996.970908,153.219100,1036.288319,9548.656652
3996.971223,383.047749,1480.411884,9030.512492
3996.971539,1072.533697,1184.329507,8882.471304
3996.971854,995.924147,1110.308913,9400.615463
3996.972169,459.657299,592.164754,9474.636058
3996.972484,0.000000,444.123565,10066.800811
3996.972799,-229.828649,-148.041188,10214.842000
3996.973114,-536.266849,-666.185348,10510.924376
3996.973430,-842.705048,-1110.308913,10510.924376
3996.973745,-536.266849,-1184.329507,10658.965565
3996.974060,0.000000,-740.205942,10584.944971
3996.974375,536.266849,-518.144159,9844.739029
3996.974690,1225.752797,-0.000000,9474.636058
3996.975006,1915.238745,740.205942,8956.491898
3996.975321,2145.067394,1036.288319,8882.471304
3996.975636,2374.896044,1776.494261,8068.244768
3996.975951,2451.505594,1850.514855,7994.224174
3996.976266,1991.848295,1184.329507,8142.265362
3996.976582,1225.752797,518.144159,8290.306550
3996.976897,0.000000,-370.102971,9252.574275
3996.977212,-689.485948,-592.164754,9918.759623
3996.977527,-1225.752797,-888.247130,10214.842000
3996.977842,-1532.190996,-1110.308913,10732.986159
3996.978157,-1378.971896,-1554.432478,10732.986159
3996.978473,-1149.143247,-962.267725,10658.965565
3996.978788,-689.485948,-74.020594,10066.800811
3996.979103,0.000000,518.144159,9770.718434
3996.979418,76.609550,666.185348,9178.553681
3996.979733,919.314598,1110.308913,9030.512492
3996.980049,689.485948,1332.370696,8882.471304
3996.980364,766.095498,1258.350101,8808.450710
3996.980679,459.657299,1036.288319,9030.512492
3996.980994,383.047749,592.164754,9548.656652
3996.981309,-459.657299,-370.102971,9622.677246
3996.981625,-306.438199,-444.123565,10436.903782
3996.981940,-689.485948,-592.164754,10288.862594
3996.982255,-995.924147,-962.267725,10436.903782
3996.982570,-536.266849,-1036.288319,10881.027347
3996.982885,-459.657299,-888.247130,10436.903782
3996.983201,612.876398,-296.082377,10066.800811
3996.983516,1455.581446,148.041188,9252.574275
3996.983831,1838.629195,740.205942,9030.512492
3996.984146,2528.115143,888.247130,7994.224174
3996.984461,2374.896044,1702.473667,7994.224174
3996.984776,1991.848295,1776.494261,8290.306550
3996.985092,1149.143247,1184.329507,7994.224174
3996.985407,842.705048,370.102971,8438.347739
3996.985722,0.000000,-444.123565,9252.574275
3996.986037,-919.314598,-666.185348,9548.656652
3996.986352,-1225.752797,-814.226536,10140.821405
3996.986668,-1685.410096,-1036.288319,10436.903782
3996.986983,-1762.019645,-740.205942,11177.109724
3996.987298,-1762.019645,-518.144159,10881.027347
3996.987613,-1608.800546,-0.000000,10214.842000
3996.987928,-842.705048,666.185348,9622.677246
3996.988244,-536.266849,1184.329507,9696.697840
3996.988559,536.266849,1110.308913,9326.594869
3996.988874,459.657299,1184.329507,9252.574275
3996.989189,995.924147,1332.370696,9104.533087
3996.989504,612.876398,666.185348,8882.471304
3996.989820,229.828649,444.123565,9548.656652
3996.990135,0.000000,-74.020594,9622.677246
3996.990450,-612.876398,-518.144159,10140.821405
3996.990765,-842.705048,-740.205942,10214.842000
3996.991080,-1072.533697,-740.205942,10140.821405
3996.991395,-689.485948,-1258.350101,10510.924376
3996.991711,0.000000,-1036.288319,10436.903782
3996.992026,536.266849,-592.164754,10436.903782
3996.992341,1685.410096,-74.020594,9622.677246
3996.992656,1838.629195,888.247130,8808.450710
3996.992971,2145.067394,1406.391290,8438.347739
3996.993287,2604.724693,1628.453072,8586.388927
3996.993602,2068.457845,1776.494261,7994.224174
3996.993917,1762.019645,1702.473667,8068.244768
3996.994232,919.314598,740.205942,8586.388927
3996.994547,0.000000,222.061783,9474.636058
3996.994863,-536.266849,-592.164754,9696.697840
3996.995178,-1302.362347,-740.205942,10214.842000
3996.995493,-1608.800546,-962.267725,10732.986159
3996.995808,-1838.629195,-888.247130,10510.924376
3996.996123,-1302.362347,-592.164754,10436.903782
3996.996438,-1455.581446,296.082377,10362.883188
3996.996754,-459.657299,370.102971,9548.656652
3996.997069,0.000000,1110.308913,9326.594869
3996.997384,766.095498,1184.329507,9104.533087
3996.997699,536.266849,1480.411884,8882.471304
3996.998014,1302.362347,1036.288319,9252.574275
3996.998330,383.047749,518.144159,8882.471304
3996.998645,0.000000,296.082377,9474.636058
3996.998960,-536.266849,-0.000000,9918.759623
3996.999275,-612.876398,-518.144159,10436.903782
3996.999590,-766.095498,-518.144159,11103.089130
3996.999906,-1072.533697,-1258.350101,10955.047942
3997.000221,-842.705048,-1258.350101,10658.965565
3997.000536,0.000000,-888.247130,10436.903782
3997.000851,766.095498,-222.061783,10066.800811
3997.001166,1532.190996,-0.000000,9400.615463
3997.001482,1838.629195,666.185348,8586.388927
3997.001797,2068.457845,1184.329507,8216.285956
3997.002112,2451.505594,1850.514855,8068.244768
3997.002427,2145.067394,1628.453072,7920.203579
3997.002742,1838.629195,962.267725,8068.244768
3997.003057,919.314598,592.164754,8808.450710
3997.003373,0.000000,-148.041188,8956.491898
3997.003688,-689.485948,-814.226536,9622.677246
3997.004003,-842.705048,-814.226536,10658.965565
3997.004318,-1685.410096,-1184.329507,10881.027347
3997.004633,-1762.019645,-1110.308913,10732.986159
3997.004949,-1762.019645,-518.144159,10510.924376
3997.005264,-1378.971896,-0.000000,10140.821405
3997.005579,-536.266849,444.123565,9844.739029
3997.005894,-306.438199,1110.308913,9474.636058
3997.006209,76.609550,1258.350101,9252.574275
3997.006525,153.219100,1184.329507,8808.450710
3997.006840,689.485948,1258.350101,9030.512492
3997.007155,536.266849,888.247130,9400.615463
3997.007470,153.219100,296.082377,9326.594869
3997.007785,-229.828649,-0.000000,9622.677246
3997.008101,-766.095498,-592.164754,9844.739029
3997.008416,-995.924147,-962.267725,10584.944971
3997.008731,-1149.143247,-1258.350101,10658.965565
3997.009046,-1149.143247,-1406.391290,10658.965565
3997.009361,-689.485948,-1036.288319,10584.944971
3997.009676,0.000000,-518.144159,9992.780217
3997.009992,1072.533697,-74.020594,9548.656652
3997.010307,1762.019645,740.205942,9252.574275
3997.010622,2374.896044,1702.473667,8364.327145
3997.010937,2528.115143,1776.494261,7994.224174
3997.011252,2451.505594,1850.514855,7920.203579
3997.011568,1991.848295,1332.370696,8438.347739
3997.011883,919.314598,666.185348,8364.327145
3997.012198,689.485948,-0.000000,9030.512492
3997.012513,-459.657299,-740.205942,9992.780217
3997.012828,-1072.533697,-1036.288319,9992.780217
3997.013144,-1608.800546,-1110.308913,10658.965565
3997.013459,-1608.800546,-888.247130,10658.965565
3997.013774,-1455.581446,-666.185348,10881.027347
3997.014089,-766.095498,-0.000000,9918.759623
3997.014404,-306.438199,370.102971,9326.594869
3997.014719,536.266849,1110.308913,9696.697840
3997.015035,459.657299,1258.350101,9400.615463
3997.015350,766.095498,1480.411884,9252.574275
3997.015665,766.095498,1480.411884,9178.553681
3997.015980,689.485948,1332.370696,9252.574275
3997.016295,76.609550,740.205942,9844.739029
3997.016611,-153.219100,370.102971,9918.759623
3997.016926,-383.047749,-74.020594,10510.924376
3997.017241,-842.705048,-814.226536,10362.883188
3997.017556,-1225.752797,-888.247130,10658.965565
3997.017871,-1225.752797,-1332.370696,10955.047942
3997.018187,-689.485948,-962.267725,10436.903782
3997.018502,383.047749,-444.123565,9918.759623
3997.018817,1225.752797,-0.000000,9326.594869
3997.019132,2451.505594,666.185348,8956.491898
3997.019447,2068.457845,592.164754,8290.306550
3997.019763,2145.067394,1702.473667,7772.162391
3997.020078,2298.286494,1480.411884,7772.162391
3997.020393,1762.019645,1258.350101,7920.203579
3997.020708,1685.410096,592.164754,8956.491898
3997.021023,536.266849,-0.000000,9178.553681
3997.021338,-459.657299,-592.164754,9696.697840
3997.021654,-1072.533697,-1110.308913,10066.800811
3997.021969,-1608.800546,-1258.350101,10214.842000
3997.022284,-1762.019645,-962.267725,10807.006753
3997.022599,-1685.410096,-592.164754,10881.027347
3997.022914,-1149.143247,-74.020594,10066.800811
3997.023230,-612.876398,-0.000000,9918.759623
3997.023545,0.000000,814.226536,9474.636058
3997.023860,0.000000,592.164754,9474.636058
3997.024175,536.266849,1332.370696,9474.636058
3997.024490,612.876398,1110.308913,9400.615463
3997.024806,766.095498,962.267725,9030.512492
3997.025121,459.657299,814.226536,9104.533087
3997.025436,306.438199,296.082377,9696.697840
3997.025751,-459.657299,-0.000000,10362.883188
3997.026066,-919.314598,-740.205942,10732.986159
3997.026381,-766.095498,-1036.288319,10658.965565
3997.026697,-766.095498,-1258.350101,10362.883188
3997.027012,-153.219100,-1036.288319,10288.862594
3997.027327,306.438199,-592.164754,10214.842000
3997.027642,1072.533697,148.041188,9548.656652
3997.027957,1608.800546,666.185348,9104.533087
3997.028273,1838.629195,1332.370696,8364.327145
3997.028588,2298.286494,1850.514855,8290.306550
3997.028903,2145.067394,1480.411884,7920.203579
3997.029218,1838.629195,1332.370696,7994.224174
3997.029533,919.314598,740.205942,8512.368333
3997.029849,76.609550,-74.020594,9474.636058
3997.030164,-612.876398,-518.144159,9770.718434
3997.030479,-1455.581446,-962.267725,10288.862594
3997.030794,-1608.800546,-1110.308913,10288.862594
3997.031109,-1225.752797,-814.226536,10288.862594
3997.031425,-1608.800546,-962.267725,10436.903782
3997.031740,-1378.971896,-444.123565,10214.842000
3997.032055,-229.828649,-0.000000,9992.780217
3997.032370,0.000000,666.185348,9104.533087
3997.032685,536.266849,740.205942,9178.553681
3997.033000,612.876398,1110.308913,9474.636058
3997.033316,842.705048,1184.329507,9104.533087
3997.033631,842.705048,814.226536,8956.491898
3997.033946,536.266849,444.123565,9474.636058
3997.034261,383.047749,-0.000000,9474.636058
3997.034576,-383.047749,-370.102971,10288.862594
3997.034892,-536.266849,-814.226536,10807.006753
3997.035207,-766.095498,-1110.308913,11177.109724
3997.035522,-766.095498,-1110.308913,10807.006753
3997.035837,-306.438199,-962.267725,10288.862594
3997.036152,229.828649,-296.082377,10436.903782
3997.036468,995.924147,-0.000000,9770.718434
3997.036783,1762.019645,518.144159,9252.574275
3997.037098,2068.457845,1258.350101,8438.347739
3997.037413,2145.067394,1184.329507,8364.327145
3997.037728,2068.457845,1776.494261,8290.306550
3997.038044,1991.848295,1628.453072,8438.347739
3997.038359,1072.533697,814.226536,8660.409521
3997.038674,536.266849,-0.000000,8882.471304
3997.038989,306.438199,-592.164754,9474.636058
3997.039304,-1532.190996,-888.247130,10066.800811
3997.039619,-1685.410096,-888.247130,10436.903782
3997.039935,-1991.848295,-888.247130,10510.924376
3997.040250,-1532.190996,-814.226536,10362.883188
3997.040565,-1685.410096,-444.123565,10807.006753
3997.040880,-842.705048,-0.000000,9770.718434
3997.041195,-459.657299,740.205942,9400.615463
3997.041511,0.000000,888.247130,9252.574275
3997.041826,0.000000,1184.329507,9326.594869
3997.042141,689.485948,1110.308913,9252.574275
3997.042456,919.314598,1332.370696,9474.636058
3997.042771,536.266849,666.185348,9104.533087
3997.043087,0.000000,296.082377,9178.553681
3997.043402,-306.438199,-74.020594,9548.656652
3997.043717,-689.485948,-592.164754,10658.965565
3997.044032,-1149.143247,-1036.288319,10955.047942
3997.044347,-995.924147,-1184.329507,10436.903782
3997.044662,-689.485948,-888.247130,10362.883188
3997.044977,229.828649,-444.123565,10288.862594
3997.045293,1225.752797,-222.061783,9622.677246
3997.045608,1608.800546,444.123565,9400.615463
3997.045923,2221.676944,1036.288319,8808.450710
3997.046238,2298.286494,1702.473667,7994.224174
3997.046553,1915.238745,1628.453072,7846.182985
3997.046868,2145.067394,1628.453072,8364.327145
3997.047183,1302.362347,1184.329507,8734.430116
3997.047499,383.047749,370.102971,8956.491898
3997.047814,-612.876398,-74.020594,9696.697840
3997.048129,-919.314598,-592.164754,10584.944971
3997.048444,-1608.800546,-666.185348,10807.006753
3997.048759,-2068.457845,-1036.288319,11029.068536
3997.049074,-1915.238745,-666.185348,10881.027347
3997.049389,-1455.581446,-148.041188,10436.903782
3997.049705,-689.485948,222.061783,10362.883188
3997.050020,-153.219100,888.247130,9474.636058
3997.050335,229.828649,1258.350101,9104.533087
3997.050650,536.266849,1258.350101,9104.533087
3997.050965,842.705048,1258.350101,9104.533087
3997.051280,689.485948,814.226536,9326.594869
3997.051596,459.657299,518.144159,9474.636058
3997.051911,-306.438199,-74.020594,9326.594869
3997.052226,-689.485948,-370.102971,9992.780217
3997.052541,-689.485948,-888.247130,10362.883188
3997.052856,-842.705048,-1406.391290,10584.944971
3997.053171,-689.485948,-1406.391290,10732.986159
3997.053486,-306.438199,-1184.329507,10584.944971
3997.053802,229.828649,-592.164754,9918.759623
3997.054117,1149.143247,148.041188,9326.594869
3997.054432,1915.238745,444.123565,9178.553681
3997.054747,2145.067394,1184.329507,8734.430116
3997.055062,2451.505594,1850.514855,7920.203579
3997.055377,2298.286494,1628.453072,7846.182985
3997.055692,1838.629195,1184.329507,7994.224174
3997.056008,1302.362347,666.185348,8290.306550
3997.056323,383.047749,-0.000000,9178.553681
3997.056638,-383.047749,-592.164754,9770.718434
3997.056953,-1455.581446,-1036.288319,10066.800811
3997.057268,-2221.676944,-1036.288319,10362.883188
3997.057583,-2221.676944,-1258.350101,10881.027347
3997.057898,-2221.676944,-888.247130,10881.027347
3997.058214,-1608.800546,-0.000000,10584.944971
3997.058529,-766.095498,444.123565,9992.780217
3997.058844,-383.047749,888.247130,9474.636058
3997.059159,0.000000,1184.329507,9400.615463
3997.059474,76.609550,1554.432478,9326.594869
3997.059789,459.657299,1406.391290,9326.594869
3997.060104,842.705048,814.226536,9104.533087
3997.060420,306.438199,518.144159,9400.615463
3997.060735,-306.438199,74.020594,9696.697840
3997.061050,-612.876398,-444.123565,9696.697840
3997.061365,-689.485948,-888.247130,10140.821405
3997.061680,-766.095498,-1184.329507,10584.944971
3997.061995,-842.705048,-1628.453072,10658.965565
3997.062310,-536.266849,-1184.329507,10584.944971
3997.062626,229.828649,-592.164754,9770.718434
3997.062941,1455.581446,-74.020594,9474.636058
3997.063256,1838.629195,666.185348,9104.533087
3997.063571,2451.505594,1184.329507,8438.347739
3997.063886,2757.943793,1110.308913,7624.121203
3997.064201,2451.505594,1628.453072,7698.141797
3997.064516,2451.505594,1628.453072,7550.100608
3997.064832,1608.800546,1036.288319,7994.224174
3997.065147,536.266849,-74.020594,9252.574275
3997.065462,-306.438199,-962.267725,10066.800811
3997.065777,-1149.143247,-1332.370696,10066.800811
3997.066092,-1838.629195,-1184.329507,10658.965565
3997.066407,-1915.238745,-1110.308913,10807.006753
3997.066722,-1532.190996,-888.247130,10732.986159
3997.067038,-1149.143247,-148.041188,10955.047942
3997.067353,-689.485948,296.082377,10288.862594
3997.067668,0.000000,814.226536,9474.636058
3997.067983,229.828649,1332.370696,9252.574275
3997.068298,766.095498,1332.370696,9252.574275
3997.068613,536.266849,1480.411884,9474.636058
3997.068929,842.705048,1332.370696,9178.553681
3997.069244,383.047749,740.205942,9178.553681
3997.069559,0.000000,444.123565,9548.656652
3997.069874,-689.485948,-74.020594,9918.759623
3997.070189,-919.314598,-666.185348,10732.986159
3997.070504,-1225.752797,-1184.329507,10807.006753
3997.070819,-1225.752797,-1110.308913,10732.986159
3997.071135,-842.705048,-1036.288319,10584.944971
3997.071450,0.000000,-1184.329507,10140.821405
3997.071765,766.095498,-0.000000,9622.677246
3997.072080,1225.752797,740.205942,8956.491898
3997.072395,2068.457845,1332.370696,8438.347739
3997.072710,2451.505594,1702.473667,8142.265362
3997.073025,2374.896044,2220.617826,7550.100608
3997.073341,1915.238745,1702.473667,7550.100608
3997.073656,1072.533697,1110.308913,7920.203579
3997.073971,229.828649,518.144159,8808.450710
3997.074286,-383.047749,-518.144159,9474.636058
3997.074601,-1378.971896,-1110.308913,10288.862594
3997.074916,-1838.629195,-1184.329507,10510.924376
3997.075231,-2145.067394,-1258.350101,10584.944971
3997.075547,-1915.238745,-888.247130,10510.924376
3997.075862,-1302.362347,-666.185348,10436.903782
3997.076177,-919.314598,-0.000000,10066.800811
3997.076492,-153.219100,444.123565,9474.636058
3997.076807,229.828649,888.247130,9252.574275
3997.077122,612.876398,1332.370696,9104.533087
3997.077437,1149.143247,1480.411884,9178.553681
3997.077753,1302.362347,1184.329507,9326.594869
3997.078068,1149.143247,814.226536,9326.594869
3997.078383,459.657299,444.123565,9252.574275
3997.078698,76.609550,-148.041188,9770.718434
3997.079013,-383.047749,-814.226536,10510.924376
3997.079328,-383.047749,-888.247130,11103.089130
3997.079643,-766.095498,-1184.329507,11029.068536
3997.079959,0.000000,-1998.556043,10510.924376
3997.080274,0.000000,-740.205942,10584.944971
3997.080589,689.485948,-296.082377,10214.842000
3997.080904,1455.581446,296.082377,9252.574275
3997.081219,2221.676944,888.247130,9030.512492
3997.081534,2604.724693,1554.432478,8438.347739
3997.081849,2604.724693,2220.617826,7920.203579
3997.082165,2298.286494,1628.453072,7846.182985
3997.082480,1378.971896,1036.288319,8216.285956
3997.082795,536.266849,592.164754,8586.388927
3997.083110,-383.047749,-0.000000,9326.594869
3997.083425,-1225.752797,-962.267725,10066.800811
3997.083740,-1991.848295,-1110.308913,10732.986159
3997.084055,-2221.676944,-1184.329507,10584.944971
3997.084371,-2145.067394,-962.267725,10436.903782
3997.084686,-1838.629195,-592.164754,10436.903782
3997.085001,-1302.362347,-0.000000,10140.821405
3997.085316,-612.876398,370.102971,9622.677246
3997.085631,0.000000,1110.308913,9030.512492
3997.085946,383.047749,1702.473667,9104.533087
3997.086261,306.438199,1702.473667,8290.306550
3997.086577,995.924147,1480.411884,9400.615463
3997.086892,689.485948,962.267725,9104.533087
3997.087207,-306.438199,444.123565,9474.636058
3997.087522,-689.485948,-0.000000,9918.759623
3997.087837,-995.924147,-740.205942,10584.944971
3997.088152,-995.924147,-1110.308913,10955.047942
3997.088468,-1378.971896,-1406.391290,11029.068536
3997.088783,-842.705048,-1258.350101,11029.068536
3997.089098,-306.438199,-1036.288319,10362.883188
3997.089413,612.876398,-518.144159,9918.759623
3997.089728,1685.410096,370.102971,9474.636058
3997.090043,1991.848295,888.247130,8882.471304
3997.090358,2221.676944,1850.514855,8364.327145
3997.090674,2451.505594,1998.556043,7920.203579
3997.090989,2451.505594,1554.432478,8512.368333
3997.091304,1455.581446,1258.350101,8364.327145
3997.091619,766.095498,740.205942,9104.533087
3997.091934,-306.438199,-74.020594,9400.615463
3997.092249,-766.095498,-888.247130,10436.903782
3997.092564,-1149.143247,-1406.391290,10658.965565
3997.092880,-1838.629195,-1332.370696,10584.944971
3997.093195,-1991.848295,-962.267725,10955.047942
3997.093510,-1455.581446,-518.144159,10436.903782
3997.093825,-995.924147,-0.000000,9844.739029
3997.094140,-229.828649,592.164754,9696.697840
3997.094455,153.219100,962.267725,9400.615463
3997.094770,383.047749,1406.391290,8734.430116
3997.095086,842.705048,1628.453072,8660.409521
3997.095401,536.266849,1184.329507,9030.512492
3997.095716,766.095498,962.267725,8660.409521
3997.096031,536.266849,518.144159,9252.574275
3997.096346,0.000000,-0.000000,9622.677246
3997.096661,-459.657299,-444.123565,10214.842000
3997.096976,-612.876398,-888.247130,10584.944971
3997.097292,-995.924147,-1332.370696,10807.006753
3997.097607,-689.485948,-1554.432478,10732.986159
3997.097922,-306.438199,-888.247130,10288.862594
3997.098237,766.095498,-666.185348,9696.697840
3997.098552,1762.019645,-296.082377,9252.574275
3997.098867,1915.238745,814.226536,8808.450710
3997.099182,2528.115143,1702.473667,8142.265362
3997.099498,2528.115143,1850.514855,7476.080014
3997.099813,2451.505594,1702.473667,7698.141797
3997.100128,1685.410096,1406.391290,8068.244768
3997.100443,842.705048,518.144159,8808.450710
3997.100758,0.000000,-0.000000,9918.759623
3997.101073,-1149.143247,-666.185348,10066.800811
3997.101388,-1608.800546,-962.267725,10584.944971
3997.101704,-1608.800546,-1184.329507,11177.109724
3997.102019,-1915.238745,-888.247130,10955.047942
3997.102334,-1532.190996,-148.041188,10584.944971
3997.102649,-1532.190996,-0.000000,10584.944971
3997.102964,-766.095498,666.185348,10066.800811
3997.103279,-306.438199,1480.411884,9992.780217
3997.103594,0.000000,1480.411884,9178.553681
3997.103910,153.219100,1258.350101,9030.512492
3997.104225,306.438199,1258.350101,9400.615463
3997.104540,0.000000,1110.308913,9400.615463
3997.104855,-153.219100,-0.000000,9622.677246
3997.105170,-766.095498,-74.020594,10140.821405
3997.105485,-995.924147,-518.144159,10362.883188
3997.105801,-1378.971896,-962.267725,10510.924376
3997.106116,-1378.971896,-1110.308913,10584.944971
3997.106431,-612.876398,-1036.288319,10658.965565
3997.106746,0.000000,-666.185348,10140.821405
3997.107061,689.485948,-148.041188,9770.718434
3997.107376,1225.752797,296.082377,9030.512492
3997.107691,2374.896044,814.226536,8438.347739
3997.108007,2145.067394,1332.370696,8216.285956
3997.108322,2298.286494,1554.432478,7846.182985
3997.108637,1838.629195,1628.453072,8068.244768
3997.108952,1302.362347,1110.308913,8142.265362
3997.109267,995.924147,370.102971,8882.471304
3997.109582,229.828649,-370.102971,9400.615463
3997.109897,-612.876398,-444.123565,9918.759623
3997.110213,-1072.533697,-962.267725,10214.842000
3997.110528,-1378.971896,-814.226536,10140.821405
3997.110843,-1302.362347,-666.185348,10510.924376
3997.111158,-1072.533697,-518.144159,9992.780217
3997.111473,-766.095498,-222.061783,9992.780217
3997.111788,-153.219100,296.082377,9844.739029
3997.112103,229.828649,518.144159,9326.594869
3997.112419,766.095498,888.247130,8586.388927
3997.112734,612.876398,1258.350101,9474.636058
3997.113049,919.314598,1036.288319,9548.656652
3997.113364,689.485948,666.185348,9104.533087
3997.113679,229.828649,-0.000000,9622.677246
3997.113994,-153.219100,-148.041188,9844.739029
3997.114309,-536.266849,-518.144159,10288.862594
3997.114625,-766.095498,-888.247130,10732.986159
3997.114940,-842.705048,-1110.308913,10807.006753
3997.115255,-383.047749,-1184.329507,10362.883188
3997.115570,76.609550,-962.267725,10362.883188
3997.115885,842.705048,-444.123565,10140.821405
3997.116200,1225.752797,-0.000000,9326.594869
3997.116515,1838.629195,592.164754,8734.430116
3997.116831,1838.629195,1332.370696,8290.306550
3997.117146,2145.067394,1554.432478,7624.121203
3997.117461,2068.457845,1628.453072,7698.141797
3997.117776,1532.190996,1332.370696,7772.162391
3997.118091,229.828649,666.185348,8290.306550
3997.118406,0.000000,-222.061783,9252.574275
3997.118721,-1072.533697,-740.205942,9844.739029
3997.119037,-1532.190996,-1036.288319,10510.924376
3997.119352,-1762.019645,-962.267725,10584.944971
3997.119667,-1302.362347,-1110.308913,10214.842000
3997.119982,-1149.143247,-444.123565,10362.883188
3997.120297,-842.705048,296.082377,10140.821405
3997.120612,-383.047749,592.164754,9622.677246
3997.120927,0.000000,370.102971,9252.574275
3997.121243,383.047749,962.267725,9326.594869
3997.121558,229.828649,1332.370696,9178.553681
3997.121873,689.485948,1036.288319,9104.533087
3997.122188,536.266849,740.205942,9474.636058
3997.122503,-229.828649,222.061783,9622.677246
3997.122818,-459.657299,-0.000000,9992.780217
3997.123133,-842.705048,-518.144159,10362.883188
3997.123449,-612.876398,-1258.350101,10807.006753
3997.123764,-995.924147,-1110.308913,11251.130318
3997.124079,-766.095498,-1184.329507,11029.068536
3997.124394,-536.266849,-1036.288319,10584.944971
3997.124709,612.876398,-370.102971,10140.821405
3997.125024,919.314598,370.102971,9474.636058
3997.125340,1685.410096,814.226536,9252.574275
3997.125655,2068.457845,1480.411884,8586.388927
3997.125970,2145.067394,1998.556043,8142.265362
3997.126285,2145.067394,1480.411884,8290.306550
3997.126600,1455.581446,1258.350101,8364.327145
3997.126915,766.095498,296.082377,8882.471304
3997.127230,-306.438199,-370.102971,9474.636058
3997.127546,-995.924147,-740.205942,9696.697840
3997.127861,-1378.971896,-962.267725,10214.842000
3997.128176,-1532.190996,-962.267725,10362.883188
3997.128491,-1302.362347,-740.205942,10214.842000
3997.128806,-1455.581446,-296.082377,10140.821405
3997.129121,-612.876398,-74.020594,9844.739029
3997.129436,-153.219100,518.144159,9474.636058
3997.129752,383.047749,814.226536,9400.615463
3997.130067,612.876398,962.267725,9030.512492
3997.130382,383.047749,1110.308913,8438.347739
3997.130697,1072.533697,1184.329507,8956.491898
3997.131012,766.095498,592.164754,9622.677246
3997.131327,383.047749,370.102971,9326.594869
3997.131642,0.000000,-74.020594,9548.656652
3997.131958,-383.047749,-222.061783,10066.800811
3997.132273,-536.266849,-444.123565,11029.068536
3997.132588,-612.876398,-888.247130,10288.862594
3997.132903,-612.876398,-962.267725,10658.965565
3997.133218,-229.828649,-740.205942,10658.965565
3997.133533,229.828649,-444.123565,9548.656652
3997.133848,1149.143247,-296.082377,9178.553681
3997.134164,1608.800546,888.247130,9104.533087
3997.134479,2068.457845,1554.432478,9104.533087
3997.134794,2068.457845,1554.432478,8068.244768
3997.135109,1991.848295,1406.391290,8290.306550
3997.135424,1225.752797,1036.288319,8882.471304
3997.135739,383.047749,370.102971,8808.450710
3997.136054,0.000000,148.041188,9474.636058
3997.136370,-689.485948,-444.123565,10362.883188
3997.136685,-1149.143247,-666.185348,10288.862594
3997.137000,-1072.533697,-1110.308913,10732.986159
3997.137315,-1302.362347,-1036.288319,10658.965565
3997.137630,-1455.581446,-222.061783,10658.965565
3997.137945,-995.924147,-0.000000,10214.842000
3997.138260,0.000000,814.226536,9622.677246
3997.138576,0.000000,962.267725,9474.636058
3997.138891,612.876398,1480.411884,9178.553681
3997.139206,459.657299,1480.411884,9030.512492
3997.139521,689.485948,1332.370696,8956.491898
3997.139836,766.095498,1036.288319,9326.594869
3997.140151,76.609550,-0.000000,9252.574275
3997.140466,-306.438199,-74.020594,9918.759623
3997.140782,-536.266849,-592.164754,10214.842000
3997.141097,-919.314598,-1110.308913,10140.821405
3997.141412,-459.657299,-1258.350101,10362.883188
3997.141727,-766.095498,-1036.288319,10955.047942
3997.142042,0.000000,-370.102971,10584.944971
3997.142357,536.266849,-370.102971,9918.759623
3997.142673,1302.362347,148.041188,9178.553681
3997.142988,1838.629195,814.226536,8956.491898
3997.143303,2451.505594,1332.370696,8290.306550
3997.143618,1991.848295,1480.411884,8142.265362
3997.143933,1915.238745,1258.350101,8068.244768
3997.144248,1149.143247,962.267725,8142.265362
3997.144563,383.047749,444.123565,8586.388927
3997.144878,-383.047749,-74.020594,9474.636058
3997.145194,-1149.143247,-370.102971,10362.883188
3997.145509,-1762.019645,-962.267725,10288.862594
3997.145824,-1915.238745,-1258.350101,10436.903782
3997.146139,-1225.752797,-962.267725,10955.047942
3997.146454,-1532.190996,-370.102971,10584.944971
3997.146769,-995.924147,-74.020594,10288.862594
3997.147084,0.000000,148.041188,9770.718434
3997.147399,0.000000,888.247130,9252.574275
3997.147714,689.485948,1258.350101,9104.533087
3997.148029,842.705048,1258.350101,8808.450710
3997.148344,919.314598,1184.329507,9178.553681
3997.148659,689.485948,666.185348,9178.553681
3997.148975,306.438199,-0.000000,9474.636058
3997.149290,-229.828649,-148.041188,9622.677246
3997.149605,-459.657299,-740.205942,10214.842000
3997.149920,-612.876398,-1036.288319,10584.944971
3997.150235,-689.485948,-1110.308913,10584.944971
3997.150550,-689.485948,-1184.329507,10584.944971
3997.150865,0.000000,-1036.288319,10214.842000
3997.151180,766.095498,-666.185348,10288.862594
3997.151495,1532.190996,-0.000000,9548.656652
3997.151810,1915.238745,888.247130,8660.409521
3997.152125,2451.505594,1258.350101,8364.327145
3997.152441,2604.724693,1702.473667,8512.368333
3997.152756,2298.286494,1628.453072,8438.347739
3997.153071,1608.800546,1332.370696,7846.182985
3997.153386,1149.143247,740.205942,8364.327145
3997.153701,0.000000,370.102971,9622.677246
3997.154016,-689.485948,-592.164754,9992.780217
3997.154331,-1072.533697,-1110.308913,10510.924376
3997.154646,-1762.019645,-1110.308913,10658.965565
3997.154961,-1608.800546,-1036.288319,10658.965565
3997.155276,-1685.410096,-666.185348,10436.903782
3997.155591,-1378.971896,-0.000000,10881.027347
3997.155907,-536.266849,518.144159,10510.924376
3997.156222,76.609550,814.226536,9400.615463
3997.156537,689.485948,1332.370696,9326.594869
3997.156852,995.924147,1554.432478,9326.594869
3997.157167,919.314598,1258.350101,9104.533087
3997.157482,766.095498,1036.288319,9400.615463
3997.157797,153.219100,518.144159,9696.697840
3997.158112,0.000000,-148.041188,9918.759623
3997.158427,0.000000,-592.164754,10214.842000
3997.158742,-536.266849,-666.185348,10732.986159
3997.159057,-919.314598,-1110.308913,11029.068536
3997.159372,-1149.143247,-1184.329507,10658.965565
3997.159688,-229.828649,-740.205942,10214.842000
3997.160003,153.219100,-666.185348,9992.780217
3997.160318,1072.533697,-0.000000,9474.636058
3997.160633,1302.362347,518.144159,8882.471304
3997.160948,1378.971896,1036.288319,8586.388927
3997.161263,1915.238745,1332.370696,8438.347739
3997.161578,1915.238745,1332.370696,7846.182985
3997.161893,1455.581446,1110.308913,8364.327145
3997.162208,612.876398,592.164754,8586.388927
3997.162523,-229.828649,222.061783,9030.512492
3997.162838,-842.705048,-296.082377,9474.636058
3997.163154,-1149.143247,-1036.288319,10140.821405
3997.163469,-1838.629195,-962.267725,10362.883188
3997.163784,-2145.067394,-962.267725,10288.862594
3997.164099,-1685.410096,-444.123565,9992.780217
3997.164414,-1225.752797,-74.020594,10214.842000
3997.164729,-536.266849,-0.000000,9622.677246
3997.165044,0.000000,740.205942,9252.574275
3997.165359,229.828649,1184.329507,9178.553681
3997.165674,383.047749,1332.370696,8882.471304
3997.165989,919.314598,1406.391290,8734.430116
3997.166304,612.876398,888.247130,9400.615463
3997.166620,229.828649,592.164754,9400.615463
3997.166935,0.000000,296.082377,9548.656652
3997.167250,-536.266849,-444.123565,10066.800811
3997.167565,-689.485948,-740.205942,10510.924376
3997.167880,-766.095498,-444.123565,10881.027347
3997.168195,-919.314598,-1110.308913,11177.109724
3997.168510,-536.266849,-888.247130,10807.006753
3997.168825,383.047749,-592.164754,10214.842000
3997.169140,1762.019645,-74.020594,9770.718434
3997.169455,1532.190996,444.123565,9326.594869
3997.169770,2145.067394,962.267725,8808.450710
3997.170085,2221.676944,1406.391290,8142.265362
3997.170401,2145.067394,1850.514855,7772.162391
3997.170716,1532.190996,1480.411884,8438.347739
3997.171031,995.924147,740.205942,8808.450710
3997.171346,229.828649,296.082377,8956.491898
3997.171661,-459.657299,-370.102971,9770.718434
3997.171976,-1149.143247,-814.226536,10510.924376
3997.172291,-1608.800546,-962.267725,10436.903782
3997.172606,-1762.019645,-1258.350101,10881.027347
3997.172921,-1532.190996,-962.267725,10955.047942
3997.173236,-1225.752797,-296.082377,10362.883188
3997.173551,-153.219100,222.061783,9770.718434
3997.173867,306.438199,1332.370696,9696.697840
3997.174182,536.266849,1332.370696,9696.697840
3997.174497,919.314598,1332.370696,8808.450710
3997.174812,1072.533697,1628.453072,8734.430116
3997.175127,689.485948,1332.370696,9178.553681
3997.175442,612.876398,518.144159,9326.594869
3997.175757,229.828649,-0.000000,9474.636058
3997.176072,-229.828649,-518.144159,9992.780217
3997.176387,-612.876398,-888.247130,10510.924376
3997.176702,-842.705048,-1110.308913,10658.965565
3997.177017,-842.705048,-1258.350101,11029.068536
3997.177333,-766.095498,-1406.391290,10732.986159
3997.177648,306.438199,-814.226536,10214.842000
3997.177963,995.924147,-296.082377,9474.636058
3997.178278,1455.581446,518.144159,8956.491898
3997.178593,2145.067394,1184.329507,8808.450710
3997.178908,1915.238745,1554.432478,8290.306550
3997.179223,1838.629195,1480.411884,7920.203579
3997.179538,1302.362347,740.205942,8068.244768
3997.179853,766.095498,592.164754,8290.306550
3997.180168,76.609550,-148.041188,8956.491898
3997.180483,-919.314598,-814.226536,9696.697840
3997.180798,-1378.971896,-1110.308913,9992.780217
3997.181114,-2451.505594,-1258.350101,9992.780217
3997.181429,-2145.067394,-1406.391290,10436.903782
3997.181744,-1685.410096,-1258.350101,10510.924376
3997.182059,-1302.362347,-370.102971,10288.862594
3997.182374,-919.314598,-0.000000,9844.739029
3997.182689,0.000000,740.205942,9474.636058
3997.183004,383.047749,1110.308913,9178.553681
3997.183319,689.485948,1184.329507,9104.533087
3997.183634,689.485948,1258.350101,9252.574275
3997.183949,612.876398,1332.370696,8882.471304
3997.184264,689.485948,518.144159,9548.656652
3997.184580,383.047749,370.102971,9696.697840
3997.184895,-383.047749,-0.000000,10288.862594
3997.185210,-612.876398,-296.082377,10436.903782
3997.185525,-536.266849,-740.205942,10288.862594
3997.185840,-995.924147,-814.226536,11103.089130
3997.186155,-229.828649,-962.267725,10807.006753
3997.186470,383.047749,-370.102971,10510.924376
3997.186785,1302.362347,-0.000000,9770.718434
3997.187100,1838.629195,518.144159,8882.471304
3997.187415,2451.505594,1702.473667,8808.450710
3997.187730,1915.238745,1924.535449,8438.347739
3997.188046,2145.067394,2146.597232,8438.347739
3997.188361,1915.238745,1702.473667,8142.265362
3997.188676,1225.752797,1110.308913,8660.409521
3997.188991,76.609550,370.102971,9400.615463
3997.189306,-612.876398,-148.041188,9992.780217
3997.189621,-1378.971896,-592.164754,10436.903782
3997.189936,-1762.019645,-814.226536,10436.903782
3997.190251,-1378.971896,-740.205942,10732.986159
3997.190566,-1608.800546,-518.144159,10510.924376
3997.190881,-1455.581446,-222.061783,10140.821405
3997.191196,-612.876398,370.102971,10214.842000
3997.191511,-306.438199,888.247130,9400.615463
3997.191827,-76.609550,1406.391290,9326.594869
3997.192142,612.876398,1406.391290,9326.594869
3997.192457,536.266849,1036.288319,9326.594869
3997.192772,919.314598,1110.308913,9104.533087
3997.193087,459.657299,592.164754,9252.574275
3997.193402,306.438199,148.041188,9770.718434
3997.193717,-306.438199,-444.123565,9918.759623
3997.194032,-612.876398,-1036.288319,10436.903782
3997.194347,-842.705048,-1036.288319,10807.006753
3997.194662,-689.485948,-1258.350101,10510.924376
3997.194977,153.219100,-1480.411884,10510.924376
3997.195293,459.657299,-592.164754,10288.862594
3997.195608,1532.190996,-74.020594,9696.697840
3997.195923,1838.629195,296.082377,8808.450710
