#time,accel_x,accel_y,accel_z
3778.970144,229.828649,-74.020594,9918.759623
3778.970458,153.219100,222.061783,9622.677246
3778.970773,0.000000,222.061783,9622.677246
3778.971088,0.000000,-0.000000,9696.697840
3778.971402,153.219100,370.102971,9770.718434
3778.971717,229.828649,592.164754,9844.739029
3778.972032,76.609550,-0.000000,9400.615463
3778.972346,153.219100,222.061783,9474.636058
3778.972661,0.000000,-0.000000,9474.636058
3778.972976,0.000000,-0.000000,9548.656652
3778.973290,459.657299,-0.000000,9918.759623
3778.973605,0.000000,148.041188,9474.636058
3778.973920,76.609550,370.102971,9696.697840
3778.974234,0.000000,-0.000000,9474.636058
3778.974549,0.000000,222.061783,9474.636058
3778.974864,0.000000,-0.000000,9474.636058
3778.975178,0.000000,-0.000000,9474.636058
3778.975493,306.438199,-0.000000,9696.697840
3778.975807,153.219100,-0.000000,9400.615463
3778.976122,153.219100,-0.000000,9178.553681
3778.976437,153.219100,-0.000000,9474.636058
3778.976751,76.609550,296.082377,9548.656652
3778.977066,536.266849,-0.000000,9326.594869
3778.977381,153.219100,148.041188,9548.656652
3778.977695,306.438199,-0.000000,9622.677246
3778.978010,306.438199,-0.000000,9548.656652
3778.978325,76.609550,148.041188,9400.615463
3778.978639,229.828649,148.041188,9474.636058
3778.978954,229.828649,222.061783,9622.677246
3778.979269,76.609550,-0.000000,9696.697840
3778.979583,-153.219100,-0.000000,9696.697840
3778.979898,0.000000,-222.061783,9548.656652
3778.980213,689.485948,-0.000000,9696.697840
3778.980527,0.000000,296.082377,9844.739029
3778.980842,306.438199,-0.000000,9844.739029
3778.981157,0.000000,-0.000000,9918.759623
3778.981471,153.219100,-0.000000,9696.697840
3778.981786,306.438199,296.082377,9548.656652
3778.982101,0.000000,222.061783,9844.739029
3778.982415,0.000000,296.082377,9696.697840
3778.982730,459.657299,-370.102971,9474.636058
3778.983045,153.219100,370.102971,9696.697840
3778.983359,76.609550,370.102971,9548.656652
3778.983674,306.438199,222.061783,9696.697840
3778.983989,153.219100,-0.000000,9622.677246
3778.984303,0.000000,-74.020594,9400.615463
3778.984618,0.000000,370.102971,9844.739029
3778.984933,76.609550,-0.000000,9622.677246
3778.985247,76.609550,-0.000000,9622.677246
3778.985562,76.609550,-0.000000,9696.697840
3778.985877,459.657299,-370.102971,9474.636058
3778.986191,459.657299,148.041188,9252.574275
3778.986506,0.000000,148.041188,9178.553681
3778.986821,229.828649,296.082377,9474.636058
3778.987135,383.047749,-0.000000,9178.553681
3778.987450,0.000000,148.041188,9178.553681
3778.987765,153.219100,-0.000000,9474.636058
3778.988079,0.000000,222.061783,9622.677246
3778.988394,0.000000,148.041188,9622.677246
3778.988709,153.219100,296.082377,9622.677246
3778.989023,153.219100,444.123565,9696.697840
3778.989338,153.219100,-0.000000,9474.636058
3778.989653,383.047749,-0.000000,9474.636058
3778.989967,229.828649,-0.000000,9770.718434
3778.990282,0.000000,-0.000000,9918.759623
3778.990596,383.047749,-74.020594,9770.718434
3778.990911,76.609550,148.041188,9696.697840
3778.991226,153.219100,296.082377,9696.697840
3778.991540,306.438199,-0.000000,9918.759623
3778.991855,-229.828649,-0.000000,10066.800811
3778.992170,153.219100,148.041188,9844.739029
3778.992484,76.609550,-0.000000,9918.759623
3778.992799,229.828649,-0.000000,9844.739029
3778.993114,0.000000,-0.000000,9400.615463
3778.993428,0.000000,148.041188,9992.780217
3778.993743,153.219100,-0.000000,10066.800811
3778.994058,0.000000,-0.000000,9548.656652
3778.994372,0.000000,-0.000000,9992.780217
3778.994687,459.657299,148.041188,9474.636058
3778.995002,153.219100,-0.000000,9252.574275
3778.995316,306.438199,-74.020594,9918.759623
3778.995631,0.000000,-0.000000,9844.739029
3778.995946,0.000000,-0.000000,9918.759623
3778.996260,153.219100,222.061783,9474.636058
3778.996575,306.438199,518.144159,9400.615463
3778.996890,689.485948,592.164754,9030.512492
3778.997204,689.485948,1184.329507,9104.533087
3778.997519,766.095498,1036.288319,9400.615463
3778.997834,1072.533697,-0.000000,8882.471304
3778.998148,919.314598,740.205942,9030.512492
3778.998463,459.657299,148.041188,8808.450710
3778.998778,612.876398,370.102971,9696.697840
3778.999092,919.314598,296.082377,9770.718434
3778.999407,995.924147,222.061783,9844.739029
3778.999722,459.657299,592.164754,9918.759623
3779.000036,919.314598,740.205942,9474.636058
3779.000351,1149.143247,962.267725,9252.574275
3779.000666,1532.190996,1184.329507,9918.759623
3779.000980,1991.848295,740.205942,10288.862594
3779.001295,1915.238745,1110.308913,9992.780217
3779.001610,2145.067394,1258.350101,9918.759623
3779.001924,2681.334243,1554.432478,9696.697840
3779.002239,2834.553343,1850.514855,9770.718434
3779.002554,2911.162892,2294.638420,9622.677246
3779.002868,3677.258390,2368.659014,9474.636058
3779.003183,3677.258390,2294.638420,8808.450710
3779.003498,3753.867940,2368.659014,9104.533087
3779.003812,3677.258390,2368.659014,8808.450710
3779.004127,3600.648841,2220.617826,8734.430116
3779.004442,3447.429741,2146.597232,8956.491898
3779.004756,3140.991542,2368.659014,9178.553681
3779.005071,3294.210641,2368.659014,9400.615463
3779.005385,3294.210641,2516.700203,9474.636058
3779.005700,2834.553343,2812.782580,9104.533087
3779.006015,2681.334243,2738.761985,9400.615463
3779.006329,3140.991542,3108.864956,9252.574275
3779.006644,2987.772442,3478.967927,9400.615463
3779.006959,2987.772442,3627.009116,9474.636058
3779.007273,2834.553343,3330.926739,9474.636058
3779.007588,2528.115143,3775.050304,9400.615463
3779.007903,2068.457845,4219.173869,9696.697840
3779.008217,1762.019645,3923.091493,10362.883188
3779.008532,1915.238745,3627.009116,10510.924376
3779.008847,1762.019645,3627.009116,10510.924376
3779.009161,1608.800546,3627.009116,10807.006753
3779.009476,1455.581446,3404.947333,10658.965565
3779.009791,1685.410096,3552.988522,11029.068536
3779.010105,1762.019645,3627.009116,10658.965565
3779.010420,1762.019645,3775.050304,10362.883188
3779.010735,2145.067394,4367.215058,9474.636058
3779.011049,2604.724693,4145.153275,9252.574275
3779.011364,2604.724693,4145.153275,9474.636058
3779.011679,2221.676944,3849.070898,9770.718434
3779.011993,1532.190996,3330.926739,9696.697840
3779.012308,1455.581446,2886.803174,9844.739029
3779.012623,1608.800546,2960.823768,10288.862594
3779.012937,1608.800546,2886.803174,10510.924376
3779.013252,1532.190996,2738.761985,10436.903782
3779.013567,1225.752797,2738.761985,10288.862594
3779.013881,1225.752797,3034.844362,10362.883188
3779.014196,1302.362347,2960.823768,9992.780217
3779.014511,1762.019645,3182.885551,9474.636058
3779.014825,1685.410096,2812.782580,9474.636058
3779.015140,1455.581446,2738.761985,9252.574275
3779.015455,1608.800546,2368.659014,9474.636058
3779.015769,1532.190996,1628.453072,9548.656652
3779.016084,1762.019645,1554.432478,10362.883188
3779.016399,1685.410096,1554.432478,9992.780217
3779.016713,842.705048,1184.329507,9622.677246
3779.017028,1455.581446,1554.432478,9844.739029
3779.017343,1838.629195,1332.370696,9844.739029
3779.017657,2298.286494,1776.494261,9178.553681
3779.017972,2604.724693,1924.535449,8512.368333
3779.018287,2987.772442,1998.556043,8512.368333
3779.018601,3677.258390,2072.576638,8660.409521
3779.018916,3677.258390,1924.535449,8364.327145
3779.019230,3600.648841,1702.473667,8512.368333
3779.019545,2834.553343,1702.473667,8512.368333
3779.019860,2681.334243,1480.411884,8882.471304
3779.020174,2757.943793,1036.288319,8956.491898
3779.020489,2604.724693,962.267725,9326.594869
3779.020804,2221.676944,962.267725,9622.677246
3779.021118,1991.848295,444.123565,9474.636058
3779.021433,1915.238745,222.061783,9770.718434
3779.021748,2451.505594,518.144159,10362.883188
3779.022062,2451.505594,962.267725,10288.862594
3779.022377,2834.553343,1628.453072,10214.842000
3779.022692,3294.210641,2146.597232,9696.697840
3779.023006,3524.039291,2590.720797,9252.574275
3779.023321,4060.306139,2368.659014,8512.368333
3779.023636,4213.525239,2516.700203,7994.224174
3779.023950,3677.258390,2294.638420,8660.409521
3779.024265,3524.039291,1924.535449,8364.327145
3779.024580,2681.334243,1036.288319,8882.471304
3779.024894,1685.410096,444.123565,9992.780217
3779.025209,612.876398,-148.041188,10732.986159
3779.025524,229.828649,-592.164754,12065.356855
3779.025838,-383.047749,-222.061783,12287.418637
3779.026153,0.000000,444.123565,12361.439231
3779.026468,612.876398,1480.411884,11325.150913
3779.026782,1762.019645,2368.659014,10436.903782
3779.027097,3217.601092,3627.009116,10214.842000
3779.027412,3753.867940,4515.256246,8068.244768
3779.027726,4366.744339,4959.379811,7402.059420
3779.028041,4443.353888,4515.256246,7031.956449
3779.028356,4596.572988,3552.988522,7328.038826
3779.028670,3600.648841,2590.720797,8660.409521
3779.028985,1991.848295,1332.370696,9474.636058
3779.029300,306.438199,592.164754,11103.089130
3779.029614,-766.095498,-0.000000,11843.295072
3779.029929,-1455.581446,444.123565,11991.336260
3779.030244,-919.314598,1258.350101,11991.336260
3779.030558,-229.828649,2368.659014,10732.986159
3779.030873,842.705048,3256.906145,9252.574275
3779.031188,1991.848295,4145.153275,8216.285956
3779.031502,3907.087040,4515.256246,7624.121203
3779.031817,4826.401637,4441.235652,7402.059420
3779.032132,4596.572988,4367.215058,7994.224174
3779.032446,3983.696590,4219.173869,8660.409521
3779.032761,3140.991542,3849.070898,10066.800811
3779.033076,2298.286494,2960.823768,11103.089130
3779.033390,919.314598,3108.864956,11103.089130
3779.033705,229.828649,2738.761985,10807.006753
3779.034019,459.657299,2590.720797,10288.862594
3779.034334,1225.752797,1850.514855,10214.842000
3779.034649,1685.410096,1924.535449,10214.842000
3779.034963,2298.286494,2146.597232,9104.533087
3779.035278,2528.115143,2590.720797,8142.265362
3779.035593,3140.991542,3182.885551,8290.306550
3779.035907,3600.648841,3701.029710,8438.347739
3779.036222,3600.648841,3849.070898,8438.347739
3779.036537,3064.381992,3552.988522,8512.368333
3779.036851,2911.162892,2516.700203,9696.697840
3779.037166,1915.238745,1702.473667,10807.006753
3779.037481,1302.362347,1776.494261,11769.274478
3779.037795,1608.800546,1998.556043,11991.336260
3779.038110,1302.362347,2072.576638,11695.253884
3779.038425,1378.971896,3256.906145,10436.903782
3779.038739,2298.286494,3627.009116,9326.594869
3779.039054,3370.820191,3552.988522,8290.306550
3779.039369,4290.134789,3108.864956,8216.285956
3779.039683,3907.087040,2664.741391,8512.368333
3779.039998,3370.820191,1998.556043,8290.306550
3779.040313,3064.381992,888.247130,9252.574275
3779.040627,1991.848295,1110.308913,9918.759623
3779.040942,1225.752797,962.267725,10066.800811
3779.041257,153.219100,1332.370696,10436.903782
3779.041571,76.609550,1332.370696,10362.883188
3779.041886,76.609550,1776.494261,10436.903782
3779.042201,229.828649,1628.453072,10066.800811
3779.042515,842.705048,1332.370696,10436.903782
3779.042830,1225.752797,1258.350101,9548.656652
3779.043145,1149.143247,1850.514855,9474.636058
3779.043459,1149.143247,2220.617826,9400.615463
3779.043774,1608.800546,1554.432478,9696.697840
3779.044089,1762.019645,962.267725,9844.739029
3779.044403,1149.143247,592.164754,10066.800811
3779.044718,383.047749,444.123565,10436.903782
3779.045032,-229.828649,-148.041188,10214.842000
3779.045347,-995.924147,-370.102971,9918.759623
3779.045662,-1072.533697,-74.020594,9770.718434
3779.045976,-766.095498,-1036.288319,9770.718434
3779.046291,-612.876398,-592.164754,9474.636058
3779.046605,-306.438199,-740.205942,9474.636058
3779.046920,-229.828649,-888.247130,9548.656652
3779.047235,-229.828649,-0.000000,9326.594869
3779.047549,229.828649,444.123565,8512.368333
3779.047864,383.047749,370.102971,8364.327145
3779.048179,536.266849,-222.061783,9400.615463
3779.048493,-153.219100,-1480.411884,9918.759623
3779.048808,-689.485948,-814.226536,9844.739029
3779.049122,-1072.533697,-1110.308913,10732.986159
3779.049437,-1072.533697,-518.144159,10658.965565
3779.049752,-766.095498,-222.061783,9992.780217
3779.050066,-612.876398,-1110.308913,9992.780217
3779.050381,0.000000,-1332.370696,9696.697840
3779.050695,153.219100,-1184.329507,9622.677246
3779.051010,229.828649,-1036.288319,9474.636058
3779.051325,1072.533697,-1184.329507,8956.491898
3779.051639,1532.190996,-740.205942,9030.512492
3779.051954,1455.581446,-74.020594,7846.182985
3779.052269,1762.019645,-888.247130,8142.265362
3779.052583,1991.848295,-814.226536,8512.368333
3779.052898,1378.971896,-592.164754,9030.512492
3779.053212,689.485948,-518.144159,9178.553681
3779.053527,229.828649,-296.082377,9326.594869
3779.053842,0.000000,-148.041188,8586.388927
3779.054156,76.609550,-222.061783,8586.388927
3779.054471,459.657299,-1110.308913,9474.636058
3779.054785,536.266849,-1628.453072,9770.718434
3779.055100,229.828649,-1184.329507,10214.842000
3779.055415,229.828649,-518.144159,9918.759623
3779.055729,229.828649,-0.000000,10214.842000
3779.056044,-229.828649,592.164754,9474.636058
3779.056358,612.876398,1036.288319,9178.553681
3779.056673,1072.533697,444.123565,9030.512492
3779.056988,842.705048,296.082377,9030.512492
3779.057302,536.266849,-148.041188,9474.636058
3779.057617,306.438199,-370.102971,9474.636058
3779.057932,0.000000,444.123565,9178.553681
3779.058246,0.000000,592.164754,9030.512492
3779.058561,459.657299,148.041188,9178.553681
3779.058875,459.657299,-148.041188,9696.697840
3779.059190,0.000000,-740.205942,9992.780217
3779.059505,-766.095498,-296.082377,9918.759623
3779.059819,-689.485948,-148.041188,10214.842000
3779.060134,-612.876398,592.164754,9770.718434
3779.060448,-689.485948,1480.411884,9474.636058
3779.060763,-536.266849,888.247130,10288.862594
3779.061078,0.000000,592.164754,10510.924376
3779.061392,0.000000,1184.329507,10436.903782
3779.061707,0.000000,1332.370696,10362.883188
3779.062022,383.047749,2368.659014,10362.883188
3779.062336,-153.219100,1776.494261,9622.677246
3779.062651,229.828649,1406.391290,9622.677246
3779.062965,536.266849,888.247130,10140.821405
3779.063280,-229.828649,-0.000000,10584.944971
3779.063595,-919.314598,-0.000000,10362.883188
3779.063909,-1302.362347,370.102971,10584.944971
3779.064224,-1149.143247,592.164754,10732.986159
3779.064538,-919.314598,1258.350101,9696.697840
3779.064853,-229.828649,1406.391290,9770.718434
3779.065168,153.219100,296.082377,9992.780217
3779.065482,0.000000,518.144159,9770.718434
3779.065797,0.000000,666.185348,9696.697840
3779.066112,0.000000,1480.411884,9178.553681
3779.066426,229.828649,1480.411884,9252.574275
3779.066741,459.657299,1628.453072,8956.491898
3779.067055,612.876398,1332.370696,8956.491898
3779.067370,612.876398,740.205942,9622.677246
3779.067685,0.000000,-0.000000,10214.842000
3779.067999,-766.095498,-444.123565,10066.800811
3779.068314,-766.095498,-74.020594,9918.759623
3779.068628,-1072.533697,-0.000000,9770.718434
3779.068943,-612.876398,-0.000000,9252.574275
3779.069258,76.609550,-740.205942,9400.615463
3779.069572,383.047749,-296.082377,9696.697840
3779.069887,536.266849,-74.020594,9326.594869
3779.070202,229.828649,-0.000000,9326.594869
3779.070516,766.095498,-74.020594,8734.430116
3779.070831,1072.533697,222.061783,8734.430116
3779.071145,1838.629195,-0.000000,8364.327145
3779.071460,1838.629195,-666.185348,8808.450710
3779.071775,1149.143247,-592.164754,9252.574275
3779.072089,306.438199,-370.102971,9252.574275
3779.072404,-459.657299,-592.164754,9844.739029
3779.072718,0.000000,-592.164754,10214.842000
3779.073033,0.000000,-592.164754,9770.718434
3779.073348,229.828649,-888.247130,9474.636058
3779.073662,459.657299,-1110.308913,10140.821405
3779.073977,459.657299,-518.144159,10510.924376
3779.074291,842.705048,-0.000000,10510.924376
3779.074606,995.924147,148.041188,9622.677246
3779.074921,995.924147,370.102971,9548.656652
3779.075235,1685.410096,666.185348,8956.491898
3779.075550,2068.457845,-0.000000,8882.471304
3779.075865,1072.533697,-222.061783,9178.553681
3779.076179,0.000000,-296.082377,10140.821405
3779.076494,-612.876398,-740.205942,10140.821405
3779.076808,-536.266849,-740.205942,9770.718434
3779.077123,-536.266849,-444.123565,9548.656652
3779.077438,0.000000,-814.226536,9548.656652
3779.077752,0.000000,-1110.308913,9696.697840
3779.078067,-229.828649,-1110.308913,9844.739029
3779.078381,-689.485948,-666.185348,9844.739029
3779.078696,-306.438199,-444.123565,10214.842000
3779.079011,-689.485948,296.082377,9474.636058
3779.079325,-306.438199,740.205942,9030.512492
3779.079640,229.828649,222.061783,9178.553681
3779.079955,0.000000,-222.061783,9400.615463
3779.080269,-459.657299,-148.041188,9992.780217
3779.080584,-612.876398,-0.000000,10140.821405
3779.080898,-612.876398,-0.000000,9992.780217
3779.081213,-1455.581446,666.185348,8364.327145
3779.081528,-306.438199,-814.226536,9844.739029
3779.081842,-306.438199,-0.000000,9104.533087
3779.082157,-1455.581446,-666.185348,9770.718434
3779.082471,-995.924147,-962.267725,10066.800811
3779.082786,-612.876398,-0.000000,9474.636058
3779.083101,-612.876398,370.102971,9622.677246
3779.083415,0.000000,444.123565,9104.533087
3779.083730,0.000000,-0.000000,9178.553681
3779.084045,306.438199,740.205942,9252.574275
3779.084359,153.219100,592.164754,9696.697840
3779.084674,153.219100,1036.288319,9696.697840
3779.084988,689.485948,888.247130,9326.594869
3779.085303,689.485948,1258.350101,8882.471304
3779.085618,459.657299,1332.370696,8512.368333
3779.085932,383.047749,592.164754,9178.553681
3779.086247,383.047749,370.102971,9918.759623
3779.086561,0.000000,296.082377,10140.821405
3779.086876,-76.609550,518.144159,10658.965565
3779.087191,-536.266849,148.041188,10140.821405
3779.087505,-383.047749,962.267725,9770.718434
3779.087820,0.000000,1258.350101,9474.636058
3779.088134,0.000000,962.267725,9992.780217
3779.088449,459.657299,1110.308913,10436.903782
3779.088764,919.314598,1628.453072,9548.656652
3779.089078,1072.533697,1258.350101,9474.636058
3779.089393,1455.581446,1628.453072,9400.615463
3779.089708,1149.143247,1924.535449,9104.533087
3779.090022,919.314598,1406.391290,9104.533087
3779.090337,1378.971896,1110.308913,9400.615463
3779.090651,536.266849,-0.000000,10214.842000
3779.090966,0.000000,-74.020594,10732.986159
3779.091281,-306.438199,-296.082377,11029.068536
3779.091595,-536.266849,-0.000000,10955.047942
3779.091910,0.000000,296.082377,10362.883188
3779.092224,383.047749,888.247130,10214.842000
3779.092539,995.924147,814.226536,9696.697840
3779.092854,1455.581446,370.102971,9178.553681
3779.093168,1455.581446,1258.350101,9326.594869
3779.093483,1532.190996,666.185348,9400.615463
3779.093798,1685.410096,1332.370696,8808.450710
3779.094112,1149.143247,1258.350101,7994.224174
3779.094427,842.705048,222.061783,9104.533087
3779.094741,459.657299,-370.102971,10288.862594
3779.095056,-536.266849,-1110.308913,10584.944971
3779.095371,-689.485948,-1036.288319,11103.089130
3779.095685,-919.314598,-888.247130,11177.109724
3779.096000,-383.047749,-296.082377,10807.006753
3779.096314,-612.876398,222.061783,9548.656652
3779.096629,0.000000,-0.000000,9400.615463
3779.096944,612.876398,222.061783,9992.780217
3779.097258,995.924147,296.082377,9326.594869
3779.097573,919.314598,370.102971,8956.491898
3779.097888,689.485948,370.102971,8660.409521
3779.098202,306.438199,-0.000000,8438.347739
3779.098517,306.438199,-0.000000,8808.450710
3779.098831,-229.828649,-666.185348,9548.656652
3779.099146,-459.657299,-1628.453072,10214.842000
3779.099461,-1378.971896,-1332.370696,10288.862594
3779.099775,-1608.800546,-1184.329507,10140.821405
3779.100090,-1149.143247,-888.247130,9844.739029
3779.100404,-919.314598,-222.061783,9474.636058
3779.100719,-383.047749,-740.205942,9030.512492
3779.101034,0.000000,-740.205942,8956.491898
3779.101348,153.219100,-814.226536,9178.553681
3779.101663,0.000000,-296.082377,8808.450710
3779.101978,306.438199,-0.000000,8512.368333
3779.102292,153.219100,-370.102971,8586.388927
3779.102607,0.000000,-0.000000,8586.388927
3779.102921,306.438199,-666.185348,9030.512492
3779.103236,-153.219100,-962.267725,9474.636058
3779.103551,-1072.533697,-1406.391290,10066.800811
3779.103865,-842.705048,-1332.370696,10214.842000
3779.104180,-1149.143247,-1258.350101,10140.821405
3779.104494,-689.485948,-444.123565,9474.636058
3779.104809,-153.219100,-370.102971,9030.512492
3779.105124,229.828649,-888.247130,8956.491898
3779.105438,536.266849,-592.164754,9696.697840
3779.105753,76.609550,-296.082377,9474.636058
3779.106067,229.828649,-296.082377,9918.759623
3779.106382,229.828649,222.061783,9474.636058
3779.106697,459.657299,1258.350101,8882.471304
3779.107011,612.876398,1184.329507,9178.553681
3779.107326,766.095498,888.247130,9104.533087
3779.107641,153.219100,296.082377,10362.883188
3779.107955,153.219100,592.164754,10510.924376
3779.108270,0.000000,370.102971,10066.800811
3779.108584,0.000000,666.185348,9474.636058
3779.108899,0.000000,1406.391290,9474.636058
3779.109214,0.000000,962.267725,9474.636058
3779.109528,842.705048,444.123565,10584.944971
3779.109843,-153.219100,148.041188,10732.986159
3779.110157,0.000000,518.144159,10807.006753
3779.110472,0.000000,1258.350101,9696.697840
3779.110787,76.609550,1924.535449,9474.636058
3779.111101,842.705048,1924.535449,9326.594869
3779.111416,919.314598,1036.288319,9548.656652
3779.111731,766.095498,666.185348,9844.739029
3779.112045,689.485948,740.205942,9622.677246
3779.112360,306.438199,1036.288319,9622.677246
3779.112674,766.095498,1258.350101,9548.656652
3779.112989,306.438199,1554.432478,9400.615463
3779.113304,383.047749,740.205942,9548.656652
3779.113618,229.828649,-74.020594,9844.739029
3779.113933,76.609550,-222.061783,10362.883188
3779.114247,0.000000,-74.020594,10881.027347
3779.114562,0.000000,444.123565,9548.656652
3779.114877,0.000000,592.164754,9992.780217
3779.115191,153.219100,1332.370696,9474.636058
3779.115506,612.876398,1184.329507,9030.512492
3779.115821,919.314598,-0.000000,9326.594869
3779.116135,612.876398,148.041188,9770.718434
3779.116450,153.219100,592.164754,9400.615463
3779.116764,229.828649,-0.000000,9622.677246
3779.117079,-153.219100,592.164754,9548.656652
3779.117394,612.876398,-0.000000,9696.697840
3779.117708,306.438199,-74.020594,9622.677246
3779.118023,-229.828649,-666.185348,10510.924376
3779.118337,0.000000,-222.061783,10362.883188
3779.118652,-153.219100,222.061783,9696.697840
3779.118967,0.000000,444.123565,9474.636058
3779.119281,306.438199,1036.288319,8882.471304
3779.119596,306.438199,666.185348,8364.327145
3779.119910,1225.752797,444.123565,8364.327145
3779.120225,1149.143247,-74.020594,8956.491898
3779.120540,76.609550,-222.061783,9474.636058
3779.120854,229.828649,-148.041188,9844.739029
3779.121169,-536.266849,-0.000000,9844.739029
3779.121484,-919.314598,-0.000000,9622.677246
3779.121798,-306.438199,-148.041188,9696.697840
3779.122113,-383.047749,-740.205942,10140.821405
3779.122427,-612.876398,-370.102971,9696.697840
3779.122742,-383.047749,-740.205942,9696.697840
3779.123057,0.000000,-0.000000,9104.533087
3779.123371,76.609550,296.082377,8660.409521
3779.123686,306.438199,888.247130,8290.306550
3779.124000,995.924147,222.061783,7846.182985
3779.124315,536.266849,-444.123565,8882.471304
3779.124630,76.609550,-1554.432478,9696.697840
3779.124944,-536.266849,-1110.308913,10066.800811
3779.125259,-842.705048,-962.267725,10436.903782
3779.125574,-1149.143247,-444.123565,10288.862594
3779.125888,-1225.752797,-296.082377,9992.780217
3779.126203,-612.876398,-296.082377,10066.800811
3779.126517,-306.438199,-444.123565,10584.944971
3779.126832,0.000000,-592.164754,9770.718434
3779.127147,306.438199,-74.020594,9696.697840
3779.127461,766.095498,296.082377,8808.450710
3779.127776,842.705048,1184.329507,8586.388927
3779.128090,842.705048,814.226536,8660.409521
3779.128405,1302.362347,-0.000000,9770.718434
3779.128720,612.876398,148.041188,9696.697840
3779.129034,-153.219100,-666.185348,10436.903782
3779.129349,-612.876398,-666.185348,10658.965565
3779.129664,-995.924147,-370.102971,10658.965565
3779.129978,-1072.533697,-0.000000,10362.883188
3779.130293,-689.485948,-74.020594,10066.800811
3779.130607,153.219100,-370.102971,10066.800811
3779.130922,153.219100,-592.164754,10362.883188
3779.131237,689.485948,148.041188,9474.636058
3779.131551,919.314598,740.205942,9474.636058
3779.131866,995.924147,1776.494261,8660.409521
3779.132180,919.314598,1924.535449,8068.244768
3779.132495,1455.581446,814.226536,8512.368333
3779.132810,995.924147,-148.041188,9548.656652
3779.133124,76.609550,-370.102971,9844.739029
3779.133439,-612.876398,-148.041188,10510.924376
3779.133754,-842.705048,-148.041188,9992.780217
3779.134068,-766.095498,296.082377,10066.800811
3779.134383,-153.219100,666.185348,9474.636058
3779.134697,-229.828649,-74.020594,8808.450710
3779.135012,0.000000,-222.061783,9178.553681
3779.135327,306.438199,-0.000000,9548.656652
3779.135641,612.876398,-222.061783,9474.636058
3779.135956,459.657299,518.144159,8882.471304
3779.136270,459.657299,1332.370696,8438.347739
3779.136585,612.876398,1110.308913,7920.203579
3779.136900,1072.533697,444.123565,9400.615463
3779.137214,383.047749,-0.000000,10732.986159
3779.137529,-689.485948,148.041188,9992.780217
3779.137843,-766.095498,518.144159,9696.697840
3779.138158,-689.485948,444.123565,9622.677246
3779.138473,0.000000,-0.000000,9400.615463
3779.138787,153.219100,-148.041188,9548.656652
3779.139102,0.000000,-592.164754,10066.800811
3779.139417,-306.438199,-518.144159,10288.862594
3779.139731,0.000000,-0.000000,10066.800811
3779.140046,229.828649,518.144159,9696.697840
3779.140360,383.047749,1406.391290,9474.636058
3779.140675,612.876398,1628.453072,8956.491898
3779.140990,842.705048,444.123565,9400.615463
3779.141304,995.924147,296.082377,9918.759623
3779.141619,306.438199,666.185348,9918.759623
3779.141933,306.438199,740.205942,9844.739029
3779.142248,76.609550,740.205942,9696.697840
3779.142563,0.000000,1110.308913,9622.677246
3779.142877,383.047749,296.082377,9326.594869
3779.143192,306.438199,-666.185348,9696.697840
3779.143507,153.219100,-592.164754,10510.924376
3779.143821,-689.485948,-592.164754,9992.780217
3779.144136,-1072.533697,-518.144159,10510.924376
3779.144450,-612.876398,-0.000000,10214.842000
3779.144765,-383.047749,592.164754,9252.574275
3779.145080,383.047749,444.123565,9400.615463
3779.145394,689.485948,444.123565,9030.512492
3779.145709,612.876398,814.226536,9326.594869
3779.146024,612.876398,592.164754,9474.636058
3779.146338,1149.143247,888.247130,8956.491898
3779.146653,919.314598,740.205942,8956.491898
3779.146968,459.657299,518.144159,8808.450710
3779.147282,459.657299,-370.102971,8956.491898
3779.147597,76.609550,-962.267725,10140.821405
3779.147912,-689.485948,-1036.288319,10807.006753
3779.148226,-612.876398,-1258.350101,11177.109724
3779.148541,-919.314598,-444.123565,10066.800811
3779.148856,-766.095498,-74.020594,9770.718434
3779.149170,153.219100,666.185348,8586.388927
3779.149485,612.876398,-370.102971,9474.636058
3779.149800,1149.143247,-74.020594,9030.512492
3779.150114,536.266849,-74.020594,9104.533087
3779.150429,1072.533697,-0.000000,8956.491898
3779.150744,612.876398,222.061783,8882.471304
3779.151058,689.485948,740.205942,9104.533087
3779.151373,76.609550,-0.000000,9474.636058
3779.151688,0.000000,-592.164754,9918.759623
3779.152002,-919.314598,-1184.329507,10807.006753
3779.152317,-919.314598,-814.226536,11029.068536
3779.152632,-459.657299,-666.185348,10362.883188
3779.152946,-689.485948,-74.020594,10140.821405
3779.153261,-306.438199,592.164754,9178.553681
3779.153576,459.657299,370.102971,8512.368333
3779.153890,766.095498,296.082377,8956.491898
3779.154205,842.705048,-0.000000,9474.636058
3779.154520,766.095498,518.144159,8956.491898
3779.154834,536.266849,370.102971,8734.430116
3779.155149,306.438199,518.144159,8734.430116
3779.155464,76.609550,148.041188,8586.388927
3779.155778,306.438199,-0.000000,9622.677246
3779.156093,-612.876398,-592.164754,10584.944971
3779.156408,-1149.143247,-444.123565,10584.944971
3779.156722,-842.705048,-74.020594,10140.821405
3779.157037,-459.657299,222.061783,9622.677246
3779.157352,-76.609550,888.247130,9178.553681
3779.157666,306.438199,296.082377,8956.491898
3779.157981,766.095498,-296.082377,8882.471304
3779.158296,919.314598,-148.041188,9474.636058
3779.158610,612.876398,222.061783,9770.718434
3779.158925,-383.047749,-0.000000,9770.718434
3779.159240,0.000000,740.205942,9844.739029
3779.159554,-153.219100,814.226536,9252.574275
3779.159869,229.828649,296.082377,9474.636058
3779.160184,536.266849,-0.000000,10214.842000
3779.160498,-153.219100,-370.102971,10584.944971
3779.160813,-383.047749,-370.102971,10362.883188
3779.161128,-536.266849,-148.041188,10066.800811
3779.161442,-306.438199,296.082377,9474.636058
3779.161757,0.000000,370.102971,9400.615463
3779.162072,153.219100,296.082377,9474.636058
3779.162386,383.047749,-222.061783,9696.697840
3779.162701,612.876398,-0.000000,10288.862594
3779.163016,612.876398,518.144159,10288.862594
3779.163330,689.485948,814.226536,10066.800811
3779.163645,153.219100,888.247130,10140.821405
3779.163960,612.876398,962.267725,9252.574275
3779.164274,689.485948,592.164754,9178.553681
3779.164589,612.876398,370.102971,10140.821405
3779.164904,306.438199,222.061783,9992.780217
3779.165218,76.609550,-0.000000,9918.759623
3779.165533,153.219100,-0.000000,8956.491898
3779.165848,306.438199,592.164754,8882.471304
3779.166162,383.047749,-0.000000,8882.471304
3779.166477,383.047749,-592.164754,9844.739029
3779.166792,0.000000,-666.185348,10881.027347
3779.167106,-459.657299,-370.102971,10140.821405
3779.167421,0.000000,296.082377,9696.697840
3779.167736,383.047749,1184.329507,9474.636058
3779.168050,536.266849,962.267725,8734.430116
3779.168365,995.924147,1036.288319,8882.471304
3779.168680,766.095498,370.102971,8956.491898
3779.168994,1072.533697,296.082377,9474.636058
3779.169309,689.485948,592.164754,8882.471304
3779.169624,383.047749,-148.041188,9104.533087
3779.169938,0.000000,-0.000000,8734.430116
3779.170253,0.000000,-74.020594,8808.450710
3779.170568,0.000000,-592.164754,9622.677246
3779.170882,-536.266849,-962.267725,10584.944971
3779.171197,-1149.143247,-370.102971,10436.903782
3779.171512,-1225.752797,-296.082377,10362.883188
3779.171826,-766.095498,296.082377,9474.636058
3779.172141,0.000000,370.102971,9030.512492
3779.172456,306.438199,740.205942,8586.388927
3779.172770,919.314598,222.061783,8956.491898
3779.173085,612.876398,370.102971,9400.615463
3779.173400,153.219100,-0.000000,9622.677246
3779.173714,229.828649,370.102971,10066.800811
3779.174029,0.000000,-0.000000,9770.718434
3779.174344,-459.657299,370.102971,10436.903782
3779.174658,-383.047749,148.041188,10140.821405
3779.174973,-229.828649,-222.061783,10510.924376
3779.175288,-306.438199,-518.144159,10732.986159
3779.175602,-383.047749,-296.082377,10658.965565
3779.175917,-536.266849,-0.000000,9992.780217
3779.176232,0.000000,592.164754,9400.615463
3779.176546,383.047749,888.247130,8512.368333
3779.176861,1149.143247,518.144159,8586.388927
3779.177176,842.705048,-0.000000,9474.636058
3779.177490,229.828649,-74.020594,9622.677246
3779.177805,76.609550,-740.205942,10658.965565
3779.178120,153.219100,-0.000000,10288.862594
3779.178434,-612.876398,592.164754,10140.821405
3779.178749,-306.438199,518.144159,9474.636058
3779.179064,0.000000,-0.000000,10140.821405
3779.179378,-383.047749,-444.123565,10362.883188
3779.179693,0.000000,-370.102971,9918.759623
3779.180008,0.000000,370.102971,8882.471304
3779.180322,229.828649,-0.000000,9030.512492
3779.180637,766.095498,370.102971,8734.430116
3779.180952,229.828649,-222.061783,8364.327145
3779.181266,536.266849,-666.185348,9104.533087
3779.181581,459.657299,-666.185348,9770.718434
3779.181896,-459.657299,-444.123565,10140.821405
3779.182210,0.000000,-518.144159,10066.800811
3779.182525,-919.314598,-370.102971,9548.656652
3779.182840,-153.219100,370.102971,9178.553681
3779.183154,76.609550,-0.000000,9474.636058
3779.183469,153.219100,-74.020594,9622.677246
3779.183784,229.828649,-370.102971,9918.759623
3779.184098,459.657299,-74.020594,9622.677246
3779.184413,459.657299,-370.102971,9104.533087
3779.184728,229.828649,222.061783,9474.636058
3779.185042,229.828649,148.041188,9178.553681
3779.185357,229.828649,-148.041188,9400.615463
3779.185672,459.657299,-814.226536,10140.821405
3779.185986,-306.438199,-0.000000,9918.759623
3779.186301,0.000000,-370.102971,9918.759623
3779.186616,-229.828649,444.123565,9622.677246
3779.186930,0.000000,814.226536,9326.594869
3779.187245,0.000000,740.205942,8882.471304
3779.187560,536.266849,-0.000000,9326.594869
3779.187874,459.657299,222.061783,9252.574275
3779.188189,689.485948,-0.000000,9400.615463
3779.188504,229.828649,296.082377,9326.594869
3779.188818,76.609550,296.082377,9548.656652
3779.189133,0.000000,1258.350101,9252.574275
3779.189448,153.219100,814.226536,9474.636058
3779.189762,383.047749,296.082377,10214.842000
3779.190077,0.000000,148.041188,10510.924376
3779.190392,-153.219100,518.144159,9992.780217
3779.190706,76.609550,888.247130,9474.636058
3779.191021,-229.828649,1406.391290,9400.615463
3779.191336,0.000000,1110.308913,8660.409521
3779.191650,76.609550,222.061783,8882.471304
3779.191965,306.438199,148.041188,9770.718434
3779.192280,0.000000,-148.041188,9844.739029
3779.192594,-459.657299,-0.000000,10066.800811
3779.192909,-383.047749,222.061783,10584.944971
3779.193224,-766.095498,666.185348,10214.842000
3779.193538,-306.438199,814.226536,9326.594869
3779.193853,-536.266849,-0.000000,10214.842000
3779.194168,0.000000,-74.020594,11177.109724
3779.194482,-536.266849,-0.000000,10288.862594
3779.194797,229.828649,740.205942,9844.739029
3779.195112,229.828649,888.247130,9178.553681
3779.195426,612.876398,1406.391290,8882.471304
3779.195741,995.924147,740.205942,8586.388927
3779.196056,766.095498,-0.000000,9474.636058
3779.196371,306.438199,-0.000000,10807.006753
3779.196685,-229.828649,-888.247130,10658.965565
3779.197000,-459.657299,-370.102971,10214.842000
3779.197315,-536.266849,148.041188,10362.883188
3779.197629,-383.047749,370.102971,9918.759623
3779.197944,-153.219100,296.082377,9474.636058
3779.198259,306.438199,-0.000000,9770.718434
3779.198573,612.876398,-0.000000,9992.780217
3779.198888,842.705048,444.123565,8882.471304
3779.199203,1072.533697,518.144159,8882.471304
3779.199517,1072.533697,666.185348,8216.285956
3779.199832,1149.143247,592.164754,8142.265362
3779.200147,1149.143247,-666.185348,9474.636058
3779.200461,536.266849,-888.247130,10362.883188
3779.200776,0.000000,-888.247130,10362.883188
3779.201091,-842.705048,-1184.329507,10288.862594
3779.201405,-919.314598,-222.061783,10288.862594
3779.201720,-842.705048,-0.000000,9696.697840
3779.202035,-229.828649,-74.020594,9104.533087
3779.202349,459.657299,-222.061783,8956.491898
3779.202664,842.705048,-814.226536,9104.533087
3779.202979,1225.752797,-222.061783,8956.491898
3779.203293,1608.800546,518.144159,8068.244768
3779.203608,919.314598,740.205942,8364.327145
3779.203923,536.266849,814.226536,8438.347739
3779.204237,766.095498,296.082377,8586.388927
3779.204552,383.047749,-296.082377,9252.574275
3779.204867,-612.876398,-1184.329507,10807.006753
3779.205181,-1532.190996,-1554.432478,11251.130318
3779.205496,-1532.190996,-814.226536,10732.986159
3779.205811,-1608.800546,-370.102971,10362.883188
3779.206125,-1302.362347,-518.144159,9400.615463
3779.206440,0.000000,-148.041188,9918.759623
3779.206755,229.828649,-0.000000,9474.636058
3779.207069,842.705048,74.020594,9474.636058
3779.207384,1302.362347,740.205942,9252.574275
3779.207699,919.314598,740.205942,8586.388927
3779.208013,459.657299,962.267725,8660.409521
3779.208328,459.657299,592.164754,8586.388927
3779.208643,229.828649,-0.000000,9622.677246
3779.208957,-459.657299,-666.185348,10584.944971
3779.209272,-1149.143247,-296.082377,10658.965565
3779.209587,-1532.190996,-0.000000,10362.883188
3779.209901,-1608.800546,-0.000000,9992.780217
3779.210216,-919.314598,518.144159,9918.759623
3779.210531,383.047749,222.061783,9326.594869
3779.210845,612.876398,296.082377,9400.615463
3779.211160,76.609550,518.144159,9474.636058
3779.211475,536.266849,1036.288319,9474.636058
3779.211789,842.705048,1110.308913,9178.553681
3779.212104,536.266849,1554.432478,9178.553681
3779.212419,306.438199,1776.494261,9326.594869
3779.212733,383.047749,962.267725,9030.512492
3779.213048,0.000000,592.164754,9844.739029
3779.213363,-536.266849,-222.061783,10362.883188
3779.213677,-612.876398,-370.102971,10584.944971
3779.213992,-612.876398,-370.102971,9992.780217
3779.214307,-306.438199,296.082377,9622.677246
3779.214621,153.219100,666.185348,9474.636058
3779.214936,1149.143247,-0.000000,9992.780217
3779.215251,536.266849,296.082377,10214.842000
3779.215565,383.047749,518.144159,9696.697840
3779.215880,536.266849,444.123565,9696.697840
3779.216195,766.095498,666.185348,9548.656652
3779.216509,766.095498,1258.350101,9474.636058
3779.216824,1072.533697,1406.391290,9178.553681
3779.217139,766.095498,666.185348,9844.739029
3779.217453,612.876398,222.061783,10362.883188
3779.217768,153.219100,-74.020594,9918.759623
3779.218083,306.438199,-444.123565,9992.780217
3779.218397,0.000000,-222.061783,9474.636058
3779.218712,-383.047749,222.061783,9326.594869
3779.219027,76.609550,-444.123565,9992.780217
3779.219341,0.000000,-814.226536,10288.862594
3779.219656,0.000000,-814.226536,10881.027347
3779.219971,-229.828649,-74.020594,10066.800811
3779.220285,0.000000,814.226536,9696.697840
3779.220600,383.047749,1480.411884,9178.553681
3779.220915,1225.752797,1184.329507,7994.224174
3779.221229,1378.971896,-0.000000,8734.430116
3779.221544,1378.971896,-222.061783,8882.471304
3779.221859,383.047749,-222.061783,9252.574275
3779.222173,383.047749,-222.061783,9474.636058
3779.222488,0.000000,-0.000000,9252.574275
3779.222803,-766.095498,-148.041188,9326.594869
3779.223117,-536.266849,-666.185348,9474.636058
3779.223432,-383.047749,-1184.329507,10140.821405
3779.223747,-995.924147,-1184.329507,10881.027347
3779.224061,-842.705048,-444.123565,10362.883188
3779.224376,-306.438199,-222.061783,9992.780217
3779.224691,0.000000,444.123565,9178.553681
3779.225005,919.314598,592.164754,8586.388927
3779.225320,1455.581446,518.144159,7328.038826
3779.225635,1532.190996,-0.000000,7846.182985
3779.225949,1072.533697,-0.000000,9030.512492
3779.226264,306.438199,-222.061783,8956.491898
3779.226579,-306.438199,-370.102971,9548.656652
3779.226893,-1225.752797,-666.185348,10288.862594
3779.227208,-1149.143247,-814.226536,9696.697840
3779.227523,-919.314598,-1332.370696,10584.944971
3779.227837,-766.095498,-1036.288319,10881.027347
3779.228152,-1149.143247,-888.247130,11547.212695
3779.228467,-306.438199,518.144159,9918.759623
3779.228781,-229.828649,1110.308913,9030.512492
3779.229096,536.266849,1998.556043,8216.285956
3779.229411,1378.971896,1184.329507,8290.306550
3779.229725,1838.629195,888.247130,7994.224174
3779.230040,995.924147,-0.000000,9178.553681
3779.230355,153.219100,-0.000000,9400.615463
3779.230669,-306.438199,-592.164754,10362.883188
3779.230984,-842.705048,-0.000000,10288.862594
3779.231299,-842.705048,-74.020594,10436.903782
3779.231613,-1072.533697,-370.102971,10362.883188
3779.231928,-536.266849,-296.082377,10436.903782
3779.232243,-612.876398,-148.041188,10658.965565
3779.232557,0.000000,740.205942,10066.800811
3779.232872,383.047749,1110.308913,9178.553681
3779.233187,766.095498,1702.473667,8364.327145
3779.233501,1915.238745,2072.576638,8438.347739
3779.233816,1685.410096,1110.308913,8068.244768
3779.234131,1378.971896,370.102971,8956.491898
3779.234445,383.047749,-0.000000,10732.986159
3779.234760,0.000000,-0.000000,10066.800811
3779.235075,-383.047749,296.082377,10288.862594
3779.235389,-459.657299,518.144159,10732.986159
3779.235704,-612.876398,370.102971,10214.842000
3779.236019,0.000000,-0.000000,9770.718434
3779.236333,-383.047749,-74.020594,9770.718434
3779.236648,0.000000,148.041188,9770.718434
3779.236963,536.266849,296.082377,9400.615463
3779.237277,995.924147,370.102971,8438.347739
3779.237592,1072.533697,740.205942,8586.388927
3779.237907,536.266849,592.164754,8734.430116
3779.238221,383.047749,-0.000000,9400.615463
3779.238536,76.609550,518.144159,10807.006753
3779.238851,-459.657299,370.102971,10807.006753
3779.239165,-612.876398,296.082377,10881.027347
3779.239480,-306.438199,444.123565,10140.821405
3779.239795,-153.219100,518.144159,10140.821405
3779.240109,-153.219100,370.102971,10140.821405
3779.240424,0.000000,740.205942,10066.800811
3779.240739,76.609550,888.247130,9918.759623
3779.241053,689.485948,444.123565,9770.718434
3779.241368,1225.752797,222.061783,9030.512492
3779.241683,842.705048,518.144159,8808.450710
3779.241997,612.876398,296.082377,8586.388927
3779.242312,306.438199,-444.123565,9622.677246
3779.242627,-229.828649,-74.020594,9918.759623
3779.242941,-306.438199,-444.123565,10214.842000
3779.243256,-153.219100,-518.144159,10362.883188
3779.243571,-459.657299,-148.041188,9474.636058
3779.243885,0.000000,370.102971,8956.491898
3779.244200,0.000000,592.164754,9104.533087
3779.244515,153.219100,-74.020594,9400.615463
3779.244829,153.219100,-222.061783,9770.718434
3779.245144,0.000000,-296.082377,9918.759623
3779.245459,0.000000,-370.102971,9770.718434
3779.245773,459.657299,-148.041188,9770.718434
3779.246088,0.000000,296.082377,9252.574275
3779.246402,612.876398,296.082377,9326.594869
3779.246717,383.047749,222.061783,9696.697840
3779.247032,76.609550,-0.000000,9548.656652
3779.247346,-306.438199,-592.164754,9474.636058
3779.247661,76.609550,-592.164754,9400.615463
3779.247975,0.000000,-74.020594,8808.450710
3779.248290,229.828649,-0.000000,8734.430116
3779.248605,306.438199,-740.205942,8808.450710
3779.248919,0.000000,-1036.288319,9992.780217
3779.249234,-536.266849,-814.226536,10436.903782
3779.249548,-612.876398,-962.267725,10436.903782
3779.249863,-459.657299,-444.123565,10288.862594
3779.250178,-306.438199,444.123565,9696.697840
3779.250492,153.219100,1110.308913,9326.594869
3779.250807,536.266849,1110.308913,9548.656652
3779.251121,76.609550,518.144159,9918.759623
3779.251436,383.047749,592.164754,9474.636058
3779.251751,766.095498,444.123565,9178.553681
3779.252065,612.876398,888.247130,8660.409521
3779.252380,153.219100,666.185348,8808.450710
3779.252694,76.609550,-74.020594,9400.615463
3779.253009,-306.438199,-1258.350101,10362.883188
3779.253323,-842.705048,-1332.370696,11177.109724
3779.253638,-1608.800546,-1184.329507,11029.068536
3779.253953,-995.924147,-740.205942,10807.006753
3779.254267,-612.876398,666.185348,10288.862594
3779.254582,-383.047749,1850.514855,9178.553681
3779.254896,536.266849,1258.350101,9030.512492
3779.255211,1762.019645,666.185348,9030.512492
3779.255526,1378.971896,888.247130,8808.450710
3779.255840,1225.752797,962.267725,8290.306550
3779.256155,919.314598,1110.308913,8438.347739
3779.256469,306.438199,740.205942,9178.553681
3779.256784,0.000000,370.102971,9104.533087
3779.257099,0.000000,-444.123565,10362.883188
3779.257413,-842.705048,-888.247130,11473.192101
3779.257728,-1532.190996,-518.144159,11473.192101
3779.258042,-1302.362347,-592.164754,10807.006753
3779.258357,-919.314598,666.185348,10066.800811
3779.258672,0.000000,666.185348,9474.636058
3779.258986,689.485948,592.164754,8290.306550
3779.259301,1608.800546,296.082377,8068.244768
3779.259615,1378.971896,592.164754,9178.553681
3779.259930,1532.190996,518.144159,8660.409521
3779.260245,612.876398,888.247130,8808.450710
3779.260559,459.657299,1036.288319,8956.491898
3779.260874,0.000000,444.123565,9178.553681
3779.261188,383.047749,-444.123565,9844.739029
3779.261503,-229.828649,-1036.288319,10807.006753
3779.261818,-919.314598,-592.164754,11251.130318
3779.262132,-766.095498,-296.082377,10807.006753
3779.262447,-536.266849,296.082377,9992.780217
3779.262761,76.609550,1110.308913,9622.677246
3779.263076,689.485948,1406.391290,8660.409521
3779.263391,1685.410096,962.267725,8290.306550
3779.263705,2068.457845,222.061783,8956.491898
3779.264020,1225.752797,222.061783,9104.533087
3779.264334,995.924147,148.041188,9030.512492
3779.264649,689.485948,-0.000000,9918.759623
3779.264964,0.000000,592.164754,9696.697840
3779.265278,0.000000,296.082377,9770.718434
3779.265593,383.047749,-518.144159,10066.800811
3779.265907,-612.876398,-444.123565,10288.862594
3779.266222,-689.485948,-0.000000,10955.047942
3779.266537,-995.924147,-0.000000,9548.656652
3779.266851,-536.266849,-0.000000,9400.615463
3779.267166,536.266849,-0.000000,8808.450710
3779.267480,1072.533697,-0.000000,8586.388927
3779.267795,1455.581446,444.123565,9178.553681
3779.268110,995.924147,-74.020594,10140.821405
3779.268424,306.438199,444.123565,9696.697840
3779.268739,153.219100,-0.000000,9474.636058
3779.269053,153.219100,814.226536,9696.697840
3779.269368,153.219100,1036.288319,9844.739029
3779.269683,-306.438199,-0.000000,9474.636058
3779.269997,-459.657299,-814.226536,10066.800811
3779.270312,-153.219100,-814.226536,10658.965565
3779.270626,-459.657299,-518.144159,10288.862594
3779.270941,-536.266849,-74.020594,9474.636058
3779.271256,0.000000,-0.000000,9326.594869
3779.271570,153.219100,296.082377,8808.450710
3779.271885,766.095498,-296.082377,8882.471304
3779.272199,689.485948,-296.082377,9548.656652
3779.272514,-459.657299,-222.061783,10140.821405
3779.272829,-689.485948,-148.041188,9918.759623
3779.273143,-229.828649,518.144159,9326.594869
3779.273458,-536.266849,296.082377,9548.656652
3779.273772,76.609550,444.123565,9252.574275
3779.274087,306.438199,-0.000000,8882.471304
3779.274402,0.000000,-370.102971,9326.594869
3779.274716,0.000000,-148.041188,10066.800811
3779.275031,-229.828649,-74.020594,9474.636058
3779.275345,0.000000,-74.020594,9400.615463
3779.275660,-229.828649,370.102971,9178.553681
3779.275975,0.000000,-0.000000,9622.677246
3779.276289,0.000000,-148.041188,9992.780217
3779.276604,-306.438199,-0.000000,10658.965565
3779.276918,-459.657299,888.247130,10955.047942
3779.277233,-306.438199,1184.329507,9770.718434
3779.277548,0.000000,1184.329507,9474.636058
3779.277862,-383.047749,1332.370696,8512.368333
3779.278177,766.095498,-0.000000,8882.471304
3779.278491,1072.533697,-0.000000,9030.512492
3779.278806,306.438199,-0.000000,9474.636058
3779.279121,76.609550,-444.123565,10214.842000
3779.279435,0.000000,-296.082377,9474.636058
3779.279750,0.000000,148.041188,9696.697840
3779.280064,0.000000,222.061783,9474.636058
3779.280379,0.000000,-222.061783,10584.944971
3779.280694,0.000000,444.123565,10658.965565
3779.281008,-459.657299,518.144159,10214.842000
3779.281323,153.219100,962.267725,9326.594869
3779.281637,536.266849,740.205942,8956.491898
3779.281952,612.876398,1480.411884,8512.368333
3779.282266,1225.752797,814.226536,8956.491898
3779.282581,1685.410096,-0.000000,9252.574275
3779.282896,689.485948,222.061783,10584.944971
3779.283210,0.000000,-74.020594,11325.150913
3779.283525,0.000000,-148.041188,10362.883188
3779.283839,-612.876398,-0.000000,10436.903782
3779.284154,0.000000,518.144159,10066.800811
3779.284469,153.219100,-296.082377,9844.739029
3779.284783,0.000000,370.102971,9844.739029
3779.285098,0.000000,-222.061783,9992.780217
3779.285412,0.000000,-0.000000,9030.512492
3779.285727,919.314598,296.082377,9178.553681
3779.286042,1072.533697,592.164754,8512.368333
3779.286356,1225.752797,444.123565,8364.327145
3779.286671,1225.752797,-0.000000,8734.430116
3779.286985,383.047749,-666.185348,10066.800811
3779.287300,-306.438199,-592.164754,9992.780217
3779.287615,-536.266849,-444.123565,10658.965565
3779.287929,-1149.143247,-518.144159,10732.986159
3779.288244,-1149.143247,444.123565,9696.697840
3779.288558,-383.047749,296.082377,9622.677246
3779.288873,229.828649,-0.000000,9474.636058
3779.289188,383.047749,-74.020594,9844.739029
3779.289502,153.219100,444.123565,9326.594869
3779.289817,766.095498,296.082377,8438.347739
3779.290131,383.047749,888.247130,8734.430116
3779.290446,459.657299,740.205942,8364.327145
3779.290761,766.095498,-0.000000,8512.368333
3779.291075,919.314598,-666.185348,9696.697840
3779.291390,0.000000,-592.164754,10288.862594
3779.291704,-842.705048,-222.061783,9992.780217
3779.292019,-919.314598,-518.144159,9696.697840
3779.292334,-919.314598,444.123565,9474.636058
3779.292648,0.000000,296.082377,9326.594869
3779.292963,76.609550,370.102971,8956.491898
3779.293277,0.000000,-74.020594,9252.574275
3779.293592,306.438199,-222.061783,9548.656652
3779.293907,229.828649,148.041188,9770.718434
3779.294221,229.828649,296.082377,9548.656652
3779.294536,306.438199,296.082377,9326.594869
3779.294850,0.000000,370.102971,9326.594869
3779.295165,306.438199,-148.041188,9770.718434
3779.295480,0.000000,-0.000000,10658.965565
3779.295794,-689.485948,222.061783,10510.924376
3779.296109,-766.095498,370.102971,9622.677246
3779.296423,-612.876398,888.247130,9474.636058
3779.296738,0.000000,814.226536,8956.491898
3779.297053,306.438199,-74.020594,8660.409521
3779.297367,842.705048,-888.247130,9622.677246
3779.297682,229.828649,-592.164754,9918.759623
3779.297996,-229.828649,-0.000000,10362.883188
3779.298311,76.609550,666.185348,9918.759623
3779.298626,76.609550,740.205942,9770.718434
3779.298940,0.000000,1554.432478,9326.594869
3779.299255,612.876398,814.226536,9400.615463
3779.299569,766.095498,518.144159,9844.739029
3779.299884,306.438199,370.102971,10362.883188
3779.300199,459.657299,518.144159,9918.759623
3779.300513,306.438199,740.205942,9030.512492
3779.300828,1225.752797,1184.329507,9030.512492
3779.301142,306.438199,444.123565,9326.594869
3779.301457,383.047749,-666.185348,9696.697840
3779.301772,0.000000,-814.226536,10362.883188
3779.302086,-612.876398,-962.267725,10881.027347
3779.302401,-766.095498,-370.102971,10807.006753
3779.302715,-229.828649,-0.000000,10584.944971
3779.303030,-306.438199,888.247130,10140.821405
3779.303345,306.438199,666.185348,9622.677246
3779.303659,689.485948,296.082377,9474.636058
3779.303974,689.485948,666.185348,9326.594869
3779.304288,689.485948,666.185348,9400.615463
3779.304603,919.314598,962.267725,8364.327145
3779.304918,306.438199,592.164754,8734.430116
3779.305232,0.000000,-0.000000,8734.430116
3779.305547,229.828649,-1036.288319,8956.491898
3779.305861,-459.657299,-1924.535449,10288.862594
3779.306176,-1225.752797,-1480.411884,11325.150913
3779.306491,-1838.629195,-740.205942,11473.192101
3779.306805,-1455.581446,-444.123565,10510.924376
3779.307120,-1072.533697,-0.000000,10362.883188
3779.307434,-229.828649,518.144159,9030.512492
3779.307749,1072.533697,-0.000000,8882.471304
3779.308064,1378.971896,370.102971,9030.512492
3779.308378,995.924147,-296.082377,8808.450710
3779.308693,1685.410096,444.123565,8290.306550
3779.309007,1608.800546,592.164754,7846.182985
3779.309322,1149.143247,888.247130,7920.203579
3779.309636,689.485948,-518.144159,8882.471304
3779.309951,229.828649,-1776.494261,9918.759623
3779.310266,-383.047749,-1258.350101,10807.006753
3779.310580,-1072.533697,-1110.308913,10955.047942
3779.310895,-995.924147,-1110.308913,10955.047942
3779.311209,-766.095498,-518.144159,10066.800811
3779.311524,153.219100,74.020594,9252.574275
3779.311839,919.314598,666.185348,9030.512492
3779.312153,1685.410096,222.061783,8586.388927
3779.312468,1762.019645,1036.288319,8882.471304
3779.312782,1991.848295,1332.370696,8438.347739
3779.313097,1685.410096,1406.391290,8068.244768
3779.313412,1532.190996,888.247130,8808.450710
3779.313726,689.485948,666.185348,9474.636058
3779.314041,536.266849,-222.061783,9918.759623
3779.314355,0.000000,-814.226536,10732.986159
3779.314670,-689.485948,-444.123565,11177.109724
3779.314985,-1225.752797,-222.061783,10658.965565
3779.315299,-1302.362347,222.061783,10066.800811
3779.315614,-612.876398,-0.000000,9770.718434
3779.315928,459.657299,444.123565,9400.615463
3779.316243,383.047749,-0.000000,8586.388927
3779.316558,1302.362347,888.247130,9030.512492
3779.316872,1149.143247,888.247130,9030.512492
3779.317187,919.314598,814.226536,9696.697840
3779.317501,995.924147,1332.370696,9400.615463
3779.317816,459.657299,1924.535449,9400.615463
3779.318131,306.438199,1480.411884,9474.636058
3779.318445,0.000000,148.041188,9696.697840
3779.318760,-536.266849,-0.000000,10807.006753
3779.319074,-1225.752797,-370.102971,10881.027347
3779.319389,-1149.143247,-296.082377,10807.006753
3779.319704,-919.314598,-0.000000,10066.800811
3779.320018,-842.705048,518.144159,9918.759623
3779.320333,76.609550,-0.000000,9770.718434
3779.320647,229.828649,-148.041188,9918.759623
3779.320962,0.000000,962.267725,9326.594869
3779.321277,536.266849,740.205942,9770.718434
3779.321591,612.876398,1258.350101,9400.615463
3779.321906,459.657299,1850.514855,9178.553681
3779.322220,842.705048,1406.391290,8808.450710
3779.322535,689.485948,666.185348,9770.718434
3779.322850,153.219100,444.123565,9992.780217
3779.323164,-383.047749,-222.061783,10510.924376
3779.323479,-306.438199,148.041188,9844.739029
3779.323793,-306.438199,-74.020594,9622.677246
3779.324108,-689.485948,-0.000000,9474.636058
3779.324423,-459.657299,-74.020594,10066.800811
3779.324737,-459.657299,-518.144159,10066.800811
3779.325052,-689.485948,-888.247130,10881.027347
3779.325366,-153.219100,74.020594,10066.800811
3779.325681,153.219100,518.144159,9548.656652
3779.325996,383.047749,1258.350101,9178.553681
3779.326310,766.095498,1702.473667,8882.471304
3779.326625,1149.143247,962.267725,8216.285956
3779.326939,1149.143247,148.041188,9030.512492
3779.327254,1149.143247,-74.020594,9400.615463
3779.327569,689.485948,-518.144159,9474.636058
3779.327883,76.609550,-888.247130,9326.594869
3779.328198,-229.828649,-962.267725,9548.656652
3779.328512,-459.657299,-814.226536,10288.862594
3779.328827,-459.657299,-1258.350101,9992.780217
3779.329142,-153.219100,-1258.350101,10955.047942
3779.329456,-153.219100,-592.164754,10288.862594
3779.329771,306.438199,-518.144159,9844.739029
3779.330085,612.876398,-222.061783,9252.574275
3779.330400,766.095498,814.226536,8290.306550
3779.330715,1072.533697,444.123565,8216.285956
3779.331029,1455.581446,-444.123565,7698.141797
3779.331344,1072.533697,-888.247130,8956.491898
3779.331658,459.657299,-962.267725,9252.574275
3779.331973,229.828649,-962.267725,9622.677246
3779.332288,-459.657299,-666.185348,9548.656652
3779.332602,-995.924147,-666.185348,9918.759623
3779.332917,-842.705048,-666.185348,10436.903782
3779.333231,-919.314598,-1776.494261,10732.986159
3779.333546,-689.485948,-1110.308913,10584.944971
3779.333861,0.000000,-222.061783,10362.883188
3779.334175,-306.438199,814.226536,9252.574275
3779.334490,306.438199,1184.329507,8808.450710
3779.334804,1149.143247,1628.453072,7550.100608
3779.335119,1838.629195,814.226536,7994.224174
3779.335434,1302.362347,-0.000000,8808.450710
3779.335748,536.266849,-74.020594,9622.677246
3779.336063,0.000000,-74.020594,9918.759623
3779.336377,-689.485948,222.061783,10140.821405
3779.336692,-1225.752797,-0.000000,10732.986159
3779.337007,-1072.533697,-74.020594,10658.965565
3779.337321,-995.924147,-0.000000,10436.903782
3779.337636,-842.705048,-74.020594,10584.944971
3779.337950,0.000000,444.123565,10362.883188
3779.338265,229.828649,814.226536,8882.471304
3779.338579,536.266849,1480.411884,7920.203579
3779.338894,1455.581446,1258.350101,8068.244768
3779.339209,995.924147,962.267725,8364.327145
3779.339523,995.924147,592.164754,8882.471304
3779.339838,0.000000,444.123565,10288.862594
3779.340152,-919.314598,370.102971,11325.150913
3779.340467,-1149.143247,-0.000000,10658.965565
3779.340782,-1072.533697,370.102971,11325.150913
3779.341096,-1378.971896,1036.288319,10807.006753
3779.341411,-842.705048,592.164754,10584.944971
3779.341725,-383.047749,148.041188,10362.883188
3779.342040,76.609550,666.185348,10140.821405
3779.342355,306.438199,1184.329507,9474.636058
3779.342669,919.314598,1110.308913,8956.491898
3779.342984,1302.362347,1406.391290,8808.450710
3779.343298,766.095498,1332.370696,8216.285956
3779.343613,1072.533697,-0.000000,8882.471304
3779.343927,536.266849,-592.164754,9992.780217
3779.344242,-306.438199,-740.205942,10436.903782
3779.344556,-459.657299,-666.185348,10881.027347
3779.344871,-1149.143247,222.061783,10584.944971
3779.345185,-612.876398,-0.000000,10510.924376
3779.345500,0.000000,592.164754,9474.636058
3779.345815,536.266849,444.123565,9178.553681
3779.346129,766.095498,518.144159,9252.574275
3779.346444,612.876398,370.102971,9474.636058
3779.346758,1225.752797,666.185348,9178.553681
3779.347073,1302.362347,814.226536,8734.430116
3779.347387,1225.752797,1332.370696,8290.306550
3779.347702,919.314598,592.164754,8882.471304
3779.348016,459.657299,-74.020594,9474.636058
3779.348331,383.047749,-0.000000,10066.800811
3779.348645,-459.657299,-222.061783,9622.677246
3779.348960,-383.047749,-592.164754,9474.636058
3779.349274,-689.485948,-222.061783,9474.636058
3779.349589,0.000000,-296.082377,8808.450710
3779.349903,0.000000,-888.247130,8956.491898
3779.350218,0.000000,-1036.288319,9474.636058
3779.350532,76.609550,-666.185348,9770.718434
3779.350847,229.828649,-444.123565,9696.697840
3779.351161,153.219100,-74.020594,9622.677246
3779.351476,306.438199,666.185348,9030.512492
3779.351791,536.266849,740.205942,8882.471304
3779.352105,842.705048,-0.000000,9178.553681
3779.352420,842.705048,-296.082377,9844.739029
3779.352734,0.000000,-148.041188,9696.697840
3779.353049,-306.438199,-296.082377,9104.533087
3779.353363,-229.828649,-0.000000,9252.574275
3779.353678,-459.657299,-0.000000,9622.677246
3779.353992,-383.047749,-888.247130,9474.636058
3779.354307,-459.657299,-2146.597232,10584.944971
3779.354621,-689.485948,-1332.370696,10436.903782
3779.354936,-612.876398,-666.185348,10510.924376
3779.355250,-536.266849,-444.123565,10510.924376
3779.355565,0.000000,222.061783,9992.780217
3779.355879,0.000000,1184.329507,9252.574275
3779.356194,306.438199,1110.308913,8808.450710
3779.356508,995.924147,888.247130,9178.553681
3779.356823,689.485948,814.226536,9474.636058
3779.357137,536.266849,666.185348,9474.636058
3779.357452,306.438199,740.205942,9178.553681
3779.357767,153.219100,518.144159,9474.636058
3779.358081,-229.828649,-148.041188,9992.780217
3779.358396,-383.047749,-740.205942,10510.924376
3779.358710,-383.047749,-888.247130,10955.047942
3779.359025,-842.705048,-222.061783,11177.109724
3779.359339,-995.924147,592.164754,10288.862594
3779.359654,-689.485948,962.267725,9992.780217
3779.359968,76.609550,1702.473667,9030.512492
3779.360283,842.705048,1332.370696,8512.368333
3779.360597,1302.362347,370.102971,8438.347739
3779.360912,1378.971896,740.205942,8512.368333
3779.361226,995.924147,962.267725,8808.450710
3779.361541,919.314598,666.185348,8512.368333
3779.361855,153.219100,296.082377,8882.471304
3779.362170,0.000000,518.144159,9178.553681
3779.362484,-383.047749,-814.226536,10214.842000
3779.362799,-459.657299,-1554.432478,10955.047942
3779.363114,-1149.143247,-962.267725,11325.150913
3779.363428,-1608.800546,-518.144159,11399.171507
3779.363743,-1149.143247,-74.020594,10066.800811
3779.364057,-459.657299,444.123565,9326.594869
3779.364372,689.485948,962.267725,8734.430116
3779.364686,1455.581446,1110.308913,8438.347739
3779.365001,1991.848295,1110.308913,7846.182985
3779.365315,1532.190996,1480.411884,8586.388927
3779.365630,1455.581446,888.247130,9104.533087
3779.365944,766.095498,-0.000000,9326.594869
3779.366259,689.485948,148.041188,9918.759623
3779.366573,536.266849,-370.102971,10140.821405
3779.366888,-536.266849,-444.123565,10436.903782
3779.367202,-919.314598,-296.082377,11251.130318
3779.367517,-1608.800546,370.102971,11103.089130
3779.367831,-766.095498,370.102971,10362.883188
3779.368146,-383.047749,962.267725,9400.615463
3779.368460,459.657299,888.247130,8586.388927
3779.368775,1685.410096,1332.370696,8290.306550
3779.369090,1838.629195,518.144159,8734.430116
3779.369404,1838.629195,592.164754,9474.636058
3779.369719,1072.533697,148.041188,9992.780217
3779.370033,383.047749,444.123565,9622.677246
3779.370348,383.047749,518.144159,9622.677246
3779.370662,0.000000,962.267725,9918.759623
3779.370977,-536.266849,592.164754,9918.759623
3779.371291,-995.924147,-592.164754,10881.027347
3779.371606,-1225.752797,-444.123565,10288.862594
3779.371920,-1072.533697,-592.164754,10214.842000
3779.372235,-536.266849,-148.041188,9252.574275
3779.372549,229.828649,-222.061783,9696.697840
3779.372864,689.485948,518.144159,9104.533087
3779.373178,1072.533697,-222.061783,9178.553681
3779.373493,689.485948,-222.061783,9400.615463
3779.373807,459.657299,-518.144159,10362.883188
3779.374122,76.609550,-296.082377,9770.718434
3779.374436,0.000000,-0.000000,9622.677246
3779.374751,-612.876398,370.102971,9770.718434
3779.375066,0.000000,-0.000000,9252.574275
3779.375380,306.438199,-666.185348,9474.636058
3779.375695,76.609550,-1036.288319,9918.759623
3779.376009,-229.828649,-296.082377,9474.636058
3779.376324,0.000000,-518.144159,9474.636058
3779.376638,153.219100,-222.061783,9178.553681
3779.376953,0.000000,-296.082377,9104.533087
3779.377267,612.876398,-222.061783,9252.574275
3779.377582,383.047749,-1036.288319,9844.739029
3779.377896,76.609550,-296.082377,10362.883188
3779.378211,76.609550,296.082377,9918.759623
3779.378525,76.609550,592.164754,10436.903782
3779.378840,229.828649,888.247130,9548.656652
3779.379154,459.657299,1258.350101,8734.430116
3779.379469,536.266849,518.144159,8290.306550
3779.379783,459.657299,-222.061783,8956.491898
3779.380098,76.609550,-518.144159,9400.615463
3779.380412,0.000000,-962.267725,9104.533087
3779.380727,-383.047749,-296.082377,8512.368333
3779.381042,-306.438199,222.061783,8734.430116
3779.381356,0.000000,-0.000000,9474.636058
3779.381671,-536.266849,-222.061783,9770.718434
3779.381985,-842.705048,-740.205942,11251.130318
3779.382300,-766.095498,-0.000000,10066.800811
3779.382614,-689.485948,518.144159,10066.800811
3779.382929,-229.828649,1628.453072,9696.697840
3779.383243,153.219100,1850.514855,8956.491898
3779.383558,919.314598,1258.350101,7772.162391
3779.383872,1149.143247,296.082377,8956.491898
3779.384187,995.924147,-74.020594,9326.594869
3779.384501,229.828649,-222.061783,9770.718434
3779.384816,0.000000,222.061783,10510.924376
3779.385130,-1072.533697,-148.041188,9844.739029
3779.385445,-766.095498,-148.041188,9992.780217
3779.385759,-612.876398,-592.164754,10436.903782
3779.386074,-459.657299,-740.205942,11177.109724
3779.386388,-306.438199,-444.123565,10658.965565
3779.386703,-306.438199,518.144159,9696.697840
3779.387018,229.828649,1554.432478,9474.636058
3779.387332,612.876398,2072.576638,9252.574275
3779.387647,1149.143247,1702.473667,8882.471304
3779.387961,1532.190996,740.205942,9252.574275
3779.388276,1378.971896,-0.000000,10066.800811
3779.388590,689.485948,444.123565,10436.903782
3779.388905,-229.828649,444.123565,11103.089130
3779.389219,-689.485948,888.247130,11029.068536
3779.389534,-1378.971896,518.144159,10436.903782
3779.389848,-459.657299,666.185348,10362.883188
3779.390163,-229.828649,444.123565,10288.862594
3779.390477,0.000000,222.061783,10436.903782
3779.390792,0.000000,592.164754,9770.718434
3779.391106,0.000000,814.226536,8808.450710
3779.391421,1072.533697,814.226536,8512.368333
3779.391735,842.705048,740.205942,8364.327145
3779.392050,1378.971896,370.102971,8956.491898
3779.392364,1072.533697,-148.041188,9548.656652
3779.392679,0.000000,-148.041188,9696.697840
3779.392994,-306.438199,296.082377,10066.800811
3779.393308,-459.657299,148.041188,9770.718434
3779.393623,-536.266849,-74.020594,9622.677246
3779.393937,0.000000,-222.061783,9474.636058
3779.394252,536.266849,-296.082377,8882.471304
3779.394566,842.705048,-296.082377,9474.636058
3779.394881,153.219100,222.061783,9252.574275
3779.395195,536.266849,-74.020594,8660.409521
3779.395510,459.657299,-222.061783,8438.347739
3779.395824,536.266849,148.041188,8290.306550
3779.396139,612.876398,-296.082377,8438.347739
3779.396453,612.876398,-888.247130,9474.636058
3779.396768,689.485948,-1036.288319,9992.780217
3779.397082,-306.438199,-296.082377,10140.821405
3779.397397,-229.828649,-296.082377,9622.677246
3779.397711,-306.438199,-0.000000,9622.677246
3779.398026,76.609550,444.123565,9474.636058
3779.398340,229.828649,-0.000000,8882.471304
3779.398655,229.828649,-0.000000,9400.615463
3779.398970,0.000000,-0.000000,9844.739029
3779.399284,-306.438199,-444.123565,9992.780217
3779.399599,0.000000,-592.164754,9548.656652
3779.399913,-306.438199,-0.000000,9696.697840
3779.400228,0.000000,-0.000000,9696.697840
3779.400542,0.000000,148.041188,9844.739029
3779.400857,0.000000,444.123565,10214.842000
3779.401171,-383.047749,1036.288319,10288.862594
3779.401486,0.000000,814.226536,9992.780217
3779.401800,153.219100,1110.308913,9104.533087
3779.402115,306.438199,1184.329507,8438.347739
3779.402429,919.314598,814.226536,8438.347739
3779.402744,842.705048,-74.020594,9104.533087
3779.403058,383.047749,-740.205942,9474.636058
3779.403373,0.000000,-0.000000,10214.842000
3779.403687,-383.047749,-74.020594,10362.883188
3779.404002,-766.095498,-0.000000,9992.780217
3779.404317,-612.876398,444.123565,9844.739029
3779.404631,0.000000,-0.000000,10140.821405
3779.404946,0.000000,148.041188,10140.821405
3779.405260,229.828649,-0.000000,10436.903782
3779.405575,306.438199,518.144159,10214.842000
3779.405889,1225.752797,518.144159,9178.553681
3779.406204,536.266849,1258.350101,8660.409521
3779.406518,689.485948,1480.411884,8586.388927
3779.406833,1225.752797,370.102971,9030.512492
3779.407147,689.485948,-518.144159,9770.718434
3779.407462,153.219100,-666.185348,10584.944971
3779.407776,-995.924147,-740.205942,10955.047942
3779.408091,-842.705048,-592.164754,10807.006753
3779.408405,-766.095498,-222.061783,10510.924376
3779.408720,-536.266849,444.123565,9770.718434
3779.409034,153.219100,-0.000000,9992.780217
3779.409349,536.266849,148.041188,9770.718434
3779.409663,689.485948,-0.000000,9252.574275
3779.409978,1225.752797,666.185348,8734.430116
3779.410293,1302.362347,962.267725,8364.327145
3779.410607,919.314598,740.205942,8512.368333
3779.410922,842.705048,222.061783,8512.368333
3779.411236,459.657299,-740.205942,9992.780217
3779.411551,-229.828649,-1554.432478,10510.924376
3779.411865,-1072.533697,-1110.308913,10510.924376
3779.412180,-1149.143247,-444.123565,10362.883188
3779.412494,-1149.143247,-518.144159,10584.944971
3779.412809,-536.266849,222.061783,9770.718434
3779.413123,76.609550,-0.000000,8734.430116
3779.413438,612.876398,222.061783,9326.594869
3779.413752,766.095498,74.020594,8438.347739
3779.414067,1685.410096,222.061783,7994.224174
3779.414381,1685.410096,444.123565,7920.203579
3779.414696,995.924147,740.205942,7994.224174
3779.415010,1072.533697,148.041188,8364.327145
3779.415325,383.047749,-444.123565,9474.636058
3779.415639,0.000000,-1036.288319,10066.800811
3779.415954,-842.705048,-1258.350101,10362.883188
3779.416269,-1302.362347,-888.247130,10214.842000
3779.416583,-1608.800546,-148.041188,10140.821405
3779.416898,-919.314598,-0.000000,9770.718434
3779.417212,-306.438199,74.020594,9104.533087
3779.417527,766.095498,-222.061783,8660.409521
3779.417841,995.924147,-0.000000,8882.471304
3779.418156,995.924147,370.102971,9178.553681
3779.418470,995.924147,962.267725,9030.512492
3779.418785,689.485948,666.185348,9474.636058
3779.419099,689.485948,1332.370696,9178.553681
3779.419414,383.047749,814.226536,9326.594869
3779.419728,0.000000,-74.020594,10955.047942
3779.420043,-612.876398,-148.041188,11177.109724
3779.420357,-919.314598,-74.020594,11177.109724
3779.420672,-1072.533697,-518.144159,10436.903782
3779.420986,-612.876398,148.041188,10362.883188
3779.421301,0.000000,666.185348,9548.656652
3779.421615,766.095498,666.185348,9548.656652
3779.421930,612.876398,740.205942,9548.656652
3779.422245,689.485948,592.164754,9548.656652
3779.422559,995.924147,1036.288319,9326.594869
3779.422874,612.876398,1184.329507,9918.759623
3779.423188,229.828649,888.247130,9918.759623
3779.423503,0.000000,1036.288319,9178.553681
3779.423817,76.609550,148.041188,10066.800811
3779.424132,-766.095498,-74.020594,11103.089130
3779.424446,-919.314598,-296.082377,10881.027347
3779.424761,-995.924147,-0.000000,9918.759623
3779.425075,-1302.362347,296.082377,9918.759623
3779.425390,-536.266849,666.185348,9474.636058
3779.425704,229.828649,148.041188,9252.574275
3779.426019,612.876398,-0.000000,9474.636058
3779.426333,229.828649,-0.000000,9474.636058
3779.426648,842.705048,370.102971,9770.718434
3779.426962,842.705048,666.185348,8956.491898
3779.427277,459.657299,740.205942,9696.697840
3779.427591,76.609550,666.185348,9030.512492
3779.427906,306.438199,370.102971,8142.265362
3779.428221,153.219100,-222.061783,8956.491898
3779.428535,0.000000,-444.123565,9548.656652
3779.428850,-229.828649,-592.164754,9474.636058
3779.429164,-153.219100,-592.164754,9400.615463
3779.429479,-766.095498,-0.000000,9548.656652
3779.429793,383.047749,-370.102971,9326.594869
3779.430108,0.000000,-740.205942,9918.759623
3779.430422,76.609550,-296.082377,10214.842000
3779.430737,0.000000,-370.102971,10732.986159
3779.431051,0.000000,-0.000000,9622.677246
3779.431366,229.828649,444.123565,9548.656652
3779.431680,919.314598,1184.329507,8882.471304
3779.431995,995.924147,1258.350101,8142.265362
3779.432309,1072.533697,-0.000000,8438.347739
3779.432624,995.924147,-518.144159,9252.574275
3779.432938,0.000000,-888.247130,9548.656652
3779.433253,0.000000,-888.247130,9400.615463
3779.433567,-536.266849,-740.205942,9474.636058
3779.433882,-842.705048,-592.164754,9992.780217
3779.434197,-306.438199,-962.267725,9918.759623
3779.434511,-612.876398,-1406.391290,10288.862594
3779.434826,-536.266849,-1110.308913,11177.109724
3779.435140,-306.438199,-444.123565,10362.883188
3779.435455,0.000000,370.102971,9474.636058
3779.435769,612.876398,1554.432478,8882.471304
3779.436084,919.314598,1110.308913,7624.121203
3779.436398,1532.190996,592.164754,8660.409521
3779.436713,1302.362347,-0.000000,8586.388927
3779.437027,766.095498,-666.185348,9474.636058
3779.437342,0.000000,-888.247130,9548.656652
3779.437656,-536.266849,-592.164754,9770.718434
3779.437971,-1149.143247,-148.041188,10510.924376
3779.438285,-1455.581446,-814.226536,10658.965565
3779.438600,-689.485948,-962.267725,10584.944971
3779.438914,-919.314598,-740.205942,10881.027347
3779.439229,-306.438199,-0.000000,10288.862594
3779.439543,383.047749,1110.308913,9474.636058
3779.439858,766.095498,1702.473667,8734.430116
3779.440173,1225.752797,1924.535449,8290.306550
3779.440487,1762.019645,1184.329507,8290.306550
3779.440802,1915.238745,666.185348,8290.306550
3779.441116,1149.143247,-0.000000,9548.656652
3779.441431,-306.438199,296.082377,10436.903782
3779.441745,-842.705048,-0.000000,10288.862594
3779.442060,-842.705048,222.061783,10510.924376
3779.442374,-995.924147,518.144159,10658.965565
3779.442689,-995.924147,444.123565,9992.780217
3779.443003,-842.705048,-222.061783,10732.986159
3779.443318,-689.485948,222.061783,10214.842000
3779.443632,0.000000,518.144159,9548.656652
3779.443947,612.876398,888.247130,8808.450710
3779.444262,689.485948,1332.370696,8660.409521
3779.444576,995.924147,1406.391290,8216.285956
3779.444891,1302.362347,370.102971,8808.450710
3779.445206,689.485948,222.061783,9326.594869
3779.445520,0.000000,-0.000000,10214.842000
3779.445835,-1149.143247,148.041188,10436.903782
3779.446150,-995.924147,-0.000000,10362.883188
3779.446464,-995.924147,666.185348,9844.739029
3779.446779,-766.095498,370.102971,10066.800811
3779.447094,-459.657299,148.041188,9622.677246
3779.447408,153.219100,-0.000000,9918.759623
3779.447723,229.828649,518.144159,10140.821405
3779.448037,766.095498,444.123565,9548.656652
3779.448352,919.314598,1036.288319,8216.285956
3779.448667,1072.533697,1184.329507,7994.224174
3779.448981,1608.800546,592.164754,8512.368333
3779.449296,919.314598,-148.041188,9030.512492
3779.449611,689.485948,-0.000000,9696.697840
3779.449925,-229.828649,-0.000000,10140.821405
3779.450240,-383.047749,-296.082377,10066.800811
3779.450555,-306.438199,-0.000000,10510.924376
3779.450869,-689.485948,592.164754,9474.636058
3779.451184,229.828649,222.061783,9474.636058
3779.451499,229.828649,74.020594,9326.594869
3779.451813,153.219100,-0.000000,9992.780217
3779.452128,766.095498,148.041188,9918.759623
3779.452442,689.485948,592.164754,9400.615463
3779.452757,995.924147,1258.350101,8586.388927
3779.453072,842.705048,1406.391290,8660.409521
3779.453386,1225.752797,222.061783,9992.780217
3779.453701,612.876398,-148.041188,11251.130318
3779.454016,-76.609550,-0.000000,10214.842000
3779.454330,-306.438199,-296.082377,10140.821405
3779.454645,-459.657299,296.082377,10362.883188
3779.454960,76.609550,592.164754,9548.656652
3779.455274,229.828649,-0.000000,9326.594869
3779.455589,229.828649,-1184.329507,9400.615463
3779.455904,229.828649,-1332.370696,10140.821405
3779.456218,153.219100,-962.267725,9770.718434
3779.456533,0.000000,-222.061783,9474.636058
3779.456847,153.219100,-0.000000,10066.800811
3779.457162,153.219100,-0.000000,8956.491898
3779.457477,383.047749,-222.061783,9326.594869
3779.457791,229.828649,-444.123565,9696.697840
3779.458106,0.000000,-518.144159,10140.821405
3779.458421,0.000000,-222.061783,9548.656652
3779.458735,0.000000,-592.164754,9252.574275
3779.459050,0.000000,-148.041188,9252.574275
3779.459365,0.000000,-444.123565,8734.430116
3779.459679,0.000000,-1332.370696,8808.450710
3779.459994,0.000000,-1628.453072,9770.718434
3779.460309,-459.657299,-1332.370696,9918.759623
3779.460623,-459.657299,-962.267725,9918.759623
3779.460938,-766.095498,-370.102971,9400.615463
3779.461252,0.000000,444.123565,9400.615463
3779.461567,0.000000,370.102971,8586.388927
3779.461882,995.924147,-148.041188,9104.533087
3779.462196,689.485948,-74.020594,9474.636058
3779.462511,229.828649,222.061783,8956.491898
3779.462826,536.266849,592.164754,8882.471304
3779.463140,-153.219100,518.144159,8216.285956
3779.463455,76.609550,666.185348,8660.409521
3779.463770,306.438199,-370.102971,9252.574275
3779.464084,-229.828649,-444.123565,9622.677246
3779.464399,-842.705048,-518.144159,11103.089130
3779.464714,-1072.533697,-666.185348,11029.068536
3779.465028,-1149.143247,-148.041188,10140.821405
3779.465343,-612.876398,518.144159,10066.800811
3779.465657,0.000000,1332.370696,9104.533087
3779.465972,842.705048,888.247130,8734.430116
3779.466287,1225.752797,962.267725,8882.471304
3779.466601,1532.190996,1480.411884,8216.285956
3779.466916,1225.752797,1036.288319,8660.409521
3779.467231,383.047749,814.226536,8290.306550
3779.467545,0.000000,518.144159,9622.677246
3779.467860,0.000000,296.082377,9622.677246
3779.468175,-229.828649,-592.164754,10436.903782
3779.468489,-766.095498,-666.185348,11621.233289
3779.468804,-1302.362347,-370.102971,11621.233289
3779.469119,-459.657299,296.082377,11177.109724
3779.469433,-306.438199,962.267725,10362.883188
3779.469748,459.657299,1850.514855,9474.636058
3779.470062,1532.190996,1554.432478,8216.285956
3779.470377,1838.629195,1628.453072,8364.327145
3779.470692,2145.067394,592.164754,9474.636058
3779.471006,1225.752797,814.226536,9178.553681
3779.471321,919.314598,962.267725,9474.636058
3779.471636,612.876398,1036.288319,9844.739029
3779.471950,306.438199,962.267725,9918.759623
3779.472265,0.000000,-74.020594,10807.006753
3779.472580,-383.047749,-74.020594,10732.986159
3779.472894,-1072.533697,-222.061783,11843.295072
3779.473209,-766.095498,-148.041188,11029.068536
3779.473524,-536.266849,370.102971,9918.759623
3779.473838,76.609550,1110.308913,9326.594869
3779.474153,689.485948,1406.391290,8068.244768
3779.474467,1608.800546,962.267725,8734.430116
3779.474782,1685.410096,592.164754,9474.636058
3779.475097,1225.752797,-0.000000,9844.739029
3779.475411,995.924147,222.061783,9918.759623
3779.475726,229.828649,592.164754,9474.636058
3779.476041,-229.828649,740.205942,9770.718434
3779.476355,-536.266849,222.061783,9918.759623
3779.476670,-1149.143247,-666.185348,9696.697840
3779.476985,-612.876398,-740.205942,10436.903782
3779.477299,-995.924147,-1110.308913,9548.656652
3779.477614,-612.876398,-666.185348,9252.574275
3779.477929,0.000000,-444.123565,8438.347739
3779.478243,229.828649,370.102971,9178.553681
3779.478558,536.266849,-222.061783,8956.491898
3779.478872,612.876398,-888.247130,8660.409521
3779.479187,76.609550,-592.164754,9844.739029
3779.479502,0.000000,-740.205942,9696.697840
3779.479816,0.000000,-592.164754,10362.883188
3779.480131,0.000000,592.164754,9622.677246
3779.480446,229.828649,370.102971,9030.512492
3779.480760,459.657299,-0.000000,8956.491898
3779.481075,153.219100,-666.185348,9696.697840
3779.481390,76.609550,-592.164754,9696.697840
3779.481704,-229.828649,-444.123565,9252.574275
3779.482019,0.000000,-444.123565,8808.450710
3779.482334,76.609550,-222.061783,8586.388927
3779.482648,229.828649,-592.164754,9104.533087
3779.482963,536.266849,-518.144159,9918.759623
3779.483277,153.219100,-740.205942,10584.944971
3779.483592,0.000000,-296.082377,9918.759623
3779.483907,-153.219100,-0.000000,10066.800811
3779.484221,0.000000,740.205942,10140.821405
3779.484536,76.609550,1332.370696,9252.574275
3779.484851,76.609550,962.267725,9030.512492
3779.485165,766.095498,370.102971,9178.553681
3779.485480,383.047749,-0.000000,9474.636058
3779.485795,536.266849,-666.185348,9622.677246
3779.486109,0.000000,-0.000000,9992.780217
3779.486424,-229.828649,370.102971,9474.636058
3779.486739,-842.705048,148.041188,9252.574275
3779.487053,-459.657299,-0.000000,9770.718434
3779.487368,-306.438199,-814.226536,10436.903782
3779.487682,-995.924147,-444.123565,10584.944971
3779.487997,-689.485948,-74.020594,10214.842000
3779.488312,-459.657299,740.205942,9474.636058
3779.488626,-383.047749,1628.453072,9400.615463
3779.488941,153.219100,1110.308913,8956.491898
3779.489256,689.485948,370.102971,9104.533087
3779.489570,995.924147,-370.102971,9696.697840
3779.489885,459.657299,148.041188,9918.759623
3779.490200,612.876398,370.102971,10066.800811
3779.490514,306.438199,740.205942,10140.821405
3779.490829,0.000000,962.267725,9696.697840
3779.491144,153.219100,518.144159,10066.800811
3779.491458,229.828649,-0.000000,9992.780217
3779.491773,0.000000,-74.020594,10510.924376
3779.492087,-229.828649,-296.082377,10436.903782
3779.492402,76.609550,222.061783,9474.636058
3779.492717,76.609550,962.267725,8734.430116
3779.493031,459.657299,1184.329507,8660.409521
3779.493346,1378.971896,222.061783,9400.615463
3779.493661,1455.581446,-222.061783,9474.636058
3779.493975,995.924147,-0.000000,10214.842000
3779.494290,306.438199,444.123565,9918.759623
3779.494605,0.000000,666.185348,9770.718434
3779.494919,0.000000,1036.288319,10214.842000
3779.495234,-612.876398,888.247130,9844.739029
3779.495549,-229.828649,-296.082377,10140.821405
3779.495863,0.000000,-370.102971,10288.862594
3779.496178,-383.047749,370.102971,10066.800811
3779.496492,0.000000,296.082377,9400.615463
3779.496807,0.000000,296.082377,8586.388927
3779.497122,306.438199,814.226536,8734.430116
3779.497436,1072.533697,-0.000000,8142.265362
3779.497751,766.095498,-740.205942,9030.512492
3779.498066,306.438199,-666.185348,9696.697840
3779.498380,0.000000,-518.144159,9252.574275
3779.498695,-536.266849,-296.082377,9770.718434
3779.499010,-612.876398,148.041188,9770.718434
3779.499324,-306.438199,-0.000000,9326.594869
3779.499639,229.828649,-444.123565,9030.512492
3779.499954,229.828649,-296.082377,9252.574275
3779.500268,0.000000,-296.082377,9548.656652
3779.500583,306.438199,-0.000000,9252.574275
3779.500897,766.095498,-0.000000,9326.594869
3779.501212,766.095498,296.082377,8956.491898
3779.501527,842.705048,740.205942,8882.471304
3779.501841,1149.143247,-222.061783,9474.636058
3779.502156,689.485948,-370.102971,9844.739029
3779.502471,0.000000,148.041188,10584.944971
3779.502785,-76.609550,518.144159,9474.636058
3779.503100,-229.828649,296.082377,9252.574275
3779.503415,0.000000,814.226536,9104.533087
3779.503729,153.219100,-0.000000,8734.430116
3779.504044,459.657299,-296.082377,9030.512492
3779.504359,229.828649,-296.082377,10214.842000
3779.504673,-459.657299,-74.020594,10140.821405
3779.504988,-306.438199,-74.020594,9918.759623
3779.505302,0.000000,444.123565,9622.677246
3779.505617,153.219100,814.226536,9474.636058
3779.505932,153.219100,370.102971,9844.739029
3779.506246,612.876398,-0.000000,10436.903782
3779.506561,-76.609550,370.102971,10881.027347
3779.506876,-459.657299,740.205942,10362.883188
3779.507190,-383.047749,814.226536,10066.800811
3779.507505,-306.438199,814.226536,9474.636058
3779.507820,0.000000,666.185348,9252.574275
3779.508134,536.266849,-0.000000,8956.491898
3779.508449,459.657299,-592.164754,9474.636058
3779.508764,-153.219100,-740.205942,10436.903782
3779.509078,-536.266849,-74.020594,9696.697840
3779.509393,-995.924147,-592.164754,10214.842000
3779.509707,-689.485948,-0.000000,10066.800811
3779.510022,-536.266849,-518.144159,9696.697840
3779.510337,0.000000,-222.061783,9918.759623
3779.510651,76.609550,-0.000000,10214.842000
3779.510966,0.000000,444.123565,9548.656652
3779.511281,383.047749,740.205942,8956.491898
3779.511595,842.705048,1480.411884,8660.409521
3779.511910,766.095498,666.185348,8216.285956
3779.512225,766.095498,-0.000000,8290.306550
3779.512539,612.876398,-518.144159,8956.491898
3779.512854,76.609550,-888.247130,10140.821405
3779.513169,-842.705048,-592.164754,10732.986159
3779.513483,-1225.752797,-518.144159,10362.883188
3779.513798,-919.314598,-148.041188,10214.842000
3779.514112,-842.705048,-0.000000,9548.656652
3779.514427,153.219100,-0.000000,9474.636058
3779.514742,536.266849,148.041188,9696.697840
3779.515056,536.266849,814.226536,9326.594869
3779.515371,995.924147,1184.329507,8808.450710
3779.515686,1302.362347,740.205942,8290.306550
3779.516000,1225.752797,962.267725,8438.347739
3779.516315,1149.143247,814.226536,7920.203579
3779.516630,766.095498,444.123565,9326.594869
3779.516944,153.219100,-814.226536,10066.800811
3779.517259,-459.657299,-296.082377,10584.944971
3779.517574,-995.924147,-592.164754,10436.903782
3779.517888,-919.314598,-222.061783,11103.089130
3779.518203,-1378.971896,370.102971,10881.027347
3779.518517,-842.705048,962.267725,9326.594869
3779.518832,229.828649,370.102971,9474.636058
3779.519147,459.657299,148.041188,9770.718434
3779.519461,612.876398,370.102971,9474.636058
3779.519776,919.314598,518.144159,8586.388927
3779.520091,919.314598,666.185348,8956.491898
3779.520405,536.266849,888.247130,8216.285956
3779.520720,612.876398,-0.000000,9252.574275
3779.521035,76.609550,-666.185348,10214.842000
3779.521349,-306.438199,-888.247130,10807.006753
3779.521664,-842.705048,-444.123565,10881.027347
3779.521979,-1225.752797,-888.247130,10658.965565
3779.522293,-766.095498,-0.000000,10362.883188
3779.522608,-459.657299,592.164754,9474.636058
3779.522922,459.657299,370.102971,8956.491898
3779.523237,1149.143247,-74.020594,9252.574275
3779.523552,1149.143247,296.082377,8734.430116
3779.523866,1225.752797,740.205942,8808.450710
3779.524181,229.828649,962.267725,9400.615463
3779.524496,306.438199,666.185348,9326.594869
3779.524810,229.828649,444.123565,9474.636058
3779.525125,76.609550,-592.164754,10140.821405
3779.525440,-459.657299,-888.247130,10955.047942
3779.525754,-766.095498,-592.164754,11473.192101
3779.526069,-689.485948,-592.164754,10658.965565
3779.526384,-842.705048,666.185348,9918.759623
3779.526698,153.219100,1554.432478,9548.656652
3779.527013,919.314598,962.267725,8364.327145
3779.527327,1762.019645,370.102971,8882.471304
3779.527642,2145.067394,-0.000000,9104.533087
3779.527957,1225.752797,148.041188,8734.430116
3779.528271,1302.362347,444.123565,9178.553681
3779.528586,1532.190996,1184.329507,9548.656652
3779.528901,229.828649,740.205942,9400.615463
3779.529215,536.266849,-0.000000,9622.677246
3779.529530,153.219100,-370.102971,9992.780217
3779.529845,-383.047749,-222.061783,10658.965565
3779.530159,-459.657299,-518.144159,10732.986159
3779.530474,-229.828649,-0.000000,9918.759623
3779.530789,-229.828649,370.102971,9178.553681
3779.531103,0.000000,-74.020594,9178.553681
3779.531418,766.095498,-592.164754,8956.491898
3779.531732,919.314598,-592.164754,9696.697840
3779.532047,383.047749,-148.041188,10066.800811
3779.532362,0.000000,148.041188,9474.636058
3779.532676,229.828649,518.144159,9622.677246
3779.532991,0.000000,888.247130,9326.594869
3779.533306,766.095498,814.226536,9326.594869
3779.533620,306.438199,-222.061783,9844.739029
3779.533935,0.000000,-444.123565,10066.800811
3779.534250,-306.438199,-444.123565,9696.697840
3779.534564,-229.828649,-444.123565,9326.594869
3779.534879,-766.095498,-666.185348,9400.615463
3779.535194,-612.876398,-0.000000,9474.636058
3779.535508,-383.047749,-296.082377,9104.533087
3779.535823,0.000000,-814.226536,9548.656652
3779.536137,0.000000,-888.247130,10881.027347
3779.536452,-536.266849,370.102971,10732.986159
3779.536767,-536.266849,518.144159,9770.718434
3779.537081,-459.657299,1924.535449,9178.553681
3779.537396,153.219100,1924.535449,9178.553681
3779.537711,1378.971896,1184.329507,9178.553681
3779.538025,842.705048,444.123565,9326.594869
3779.538340,229.828649,888.247130,9474.636058
3779.538655,0.000000,296.082377,9104.533087
3779.538969,-229.828649,518.144159,9030.512492
3779.539284,-229.828649,-0.000000,9918.759623
3779.539599,-153.219100,-74.020594,9326.594869
3779.539913,-383.047749,-1184.329507,9992.780217
3779.540228,-459.657299,-888.247130,10214.842000
3779.540542,-1072.533697,-296.082377,10807.006753
3779.540857,-536.266849,370.102971,10436.903782
3779.541172,-612.876398,666.185348,9474.636058
3779.541486,0.000000,1110.308913,8586.388927
3779.541801,536.266849,296.082377,8438.347739
3779.542116,1072.533697,148.041188,8364.327145
3779.542430,689.485948,148.041188,9326.594869
3779.542745,0.000000,-148.041188,9844.739029
3779.543060,-536.266849,-222.061783,9474.636058
3779.543374,-459.657299,-296.082377,10288.862594
3779.543689,-536.266849,-148.041188,10658.965565
3779.544004,0.000000,-518.144159,10584.944971
3779.544318,0.000000,-518.144159,10658.965565
3779.544633,-383.047749,-222.061783,10881.027347
3779.544948,0.000000,-0.000000,10140.821405
3779.545262,153.219100,666.185348,9178.553681
3779.545577,842.705048,740.205942,7698.141797
3779.545892,1302.362347,222.061783,8142.265362
3779.546206,1991.848295,-74.020594,7920.203579
3779.546521,1685.410096,-444.123565,8956.491898
3779.546836,1302.362347,-814.226536,9696.697840
3779.547151,459.657299,-222.061783,10362.883188
3779.547465,-536.266849,222.061783,10066.800811
3779.547780,-536.266849,740.205942,9918.759623
3779.548095,-383.047749,444.123565,10362.883188
3779.548409,76.609550,-0.000000,10510.924376
3779.548724,536.266849,-74.020594,10214.842000
3779.549039,459.657299,888.247130,10214.842000
3779.549353,995.924147,1332.370696,8734.430116
3779.549668,1302.362347,1554.432478,7994.224174
3779.549983,1302.362347,1258.350101,8364.327145
3779.550298,1455.581446,518.144159,8216.285956
3779.550612,1072.533697,-296.082377,9400.615463
3779.550927,229.828649,-444.123565,9992.780217
3779.551242,-536.266849,-148.041188,10658.965565
3779.551556,-1149.143247,222.061783,10510.924376
3779.551871,-1608.800546,-74.020594,10881.027347
3779.552186,-1225.752797,370.102971,9992.780217
3779.552501,-842.705048,-148.041188,9918.759623
3779.552815,-229.828649,-0.000000,9696.697840
3779.553130,153.219100,370.102971,9918.759623
3779.553445,229.828649,518.144159,9104.533087
3779.553759,306.438199,222.061783,8068.244768
3779.554074,689.485948,962.267725,8364.327145
3779.554389,919.314598,814.226536,8142.265362
3779.554703,766.095498,-296.082377,9548.656652
3779.555018,0.000000,-814.226536,10288.862594
3779.555333,-1225.752797,-814.226536,11029.068536
3779.555648,-1072.533697,-222.061783,10955.047942
3779.555962,-1072.533697,-74.020594,10510.924376
3779.556277,-1225.752797,592.164754,9770.718434
3779.556592,-383.047749,-0.000000,9474.636058
3779.556906,0.000000,-0.000000,9400.615463
3779.557221,76.609550,-0.000000,9696.697840
3779.557536,0.000000,-74.020594,9770.718434
3779.557851,689.485948,-0.000000,9622.677246
3779.558165,536.266849,740.205942,8956.491898
3779.558480,306.438199,1036.288319,8586.388927
3779.558795,842.705048,-0.000000,9474.636058
3779.559109,229.828649,-148.041188,9992.780217
3779.559424,0.000000,-222.061783,10732.986159
3779.559739,-383.047749,-0.000000,10584.944971
3779.560053,-306.438199,444.123565,10066.800811
3779.560368,0.000000,962.267725,9178.553681
3779.560683,-459.657299,148.041188,9474.636058
3779.560998,153.219100,-518.144159,9474.636058
3779.561312,766.095498,-814.226536,9992.780217
3779.561627,459.657299,-592.164754,9992.780217
3779.561942,919.314598,-444.123565,9622.677246
3779.562256,383.047749,-0.000000,9992.780217
3779.562571,612.876398,592.164754,9400.615463
3779.562886,689.485948,740.205942,9474.636058
3779.563201,1225.752797,-0.000000,9548.656652
3779.563515,995.924147,-0.000000,9030.512492
3779.563830,1072.533697,148.041188,9178.553681
3779.564145,1149.143247,-518.144159,9178.553681
3779.564459,842.705048,-0.000000,8586.388927
3779.564774,919.314598,-0.000000,8734.430116
3779.565089,919.314598,-962.267725,8660.409521
3779.565403,842.705048,-1110.308913,9474.636058
3779.565718,536.266849,-666.185348,10066.800811
3779.566033,153.219100,-444.123565,9844.739029
3779.566348,-153.219100,-0.000000,10288.862594
3779.566662,153.219100,222.061783,9400.615463
3779.566977,383.047749,666.185348,9104.533087
3779.567292,459.657299,444.123565,8660.409521
3779.567606,306.438199,370.102971,9326.594869
3779.567921,459.657299,296.082377,9400.615463
3779.568236,229.828649,814.226536,8956.491898
3779.568551,0.000000,814.226536,9474.636058
3779.568865,-306.438199,666.185348,9178.553681
3779.569180,-306.438199,-74.020594,9474.636058
3779.569495,-459.657299,-740.205942,10066.800811
3779.569809,-995.924147,-888.247130,10436.903782
3779.570124,-1302.362347,-370.102971,11103.089130
3779.570439,-1532.190996,-0.000000,10732.986159
3779.570753,-1149.143247,888.247130,10140.821405
3779.571068,-612.876398,1554.432478,9622.677246
3779.571383,0.000000,1554.432478,8216.285956
3779.571698,612.876398,1406.391290,8586.388927
3779.572012,842.705048,1480.411884,9030.512492
3779.572327,306.438199,1184.329507,9326.594869
3779.572642,0.000000,592.164754,9400.615463
3779.572956,-229.828649,962.267725,9474.636058
3779.573271,-383.047749,592.164754,9770.718434
3779.573586,-536.266849,-370.102971,10288.862594
3779.573901,-1302.362347,-444.123565,11177.109724
3779.574215,-1762.019645,-592.164754,11399.171507
3779.574530,-1762.019645,-74.020594,11399.171507
3779.574845,-1149.143247,592.164754,10658.965565
3779.575159,-229.828649,1110.308913,9326.594869
3779.575474,612.876398,1332.370696,9178.553681
3779.575789,1149.143247,814.226536,8068.244768
3779.576103,1378.971896,296.082377,9178.553681
3779.576418,1225.752797,666.185348,9770.718434
3779.576733,1455.581446,-0.000000,9622.677246
3779.577048,995.924147,370.102971,10066.800811
3779.577362,766.095498,444.123565,9844.739029
3779.577677,383.047749,222.061783,10362.883188
3779.577992,0.000000,-740.205942,10584.944971
3779.578306,-153.219100,-1110.308913,10881.027347
3779.578621,-383.047749,-666.185348,10732.986159
3779.578936,536.266849,-222.061783,9622.677246
3779.579251,689.485948,814.226536,9252.574275
3779.579565,1378.971896,1332.370696,8290.306550
3779.579880,2298.286494,444.123565,8216.285956
3779.580195,2528.115143,-0.000000,8142.265362
3779.580509,2145.067394,-296.082377,9252.574275
3779.580824,1225.752797,-148.041188,9696.697840
3779.581139,919.314598,-74.020594,9992.780217
3779.581453,153.219100,148.041188,9622.677246
3779.581768,612.876398,-222.061783,9622.677246
3779.582083,0.000000,-444.123565,9622.677246
3779.582398,0.000000,-962.267725,10214.842000
3779.582712,-766.095498,-518.144159,10288.862594
3779.583027,-459.657299,-370.102971,9770.718434
3779.583342,0.000000,-0.000000,8660.409521
3779.583656,0.000000,-0.000000,9030.512492
3779.583971,536.266849,148.041188,8882.471304
3779.584286,459.657299,-740.205942,9030.512492
3779.584600,76.609550,-814.226536,9252.574275
3779.584915,229.828649,-740.205942,9918.759623
3779.585230,-306.438199,-0.000000,10214.842000
3779.585545,-689.485948,518.144159,9252.574275
3779.585859,-459.657299,518.144159,9104.533087
3779.586174,-153.219100,148.041188,8734.430116
3779.586489,-306.438199,-74.020594,9474.636058
3779.586803,-153.219100,-148.041188,9252.574275
3779.587118,-919.314598,-148.041188,9548.656652
3779.587433,-612.876398,-444.123565,9474.636058
3779.587748,-766.095498,222.061783,8808.450710
3779.588062,-536.266849,-0.000000,8586.388927
3779.588377,-459.657299,-592.164754,9992.780217
3779.588692,-842.705048,-1036.288319,10584.944971
3779.589006,-1225.752797,-666.185348,10510.924376
3779.589321,-1072.533697,-0.000000,10658.965565
3779.589636,-766.095498,962.267725,9770.718434
3779.589950,-689.485948,1702.473667,9326.594869
3779.590265,-612.876398,1184.329507,9178.553681
3779.590580,76.609550,296.082377,9400.615463
3779.590895,459.657299,222.061783,9548.656652
3779.591209,-153.219100,222.061783,9696.697840
3779.591524,-612.876398,148.041188,9918.759623
3779.591839,-536.266849,444.123565,10288.862594
3779.592153,-766.095498,814.226536,9622.677246
3779.592468,-383.047749,296.082377,9844.739029
3779.592783,0.000000,-0.000000,10214.842000
3779.593098,-612.876398,-0.000000,10584.944971
3779.593412,-229.828649,1184.329507,10584.944971
3779.593727,0.000000,1406.391290,9992.780217
3779.594042,76.609550,1406.391290,9622.677246
3779.594356,689.485948,1332.370696,9252.574275
3779.594671,1302.362347,518.144159,8882.471304
3779.594986,1685.410096,222.061783,9104.533087
3779.595300,919.314598,-0.000000,9770.718434
3779.595615,995.924147,296.082377,9770.718434
3779.595930,919.314598,-74.020594,9548.656652
3779.596245,612.876398,370.102971,9548.656652
3779.596559,306.438199,-0.000000,9400.615463
3779.596874,229.828649,-0.000000,9474.636058
3779.597189,612.876398,-222.061783,10436.903782
3779.597503,383.047749,148.041188,10214.842000
3779.597818,536.266849,740.205942,9696.697840
3779.598133,919.314598,666.185348,9104.533087
3779.598448,1532.190996,1036.288319,8586.388927
3779.598762,1838.629195,814.226536,8882.471304
3779.599077,1532.190996,222.061783,9104.533087
3779.599392,1072.533697,-370.102971,9548.656652
3779.599706,536.266849,-74.020594,10362.883188
3779.600021,76.609550,-74.020594,10140.821405
3779.600336,0.000000,-74.020594,9992.780217
3779.600650,0.000000,296.082377,9696.697840
3779.600965,383.047749,-148.041188,9770.718434
3779.601280,459.657299,-666.185348,9770.718434
3779.601595,153.219100,-444.123565,9400.615463
3779.601909,0.000000,-0.000000,9400.615463
3779.602224,383.047749,-222.061783,9030.512492
3779.602539,766.095498,148.041188,8512.368333
3779.602853,459.657299,370.102971,8216.285956
3779.603168,1149.143247,-222.061783,8734.430116
3779.603483,536.266849,-370.102971,9474.636058
3779.603798,-229.828649,-740.205942,9474.636058
3779.604112,-766.095498,-666.185348,10510.924376
3779.604427,-1072.533697,-592.164754,10362.883188
3779.604742,-1072.533697,370.102971,10288.862594
3779.605056,-919.314598,518.144159,9548.656652
3779.605371,-766.095498,-148.041188,9696.697840
3779.605686,-919.314598,-518.144159,10066.800811
3779.606000,-459.657299,-740.205942,10288.862594
3779.606315,-229.828649,-0.000000,9104.533087
3779.606630,-536.266849,-74.020594,8586.388927
3779.606945,0.000000,222.061783,8882.471304
3779.607259,0.000000,-0.000000,9178.553681
3779.607574,-306.438199,-370.102971,9696.697840
3779.607889,-689.485948,-296.082377,9992.780217
3779.608203,-1225.752797,-592.164754,10140.821405
3779.608518,-1608.800546,-74.020594,9622.677246
3779.608833,-1455.581446,-148.041188,9992.780217
3779.609148,-842.705048,1332.370696,9104.533087
3779.609462,-153.219100,-74.020594,9326.594869
3779.609777,0.000000,-74.020594,9474.636058
3779.610092,-383.047749,-370.102971,9992.780217
3779.610406,-306.438199,-296.082377,9844.739029
3779.610721,76.609550,222.061783,10436.903782
3779.611036,229.828649,1036.288319,9474.636058
3779.611350,306.438199,1332.370696,9622.677246
3779.611665,536.266849,444.123565,9918.759623
3779.611980,459.657299,-0.000000,10362.883188
3779.612295,0.000000,-296.082377,10288.862594
3779.612609,383.047749,222.061783,9770.718434
3779.612924,306.438199,814.226536,9474.636058
3779.613239,153.219100,1036.288319,9400.615463
3779.613553,1149.143247,518.144159,8364.327145
3779.613868,995.924147,-0.000000,8808.450710
3779.614183,766.095498,-814.226536,9844.739029
3779.614498,612.876398,-518.144159,10288.862594
3779.614812,153.219100,-0.000000,10436.903782
3779.615127,0.000000,740.205942,9548.656652
3779.615442,76.609550,222.061783,9770.718434
3779.615756,1225.752797,814.226536,9918.759623
3779.616071,1225.752797,222.061783,10362.883188
3779.616386,612.876398,296.082377,9770.718434
3779.616700,766.095498,296.082377,9622.677246
3779.617015,995.924147,740.205942,8882.471304
3779.617330,766.095498,1258.350101,7920.203579
3779.617645,1072.533697,962.267725,8364.327145
3779.617959,1072.533697,-222.061783,9326.594869
3779.618274,689.485948,-1184.329507,9548.656652
3779.618589,0.000000,-370.102971,10214.842000
3779.618903,-766.095498,-370.102971,10362.883188
3779.619218,-612.876398,-222.061783,10436.903782
3779.619533,-306.438199,370.102971,10066.800811
3779.619847,-229.828649,814.226536,9474.636058
3779.620162,536.266849,222.061783,9548.656652
3779.620477,1072.533697,592.164754,9474.636058
3779.620792,1149.143247,1258.350101,9104.533087
3779.621106,1149.143247,1110.308913,9104.533087
3779.621421,1072.533697,1184.329507,8586.388927
3779.621736,612.876398,888.247130,8216.285956
3779.622050,612.876398,222.061783,9104.533087
3779.622365,612.876398,-296.082377,10140.821405
3779.622680,-689.485948,-592.164754,10881.027347
3779.622995,-1532.190996,-518.144159,11177.109724
3779.623309,-1608.800546,-0.000000,10807.006753
3779.623624,-1378.971896,444.123565,10584.944971
3779.623939,-689.485948,814.226536,9918.759623
3779.624253,0.000000,296.082377,9696.697840
3779.624568,383.047749,740.205942,9770.718434
3779.624883,306.438199,740.205942,9844.739029
3779.625197,229.828649,1184.329507,8882.471304
3779.625512,306.438199,444.123565,9252.574275
3779.625827,76.609550,518.144159,8882.471304
3779.626142,153.219100,-0.000000,9104.533087
3779.626456,0.000000,-444.123565,9992.780217
3779.626771,-919.314598,-1110.308913,11325.150913
3779.627086,-1762.019645,-814.226536,11621.233289
3779.627400,-1608.800546,-888.247130,11473.192101
3779.627715,-1302.362347,-444.123565,10732.986159
3779.628030,-766.095498,444.123565,9770.718434
3779.628345,459.657299,-0.000000,9252.574275
3779.628659,1072.533697,-0.000000,8882.471304
3779.628974,1302.362347,-0.000000,9030.512492
3779.629289,1608.800546,-0.000000,8956.491898
3779.629603,1532.190996,370.102971,8438.347739
3779.629918,1225.752797,222.061783,8586.388927
3779.630233,919.314598,-0.000000,8586.388927
3779.630547,536.266849,-592.164754,9400.615463
3779.630862,76.609550,-1258.350101,9918.759623
3779.631177,-459.657299,-1258.350101,10732.986159
3779.631492,-1072.533697,-962.267725,10732.986159
3779.631806,-919.314598,-592.164754,10584.944971
3779.632121,0.000000,-148.041188,9400.615463
3779.632436,536.266849,-370.102971,8956.491898
3779.632750,995.924147,-370.102971,8956.491898
3779.633065,1302.362347,-222.061783,8734.430116
3779.633380,919.314598,296.082377,8808.450710
3779.633695,1072.533697,888.247130,8586.388927
3779.634009,842.705048,1036.288319,8290.306550
3779.634324,1072.533697,1332.370696,8364.327145
3779.634639,842.705048,1184.329507,8734.430116
3779.634953,383.047749,-0.000000,9030.512492
3779.635268,0.000000,-370.102971,10362.883188
3779.635583,-1149.143247,-148.041188,10362.883188
3779.635897,-1149.143247,-444.123565,10362.883188
3779.636212,-1302.362347,-370.102971,10066.800811
3779.636527,-842.705048,222.061783,9474.636058
3779.636842,76.609550,-0.000000,9178.553681
3779.637156,153.219100,-148.041188,9178.553681
3779.637471,459.657299,-0.000000,9918.759623
3779.637786,0.000000,-0.000000,9918.759623
3779.638100,153.219100,740.205942,9252.574275
3779.638415,306.438199,1184.329507,9030.512492
3779.638730,76.609550,962.267725,8734.430116
3779.639045,383.047749,518.144159,9030.512492
3779.639359,229.828649,-0.000000,9474.636058
3779.639674,-919.314598,-592.164754,9696.697840
3779.639989,-1225.752797,-222.061783,10362.883188
3779.640303,-995.924147,444.123565,9770.718434
3779.640618,-919.314598,518.144159,10066.800811
3779.640933,-766.095498,370.102971,9844.739029
3779.641247,-229.828649,-518.144159,10658.965565
3779.641562,0.000000,-222.061783,10732.986159
3779.641877,-383.047749,370.102971,10881.027347
3779.642192,229.828649,1554.432478,10436.903782
3779.642506,536.266849,2072.576638,9548.656652
3779.642821,689.485948,2738.761985,8956.491898
3779.643136,1455.581446,1776.494261,8438.347739
3779.643450,1685.410096,814.226536,8734.430116
3779.643765,995.924147,-74.020594,9622.677246
3779.644080,0.000000,-222.061783,9918.759623
3779.644395,0.000000,-518.144159,9992.780217
3779.644709,-612.876398,-296.082377,9548.656652
3779.645024,-689.485948,-0.000000,10288.862594
3779.645339,0.000000,-370.102971,10732.986159
3779.645653,0.000000,-888.247130,10881.027347
3779.645968,153.219100,-0.000000,10881.027347
3779.646283,153.219100,962.267725,9992.780217
3779.646598,1072.533697,1332.370696,9400.615463
3779.646912,1608.800546,1998.556043,8586.388927
3779.647227,1991.848295,1554.432478,8068.244768
3779.647542,2298.286494,592.164754,8438.347739
3779.647857,1608.800546,-222.061783,8660.409521
3779.648171,612.876398,-296.082377,9400.615463
3779.648486,-229.828649,-814.226536,10214.842000
3779.648801,-689.485948,-1332.370696,10288.862594
3779.649115,-766.095498,-962.267725,10288.862594
3779.649430,-459.657299,-814.226536,9622.677246
3779.649745,-306.438199,-1628.453072,10732.986159
3779.650060,76.609550,-740.205942,10214.842000
3779.650374,-306.438199,-370.102971,9844.739029
3779.650689,383.047749,592.164754,8512.368333
3779.651004,1149.143247,740.205942,8142.265362
3779.651319,1532.190996,1184.329507,7105.977043
3779.651633,1915.238745,-0.000000,7624.121203
3779.651948,1838.629195,-222.061783,8216.285956
3779.652263,842.705048,-518.144159,9178.553681
3779.652578,0.000000,-222.061783,9770.718434
3779.652892,-995.924147,-962.267725,11029.068536
3779.653207,-1225.752797,-592.164754,10658.965565
3779.653522,-1455.581446,-0.000000,10288.862594
3779.653836,-1072.533697,-592.164754,9992.780217
3779.654151,-689.485948,-518.144159,10732.986159
3779.654466,0.000000,-0.000000,10066.800811
3779.654781,229.828649,222.061783,9400.615463
3779.655095,383.047749,1184.329507,8290.306550
3779.655410,612.876398,1110.308913,7550.100608
3779.655725,1225.752797,1110.308913,7476.080014
3779.656040,1378.971896,222.061783,8586.388927
3779.656354,383.047749,-148.041188,9474.636058
3779.656669,-612.876398,-296.082377,9992.780217
3779.656984,-1225.752797,-296.082377,10955.047942
3779.657299,-1762.019645,370.102971,10510.924376
3779.657613,-2068.457845,518.144159,10436.903782
3779.657928,-1225.752797,-74.020594,10436.903782
3779.658243,-1225.752797,-0.000000,10436.903782
3779.658557,-612.876398,-518.144159,10658.965565
3779.658872,-383.047749,518.144159,9918.759623
3779.659187,0.000000,1258.350101,9104.533087
3779.659502,689.485948,1998.556043,8956.491898
3779.659816,612.876398,1480.411884,8956.491898
3779.660131,1608.800546,666.185348,9030.512492
3779.660446,1455.581446,-74.020594,10362.883188
3779.660761,0.000000,-148.041188,10362.883188
3779.661075,-459.657299,222.061783,10584.944971
3779.661390,-612.876398,-0.000000,9770.718434
3779.661705,-766.095498,370.102971,10214.842000
3779.662020,-306.438199,296.082377,9474.636058
3779.662334,0.000000,-148.041188,9474.636058
3779.662649,306.438199,-518.144159,9252.574275
3779.662964,76.609550,-518.144159,9770.718434
3779.663278,612.876398,222.061783,9252.574275
3779.663593,842.705048,296.082377,9252.574275
3779.663908,1302.362347,888.247130,8734.430116
3779.664223,1149.143247,296.082377,9104.533087
3779.664537,1532.190996,148.041188,9474.636058
3779.664852,1302.362347,-0.000000,10214.842000
3779.665167,229.828649,814.226536,10214.842000
3779.665482,0.000000,-0.000000,10436.903782
3779.665796,76.609550,-0.000000,9918.759623
3779.666111,-383.047749,222.061783,9474.636058
3779.666426,0.000000,-74.020594,8956.491898
3779.666741,0.000000,-888.247130,9474.636058
3779.667055,-76.609550,-1258.350101,10288.862594
3779.667370,0.000000,-888.247130,10362.883188
3779.667685,0.000000,296.082377,9474.636058
3779.667999,229.828649,518.144159,9474.636058
3779.668314,689.485948,1110.308913,9030.512492
3779.668629,1225.752797,222.061783,9104.533087
3779.668944,1378.971896,-0.000000,8882.471304
3779.669258,383.047749,222.061783,9326.594869
3779.669573,306.438199,370.102971,8956.491898
3779.669888,306.438199,814.226536,8586.388927
3779.670203,76.609550,518.144159,9104.533087
3779.670517,229.828649,518.144159,8882.471304
3779.670832,0.000000,-666.185348,9474.636058
3779.671147,-153.219100,-1258.350101,10288.862594
3779.671462,-1149.143247,-1406.391290,10881.027347
3779.671776,-1455.581446,-296.082377,10658.965565
3779.672091,-1608.800546,-148.041188,10362.883188
3779.672406,-995.924147,962.267725,9696.697840
3779.672720,0.000000,814.226536,9104.533087
3779.673035,612.876398,666.185348,9030.512492
3779.673350,383.047749,666.185348,9326.594869
3779.673665,459.657299,296.082377,8808.450710
3779.673979,536.266849,592.164754,8512.368333
3779.674294,153.219100,888.247130,8734.430116
3779.674609,0.000000,-0.000000,9474.636058
3779.674924,153.219100,-888.247130,9844.739029
3779.675238,-995.924147,-1554.432478,11103.089130
3779.675553,-842.705048,-962.267725,11251.130318
3779.675868,-1072.533697,-592.164754,11177.109724
3779.676182,459.657299,444.123565,10732.986159
3779.676497,-306.438199,1184.329507,9992.780217
3779.676812,0.000000,1480.411884,9326.594869
3779.677127,1225.752797,814.226536,9030.512492
3779.677441,1685.410096,814.226536,9030.512492
3779.677756,1685.410096,740.205942,9104.533087
3779.678071,1762.019645,222.061783,9030.512492
3779.678386,995.924147,740.205942,8660.409521
3779.678700,689.485948,1110.308913,8956.491898
3779.679015,383.047749,222.061783,9474.636058
3779.679330,153.219100,-592.164754,11251.130318
3779.679645,-919.314598,-962.267725,11251.130318
3779.679959,-1378.971896,-1036.288319,11325.150913
3779.680274,-995.924147,-74.020594,10881.027347
3779.680589,-995.924147,592.164754,10510.924376
3779.680903,-766.095498,888.247130,9252.574275
3779.681218,76.609550,370.102971,8956.491898
3779.681533,1149.143247,592.164754,8586.388927
3779.681848,1302.362347,-74.020594,9030.512492
3779.682162,1072.533697,296.082377,8660.409521
3779.682477,76.609550,740.205942,8882.471304
3779.682792,383.047749,888.247130,8734.430116
3779.683107,0.000000,370.102971,9104.533087
3779.683421,0.000000,-0.000000,9918.759623
3779.683736,-612.876398,-666.185348,10807.006753
3779.684051,-995.924147,-1184.329507,10584.944971
3779.684366,-842.705048,-296.082377,10436.903782
3779.684680,-842.705048,-0.000000,9622.677246
3779.684995,-459.657299,-0.000000,9326.594869
3779.685310,536.266849,-74.020594,9326.594869
3779.685624,919.314598,-444.123565,9252.574275
3779.685939,1072.533697,-592.164754,9104.533087
3779.686254,919.314598,-148.041188,9178.553681
3779.686569,919.314598,148.041188,9326.594869
3779.686883,766.095498,888.247130,9104.533087
3779.687198,306.438199,666.185348,8882.471304
3779.687513,383.047749,518.144159,8808.450710
3779.687828,76.609550,-148.041188,10140.821405
3779.688142,-229.828649,-666.185348,10362.883188
3779.688457,-383.047749,-666.185348,9474.636058
3779.688772,-919.314598,-74.020594,9622.677246
3779.689087,-995.924147,148.041188,9178.553681
3779.689401,0.000000,296.082377,8660.409521
3779.689716,153.219100,-222.061783,9178.553681
3779.690031,383.047749,-370.102971,9918.759623
3779.690345,-229.828649,-370.102971,10066.800811
3779.690660,-612.876398,-148.041188,10362.883188
3779.690975,-306.438199,444.123565,9992.780217
3779.691290,306.438199,1110.308913,9844.739029
3779.691604,229.828649,1184.329507,9400.615463
3779.691919,153.219100,296.082377,9178.553681
3779.692234,229.828649,296.082377,9548.656652
3779.692549,153.219100,-0.000000,9400.615463
3779.692863,153.219100,-0.000000,9104.533087
3779.693178,229.828649,-74.020594,9252.574275
3779.693493,-229.828649,148.041188,8734.430116
3779.693808,-536.266849,-444.123565,9326.594869
3779.694122,-383.047749,-814.226536,10436.903782
3779.694437,-766.095498,-814.226536,10140.821405
3779.694752,-612.876398,-0.000000,10584.944971
3779.695066,-229.828649,444.123565,10066.800811
3779.695381,383.047749,1702.473667,10066.800811
3779.695696,689.485948,1998.556043,8956.491898
3779.696011,1072.533697,1184.329507,8734.430116
3779.696325,1225.752797,444.123565,9252.574275
3779.696640,995.924147,-0.000000,9474.636058
3779.696955,919.314598,-0.000000,9622.677246
3779.697270,76.609550,222.061783,9696.697840
3779.697584,536.266849,518.144159,9548.656652
3779.697899,-229.828649,222.061783,9548.656652
3779.698214,-153.219100,-370.102971,9548.656652
3779.698529,-153.219100,-888.247130,11177.109724
3779.698843,-689.485948,-74.020594,10584.944971
3779.699158,0.000000,-74.020594,10436.903782
3779.699473,-229.828649,666.185348,9622.677246
3779.699787,76.609550,1184.329507,8882.471304
3779.700102,689.485948,1406.391290,8734.430116
3779.700417,1072.533697,-0.000000,9178.553681
3779.700732,919.314598,-0.000000,9252.574275
3779.701046,383.047749,74.020594,9474.636058
3779.701361,0.000000,444.123565,9474.636058
3779.701676,-306.438199,444.123565,9474.636058
3779.701991,-612.876398,222.061783,10066.800811
3779.702305,-536.266849,-148.041188,10288.862594
3779.702620,-536.266849,-1036.288319,10362.883188
3779.702935,-612.876398,-518.144159,10362.883188
3779.703250,-306.438199,-444.123565,9770.718434
3779.703564,-306.438199,-0.000000,8290.306550
3779.703879,-153.219100,666.185348,8512.368333
3779.704194,153.219100,962.267725,8142.265362
3779.704508,1072.533697,222.061783,7994.224174
3779.704823,1149.143247,-370.102971,8808.450710
3779.705138,229.828649,-962.267725,9474.636058
3779.705453,153.219100,-518.144159,10288.862594
3779.705767,-612.876398,-0.000000,9992.780217
3779.706082,-1302.362347,444.123565,10214.842000
3779.706397,-383.047749,370.102971,10510.924376
3779.706712,0.000000,-222.061783,9770.718434
3779.707026,0.000000,-0.000000,10140.821405
3779.707341,76.609550,222.061783,9918.759623
3779.707656,306.438199,444.123565,9178.553681
3779.707971,306.438199,444.123565,8882.471304
3779.708285,536.266849,666.185348,8808.450710
3779.708600,1149.143247,222.061783,8956.491898
3779.708915,995.924147,-888.247130,9030.512492
3779.709229,459.657299,-814.226536,10066.800811
3779.709544,-383.047749,-370.102971,10584.944971
3779.709859,-153.219100,-148.041188,10362.883188
3779.710174,-995.924147,444.123565,9918.759623
3779.710488,-536.266849,1036.288319,9622.677246
3779.710803,0.000000,-0.000000,9548.656652
3779.711118,536.266849,-370.102971,9918.759623
3779.711433,229.828649,-444.123565,9992.780217
3779.711747,306.438199,-148.041188,9918.759623
3779.712062,306.438199,370.102971,8956.491898
3779.712377,153.219100,518.144159,9548.656652
3779.712691,689.485948,740.205942,9178.553681
3779.713006,919.314598,-74.020594,9992.780217
3779.713321,536.266849,-148.041188,10584.944971
3779.713636,76.609550,-296.082377,10288.862594
3779.713950,-153.219100,-74.020594,10066.800811
3779.714265,229.828649,-0.000000,9918.759623
3779.714580,-229.828649,666.185348,9104.533087
3779.714895,536.266849,-0.000000,8956.491898
3779.715209,612.876398,-148.041188,8660.409521
3779.715524,459.657299,-740.205942,9400.615463
3779.715839,0.000000,-740.205942,9474.636058
3779.716154,0.000000,-148.041188,9474.636058
3779.716468,76.609550,592.164754,9400.615463
3779.716783,0.000000,222.061783,9400.615463
3779.717098,306.438199,-0.000000,9474.636058
3779.717412,536.266849,-74.020594,9770.718434
3779.717727,76.609550,370.102971,10140.821405
3779.718042,-229.828649,666.185348,9770.718434
3779.718357,0.000000,962.267725,9548.656652
3779.718671,383.047749,1776.494261,8956.491898
3779.718986,766.095498,1110.308913,8956.491898
3779.719301,1378.971896,296.082377,8808.450710
3779.719616,842.705048,-370.102971,9474.636058
3779.719930,0.000000,-370.102971,9844.739029
3779.720245,-153.219100,-0.000000,9992.780217
3779.720560,-459.657299,444.123565,9992.780217
3779.720875,-919.314598,1036.288319,10066.800811
3779.721189,-459.657299,814.226536,9918.759623
3779.721504,229.828649,-74.020594,9622.677246
3779.721819,153.219100,-296.082377,10436.903782
3779.722133,-229.828649,370.102971,10288.862594
3779.722448,0.000000,1036.288319,9104.533087
3779.722763,76.609550,1628.453072,8438.347739
3779.723078,383.047749,1406.391290,8364.327145
3779.723392,689.485948,444.123565,9178.553681
3779.723707,689.485948,-148.041188,10288.862594
3779.724022,0.000000,-666.185348,10288.862594
3779.724337,-536.266849,-370.102971,10881.027347
3779.724651,-919.314598,-0.000000,10955.047942
3779.724966,-1149.143247,592.164754,10807.006753
3779.725281,-229.828649,888.247130,10066.800811
3779.725596,153.219100,-0.000000,10362.883188
3779.725910,919.314598,296.082377,9992.780217
3779.726225,536.266849,666.185348,9178.553681
3779.726540,919.314598,962.267725,8734.430116
3779.726854,612.876398,296.082377,9030.512492
3779.727169,766.095498,1036.288319,8438.347739
3779.727484,612.876398,-222.061783,8586.388927
3779.727799,612.876398,-444.123565,9400.615463
3779.728113,76.609550,-888.247130,10807.006753
3779.728428,-612.876398,-1110.308913,10362.883188
3779.728743,-919.314598,-296.082377,10584.944971
3779.729058,-842.705048,-0.000000,10214.842000
3779.729372,-536.266849,740.205942,9992.780217
3779.729687,0.000000,592.164754,9474.636058
3779.730002,842.705048,222.061783,9400.615463
3779.730317,1072.533697,-0.000000,9178.553681
3779.730631,1072.533697,-0.000000,8734.430116
3779.730946,766.095498,370.102971,8290.306550
3779.731261,995.924147,592.164754,8734.430116
3779.731575,229.828649,666.185348,8142.265362
3779.731890,-306.438199,-444.123565,9696.697840
3779.732205,-229.828649,-888.247130,10066.800811
3779.732520,-995.924147,-888.247130,11251.130318
3779.732834,-1302.362347,-592.164754,10881.027347
3779.733149,-1225.752797,-518.144159,10881.027347
3779.733464,-919.314598,296.082377,9844.739029
3779.733779,76.609550,370.102971,8956.491898
3779.734093,1072.533697,296.082377,9104.533087
3779.734408,1532.190996,-370.102971,9178.553681
3779.734723,1302.362347,444.123565,8660.409521
3779.735038,1072.533697,-0.000000,8364.327145
3779.735352,995.924147,592.164754,8438.347739
3779.735667,536.266849,370.102971,9474.636058
3779.735982,459.657299,370.102971,9030.512492
3779.736296,76.609550,-666.185348,9844.739029
3779.736611,-459.657299,-962.267725,11103.089130
3779.736926,-1378.971896,-740.205942,10658.965565
3779.737241,-842.705048,-148.041188,10584.944971
3779.737555,-536.266849,-0.000000,9992.780217
3779.737870,0.000000,888.247130,8956.491898
3779.738185,1225.752797,444.123565,8956.491898
3779.738500,1455.581446,-0.000000,8882.471304
3779.738814,842.705048,444.123565,8956.491898
3779.739129,766.095498,370.102971,9400.615463
3779.739444,842.705048,-148.041188,9474.636058
3779.739759,459.657299,1036.288319,9326.594869
3779.740073,306.438199,888.247130,9548.656652
3779.740388,153.219100,148.041188,9104.533087
3779.740703,-612.876398,-0.000000,10214.842000
3779.741017,-1149.143247,296.082377,10362.883188
3779.741332,-1378.971896,-148.041188,9178.553681
3779.741647,-1455.581446,-74.020594,9252.574275
3779.741962,-1302.362347,-296.082377,9992.780217
3779.742276,-1762.019645,-148.041188,9400.615463
3779.742591,-1302.362347,-814.226536,10066.800811
3779.742906,-1378.971896,-740.205942,10658.965565
3779.743221,-1915.238745,-0.000000,11399.171507
3779.743535,-1378.971896,518.144159,10436.903782
3779.743850,-1378.971896,962.267725,9844.739029
3779.744165,-995.924147,1480.411884,9918.759623
3779.744480,-612.876398,1184.329507,9252.574275
3779.744794,-995.924147,740.205942,9326.594869
3779.745109,-842.705048,-592.164754,9548.656652
3779.745424,-1225.752797,-814.226536,9844.739029
3779.745738,-1762.019645,-1110.308913,9770.718434
3779.746053,-1915.238745,-1628.453072,9622.677246
3779.746368,-2068.457845,-2146.597232,10214.842000
3779.746683,-1915.238745,-1702.473667,10140.821405
3779.746997,-1762.019645,-1998.556043,9844.739029
3779.747312,-1762.019645,-1998.556043,9844.739029
3779.747627,-1915.238745,-1036.288319,9992.780217
3779.747942,-1532.190996,-666.185348,9474.636058
3779.748256,-995.924147,-370.102971,8882.471304
3779.748571,-842.705048,-370.102971,8808.450710
3779.748886,-536.266849,-592.164754,7994.224174
3779.749200,-919.314598,-1036.288319,8586.388927
3779.749515,-919.314598,-1998.556043,8956.491898
3779.749830,-1762.019645,-2516.700203,10288.862594
3779.750144,-2145.067394,-2960.823768,10288.862594
3779.750459,-3217.601092,-3404.947333,10436.903782
3779.750774,-2451.505594,-3775.050304,11843.295072
3779.751088,-2987.772442,-3256.906145,11917.315666
3779.751403,-2911.162892,-2590.720797,11103.089130
3779.751718,-1838.629195,-2294.638420,9622.677246
3779.752032,-842.705048,-2072.576638,9326.594869
3779.752347,-229.828649,-1184.329507,8216.285956
3779.752662,76.609550,-1480.411884,7994.224174
3779.752976,153.219100,-1924.535449,8586.388927
3779.753291,383.047749,-2368.659014,8882.471304
3779.753606,153.219100,-1998.556043,7698.141797
3779.753920,-383.047749,-2516.700203,9030.512492
3779.754235,-995.924147,-1776.494261,8364.327145
3779.754550,-1762.019645,-2664.741391,8734.430116
3779.754864,-2145.067394,-3108.864956,9326.594869
3779.755179,-2834.553343,-3923.091493,10066.800811
3779.755494,-3370.820191,-3923.091493,10436.903782
3779.755808,-3524.039291,-4071.132681,10584.944971
3779.756123,-3064.381992,-3182.885551,10214.842000
3779.756438,-3294.210641,-2442.679609,9918.759623
3779.756752,-2451.505594,-1998.556043,9474.636058
3779.757067,-1762.019645,-1702.473667,8808.450710
3779.757382,-1378.971896,-1850.514855,9252.574275
3779.757696,-995.924147,-1850.514855,9252.574275
3779.758011,-1532.190996,-2294.638420,9104.533087
3779.758326,-1532.190996,-2738.761985,9918.759623
3779.758640,-1762.019645,-2812.782580,10140.821405
3779.758955,-2221.676944,-2294.638420,9770.718434
3779.759270,-2451.505594,-1924.535449,9252.574275
3779.759584,-2681.334243,-1998.556043,9178.553681
3779.759899,-2987.772442,-2146.597232,9030.512492
3779.760214,-2604.724693,-2960.823768,8290.306550
3779.760528,-2987.772442,-3552.988522,8512.368333
3779.760843,-3217.601092,-4219.173869,9178.553681
3779.761158,-3294.210641,-4145.153275,9622.677246
3779.761472,-3064.381992,-3923.091493,10288.862594
3779.761787,-2987.772442,-2664.741391,10732.986159
3779.762101,-2528.115143,-2072.576638,10732.986159
3779.762416,-2221.676944,-814.226536,10214.842000
3779.762731,-1608.800546,-0.000000,9770.718434
3779.763045,-1685.410096,740.205942,8956.491898
3779.763360,-1378.971896,-222.061783,8586.388927
3779.763675,-1532.190996,-1258.350101,9030.512492
3779.763989,-1608.800546,-2294.638420,9252.574275
3779.764304,-2068.457845,-3330.926739,9770.718434
3779.764619,-2528.115143,-3182.885551,10436.903782
3779.764933,-2757.943793,-2960.823768,10658.965565
3779.765248,-2145.067394,-2294.638420,10807.006753
3779.765563,-2298.286494,-2294.638420,10066.800811
3779.765877,-2221.676944,-1924.535449,9844.739029
3779.766192,-1762.019645,-1332.370696,9622.677246
3779.766507,-1762.019645,-666.185348,8660.409521
3779.766821,-995.924147,-370.102971,7550.100608
3779.767136,-612.876398,-814.226536,7254.018232
3779.767451,-459.657299,-1036.288319,7031.956449
3779.767765,-766.095498,-1480.411884,7772.162391
3779.768080,-1072.533697,-1924.535449,9030.512492
3779.768395,-1532.190996,-2072.576638,10732.986159
3779.768709,-2681.334243,-1924.535449,11473.192101
3779.769024,-3140.991542,-1850.514855,11991.336260
3779.769339,-2987.772442,-1924.535449,12583.501014
3779.769653,-3447.429741,-1924.535449,11991.336260
3779.769968,-2528.115143,-740.205942,11251.130318
3779.770283,-1685.410096,-148.041188,9770.718434
3779.770597,-766.095498,-0.000000,8660.409521
3779.770912,0.000000,444.123565,7254.018232
3779.771227,76.609550,-0.000000,7105.977043
3779.771541,306.438199,-888.247130,7328.038826
3779.771856,-536.266849,-2220.617826,8438.347739
3779.772171,-1302.362347,-2812.782580,9548.656652
3779.772485,-2221.676944,-3478.967927,10881.027347
3779.772800,-2757.943793,-2886.803174,11843.295072
3779.773115,-3217.601092,-2886.803174,11399.171507
3779.773429,-3447.429741,-2220.617826,11325.150913
