#time,accel_x,accel_y,accel_z
3798.491614,383.047749,444.123565,9622.677246
3798.491929,153.219100,518.144159,9326.594869
3798.492244,0.000000,444.123565,9770.718434
3798.492559,0.000000,444.123565,9548.656652
3798.492874,-153.219100,296.082377,9844.739029
3798.493188,0.000000,148.041188,9548.656652
3798.493503,153.219100,-0.000000,9400.615463
3798.493818,153.219100,296.082377,9548.656652
3798.494133,0.000000,148.041188,9622.677246
3798.494448,0.000000,222.061783,9474.636058
3798.494763,153.219100,-0.000000,9474.636058
3798.495078,306.438199,-0.000000,9548.656652
3798.495393,383.047749,-0.000000,9770.718434
3798.495707,0.000000,-0.000000,9622.677246
3798.496022,76.609550,-0.000000,9252.574275
3798.496337,306.438199,222.061783,9918.759623
3798.496652,229.828649,-0.000000,9622.677246
3798.496967,383.047749,-0.000000,9844.739029
3798.497282,153.219100,-0.000000,9770.718434
3798.497597,229.828649,-0.000000,9622.677246
3798.497912,0.000000,-0.000000,9918.759623
3798.498226,383.047749,-0.000000,9474.636058
3798.498541,0.000000,222.061783,9696.697840
3798.498856,0.000000,-0.000000,9474.636058
3798.499171,0.000000,-0.000000,9696.697840
3798.499486,0.000000,-0.000000,9622.677246
3798.499801,383.047749,222.061783,9548.656652
3798.500116,76.609550,222.061783,9696.697840
3798.500431,0.000000,148.041188,9622.677246
3798.500746,459.657299,-0.000000,9400.615463
3798.501060,76.609550,222.061783,9474.636058
3798.501375,153.219100,222.061783,9548.656652
3798.501690,153.219100,74.020594,9992.780217
3798.502005,0.000000,370.102971,9770.718434
3798.502320,153.219100,-0.000000,9474.636058
3798.502635,153.219100,-0.000000,9474.636058
3798.502950,0.000000,148.041188,9252.574275
3798.503265,0.000000,370.102971,9622.677246
3798.503579,0.000000,370.102971,9400.615463
3798.503894,76.609550,-0.000000,9770.718434
3798.504209,306.438199,-0.000000,9474.636058
3798.504524,0.000000,-0.000000,9400.615463
3798.504839,0.000000,-0.000000,9548.656652
3798.505154,0.000000,296.082377,9622.677246
3798.505469,383.047749,-0.000000,9548.656652
3798.505784,0.000000,-0.000000,9696.697840
3798.506098,229.828649,148.041188,9844.739029
3798.506413,153.219100,444.123565,9622.677246
3798.506728,0.000000,-0.000000,9252.574275
3798.507043,76.609550,296.082377,9622.677246
3798.507358,153.219100,-0.000000,9474.636058
3798.507673,0.000000,-0.000000,9696.697840
3798.507988,0.000000,-0.000000,9622.677246
3798.508303,0.000000,-0.000000,9474.636058
3798.508618,229.828649,296.082377,9548.656652
3798.508932,306.438199,222.061783,9474.636058
3798.509247,459.657299,222.061783,9844.739029
3798.509562,0.000000,-0.000000,9474.636058
3798.509877,76.609550,-148.041188,9992.780217
3798.510192,229.828649,-74.020594,9548.656652
3798.510507,153.219100,-370.102971,9622.677246
3798.510822,0.000000,-0.000000,9992.780217
3798.511137,0.000000,222.061783,9696.697840
3798.511451,383.047749,-148.041188,9844.739029
3798.511766,229.828649,-0.000000,9474.636058
3798.512081,229.828649,-0.000000,9622.677246
3798.512396,306.438199,296.082377,9696.697840
3798.512711,0.000000,222.061783,9918.759623
3798.513026,153.219100,-74.020594,9918.759623
3798.513341,0.000000,222.061783,9548.656652
3798.513656,0.000000,148.041188,9696.697840
3798.513971,153.219100,444.123565,9696.697840
3798.514285,153.219100,148.041188,9474.636058
3798.514600,306.438199,-0.000000,9696.697840
3798.514915,0.000000,296.082377,9474.636058
3798.515230,153.219100,296.082377,9696.697840
3798.515545,-153.219100,444.123565,9770.718434
3798.515860,153.219100,-0.000000,9474.636058
3798.516175,0.000000,148.041188,9622.677246
3798.516490,153.219100,-0.000000,9474.636058
3798.516804,0.000000,-0.000000,9622.677246
3798.517119,306.438199,518.144159,9622.677246
3798.517434,229.828649,-0.000000,9104.533087
3798.517749,306.438199,222.061783,9252.574275
3798.518064,383.047749,-0.000000,9474.636058
3798.518379,229.828649,-0.000000,9918.759623
3798.518694,153.219100,148.041188,9770.718434
3798.519009,689.485948,148.041188,9770.718434
3798.519323,459.657299,296.082377,9474.636058
3798.519638,536.266849,370.102971,9474.636058
3798.519953,842.705048,666.185348,9548.656652
3798.520268,612.876398,740.205942,9104.533087
3798.520583,842.705048,518.144159,9474.636058
3798.520898,1149.143247,370.102971,8882.471304
3798.521213,1225.752797,518.144159,9252.574275
3798.521528,689.485948,-222.061783,9548.656652
3798.521843,689.485948,296.082377,9992.780217
3798.522157,842.705048,-0.000000,10362.883188
3798.522472,689.485948,370.102971,9918.759623
3798.522787,459.657299,592.164754,9844.739029
3798.523102,1149.143247,592.164754,9918.759623
3798.523417,995.924147,888.247130,9696.697840
3798.523732,2145.067394,592.164754,9918.759623
3798.524047,1915.238745,814.226536,9918.759623
3798.524362,1991.848295,1332.370696,9548.656652
3798.524676,2451.505594,1332.370696,9918.759623
3798.524991,2834.553343,1702.473667,9474.636058
3798.525306,3064.381992,2294.638420,9104.533087
3798.525621,3370.820191,2294.638420,9030.512492
3798.525936,3217.601092,2368.659014,8660.409521
3798.526251,3370.820191,2368.659014,8808.450710
3798.526566,3677.258390,2146.597232,8882.471304
3798.526881,2834.553343,1924.535449,8660.409521
3798.527195,3140.991542,2368.659014,8956.491898
3798.527510,2987.772442,2368.659014,9104.533087
3798.527825,3140.991542,2664.741391,9326.594869
3798.528140,2834.553343,2960.823768,9178.553681
3798.528455,2911.162892,3182.885551,8882.471304
3798.528770,2834.553343,3404.947333,8808.450710
3798.529085,2834.553343,3330.926739,8882.471304
3798.529400,2604.724693,3478.967927,8956.491898
3798.529715,2604.724693,3478.967927,9252.574275
3798.530029,3064.381992,3478.967927,9474.636058
3798.530344,2451.505594,3478.967927,9696.697840
3798.530659,2145.067394,3552.988522,10362.883188
3798.530974,2068.457845,3775.050304,10214.842000
3798.531289,1762.019645,3923.091493,10584.944971
3798.531604,1915.238745,3701.029710,10510.924376
3798.531919,1608.800546,3849.070898,11029.068536
3798.532234,1762.019645,4071.132681,11251.130318
3798.532548,1455.581446,3775.050304,11103.089130
3798.532863,1991.848295,3627.009116,10881.027347
3798.533178,2374.896044,3849.070898,10584.944971
3798.533493,2374.896044,4515.256246,10066.800811
3798.533808,2604.724693,4293.194464,9844.739029
3798.534123,2681.334243,3923.091493,10066.800811
3798.534438,2528.115143,3701.029710,9770.718434
3798.534753,2221.676944,3627.009116,9622.677246
3798.535067,2068.457845,3478.967927,9696.697840
3798.535382,1838.629195,3182.885551,10066.800811
3798.535697,1915.238745,3034.844362,10436.903782
3798.536012,1532.190996,2812.782580,10066.800811
3798.536327,1608.800546,2738.761985,10510.924376
3798.536642,1608.800546,2960.823768,10214.842000
3798.536957,1225.752797,2960.823768,10066.800811
3798.537272,1685.410096,3330.926739,9992.780217
3798.537587,1532.190996,2738.761985,9622.677246
3798.537901,1991.848295,2812.782580,9474.636058
3798.538216,1838.629195,2516.700203,9326.594869
3798.538531,1991.848295,2294.638420,9622.677246
3798.538846,1915.238745,1924.535449,10066.800811
3798.539161,1225.752797,1332.370696,9844.739029
3798.539476,1378.971896,1776.494261,10066.800811
3798.539791,1378.971896,1628.453072,9770.718434
3798.540106,1762.019645,1480.411884,9696.697840
3798.540420,1915.238745,1554.432478,9474.636058
3798.540735,2221.676944,1702.473667,8882.471304
3798.541050,2451.505594,1554.432478,8586.388927
3798.541365,2681.334243,1480.411884,8364.327145
3798.541680,3064.381992,1406.391290,8660.409521
3798.541995,3064.381992,1554.432478,8734.430116
3798.542310,2834.553343,962.267725,8438.347739
3798.542625,2834.553343,1702.473667,8956.491898
3798.542940,2681.334243,1554.432478,8586.388927
3798.543254,2451.505594,1332.370696,9326.594869
3798.543569,1915.238745,962.267725,9104.533087
3798.543884,2221.676944,888.247130,8882.471304
3798.544199,2298.286494,666.185348,10140.821405
3798.544514,1991.848295,370.102971,10140.821405
3798.544829,1991.848295,518.144159,10214.842000
3798.545144,2374.896044,666.185348,10066.800811
3798.545459,3064.381992,1184.329507,9548.656652
3798.545773,3294.210641,2220.617826,8956.491898
3798.546088,3600.648841,2368.659014,8882.471304
3798.546403,3600.648841,2368.659014,8808.450710
3798.546718,3677.258390,2294.638420,8216.285956
3798.547033,3524.039291,1850.514855,8142.265362
3798.547348,2757.943793,1332.370696,8586.388927
3798.547663,1685.410096,1110.308913,9326.594869
3798.547978,995.924147,-74.020594,10436.903782
3798.548292,689.485948,-444.123565,11547.212695
3798.548607,459.657299,-296.082377,12065.356855
3798.548922,383.047749,-0.000000,11991.336260
3798.549237,689.485948,740.205942,11769.274478
3798.549552,1532.190996,2146.597232,10732.986159
3798.549867,2911.162892,2738.761985,10140.821405
3798.550182,3830.477490,3701.029710,8660.409521
3798.550497,4060.306139,4589.276840,7402.059420
3798.550812,4596.572988,4367.215058,7031.956449
3798.551126,4903.011187,3849.070898,7328.038826
3798.551441,4673.182538,2812.782580,8068.244768
3798.551756,3217.601092,2220.617826,9474.636058
3798.552071,1608.800546,1184.329507,10288.862594
3798.552386,-153.219100,666.185348,11991.336260
3798.552701,-689.485948,962.267725,12065.356855
3798.553016,-536.266849,1036.288319,11991.336260
3798.553331,-153.219100,2368.659014,10807.006753
3798.553645,536.266849,3034.844362,9622.677246
3798.553960,1608.800546,3849.070898,8808.450710
3798.554275,3447.429741,3775.050304,7846.182985
3798.554590,4290.134789,3849.070898,7550.100608
3798.554905,4366.744339,4293.194464,8438.347739
3798.555220,3830.477490,4219.173869,8660.409521
3798.555535,3064.381992,3923.091493,10288.862594
3798.555850,2451.505594,3108.864956,11251.130318
3798.556164,1608.800546,3034.844362,11399.171507
3798.556479,995.924147,3775.050304,10807.006753
3798.556794,689.485948,3478.967927,10140.821405
3798.557109,1225.752797,2812.782580,10436.903782
3798.557424,2068.457845,2220.617826,9992.780217
3798.557739,2298.286494,2368.659014,8660.409521
3798.558054,2757.943793,2738.761985,8734.430116
3798.558369,2528.115143,2664.741391,8882.471304
3798.558684,3140.991542,3034.844362,9178.553681
3798.558998,2757.943793,3775.050304,8808.450710
3798.559313,2451.505594,3627.009116,8438.347739
3798.559628,2145.067394,2664.741391,9400.615463
3798.559943,1915.238745,1924.535449,10955.047942
3798.560258,1225.752797,1776.494261,11251.130318
3798.560573,689.485948,962.267725,11399.171507
3798.560888,1072.533697,2294.638420,11325.150913
3798.561203,2068.457845,3256.906145,10140.821405
3798.561517,2451.505594,3775.050304,8734.430116
3798.561832,3830.477490,4071.132681,7920.203579
3798.562147,4519.963438,3330.926739,7920.203579
3798.562462,4290.134789,2590.720797,7846.182985
3798.562777,4060.306139,1776.494261,8586.388927
3798.563092,2757.943793,666.185348,9844.739029
3798.563407,1991.848295,222.061783,10436.903782
3798.563722,1685.410096,1110.308913,10584.944971
3798.564037,1455.581446,1258.350101,10658.965565
3798.564351,1762.019645,1850.514855,10510.924376
3798.564666,1915.238745,2516.700203,10362.883188
3798.564981,2374.896044,2442.679609,8808.450710
3798.565296,3064.381992,3034.844362,8216.285956
3798.565611,3677.258390,3108.864956,8142.265362
3798.565926,3447.429741,3034.844362,8216.285956
3798.566241,3753.867940,2072.576638,8586.388927
3798.566555,2987.772442,1480.411884,9474.636058
3798.566870,2298.286494,1110.308913,10214.842000
3798.567185,1225.752797,1258.350101,10955.047942
3798.567500,306.438199,1110.308913,11399.171507
3798.567815,76.609550,592.164754,11695.253884
3798.568130,-919.314598,1406.391290,10881.027347
3798.568444,-229.828649,1184.329507,10584.944971
3798.568759,766.095498,1554.432478,9844.739029
3798.569074,842.705048,1628.453072,9696.697840
3798.569389,1762.019645,2368.659014,9030.512492
3798.569704,2145.067394,2294.638420,7772.162391
3798.570019,2374.896044,1998.556043,7772.162391
3798.570333,2145.067394,1702.473667,7994.224174
3798.570648,1455.581446,666.185348,8882.471304
3798.570963,0.000000,-222.061783,10658.965565
3798.571278,-1378.971896,-1036.288319,10732.986159
3798.571593,-2298.286494,-814.226536,11621.233289
3798.571907,-2681.334243,-0.000000,11251.130318
3798.572222,-1991.848295,370.102971,10807.006753
3798.572537,-919.314598,-0.000000,11177.109724
3798.572852,-153.219100,888.247130,10066.800811
3798.573167,383.047749,888.247130,9770.718434
3798.573482,1378.971896,370.102971,9326.594869
3798.573796,1838.629195,1036.288319,8660.409521
3798.574111,1532.190996,1110.308913,9178.553681
3798.574426,2298.286494,444.123565,8660.409521
3798.574741,1838.629195,-148.041188,9770.718434
3798.575056,842.705048,-740.205942,10288.862594
3798.575371,153.219100,-962.267725,10288.862594
3798.575685,-919.314598,-666.185348,10362.883188
3798.576000,-1302.362347,-0.000000,9474.636058
3798.576315,-766.095498,-296.082377,9548.656652
3798.576630,0.000000,-1036.288319,9548.656652
3798.576945,76.609550,-1332.370696,9622.677246
3798.577260,689.485948,-814.226536,9474.636058
3798.577574,766.095498,-0.000000,8956.491898
3798.577889,995.924147,962.267725,8882.471304
3798.578204,1991.848295,888.247130,8882.471304
3798.578519,1915.238745,1036.288319,9400.615463
3798.578834,995.924147,444.123565,9622.677246
3798.579149,306.438199,296.082377,10066.800811
3798.579463,0.000000,-74.020594,10288.862594
3798.579778,0.000000,296.082377,9770.718434
3798.580093,76.609550,740.205942,9474.636058
3798.580408,842.705048,222.061783,8586.388927
3798.580723,1149.143247,-444.123565,8882.471304
3798.581038,842.705048,-1406.391290,9548.656652
3798.581352,153.219100,-814.226536,8956.491898
3798.581667,536.266849,-592.164754,8364.327145
3798.581982,1149.143247,-370.102971,8512.368333
3798.582297,1608.800546,-296.082377,8734.430116
3798.582612,919.314598,-296.082377,9326.594869
3798.582927,689.485948,-74.020594,10066.800811
3798.583241,153.219100,222.061783,9918.759623
3798.583556,153.219100,888.247130,9696.697840
3798.583871,995.924147,1554.432478,9770.718434
3798.584186,1302.362347,1480.411884,8808.450710
3798.584501,995.924147,1184.329507,8882.471304
3798.584815,306.438199,962.267725,9992.780217
3798.585130,0.000000,444.123565,9548.656652
3798.585445,0.000000,222.061783,9400.615463
3798.585760,153.219100,-74.020594,10140.821405
3798.586075,153.219100,-0.000000,10510.924376
3798.586390,-919.314598,-444.123565,10807.006753
3798.586704,-1302.362347,-0.000000,10807.006753
3798.587019,-1838.629195,222.061783,10436.903782
3798.587334,-1532.190996,666.185348,10140.821405
3798.587649,-612.876398,1332.370696,9548.656652
3798.587964,229.828649,1554.432478,8660.409521
3798.588279,459.657299,1332.370696,9030.512492
3798.588593,229.828649,962.267725,9844.739029
3798.588908,-383.047749,740.205942,9178.553681
3798.589223,-689.485948,740.205942,9696.697840
3798.589538,-612.876398,962.267725,10510.924376
3798.589853,-383.047749,296.082377,11177.109724
3798.590168,-919.314598,-74.020594,10955.047942
3798.590482,-1762.019645,-0.000000,11399.171507
3798.590797,-2374.896044,814.226536,10732.986159
3798.591112,-1991.848295,814.226536,10362.883188
3798.591427,-919.314598,740.205942,9844.739029
3798.591742,306.438199,666.185348,9030.512492
3798.592057,612.876398,-148.041188,9178.553681
3798.592371,612.876398,-370.102971,9622.677246
3798.592686,919.314598,-74.020594,8956.491898
3798.593001,153.219100,222.061783,9104.533087
3798.593316,919.314598,222.061783,9474.636058
3798.593631,1608.800546,-370.102971,9696.697840
3798.593946,229.828649,-592.164754,9474.636058
3798.594260,0.000000,-1184.329507,10140.821405
3798.594575,-612.876398,-1554.432478,9844.739029
3798.594890,-689.485948,-0.000000,9178.553681
3798.595205,153.219100,-74.020594,8808.450710
3798.595520,689.485948,-0.000000,8512.368333
3798.595834,1225.752797,-370.102971,9104.533087
3798.596149,1532.190996,-962.267725,9104.533087
3798.596464,919.314598,-370.102971,8290.306550
3798.596779,766.095498,-518.144159,8956.491898
3798.597094,1225.752797,666.185348,9178.553681
3798.597409,1762.019645,-0.000000,9326.594869
3798.597723,1072.533697,-962.267725,10288.862594
3798.598038,0.000000,-888.247130,10658.965565
3798.598353,-153.219100,-740.205942,9992.780217
3798.598668,0.000000,-0.000000,9770.718434
3798.598983,153.219100,444.123565,9104.533087
3798.599298,1072.533697,222.061783,8882.471304
3798.599612,1072.533697,-666.185348,9252.574275
3798.599927,766.095498,-962.267725,9030.512492
3798.600242,766.095498,-962.267725,9400.615463
3798.600557,0.000000,-444.123565,8438.347739
3798.600872,1302.362347,-962.267725,9474.636058
3798.601187,1455.581446,-370.102971,9104.533087
3798.601501,229.828649,-370.102971,9696.697840
3798.601816,-229.828649,-296.082377,10288.862594
3798.602131,-459.657299,-518.144159,10066.800811
3798.602446,-766.095498,518.144159,9770.718434
3798.602761,0.000000,962.267725,9548.656652
3798.603076,689.485948,1110.308913,8882.471304
3798.603390,306.438199,666.185348,8808.450710
3798.603705,689.485948,592.164754,9844.739029
3798.604020,0.000000,592.164754,9030.512492
3798.604335,-612.876398,518.144159,9178.553681
3798.604650,0.000000,814.226536,9770.718434
3798.604965,-76.609550,740.205942,9622.677246
3798.605279,-459.657299,-74.020594,10436.903782
3798.605594,-1149.143247,-222.061783,11177.109724
3798.605909,-2068.457845,666.185348,10436.903782
3798.606224,-1838.629195,296.082377,9918.759623
3798.606539,-689.485948,1258.350101,9696.697840
3798.606854,459.657299,1406.391290,8882.471304
3798.607168,76.609550,1110.308913,9400.615463
3798.607483,306.438199,518.144159,9474.636058
3798.607798,-153.219100,1110.308913,9474.636058
3798.608113,-306.438199,1776.494261,9178.553681
3798.608428,229.828649,1110.308913,9030.512492
3798.608742,459.657299,814.226536,10140.821405
3798.609057,-459.657299,370.102971,10807.006753
3798.609372,-1149.143247,-0.000000,11695.253884
3798.609687,-1838.629195,444.123565,11621.233289
3798.610002,-1455.581446,1110.308913,11103.089130
3798.610317,-306.438199,962.267725,10510.924376
3798.610631,536.266849,1554.432478,9770.718434
3798.610946,842.705048,814.226536,9548.656652
3798.611261,1378.971896,518.144159,9474.636058
3798.611576,1532.190996,962.267725,8808.450710
3798.611891,1149.143247,888.247130,8586.388927
3798.612206,1762.019645,888.247130,8734.430116
3798.612520,1378.971896,740.205942,9104.533087
3798.612835,919.314598,-222.061783,9770.718434
3798.613150,0.000000,-1110.308913,10436.903782
3798.613465,-536.266849,-222.061783,10584.944971
3798.613780,-766.095498,-222.061783,10140.821405
3798.614095,229.828649,-0.000000,10214.842000
3798.614409,766.095498,148.041188,9918.759623
3798.614724,1532.190996,592.164754,9178.553681
3798.615039,1455.581446,222.061783,9030.512492
3798.615354,1302.362347,592.164754,7994.224174
3798.615669,1685.410096,370.102971,8586.388927
3798.615984,2068.457845,370.102971,8290.306550
3798.616298,1838.629195,-0.000000,9400.615463
3798.616613,919.314598,-222.061783,9548.656652
3798.616928,153.219100,-1258.350101,10362.883188
3798.617243,-766.095498,-1036.288319,10732.986159
3798.617558,-842.705048,-962.267725,10288.862594
3798.617873,229.828649,-296.082377,9474.636058
3798.618187,1149.143247,-222.061783,9474.636058
3798.618502,842.705048,-148.041188,8882.471304
3798.618817,1225.752797,-222.061783,8364.327145
3798.619132,995.924147,-0.000000,7772.162391
3798.619447,995.924147,-148.041188,7920.203579
3798.619762,1608.800546,-148.041188,8438.347739
3798.620076,1225.752797,-74.020594,8660.409521
3798.620391,229.828649,-592.164754,9548.656652
3798.620706,-612.876398,-666.185348,10510.924376
3798.621021,-1608.800546,-740.205942,10881.027347
3798.621336,-1991.848295,-814.226536,10955.047942
3798.621650,-995.924147,-370.102971,10510.924376
3798.621965,-383.047749,-0.000000,10140.821405
3798.622280,-459.657299,-0.000000,9400.615463
3798.622595,229.828649,296.082377,9178.553681
3798.622910,-689.485948,814.226536,8586.388927
3798.623225,76.609550,592.164754,8364.327145
3798.623539,459.657299,592.164754,8660.409521
3798.623854,536.266849,-296.082377,9474.636058
3798.624169,-536.266849,-962.267725,10214.842000
3798.624484,-1915.238745,-740.205942,10955.047942
3798.624799,-2451.505594,-814.226536,10881.027347
3798.625114,-2681.334243,-296.082377,11029.068536
3798.625428,-1762.019645,-148.041188,10732.986159
3798.625743,-995.924147,222.061783,9696.697840
3798.626058,-612.876398,740.205942,9474.636058
3798.626373,76.609550,444.123565,9252.574275
3798.626688,0.000000,962.267725,8438.347739
3798.627003,76.609550,1406.391290,8216.285956
3798.627317,612.876398,1036.288319,8734.430116
3798.627632,766.095498,814.226536,8512.368333
3798.627947,0.000000,-592.164754,9844.739029
3798.628262,-689.485948,-740.205942,10658.965565
3798.628577,-1608.800546,-74.020594,10807.006753
3798.628892,-1915.238745,-148.041188,11251.130318
3798.629206,-995.924147,296.082377,10881.027347
3798.629521,0.000000,296.082377,10658.965565
3798.629836,229.828649,-0.000000,9474.636058
3798.630151,383.047749,370.102971,9622.677246
3798.630466,383.047749,1480.411884,9326.594869
3798.630781,1455.581446,2072.576638,8586.388927
3798.631095,2987.772442,1998.556043,7624.121203
3798.631410,2987.772442,1184.329507,7846.182985
3798.631725,1762.019645,740.205942,9178.553681
3798.632040,612.876398,-74.020594,10362.883188
3798.632355,-459.657299,-148.041188,11029.068536
3798.632670,-995.924147,222.061783,10955.047942
3798.632984,-383.047749,-222.061783,10955.047942
3798.633299,0.000000,-148.041188,10955.047942
3798.633614,0.000000,-148.041188,10881.027347
3798.633929,459.657299,-592.164754,9992.780217
3798.634244,766.095498,444.123565,9326.594869
3798.634558,1302.362347,1776.494261,8438.347739
3798.634873,2451.505594,1110.308913,9178.553681
3798.635188,2681.334243,1184.329507,7994.224174
3798.635503,2221.676944,222.061783,8586.388927
3798.635818,1225.752797,-444.123565,9474.636058
3798.636133,76.609550,-666.185348,10066.800811
3798.636447,-306.438199,-296.082377,10288.862594
3798.636762,0.000000,-370.102971,10584.944971
3798.637077,76.609550,296.082377,9992.780217
3798.637392,0.000000,-148.041188,9622.677246
3798.637707,0.000000,-0.000000,9326.594869
3798.638022,0.000000,148.041188,9252.574275
3798.638336,383.047749,666.185348,8216.285956
3798.638651,1608.800546,888.247130,7550.100608
3798.638966,1762.019645,666.185348,8216.285956
3798.639281,1455.581446,-0.000000,8734.430116
3798.639596,842.705048,-592.164754,9696.697840
3798.639911,-459.657299,-0.000000,9918.759623
3798.640225,-1225.752797,-74.020594,10881.027347
3798.640540,-766.095498,296.082377,10732.986159
3798.640855,-995.924147,592.164754,10066.800811
3798.641170,-536.266849,296.082377,10066.800811
3798.641485,-766.095498,-0.000000,10066.800811
3798.641800,-612.876398,370.102971,9030.512492
3798.642114,0.000000,444.123565,8512.368333
3798.642429,919.314598,444.123565,8290.306550
3798.642744,1532.190996,888.247130,8438.347739
3798.643059,229.828649,370.102971,8956.491898
3798.643374,-459.657299,-370.102971,9992.780217
3798.643689,-1685.410096,-814.226536,10584.944971
3798.644003,-1991.848295,-370.102971,11103.089130
3798.644318,-1608.800546,-444.123565,11547.212695
3798.644633,-1378.971896,-0.000000,11399.171507
3798.644948,-1532.190996,222.061783,10807.006753
3798.645263,-1072.533697,-0.000000,10288.862594
3798.645577,-842.705048,518.144159,9474.636058
3798.645892,-306.438199,444.123565,8216.285956
3798.646207,1302.362347,1036.288319,7550.100608
3798.646522,1378.971896,518.144159,7994.224174
3798.646837,766.095498,-0.000000,8660.409521
3798.647152,0.000000,-740.205942,10214.842000
3798.647466,-1225.752797,-444.123565,10584.944971
3798.647781,-1532.190996,-444.123565,10807.006753
3798.648096,-842.705048,-888.247130,11325.150913
3798.648411,-689.485948,-0.000000,10658.965565
3798.648726,-306.438199,-222.061783,11029.068536
3798.649041,0.000000,296.082377,10658.965565
3798.649355,0.000000,1036.288319,9400.615463
3798.649670,612.876398,814.226536,8364.327145
3798.649985,2451.505594,888.247130,8364.327145
3798.650300,2987.772442,814.226536,7698.141797
3798.650615,2374.896044,-0.000000,8512.368333
3798.650930,1532.190996,-740.205942,9474.636058
3798.651244,612.876398,-370.102971,9474.636058
3798.651559,0.000000,-444.123565,9622.677246
3798.651874,0.000000,-518.144159,10584.944971
3798.652189,153.219100,-814.226536,10510.924376
3798.652504,-229.828649,-962.267725,10362.883188
3798.652819,-229.828649,-370.102971,9992.780217
3798.653133,-229.828649,-296.082377,9474.636058
3798.653448,459.657299,-0.000000,8068.244768
3798.653763,2298.286494,296.082377,7920.203579
3798.654078,2374.896044,888.247130,8438.347739
3798.654393,1838.629195,222.061783,8882.471304
3798.654708,1532.190996,222.061783,9474.636058
3798.655022,229.828649,148.041188,9474.636058
3798.655337,-383.047749,-370.102971,10066.800811
3798.655652,153.219100,-444.123565,10362.883188
3798.655967,0.000000,-0.000000,9992.780217
3798.656282,-689.485948,-666.185348,10214.842000
3798.656597,-459.657299,-444.123565,10140.821405
3798.656911,-689.485948,-0.000000,9326.594869
3798.657226,0.000000,814.226536,8142.265362
3798.657541,1455.581446,-0.000000,8290.306550
3798.657856,1532.190996,-0.000000,8068.244768
3798.658171,1149.143247,-370.102971,8882.471304
3798.658485,536.266849,-0.000000,9030.512492
3798.658800,-689.485948,-0.000000,9622.677246
3798.659115,-536.266849,-0.000000,9992.780217
3798.659430,-612.876398,-0.000000,10732.986159
3798.659745,-766.095498,222.061783,10288.862594
3798.660060,-1455.581446,-0.000000,10584.944971
3798.660374,-1455.581446,-74.020594,10807.006753
3798.660689,-919.314598,-0.000000,10288.862594
3798.661004,-383.047749,1258.350101,9400.615463
3798.661319,689.485948,1628.453072,8808.450710
3798.661634,919.314598,1332.370696,8512.368333
3798.661949,689.485948,962.267725,8660.409521
3798.662263,306.438199,370.102971,9030.512492
3798.662578,-1072.533697,-0.000000,10214.842000
3798.662893,-842.705048,888.247130,10510.924376
3798.663208,-689.485948,666.185348,10214.842000
3798.663523,-1149.143247,740.205942,10140.821405
3798.663838,-1225.752797,148.041188,11695.253884
3798.664152,-1762.019645,-0.000000,10955.047942
3798.664467,-1762.019645,740.205942,10362.883188
3798.664782,-612.876398,1036.288319,9696.697840
3798.665097,1685.410096,1702.473667,9326.594869
3798.665412,1378.971896,1258.350101,8808.450710
3798.665727,1149.143247,814.226536,8956.491898
3798.666041,459.657299,-0.000000,9474.636058
3798.666356,-229.828649,-0.000000,9770.718434
3798.666671,0.000000,222.061783,10214.842000
3798.666986,689.485948,222.061783,10732.986159
3798.667301,153.219100,-0.000000,11103.089130
3798.667615,-612.876398,-0.000000,10288.862594
3798.667930,-766.095498,-592.164754,10362.883188
3798.668245,-383.047749,-0.000000,9844.739029
3798.668560,612.876398,148.041188,9252.574275
3798.668874,2068.457845,444.123565,9030.512492
3798.669189,2068.457845,296.082377,8586.388927
3798.669504,1915.238745,444.123565,8512.368333
3798.669819,1149.143247,-148.041188,9030.512492
3798.670134,536.266849,-1258.350101,9770.718434
3798.670448,383.047749,-444.123565,10066.800811
3798.670763,689.485948,-222.061783,9770.718434
3798.671078,919.314598,-296.082377,9918.759623
3798.671393,306.438199,-444.123565,10584.944971
3798.671707,-229.828649,-740.205942,10510.924376
3798.672022,-306.438199,-0.000000,9252.574275
3798.672337,383.047749,-0.000000,9252.574275
3798.672652,1915.238745,592.164754,8808.450710
3798.672966,2298.286494,814.226536,6957.935855
3798.673281,2374.896044,-74.020594,8438.347739
3798.673596,1378.971896,-444.123565,9030.512492
3798.673911,229.828649,-518.144159,9326.594869
3798.674226,0.000000,-370.102971,9252.574275
3798.674540,306.438199,-370.102971,10066.800811
3798.674855,0.000000,-518.144159,10288.862594
3798.675170,-689.485948,-222.061783,10658.965565
3798.675485,-995.924147,-444.123565,10214.842000
3798.675799,-1149.143247,-740.205942,9844.739029
3798.676114,-306.438199,-0.000000,9622.677246
3798.676429,459.657299,222.061783,9104.533087
3798.676744,842.705048,148.041188,8660.409521
3798.677059,689.485948,296.082377,8956.491898
3798.677373,612.876398,666.185348,8882.471304
3798.677688,-229.828649,-0.000000,9252.574275
3798.678003,-153.219100,518.144159,10140.821405
3798.678318,383.047749,370.102971,9696.697840
3798.678632,-536.266849,-0.000000,9548.656652
3798.678947,-995.924147,-666.185348,10658.965565
3798.679262,-1991.848295,-1036.288319,10288.862594
3798.679577,-2451.505594,-370.102971,9992.780217
3798.679892,-1915.238745,-296.082377,9474.636058
3798.680206,-689.485948,-74.020594,9326.594869
3798.680521,-459.657299,740.205942,8882.471304
3798.680836,-459.657299,-370.102971,9474.636058
3798.681151,-689.485948,-74.020594,9548.656652
3798.681465,-1149.143247,592.164754,10140.821405
3798.681780,-766.095498,888.247130,9696.697840
3798.682095,-153.219100,1110.308913,10140.821405
3798.682410,229.828649,1554.432478,10510.924376
3798.682725,0.000000,888.247130,10510.924376
3798.683039,-842.705048,518.144159,10066.800811
3798.683354,-995.924147,1184.329507,9622.677246
3798.683669,-995.924147,962.267725,9622.677246
3798.683984,153.219100,814.226536,9178.553681
3798.684298,919.314598,-0.000000,9104.533087
3798.684613,383.047749,-666.185348,9178.553681
3798.684928,-153.219100,-962.267725,9548.656652
3798.685243,-689.485948,-74.020594,9918.759623
3798.685558,-229.828649,592.164754,9844.739029
3798.685872,689.485948,666.185348,9918.759623
3798.686187,842.705048,518.144159,9474.636058
3798.686502,1225.752797,-74.020594,10288.862594
3798.686817,1302.362347,592.164754,9992.780217
3798.687131,689.485948,1406.391290,9548.656652
3798.687446,1378.971896,1554.432478,9400.615463
3798.687761,1991.848295,1554.432478,8882.471304
3798.688076,1991.848295,1036.288319,8660.409521
3798.688390,1991.848295,-0.000000,9178.553681
3798.688705,919.314598,-814.226536,9844.739029
3798.689020,229.828649,-666.185348,10066.800811
3798.689335,0.000000,-296.082377,9696.697840
3798.689650,459.657299,-444.123565,10214.842000
3798.689964,0.000000,-666.185348,10362.883188
3798.690279,76.609550,-962.267725,9918.759623
3798.690594,536.266849,-518.144159,9844.739029
3798.690909,153.219100,-148.041188,8882.471304
3798.691223,842.705048,592.164754,8512.368333
3798.691538,1915.238745,444.123565,8290.306550
3798.691853,1915.238745,-0.000000,8586.388927
3798.692168,1225.752797,-222.061783,9474.636058
3798.692483,842.705048,-370.102971,9474.636058
3798.692797,229.828649,-74.020594,9696.697840
3798.693112,-229.828649,-0.000000,10214.842000
3798.693427,76.609550,-0.000000,9696.697840
3798.693742,0.000000,-296.082377,9548.656652
3798.694056,-689.485948,-592.164754,9696.697840
3798.694371,-842.705048,-370.102971,10288.862594
3798.694686,-1455.581446,370.102971,9770.718434
3798.695001,-459.657299,888.247130,8734.430116
3798.695316,229.828649,740.205942,8734.430116
3798.695630,229.828649,444.123565,8808.450710
3798.695945,306.438199,-370.102971,9252.574275
3798.696260,-306.438199,-370.102971,9474.636058
3798.696575,-919.314598,-0.000000,9844.739029
3798.696889,-612.876398,740.205942,9178.553681
3798.697204,-153.219100,222.061783,9474.636058
3798.697519,-536.266849,-0.000000,9770.718434
3798.697834,-1685.410096,-296.082377,10066.800811
3798.698149,-1532.190996,-0.000000,10214.842000
3798.698463,-1915.238745,740.205942,9104.533087
3798.698778,-919.314598,1036.288319,8734.430116
3798.699093,229.828649,444.123565,8734.430116
3798.699408,76.609550,-0.000000,9400.615463
3798.699722,-766.095498,-888.247130,10214.842000
3798.700037,-1455.581446,-666.185348,10436.903782
3798.700352,-1378.971896,-0.000000,10288.862594
3798.700667,-842.705048,296.082377,9918.759623
3798.700981,0.000000,370.102971,10066.800811
3798.701296,229.828649,222.061783,9918.759623
3798.701611,0.000000,148.041188,10140.821405
3798.701926,-306.438199,370.102971,9844.739029
3798.702241,-306.438199,666.185348,8956.491898
3798.702555,306.438199,222.061783,9326.594869
3798.702870,1072.533697,370.102971,8956.491898
3798.703185,919.314598,-296.082377,9030.512492
3798.703500,306.438199,-1110.308913,9844.739029
3798.703814,0.000000,-1036.288319,11103.089130
3798.704129,-766.095498,-0.000000,10732.986159
3798.704444,0.000000,666.185348,9844.739029
3798.704759,842.705048,666.185348,10066.800811
3798.705074,766.095498,-0.000000,10807.006753
3798.705388,1302.362347,444.123565,10510.924376
3798.705703,766.095498,222.061783,9030.512492
3798.706018,842.705048,1258.350101,8586.388927
3798.706333,1685.410096,1110.308913,8438.347739
3798.706647,2221.676944,962.267725,8290.306550
3798.706962,2068.457845,-0.000000,8438.347739
3798.707277,1302.362347,-1036.288319,10436.903782
3798.707592,383.047749,-1184.329507,10584.944971
3798.707907,-766.095498,-592.164754,9918.759623
3798.708221,-229.828649,-0.000000,10362.883188
3798.708536,0.000000,-444.123565,10288.862594
3798.708851,995.924147,-296.082377,9548.656652
3798.709166,536.266849,-0.000000,9770.718434
3798.709480,383.047749,370.102971,8956.491898
3798.709795,76.609550,888.247130,8512.368333
3798.710110,1149.143247,1258.350101,8216.285956
3798.710425,1838.629195,1036.288319,8364.327145
3798.710740,1532.190996,-74.020594,8512.368333
3798.711054,612.876398,-814.226536,9252.574275
3798.711369,-459.657299,-1332.370696,10140.821405
3798.711684,-1149.143247,-518.144159,10955.047942
3798.711999,-1378.971896,-0.000000,10436.903782
3798.712313,-459.657299,-0.000000,10436.903782
3798.712628,-612.876398,-296.082377,10436.903782
3798.712943,-306.438199,-0.000000,9548.656652
3798.713258,-459.657299,-0.000000,9770.718434
3798.713573,-459.657299,518.144159,8956.491898
3798.713887,229.828649,962.267725,8364.327145
3798.714202,1149.143247,740.205942,7920.203579
3798.714517,766.095498,296.082377,8586.388927
3798.714832,766.095498,-592.164754,9992.780217
3798.715146,-612.876398,-296.082377,9992.780217
3798.715461,-1685.410096,-0.000000,9918.759623
3798.715776,-1532.190996,888.247130,10436.903782
3798.716091,-689.485948,740.205942,10510.924376
3798.716405,-536.266849,592.164754,9992.780217
3798.716720,-306.438199,666.185348,9622.677246
3798.717035,-459.657299,814.226536,9696.697840
3798.717350,-536.266849,1036.288319,9030.512492
3798.717665,0.000000,1702.473667,8956.491898
3798.717979,536.266849,1554.432478,9104.533087
3798.718294,153.219100,740.205942,9474.636058
3798.718609,0.000000,-592.164754,9844.739029
3798.718924,-459.657299,-444.123565,11399.171507
3798.719238,-2145.067394,-0.000000,11029.068536
3798.719553,-1608.800546,148.041188,10955.047942
3798.719868,-1225.752797,666.185348,10881.027347
3798.720183,-536.266849,592.164754,10140.821405
3798.720498,-306.438199,-222.061783,9918.759623
3798.720812,0.000000,444.123565,9474.636058
3798.721127,0.000000,592.164754,9326.594869
3798.721442,842.705048,962.267725,8660.409521
3798.721757,2298.286494,1184.329507,8290.306550
3798.722071,1302.362347,-0.000000,9474.636058
3798.722386,919.314598,-592.164754,9474.636058
3798.722701,0.000000,-1036.288319,10510.924376
3798.723016,-689.485948,-1036.288319,10288.862594
3798.723331,-536.266849,-370.102971,11621.233289
3798.723645,153.219100,-0.000000,10955.047942
3798.723960,306.438199,-0.000000,9548.656652
3798.724275,459.657299,-0.000000,10214.842000
3798.724590,995.924147,222.061783,9104.533087
3798.724904,1225.752797,666.185348,8364.327145
3798.725219,2681.334243,888.247130,7994.224174
3798.725534,2987.772442,962.267725,7846.182985
3798.725849,2834.553343,666.185348,8068.244768
3798.726164,2145.067394,-740.205942,8586.388927
3798.726478,919.314598,-1480.411884,9770.718434
3798.726793,0.000000,-962.267725,10436.903782
3798.727108,-536.266849,-1110.308913,10732.986159
3798.727423,-306.438199,-666.185348,10214.842000
3798.727737,-383.047749,-444.123565,10288.862594
3798.728052,-229.828649,-888.247130,10510.924376
3798.728367,-612.876398,-296.082377,9474.636058
3798.728682,0.000000,-0.000000,8808.450710
3798.728996,766.095498,296.082377,8216.285956
3798.729311,1991.848295,1258.350101,7772.162391
3798.729626,1915.238745,814.226536,7846.182985
3798.729941,1225.752797,-0.000000,8882.471304
3798.730256,306.438199,-666.185348,9992.780217
3798.730570,-383.047749,-740.205942,9918.759623
3798.730885,-842.705048,-666.185348,9844.739029
3798.731200,-459.657299,-370.102971,10214.842000
3798.731515,-766.095498,-222.061783,10436.903782
3798.731829,-1072.533697,-222.061783,9992.780217
3798.732144,-995.924147,-0.000000,9474.636058
3798.732459,-919.314598,-0.000000,8660.409521
3798.732774,306.438199,444.123565,8290.306550
3798.733089,1455.581446,444.123565,7846.182985
3798.733403,1149.143247,518.144159,8142.265362
3798.733718,612.876398,-148.041188,9030.512492
3798.734033,0.000000,-74.020594,9770.718434
3798.734348,-995.924147,296.082377,10140.821405
3798.734662,-919.314598,148.041188,9844.739029
3798.734977,-459.657299,370.102971,10658.965565
3798.735292,-995.924147,666.185348,10288.862594
3798.735607,-1225.752797,666.185348,10510.924376
3798.735922,-1378.971896,740.205942,10140.821405
3798.736236,-1072.533697,666.185348,9548.656652
3798.736551,229.828649,1480.411884,9104.533087
3798.736866,1072.533697,1554.432478,8512.368333
3798.737181,842.705048,1036.288319,8660.409521
3798.737495,459.657299,296.082377,9622.677246
3798.737810,-229.828649,296.082377,10214.842000
3798.738125,-1225.752797,370.102971,10584.944971
3798.738440,-995.924147,74.020594,11473.192101
3798.738755,-766.095498,740.205942,11103.089130
3798.739069,-766.095498,888.247130,10881.027347
3798.739384,-919.314598,740.205942,11103.089130
3798.739699,-919.314598,1036.288319,10066.800811
3798.740014,-153.219100,1406.391290,9252.574275
3798.740328,1225.752797,1406.391290,8364.327145
3798.740643,2528.115143,1258.350101,8512.368333
3798.740958,1762.019645,592.164754,8660.409521
3798.741273,1455.581446,74.020594,8882.471304
3798.741588,536.266849,-296.082377,9474.636058
3798.741902,-383.047749,-148.041188,10140.821405
3798.742217,-229.828649,-518.144159,10881.027347
3798.742532,0.000000,-74.020594,10510.924376
3798.742847,0.000000,-370.102971,10658.965565
3798.743161,-459.657299,-370.102971,11103.089130
3798.743476,-229.828649,222.061783,9622.677246
3798.743791,76.609550,888.247130,9030.512492
3798.744106,2145.067394,666.185348,8586.388927
3798.744420,3064.381992,518.144159,7846.182985
3798.744735,3140.991542,370.102971,7920.203579
3798.745050,2221.676944,-74.020594,8512.368333
3798.745365,1149.143247,-148.041188,9178.553681
3798.745680,306.438199,-370.102971,9474.636058
3798.745994,153.219100,-592.164754,10066.800811
3798.746309,153.219100,-592.164754,10288.862594
3798.746624,-306.438199,-888.247130,10510.924376
3798.746939,-766.095498,-1480.411884,11103.089130
3798.747253,-1378.971896,-518.144159,10732.986159
3798.747568,-766.095498,74.020594,9548.656652
3798.747883,459.657299,666.185348,8364.327145
3798.748198,1685.410096,296.082377,8216.285956
3798.748513,1991.848295,222.061783,8586.388927
3798.748827,1455.581446,-222.061783,9030.512492
3798.749142,536.266849,-148.041188,9474.636058
3798.749457,-153.219100,-444.123565,9548.656652
3798.749772,-306.438199,-74.020594,9844.739029
3798.750086,0.000000,-148.041188,10288.862594
3798.750401,-1072.533697,-518.144159,10658.965565
3798.750716,-1608.800546,-888.247130,11029.068536
3798.751031,-1532.190996,-74.020594,10362.883188
3798.751346,-1532.190996,-0.000000,9104.533087
3798.751660,-459.657299,-0.000000,9178.553681
3798.751975,766.095498,518.144159,8512.368333
3798.752290,919.314598,148.041188,8068.244768
3798.752605,842.705048,-148.041188,8660.409521
3798.752919,153.219100,222.061783,8956.491898
3798.753234,-536.266849,222.061783,9474.636058
3798.753549,-689.485948,-222.061783,9844.739029
3798.753864,-459.657299,-0.000000,10362.883188
3798.754179,-766.095498,-0.000000,10510.924376
3798.754493,-1378.971896,-296.082377,11029.068536
3798.754808,-1685.410096,296.082377,10510.924376
3798.755123,-1608.800546,-0.000000,10140.821405
3798.755438,-459.657299,518.144159,9104.533087
3798.755752,1302.362347,740.205942,8512.368333
3798.756067,842.705048,666.185348,9030.512492
3798.756382,995.924147,-0.000000,8808.450710
3798.756697,229.828649,-0.000000,9252.574275
3798.757011,-306.438199,296.082377,8882.471304
3798.757326,-459.657299,-0.000000,9844.739029
3798.757641,-459.657299,-0.000000,10584.944971
3798.757956,-383.047749,-370.102971,11547.212695
3798.758271,-995.924147,-0.000000,11029.068536
3798.758585,-1149.143247,592.164754,10362.883188
3798.758900,-919.314598,814.226536,10066.800811
3798.759215,536.266849,1332.370696,9548.656652
3798.759530,1991.848295,1258.350101,8660.409521
3798.759844,2221.676944,740.205942,8438.347739
3798.760159,1838.629195,740.205942,8586.388927
3798.760474,995.924147,370.102971,8956.491898
3798.760789,536.266849,666.185348,9030.512492
3798.761104,459.657299,296.082377,10288.862594
3798.761418,459.657299,-148.041188,10288.862594
3798.761733,0.000000,-740.205942,10658.965565
3798.762048,-689.485948,-592.164754,11547.212695
3798.762363,-842.705048,-148.041188,11029.068536
3798.762677,-229.828649,740.205942,9770.718434
3798.762992,919.314598,962.267725,8956.491898
3798.763307,1991.848295,1406.391290,8586.388927
3798.763622,2528.115143,666.185348,8438.347739
3798.763937,2374.896044,444.123565,7846.182985
3798.764251,1608.800546,-148.041188,8142.265362
3798.764566,689.485948,296.082377,8734.430116
3798.764881,766.095498,222.061783,8808.450710
3798.765196,383.047749,-148.041188,9992.780217
3798.765510,-1149.143247,-1554.432478,10807.006753
3798.765825,-1225.752797,-1702.473667,11843.295072
3798.766140,-2145.067394,-888.247130,10658.965565
3798.766455,-1685.410096,-0.000000,9844.739029
3798.766770,-459.657299,222.061783,9992.780217
3798.767084,766.095498,296.082377,8512.368333
3798.767399,1455.581446,148.041188,7920.203579
3798.767714,1455.581446,-148.041188,8882.471304
3798.768028,1149.143247,888.247130,7994.224174
3798.768343,689.485948,888.247130,8216.285956
3798.768657,766.095498,1036.288319,8586.388927
3798.768972,689.485948,222.061783,11103.089130
3798.769287,0.000000,-1110.308913,9844.739029
3798.769601,-995.924147,-1480.411884,10807.006753
3798.769916,-2145.067394,-666.185348,11399.171507
3798.770230,-2068.457845,666.185348,10732.986159
3798.770545,-919.314598,370.102971,9696.697840
3798.770860,153.219100,592.164754,9252.574275
3798.771174,689.485948,740.205942,8808.450710
3798.771489,612.876398,740.205942,8808.450710
3798.771803,229.828649,370.102971,8882.471304
3798.772118,153.219100,1110.308913,8586.388927
3798.772433,1072.533697,740.205942,9400.615463
3798.772747,612.876398,370.102971,9770.718434
3798.773062,-306.438199,-0.000000,10362.883188
3798.773376,-1302.362347,-370.102971,11251.130318
3798.773691,-1762.019645,-74.020594,10436.903782
3798.774005,-1685.410096,444.123565,9474.636058
3798.774320,-766.095498,-0.000000,9548.656652
3798.774635,153.219100,-74.020594,8586.388927
3798.774949,-612.876398,-74.020594,8364.327145
3798.775264,0.000000,-370.102971,8956.491898
3798.775578,-459.657299,-0.000000,8956.491898
3798.775893,-153.219100,-0.000000,9400.615463
3798.776208,459.657299,370.102971,9326.594869
3798.776522,689.485948,296.082377,9770.718434
3798.776837,-153.219100,518.144159,10140.821405
3798.777151,-383.047749,-74.020594,10955.047942
3798.777466,-1072.533697,444.123565,11473.192101
3798.777781,-1302.362347,666.185348,10436.903782
3798.778095,306.438199,1036.288319,9622.677246
3798.778410,1455.581446,592.164754,9178.553681
3798.778724,919.314598,888.247130,8364.327145
3798.779039,1225.752797,-592.164754,9696.697840
3798.779354,459.657299,-0.000000,8808.450710
3798.779668,153.219100,-0.000000,9326.594869
3798.779983,1072.533697,-0.000000,9178.553681
3798.780297,919.314598,-370.102971,9474.636058
3798.780612,612.876398,-518.144159,9770.718434
3798.780927,229.828649,-1258.350101,10658.965565
3798.781241,0.000000,-0.000000,10510.924376
3798.781556,-306.438199,814.226536,9548.656652
3798.781870,842.705048,1332.370696,9104.533087
3798.782185,1302.362347,592.164754,9104.533087
3798.782500,1685.410096,888.247130,9252.574275
3798.782814,1532.190996,-0.000000,9326.594869
3798.783129,612.876398,-0.000000,9030.512492
3798.783443,306.438199,370.102971,8956.491898
3798.783758,383.047749,592.164754,9252.574275
3798.784073,459.657299,-148.041188,9844.739029
3798.784387,-383.047749,-814.226536,10214.842000
3798.784702,-842.705048,-1258.350101,11251.130318
3798.785016,-1302.362347,-814.226536,10732.986159
3798.785331,-1378.971896,-0.000000,9696.697840
3798.785646,-612.876398,962.267725,9400.615463
3798.785960,383.047749,148.041188,8808.450710
3798.786275,919.314598,-0.000000,8290.306550
3798.786589,995.924147,-518.144159,8734.430116
3798.786904,1072.533697,-0.000000,8364.327145
3798.787219,459.657299,-0.000000,9400.615463
3798.787533,536.266849,370.102971,9178.553681
3798.787848,383.047749,518.144159,9474.636058
3798.788162,-229.828649,-0.000000,10288.862594
3798.788477,-689.485948,-888.247130,10955.047942
3798.788792,-1455.581446,-296.082377,10658.965565
3798.789106,-1149.143247,370.102971,10066.800811
3798.789421,0.000000,296.082377,9622.677246
3798.789735,459.657299,666.185348,9548.656652
3798.790050,689.485948,222.061783,9104.533087
3798.790365,612.876398,-370.102971,9178.553681
3798.790679,229.828649,-148.041188,9104.533087
3798.790994,383.047749,814.226536,9400.615463
3798.791308,842.705048,814.226536,9548.656652
3798.791623,842.705048,444.123565,9770.718434
3798.791938,-229.828649,518.144159,10362.883188
3798.792252,-612.876398,148.041188,10214.842000
3798.792567,-995.924147,148.041188,10214.842000
3798.792881,-995.924147,740.205942,9844.739029
3798.793196,-383.047749,888.247130,9548.656652
3798.793511,383.047749,592.164754,9252.574275
3798.793825,459.657299,592.164754,9622.677246
3798.794140,612.876398,222.061783,9548.656652
3798.794454,153.219100,-0.000000,9770.718434
3798.794769,-536.266849,296.082377,9696.697840
3798.795084,306.438199,222.061783,9992.780217
3798.795398,0.000000,814.226536,10066.800811
3798.795713,-383.047749,-148.041188,10140.821405
3798.796027,-689.485948,-74.020594,10881.027347
3798.796342,-766.095498,296.082377,9844.739029
3798.796657,-383.047749,518.144159,8882.471304
3798.796971,459.657299,1258.350101,8734.430116
3798.797286,1149.143247,444.123565,8956.491898
3798.797600,995.924147,370.102971,9030.512492
3798.797915,766.095498,-444.123565,9178.553681
3798.798230,383.047749,-0.000000,9326.594869
3798.798544,0.000000,-666.185348,9474.636058
3798.798859,612.876398,-962.267725,9474.636058
3798.799173,689.485948,-370.102971,10140.821405
3798.799488,306.438199,-296.082377,10214.842000
3798.799803,-383.047749,-0.000000,10214.842000
3798.800117,-459.657299,666.185348,9548.656652
3798.800432,0.000000,666.185348,9178.553681
3798.800746,1149.143247,444.123565,9178.553681
3798.801061,1915.238745,222.061783,8142.265362
3798.801376,1455.581446,-148.041188,8216.285956
3798.801690,842.705048,-148.041188,9104.533087
3798.802005,842.705048,-148.041188,9474.636058
3798.802319,76.609550,-0.000000,9992.780217
3798.802634,76.609550,-0.000000,9918.759623
3798.802949,306.438199,-0.000000,9696.697840
3798.803263,0.000000,-0.000000,10140.821405
3798.803578,-459.657299,-740.205942,11177.109724
3798.803892,-766.095498,-0.000000,10066.800811
3798.804207,-995.924147,-74.020594,8808.450710
3798.804522,383.047749,296.082377,8882.471304
3798.804836,766.095498,-0.000000,9400.615463
3798.805151,459.657299,-148.041188,9474.636058
3798.805465,0.000000,-962.267725,9992.780217
3798.805780,-536.266849,-444.123565,9844.739029
3798.806095,-612.876398,-0.000000,9918.759623
3798.806409,0.000000,-148.041188,9844.739029
3798.806724,612.876398,-0.000000,9992.780217
3798.807038,229.828649,222.061783,10066.800811
3798.807353,-153.219100,-0.000000,9400.615463
3798.807668,-995.924147,444.123565,9326.594869
3798.807982,-383.047749,666.185348,8956.491898
3798.808297,459.657299,296.082377,8586.388927
3798.808611,1149.143247,-74.020594,8364.327145
3798.808926,612.876398,-222.061783,9104.533087
3798.809241,153.219100,-444.123565,9696.697840
3798.809555,-306.438199,-0.000000,10214.842000
3798.809870,-766.095498,296.082377,9992.780217
3798.810184,76.609550,370.102971,10288.862594
3798.810499,459.657299,666.185348,9548.656652
3798.810814,229.828649,370.102971,9770.718434
3798.811128,383.047749,370.102971,9844.739029
3798.811443,0.000000,962.267725,8956.491898
3798.811757,76.609550,1480.411884,8586.388927
3798.812072,842.705048,1332.370696,8216.285956
3798.812387,1455.581446,592.164754,8586.388927
3798.812701,995.924147,-370.102971,9326.594869
3798.813016,76.609550,-814.226536,10362.883188
3798.813330,-1378.971896,-222.061783,11399.171507
3798.813645,-1455.581446,518.144159,10807.006753
3798.813960,-383.047749,592.164754,10288.862594
3798.814274,153.219100,962.267725,10732.986159
3798.814589,-229.828649,518.144159,11473.192101
3798.814903,0.000000,740.205942,10140.821405
3798.815218,153.219100,1184.329507,9030.512492
3798.815533,689.485948,1554.432478,8660.409521
3798.815847,1455.581446,1184.329507,7920.203579
3798.816162,1685.410096,296.082377,8586.388927
3798.816476,919.314598,-518.144159,9326.594869
3798.816791,229.828649,-1184.329507,10436.903782
3798.817106,-306.438199,-962.267725,10288.862594
3798.817420,-1302.362347,74.020594,10288.862594
3798.817735,-306.438199,-0.000000,10955.047942
3798.818049,229.828649,-74.020594,10362.883188
3798.818364,0.000000,-0.000000,9622.677246
3798.818679,229.828649,-0.000000,9622.677246
3798.818993,306.438199,1184.329507,9030.512492
3798.819308,612.876398,888.247130,7994.224174
3798.819622,2374.896044,1554.432478,7846.182985
3798.819937,2145.067394,592.164754,8290.306550
3798.820252,1608.800546,148.041188,8808.450710
3798.820566,229.828649,-1184.329507,10362.883188
3798.820881,-612.876398,-814.226536,10881.027347
3798.821195,-1455.581446,592.164754,10214.842000
3798.821510,-995.924147,-444.123565,10436.903782
3798.821825,-689.485948,-592.164754,11103.089130
3798.822139,-766.095498,-370.102971,11325.150913
3798.822454,-919.314598,-74.020594,10658.965565
3798.822768,-766.095498,444.123565,9474.636058
3798.823083,229.828649,1554.432478,8734.430116
3798.823398,1608.800546,1332.370696,7698.141797
3798.823712,2221.676944,592.164754,7476.080014
3798.824027,1532.190996,-148.041188,8586.388927
3798.824341,842.705048,-814.226536,9400.615463
3798.824656,-383.047749,-814.226536,9844.739029
3798.824971,-1455.581446,-592.164754,10362.883188
3798.825285,-919.314598,-370.102971,11473.192101
3798.825600,-459.657299,-518.144159,10881.027347
3798.825914,-995.924147,-888.247130,10436.903782
3798.826229,-995.924147,-962.267725,10436.903782
3798.826544,-1149.143247,-0.000000,9474.636058
3798.826858,0.000000,-0.000000,8882.471304
3798.827173,919.314598,888.247130,7846.182985
3798.827487,1685.410096,592.164754,8068.244768
3798.827802,1149.143247,-222.061783,8660.409521
3798.828117,229.828649,-740.205942,8956.491898
3798.828431,0.000000,-740.205942,9992.780217
3798.828746,-536.266849,-592.164754,10436.903782
3798.829060,-383.047749,296.082377,10510.924376
3798.829375,-153.219100,222.061783,10658.965565
3798.829690,-459.657299,-0.000000,10140.821405
3798.830004,-153.219100,-0.000000,10288.862594
3798.830319,-459.657299,592.164754,9400.615463
3798.830633,459.657299,740.205942,8512.368333
3798.830948,1608.800546,592.164754,8068.244768
3798.831263,1762.019645,-0.000000,7920.203579
3798.831577,689.485948,-444.123565,8734.430116
3798.831892,229.828649,-888.247130,9474.636058
3798.832206,-229.828649,-666.185348,9844.739029
3798.832521,-842.705048,-518.144159,10066.800811
3798.832836,306.438199,-74.020594,11473.192101
3798.833150,-153.219100,-0.000000,10510.924376
3798.833465,-842.705048,-0.000000,9622.677246
3798.833779,-459.657299,-74.020594,10436.903782
3798.834094,-459.657299,666.185348,9770.718434
3798.834409,306.438199,1406.391290,8512.368333
3798.834723,1915.238745,1110.308913,8142.265362
3798.835038,2145.067394,740.205942,7772.162391
3798.835352,1838.629195,-0.000000,8512.368333
3798.835667,995.924147,-0.000000,9622.677246
3798.835982,-229.828649,-148.041188,10436.903782
3798.836296,-766.095498,-0.000000,10732.986159
3798.836611,-612.876398,370.102971,9992.780217
3798.836925,-306.438199,-74.020594,10658.965565
3798.837240,-459.657299,148.041188,10584.944971
3798.837555,-995.924147,-0.000000,10732.986159
3798.837869,-766.095498,1110.308913,9030.512492
3798.838184,459.657299,1036.288319,9104.533087
3798.838498,1762.019645,1702.473667,8290.306550
3798.838813,2528.115143,518.144159,7920.203579
3798.839128,1685.410096,444.123565,8290.306550
3798.839442,383.047749,-222.061783,9474.636058
3798.839757,-229.828649,222.061783,10066.800811
3798.840071,-536.266849,370.102971,10362.883188
3798.840386,-459.657299,296.082377,10140.821405
3798.840701,-689.485948,-0.000000,10807.006753
3798.841015,-842.705048,-0.000000,10881.027347
3798.841330,-995.924147,-370.102971,11029.068536
3798.841644,-919.314598,444.123565,9474.636058
3798.841959,-536.266849,888.247130,9326.594869
3798.842274,1072.533697,740.205942,8882.471304
3798.842588,1532.190996,814.226536,8438.347739
3798.842903,1532.190996,444.123565,8512.368333
3798.843217,995.924147,-74.020594,9474.636058
3798.843532,153.219100,-0.000000,9622.677246
3798.843847,-153.219100,-74.020594,9844.739029
3798.844161,-229.828649,370.102971,9918.759623
3798.844476,-229.828649,-222.061783,10732.986159
3798.844790,-689.485948,-148.041188,10362.883188
3798.845105,-1072.533697,-222.061783,10881.027347
3798.845420,-1072.533697,444.123565,9770.718434
3798.845734,-383.047749,888.247130,9252.574275
3798.846049,1072.533697,814.226536,8660.409521
3798.846363,1762.019645,-148.041188,8512.368333
3798.846678,1149.143247,-296.082377,8734.430116
3798.846993,689.485948,-666.185348,9918.759623
3798.847307,153.219100,-0.000000,9400.615463
3798.847622,0.000000,296.082377,9548.656652
3798.847936,0.000000,222.061783,10214.842000
3798.848251,0.000000,-0.000000,10881.027347
3798.848566,-536.266849,-0.000000,9992.780217
3798.848880,-612.876398,-148.041188,10436.903782
3798.849195,-689.485948,296.082377,9178.553681
3798.849509,-229.828649,296.082377,9474.636058
3798.849824,919.314598,444.123565,8660.409521
3798.850139,1149.143247,-0.000000,8438.347739
3798.850453,1302.362347,-0.000000,8438.347739
3798.850768,536.266849,-222.061783,9326.594869
3798.851082,-76.609550,-74.020594,8956.491898
3798.851397,-306.438199,-74.020594,9178.553681
3798.851712,-306.438199,-444.123565,10584.944971
3798.852026,-842.705048,-148.041188,10584.944971
3798.852341,-1072.533697,-74.020594,10510.924376
3798.852655,-842.705048,-444.123565,11399.171507
3798.852970,-919.314598,444.123565,9696.697840
3798.853285,76.609550,1258.350101,9474.636058
3798.853599,1455.581446,1480.411884,8290.306550
3798.853914,1915.238745,1258.350101,7772.162391
3798.854228,1915.238745,296.082377,8586.388927
3798.854543,995.924147,-148.041188,9104.533087
3798.854858,536.266849,-74.020594,8512.368333
3798.855172,0.000000,-518.144159,9104.533087
3798.855487,76.609550,-1036.288319,10214.842000
3798.855801,0.000000,-1110.308913,11251.130318
3798.856116,-1225.752797,-814.226536,11325.150913
3798.856431,-1378.971896,-592.164754,11547.212695
3798.856745,-995.924147,518.144159,10807.006753
3798.857060,-459.657299,1036.288319,9548.656652
3798.857374,1302.362347,1184.329507,8586.388927
3798.857689,1915.238745,740.205942,8364.327145
3798.858004,2145.067394,592.164754,8660.409521
3798.858318,1532.190996,74.020594,8734.430116
3798.858633,842.705048,-0.000000,9474.636058
3798.858947,0.000000,370.102971,9918.759623
3798.859262,-229.828649,296.082377,9770.718434
3798.859577,-459.657299,-666.185348,10288.862594
3798.859891,-1378.971896,-1480.411884,11177.109724
3798.860206,-1762.019645,-1702.473667,11695.253884
3798.860520,-1991.848295,-296.082377,10658.965565
3798.860835,-1532.190996,-0.000000,9326.594869
3798.861150,459.657299,444.123565,9030.512492
3798.861464,1225.752797,592.164754,7994.224174
3798.861779,1225.752797,-74.020594,8290.306550
3798.862093,1378.971896,-148.041188,8512.368333
3798.862408,766.095498,-0.000000,8734.430116
3798.862723,612.876398,518.144159,8438.347739
3798.863037,383.047749,296.082377,9474.636058
3798.863352,-459.657299,-444.123565,10436.903782
3798.863666,-1225.752797,-740.205942,10881.027347
3798.863981,-995.924147,-740.205942,10732.986159
3798.864296,-1608.800546,-222.061783,10510.924376
3798.864610,-995.924147,666.185348,9326.594869
3798.864925,459.657299,592.164754,9178.553681
3798.865239,766.095498,592.164754,8734.430116
3798.865554,1149.143247,-0.000000,9030.512492
3798.865869,1072.533697,-0.000000,8216.285956
3798.866183,0.000000,-0.000000,8882.471304
3798.866498,383.047749,444.123565,9622.677246
3798.866812,612.876398,518.144159,9400.615463
3798.867127,459.657299,296.082377,9918.759623
3798.867442,-306.438199,-74.020594,10510.924376
3798.867756,-1225.752797,740.205942,10436.903782
3798.868069,-1149.143247,444.123565,9770.718434
3798.868383,-229.828649,740.205942,9622.677246
3798.868698,383.047749,1554.432478,9104.533087
3798.869013,612.876398,740.205942,8660.409521
3798.869327,919.314598,-0.000000,9252.574275
3798.869642,383.047749,-222.061783,10066.800811
3798.869957,0.000000,444.123565,9474.636058
3798.870271,0.000000,444.123565,9474.636058
3798.870586,76.609550,1036.288319,9992.780217
3798.870901,459.657299,518.144159,10955.047942
3798.871215,-689.485948,222.061783,10510.924376
3798.871530,-766.095498,-74.020594,10584.944971
3798.871844,-842.705048,518.144159,10288.862594
3798.872159,-306.438199,1184.329507,9474.636058
3798.872474,612.876398,962.267725,8808.450710
3798.872788,689.485948,148.041188,8956.491898
3798.873103,612.876398,-444.123565,9622.677246
3798.873418,612.876398,-296.082377,9030.512492
3798.873732,459.657299,370.102971,9178.553681
3798.874047,536.266849,962.267725,9770.718434
3798.874362,383.047749,444.123565,9918.759623
3798.874676,229.828649,222.061783,10066.800811
3798.874991,-383.047749,-0.000000,10881.027347
3798.875306,-306.438199,-0.000000,11399.171507
3798.875620,153.219100,592.164754,10140.821405
3798.875935,229.828649,1110.308913,9696.697840
3798.876250,919.314598,1332.370696,9474.636058
3798.876564,766.095498,888.247130,8364.327145
3798.876879,1149.143247,-0.000000,8734.430116
3798.877194,459.657299,-296.082377,9548.656652
3798.877508,0.000000,-0.000000,9474.636058
3798.877823,0.000000,-222.061783,9474.636058
3798.878137,0.000000,-370.102971,10288.862594
3798.878452,76.609550,-370.102971,10436.903782
3798.878767,-766.095498,-518.144159,10362.883188
3798.879081,-1072.533697,-666.185348,10658.965565
3798.879396,-1378.971896,-74.020594,10362.883188
3798.879711,-306.438199,592.164754,8808.450710
3798.880025,842.705048,814.226536,8808.450710
3798.880340,995.924147,296.082377,8808.450710
3798.880655,1225.752797,-296.082377,9178.553681
3798.880969,612.876398,-740.205942,9104.533087
3798.881284,229.828649,-518.144159,9548.656652
3798.881599,229.828649,-370.102971,9400.615463
3798.881913,612.876398,-518.144159,9474.636058
3798.882228,76.609550,-666.185348,10066.800811
3798.882543,-689.485948,-740.205942,10510.924376
3798.882857,-1302.362347,-296.082377,10140.821405
3798.883172,-1225.752797,-592.164754,9326.594869
3798.883486,-383.047749,-74.020594,8808.450710
3798.883801,842.705048,-0.000000,8882.471304
3798.884116,1302.362347,-222.061783,7846.182985
3798.884430,919.314598,-814.226536,8364.327145
3798.884745,995.924147,-666.185348,9622.677246
3798.885060,0.000000,-518.144159,9474.636058
3798.885374,76.609550,-0.000000,9030.512492
3798.885689,766.095498,-148.041188,9474.636058
3798.886004,1225.752797,-74.020594,9400.615463
3798.886318,229.828649,-0.000000,9770.718434
3798.886633,-459.657299,666.185348,9622.677246
3798.886948,-766.095498,666.185348,9474.636058
3798.887262,-229.828649,888.247130,9178.553681
3798.887577,1149.143247,740.205942,8364.327145
3798.887892,1072.533697,296.082377,8290.306550
3798.888206,766.095498,-222.061783,9178.553681
3798.888521,0.000000,-0.000000,9548.656652
3798.888836,-612.876398,74.020594,9548.656652
3798.889150,-459.657299,444.123565,10140.821405
3798.889465,-153.219100,296.082377,10214.842000
3798.889779,-153.219100,518.144159,10436.903782
3798.890094,0.000000,296.082377,11177.109724
3798.890409,-229.828649,1258.350101,10807.006753
3798.890723,-459.657299,1480.411884,9918.759623
3798.891038,-76.609550,2220.617826,9326.594869
3798.891353,1225.752797,1924.535449,8808.450710
3798.891667,919.314598,296.082377,9104.533087
3798.891982,919.314598,-666.185348,10066.800811
3798.892297,153.219100,-0.000000,9770.718434
3798.892611,-1455.581446,-148.041188,9992.780217
3798.892926,-1225.752797,-0.000000,10362.883188
3798.893241,-459.657299,-444.123565,11103.089130
3798.893555,-536.266849,-0.000000,11251.130318
3798.893870,-766.095498,222.061783,10658.965565
3798.894185,-689.485948,1036.288319,10510.924376
3798.894499,-689.485948,1332.370696,9844.739029
3798.894814,306.438199,1850.514855,8142.265362
3798.895128,1838.629195,1554.432478,8290.306550
3798.895443,1915.238745,518.144159,8438.347739
3798.895758,1455.581446,-444.123565,8956.491898
3798.896072,612.876398,-592.164754,9548.656652
3798.896387,-383.047749,-1110.308913,10066.800811
3798.896702,-689.485948,-444.123565,10362.883188
3798.897016,-153.219100,-740.205942,10807.006753
3798.897331,0.000000,-814.226536,10510.924376
3798.897646,-306.438199,-592.164754,10140.821405
3798.897960,-306.438199,-148.041188,9992.780217
3798.898275,-689.485948,222.061783,8734.430116
3798.898590,459.657299,666.185348,8586.388927
3798.898904,1838.629195,370.102971,8808.450710
3798.899219,1838.629195,-370.102971,8364.327145
3798.899534,1302.362347,-592.164754,8734.430116
3798.899848,766.095498,-814.226536,9622.677246
3798.900163,0.000000,-518.144159,9696.697840
3798.900477,0.000000,148.041188,9844.739029
3798.900792,383.047749,-0.000000,9844.739029
3798.901107,383.047749,-444.123565,9474.636058
3798.901421,0.000000,-296.082377,9770.718434
3798.901736,0.000000,-0.000000,9178.553681
3798.902051,0.000000,-148.041188,8586.388927
3798.902365,383.047749,-222.061783,7920.203579
3798.902680,1455.581446,-962.267725,8290.306550
3798.902995,1149.143247,-888.247130,8364.327145
3798.903309,766.095498,-814.226536,9252.574275
3798.903624,0.000000,-888.247130,9622.677246
3798.903939,-689.485948,-444.123565,9622.677246
3798.904253,0.000000,148.041188,9474.636058
3798.904568,306.438199,148.041188,9844.739029
3798.904883,306.438199,592.164754,9696.697840
3798.905197,153.219100,666.185348,9548.656652
3798.905512,153.219100,814.226536,9030.512492
3798.905827,229.828649,962.267725,8660.409521
3798.906141,536.266849,592.164754,8734.430116
3798.906456,689.485948,444.123565,8438.347739
3798.906770,842.705048,-222.061783,9326.594869
3798.907085,153.219100,-592.164754,9844.739029
3798.907400,-842.705048,-814.226536,10584.944971
3798.907714,-2221.676944,-444.123565,11103.089130
3798.908029,-1378.971896,-74.020594,11473.192101
3798.908344,-766.095498,222.061783,10584.944971
3798.908658,-306.438199,518.144159,10732.986159
3798.908973,0.000000,1110.308913,10436.903782
3798.909288,-229.828649,1406.391290,9622.677246
3798.909602,-153.219100,1924.535449,9622.677246
3798.909917,766.095498,2368.659014,8882.471304
3798.910232,1302.362347,2220.617826,8808.450710
3798.910546,1455.581446,666.185348,9400.615463
3798.910861,459.657299,-0.000000,10288.862594
3798.911176,-1072.533697,-592.164754,11547.212695
3798.911490,-1991.848295,-740.205942,11843.295072
3798.911805,-2145.067394,-370.102971,11473.192101
3798.912119,-689.485948,-0.000000,11621.233289
3798.912434,-689.485948,370.102971,11251.130318
3798.912749,-383.047749,740.205942,10436.903782
3798.913063,-306.438199,740.205942,9770.718434
3798.913378,0.000000,1406.391290,8364.327145
3798.913693,1838.629195,1480.411884,7772.162391
3798.914007,2221.676944,962.267725,8216.285956
3798.914322,2221.676944,518.144159,8290.306550
3798.914637,1072.533697,-370.102971,8438.347739
3798.914951,383.047749,-666.185348,9844.739029
3798.915266,-842.705048,-592.164754,10214.842000
3798.915581,-1072.533697,-370.102971,10584.944971
3798.915895,-612.876398,-888.247130,10658.965565
3798.916210,-306.438199,-740.205942,10584.944971
3798.916525,-612.876398,-444.123565,10140.821405
3798.916839,-76.609550,-370.102971,9474.636058
3798.917154,-383.047749,-370.102971,9030.512492
3798.917468,766.095498,518.144159,8586.388927
3798.917783,2068.457845,-0.000000,7328.038826
3798.918098,2451.505594,-0.000000,7179.997637
3798.918412,2221.676944,-518.144159,8734.430116
3798.918727,766.095498,-1184.329507,9400.615463
3798.919042,-383.047749,-962.267725,9400.615463
3798.919356,-459.657299,-592.164754,9474.636058
3798.919671,383.047749,-444.123565,10214.842000
3798.919986,-229.828649,-444.123565,9992.780217
3798.920300,0.000000,-518.144159,10066.800811
3798.920615,-306.438199,-518.144159,9622.677246
3798.920930,-229.828649,-148.041188,9030.512492
3798.921244,612.876398,814.226536,7994.224174
3798.921559,2068.457845,444.123565,8142.265362
3798.921874,1991.848295,592.164754,8216.285956
3798.922188,1072.533697,-444.123565,8660.409521
3798.922503,383.047749,-740.205942,9474.636058
3798.922818,-229.828649,-444.123565,9474.636058
3798.923132,-612.876398,-518.144159,10436.903782
3798.923447,0.000000,-296.082377,10584.944971
3798.923761,-766.095498,444.123565,10436.903782
3798.924076,-536.266849,518.144159,10584.944971
3798.924391,-383.047749,962.267725,9918.759623
3798.924705,-612.876398,814.226536,9548.656652
3798.925020,306.438199,1332.370696,8734.430116
3798.925335,1225.752797,962.267725,7698.141797
3798.925649,1302.362347,518.144159,8290.306550
3798.925964,459.657299,-0.000000,9400.615463
3798.926279,76.609550,-296.082377,10510.924376
3798.926593,-1149.143247,-148.041188,11103.089130
3798.926908,-1455.581446,296.082377,11399.171507
3798.927223,-766.095498,814.226536,11769.274478
3798.927537,-689.485948,888.247130,10658.965565
3798.927852,-995.924147,592.164754,10881.027347
3798.928167,-1225.752797,1110.308913,10807.006753
3798.928481,-919.314598,1480.411884,9252.574275
3798.928796,689.485948,1406.391290,8660.409521
3798.929110,1838.629195,1702.473667,8364.327145
3798.929425,1838.629195,592.164754,8808.450710
3798.929740,1302.362347,296.082377,8956.491898
3798.930054,229.828649,-0.000000,9622.677246
3798.930369,-919.314598,518.144159,10140.821405
3798.930684,-766.095498,-0.000000,10732.986159
3798.930998,-383.047749,-0.000000,10881.027347
3798.931313,-1149.143247,222.061783,10881.027347
3798.931628,-1302.362347,-74.020594,11251.130318
3798.931942,-1378.971896,592.164754,11103.089130
3798.932257,-1072.533697,592.164754,9622.677246
3798.932572,306.438199,1332.370696,9178.553681
3798.932886,1608.800546,1036.288319,8142.265362
3798.933201,1991.848295,740.205942,8142.265362
3798.933516,2068.457845,296.082377,9326.594869
3798.933830,842.705048,-222.061783,9252.574275
3798.934145,0.000000,-148.041188,9622.677246
3798.934459,0.000000,-148.041188,9770.718434
3798.934774,229.828649,-222.061783,10436.903782
3798.935089,-612.876398,-740.205942,9918.759623
3798.935403,-1302.362347,-1036.288319,10436.903782
3798.935718,-1225.752797,-814.226536,10288.862594
3798.936033,-1378.971896,-148.041188,9474.636058
3798.936347,459.657299,-0.000000,8290.306550
3798.936662,1532.190996,-74.020594,8438.347739
3798.936977,1685.410096,-148.041188,7920.203579
3798.937291,1608.800546,-444.123565,8734.430116
3798.937606,1302.362347,-296.082377,8956.491898
3798.937921,689.485948,-1036.288319,9844.739029
3798.938235,459.657299,296.082377,9770.718434
3798.938550,1072.533697,-0.000000,9474.636058
3798.938865,536.266849,-74.020594,10288.862594
3798.939179,0.000000,-592.164754,10436.903782
3798.939494,0.000000,-1110.308913,10066.800811
3798.939809,0.000000,-222.061783,9252.574275
3798.940123,612.876398,518.144159,9104.533087
3798.940438,1532.190996,666.185348,8438.347739
3798.940752,1685.410096,-0.000000,7920.203579
3798.941067,1302.362347,-296.082377,8734.430116
3798.941382,919.314598,-1184.329507,9178.553681
3798.941696,76.609550,-666.185348,9770.718434
3798.942011,-153.219100,-0.000000,9770.718434
3798.942326,0.000000,148.041188,10658.965565
3798.942640,0.000000,-0.000000,10436.903782
3798.942955,-842.705048,296.082377,10510.924376
3798.943270,-1302.362347,-222.061783,11917.315666
3798.943584,-1378.971896,1258.350101,10066.800811
3798.943899,0.000000,1702.473667,9326.594869
3798.944214,995.924147,1628.453072,8438.347739
3798.944528,689.485948,296.082377,8882.471304
3798.944843,842.705048,222.061783,8438.347739
3798.945158,-229.828649,-592.164754,9622.677246
3798.945472,-919.314598,-148.041188,9474.636058
3798.945787,-766.095498,-148.041188,10140.821405
3798.946101,-689.485948,370.102971,10214.842000
3798.946416,-1378.971896,-74.020594,11473.192101
3798.946731,-1532.190996,-0.000000,11473.192101
3798.947045,-1685.410096,148.041188,10510.924376
3798.947360,-1455.581446,814.226536,9918.759623
3798.947675,0.000000,1702.473667,9400.615463
3798.947989,1302.362347,1702.473667,8438.347739
3798.948304,1915.238745,1998.556043,7772.162391
3798.948619,2451.505594,1184.329507,8438.347739
3798.948933,1302.362347,888.247130,8512.368333
3798.949248,383.047749,222.061783,8956.491898
3798.949563,459.657299,148.041188,9548.656652
3798.949877,0.000000,-0.000000,10584.944971
3798.950192,-612.876398,-148.041188,11103.089130
3798.950507,-1149.143247,-74.020594,11251.130318
3798.950821,-1838.629195,-296.082377,11325.150913
3798.951136,-1378.971896,814.226536,9992.780217
3798.951450,459.657299,888.247130,8882.471304
3798.951765,1455.581446,1258.350101,8438.347739
3798.952080,1991.848295,740.205942,7772.162391
3798.952394,2145.067394,296.082377,8512.368333
3798.952709,1608.800546,-0.000000,8734.430116
3798.953024,842.705048,-0.000000,9030.512492
3798.953338,919.314598,444.123565,9696.697840
3798.953653,995.924147,-148.041188,9918.759623
3798.953968,76.609550,-370.102971,10807.006753
3798.954282,-689.485948,-592.164754,11473.192101
3798.954597,-1455.581446,-74.020594,11473.192101
3798.954912,-1378.971896,-0.000000,10584.944971
3798.955226,-459.657299,370.102971,9918.759623
3798.955541,766.095498,296.082377,9178.553681
3798.955856,1608.800546,-148.041188,8438.347739
3798.956170,1149.143247,-222.061783,8882.471304
3798.956485,1455.581446,-444.123565,8142.265362
3798.956800,995.924147,-296.082377,8734.430116
3798.957114,995.924147,-0.000000,9326.594869
3798.957429,689.485948,-0.000000,9696.697840
3798.957743,766.095498,-666.185348,9548.656652
3798.958058,0.000000,-740.205942,10732.986159
3798.958373,-1302.362347,-518.144159,10807.006753
3798.958687,-1302.362347,-296.082377,10066.800811
3798.959002,-306.438199,222.061783,9622.677246
3798.959317,1149.143247,-0.000000,9252.574275
3798.959631,995.924147,-74.020594,8290.306550
3798.959946,1225.752797,-0.000000,8882.471304
3798.960261,689.485948,-222.061783,8586.388927
3798.960575,76.609550,-74.020594,8586.388927
3798.960890,536.266849,-0.000000,8808.450710
3798.961205,76.609550,-148.041188,9622.677246
3798.961519,-383.047749,-0.000000,10510.924376
3798.961834,-1149.143247,-222.061783,10214.842000
3798.962149,-1608.800546,-518.144159,10362.883188
3798.962463,-1991.848295,-370.102971,10362.883188
3798.962778,-1302.362347,666.185348,9992.780217
3798.963092,-229.828649,518.144159,9548.656652
3798.963407,0.000000,222.061783,8808.450710
3798.963722,306.438199,-0.000000,9178.553681
3798.964036,76.609550,-370.102971,8142.265362
3798.964351,-229.828649,-0.000000,8660.409521
3798.964666,-229.828649,-74.020594,9548.656652
3798.964980,0.000000,-0.000000,9622.677246
3798.965295,-766.095498,-0.000000,10510.924376
3798.965610,-995.924147,-0.000000,10436.903782
3798.965924,-1455.581446,-370.102971,11251.130318
3798.966239,-1762.019645,370.102971,10436.903782
3798.966554,-536.266849,444.123565,9622.677246
3798.966868,383.047749,888.247130,9696.697840
3798.967183,536.266849,666.185348,9400.615463
3798.967498,1302.362347,444.123565,9696.697840
3798.967812,536.266849,-0.000000,8586.388927
3798.968127,536.266849,296.082377,8734.430116
3798.968441,1225.752797,296.082377,9622.677246
3798.968756,1072.533697,296.082377,9918.759623
3798.969071,612.876398,370.102971,10214.842000
3798.969386,0.000000,-0.000000,10881.027347
3798.969700,-919.314598,-0.000000,10584.944971
3798.970015,-383.047749,222.061783,10066.800811
3798.970330,0.000000,370.102971,9548.656652
3798.970644,689.485948,814.226536,9030.512492
3798.970959,995.924147,592.164754,9178.553681
3798.971274,1225.752797,-0.000000,8956.491898
3798.971589,1149.143247,518.144159,8734.430116
3798.971903,612.876398,592.164754,8956.491898
3798.972218,1378.971896,666.185348,9326.594869
3798.972533,1225.752797,444.123565,9474.636058
3798.972847,612.876398,-0.000000,10140.821405
3798.973162,0.000000,-296.082377,11177.109724
3798.973477,-919.314598,-0.000000,10881.027347
3798.973792,-1149.143247,222.061783,11029.068536
3798.974106,0.000000,814.226536,10214.842000
3798.974421,919.314598,962.267725,9178.553681
3798.974736,1072.533697,296.082377,8808.450710
3798.975050,1302.362347,222.061783,9104.533087
3798.975365,536.266849,-296.082377,8882.471304
3798.975680,383.047749,370.102971,8438.347739
3798.975994,689.485948,296.082377,9178.553681
3798.976309,383.047749,-222.061783,9548.656652
3798.976624,0.000000,-370.102971,10362.883188
3798.976939,-919.314598,-296.082377,10288.862594
3798.977253,-1378.971896,-296.082377,10510.924376
3798.977568,-1762.019645,592.164754,10214.842000
3798.977883,-842.705048,-0.000000,9548.656652
3798.978197,0.000000,370.102971,9474.636058
3798.978512,0.000000,-0.000000,9326.594869
3798.978827,76.609550,-148.041188,9326.594869
3798.979142,-76.609550,-0.000000,9326.594869
3798.979456,-229.828649,296.082377,9030.512492
3798.979771,229.828649,296.082377,9252.574275
3798.980086,459.657299,-0.000000,9474.636058
3798.980400,229.828649,-148.041188,9696.697840
3798.980715,-612.876398,-444.123565,10140.821405
3798.981030,-1149.143247,-222.061783,10140.821405
3798.981345,-1532.190996,222.061783,9326.594869
3798.981659,-1149.143247,518.144159,8512.368333
3798.981974,383.047749,-962.267725,9030.512492
3798.982289,383.047749,-444.123565,8512.368333
3798.982603,0.000000,-1184.329507,9326.594869
3798.982918,-306.438199,-518.144159,9474.636058
3798.983233,-919.314598,-296.082377,9622.677246
3798.983547,0.000000,-222.061783,10584.944971
3798.983862,919.314598,-148.041188,9918.759623
3798.984177,919.314598,296.082377,10066.800811
3798.984492,766.095498,444.123565,10881.027347
3798.984806,229.828649,1258.350101,10140.821405
3798.985121,0.000000,1702.473667,9178.553681
3798.985436,1225.752797,962.267725,8660.409521
3798.985750,1991.848295,814.226536,8512.368333
3798.986065,842.705048,148.041188,8660.409521
3798.986380,0.000000,-666.185348,9474.636058
3798.986695,0.000000,-1110.308913,10288.862594
3798.987009,-1072.533697,-666.185348,10362.883188
3798.987324,-459.657299,-296.082377,10066.800811
3798.987639,229.828649,-518.144159,10732.986159
3798.987953,0.000000,-222.061783,11103.089130
3798.988268,306.438199,-0.000000,10584.944971
3798.988583,0.000000,592.164754,9474.636058
3798.988898,612.876398,1184.329507,9104.533087
3798.989212,1378.971896,2146.597232,7920.203579
3798.989527,1608.800546,962.267725,8364.327145
3798.989842,1532.190996,-0.000000,8734.430116
3798.990156,995.924147,-444.123565,9474.636058
3798.990471,459.657299,-740.205942,9844.739029
3798.990786,-536.266849,-740.205942,10362.883188
3798.991100,229.828649,-370.102971,10881.027347
3798.991415,0.000000,-666.185348,10362.883188
3798.991730,-383.047749,-962.267725,10584.944971
3798.992045,-919.314598,-814.226536,11029.068536
3798.992359,-842.705048,148.041188,9400.615463
3798.992674,0.000000,148.041188,8808.450710
3798.992989,0.000000,888.247130,7920.203579
3798.993303,919.314598,592.164754,8216.285956
3798.993618,689.485948,-0.000000,8364.327145
3798.993933,536.266849,-1036.288319,9400.615463
3798.994248,0.000000,-1110.308913,10436.903782
3798.994562,-1072.533697,-0.000000,9474.636058
3798.994877,0.000000,444.123565,9696.697840
3798.995192,0.000000,444.123565,9918.759623
3798.995506,-306.438199,222.061783,10362.883188
3798.995821,-229.828649,518.144159,10436.903782
3798.996136,-919.314598,148.041188,9326.594869
3798.996451,-689.485948,962.267725,9104.533087
3798.996765,0.000000,1702.473667,8364.327145
3798.997080,612.876398,296.082377,8142.265362
3798.997395,689.485948,-0.000000,9252.574275
3798.997709,153.219100,-592.164754,9992.780217
3798.998024,-229.828649,-74.020594,9918.759623
3798.998339,-995.924147,666.185348,9918.759623
3798.998653,-153.219100,814.226536,10362.883188
3798.998968,306.438199,592.164754,9918.759623
3798.999283,153.219100,1332.370696,9622.677246
3798.999598,0.000000,666.185348,10066.800811
3798.999912,-153.219100,962.267725,9474.636058
3799.000227,153.219100,1184.329507,8734.430116
3799.000542,766.095498,1184.329507,8808.450710
3799.000856,919.314598,814.226536,8660.409521
3799.001171,766.095498,-0.000000,9548.656652
3799.001486,153.219100,-518.144159,10584.944971
3799.001801,0.000000,-1110.308913,10807.006753
3799.002115,-842.705048,-592.164754,11103.089130
3799.002430,306.438199,444.123565,10584.944971
3799.002745,766.095498,740.205942,10955.047942
3799.003059,536.266849,888.247130,10066.800811
3799.003374,1302.362347,1110.308913,9474.636058
3799.003689,612.876398,592.164754,8956.491898
3799.004003,459.657299,666.185348,8586.388927
3799.004318,1532.190996,592.164754,9030.512492
3799.004633,1608.800546,814.226536,8660.409521
3799.004948,1149.143247,-518.144159,9770.718434
3799.005262,76.609550,-1110.308913,10288.862594
3799.005577,-536.266849,-1036.288319,10732.986159
3799.005892,-919.314598,-740.205942,10436.903782
3799.006206,0.000000,-296.082377,11177.109724
3799.006521,229.828649,296.082377,11103.089130
3799.006836,76.609550,370.102971,9696.697840
3799.007151,76.609550,740.205942,9770.718434
3799.007465,0.000000,666.185348,9252.574275
3799.007780,0.000000,1628.453072,8364.327145
3799.008095,1225.752797,1184.329507,7920.203579
3799.008409,1685.410096,740.205942,7698.141797
3799.008724,995.924147,-370.102971,8882.471304
3799.009039,0.000000,-666.185348,9696.697840
3799.009354,-995.924147,-666.185348,10140.821405
3799.009668,-2145.067394,-962.267725,10436.903782
3799.009983,-1378.971896,-888.247130,10881.027347
3799.010298,-1072.533697,-740.205942,10807.006753
3799.010612,-1072.533697,-0.000000,10288.862594
3799.010927,-1149.143247,148.041188,10362.883188
3799.011242,-766.095498,296.082377,9104.533087
3799.011556,0.000000,1332.370696,8068.244768
3799.011871,766.095498,666.185348,7254.018232
3799.012186,1378.971896,-0.000000,7994.224174
3799.012501,1532.190996,-296.082377,8068.244768
3799.012815,459.657299,-1110.308913,8956.491898
3799.013130,-842.705048,-1480.411884,9918.759623
3799.013445,-1225.752797,-1332.370696,10362.883188
3799.013759,-1072.533697,-1332.370696,11547.212695
3799.014074,-995.924147,-814.226536,10288.862594
3799.014389,-1378.971896,-814.226536,9770.718434
3799.014704,-689.485948,-0.000000,9030.512492
3799.015018,-612.876398,-0.000000,9844.739029
3799.015333,-306.438199,962.267725,8142.265362
3799.015648,995.924147,370.102971,8068.244768
3799.015962,1991.848295,1036.288319,7624.121203
3799.016277,1838.629195,592.164754,8734.430116
3799.016592,1072.533697,-0.000000,9622.677246
3799.016907,0.000000,-0.000000,10214.842000
3799.017221,-689.485948,666.185348,10732.986159
3799.017536,-306.438199,-0.000000,10955.047942
3799.017851,-383.047749,-0.000000,10955.047942
3799.018165,-919.314598,370.102971,11325.150913
3799.018480,-689.485948,148.041188,11399.171507
3799.018795,-1149.143247,592.164754,9696.697840
3799.019109,-383.047749,1258.350101,9030.512492
3799.019424,1302.362347,1258.350101,8808.450710
3799.019739,2374.896044,1036.288319,8290.306550
3799.020054,2221.676944,1036.288319,8882.471304
3799.020368,1149.143247,-0.000000,9030.512492
3799.020683,383.047749,-0.000000,9918.759623
3799.020998,-995.924147,592.164754,10140.821405
3799.021312,-306.438199,222.061783,10881.027347
3799.021627,76.609550,-370.102971,11251.130318
3799.021942,-306.438199,-74.020594,10584.944971
3799.022257,-229.828649,-0.000000,10436.903782
3799.022571,-306.438199,666.185348,9474.636058
3799.022886,153.219100,1554.432478,8808.450710
3799.023201,1608.800546,1628.453072,8142.265362
3799.023515,2298.286494,1110.308913,8142.265362
3799.023830,2145.067394,444.123565,8808.450710
3799.024145,1608.800546,-296.082377,8956.491898
3799.024460,153.219100,-296.082377,10214.842000
3799.024774,-689.485948,-148.041188,11251.130318
3799.025089,-459.657299,444.123565,10510.924376
3799.025404,0.000000,-148.041188,10436.903782
3799.025718,-153.219100,-148.041188,11103.089130
3799.026033,-689.485948,-0.000000,10510.924376
3799.026348,-766.095498,-0.000000,9474.636058
3799.026662,0.000000,1036.288319,8438.347739
3799.026977,919.314598,1406.391290,8290.306550
3799.027292,2068.457845,888.247130,7698.141797
3799.027607,1915.238745,-518.144159,8438.347739
3799.027921,766.095498,-1036.288319,9400.615463
3799.028236,0.000000,-1332.370696,10288.862594
3799.028551,-1225.752797,222.061783,10214.842000
3799.028865,-766.095498,-0.000000,10955.047942
3799.029180,-459.657299,-296.082377,10658.965565
3799.029495,-1149.143247,-222.061783,10881.027347
3799.029810,-919.314598,-518.144159,10658.965565
3799.030124,-1455.581446,148.041188,9918.759623
3799.030439,-536.266849,1110.308913,8882.471304
3799.030754,612.876398,888.247130,8734.430116
3799.031068,1149.143247,444.123565,8290.306550
3799.031383,1378.971896,-296.082377,8438.347739
3799.031698,1302.362347,-592.164754,8882.471304
3799.032012,0.000000,-592.164754,9400.615463
3799.032327,-536.266849,-0.000000,9844.739029
3799.032642,0.000000,-222.061783,9770.718434
3799.032957,0.000000,222.061783,9622.677246
3799.033271,-306.438199,-0.000000,10362.883188
3799.033586,-689.485948,222.061783,10066.800811
3799.033901,-612.876398,-148.041188,9178.553681
3799.034215,-689.485948,518.144159,9104.533087
3799.034530,153.219100,296.082377,8808.450710
3799.034845,1149.143247,740.205942,8290.306550
3799.035160,995.924147,-148.041188,8364.327145
3799.035474,383.047749,-296.082377,9696.697840
3799.035789,-459.657299,-148.041188,9696.697840
3799.036104,-689.485948,-0.000000,9844.739029
3799.036418,-536.266849,-74.020594,10658.965565
3799.036733,0.000000,-0.000000,11103.089130
3799.037048,-842.705048,-0.000000,10362.883188
3799.037363,-995.924147,-148.041188,10066.800811
3799.037677,-1072.533697,222.061783,9918.759623
3799.037992,-612.876398,888.247130,9770.718434
3799.038307,919.314598,962.267725,8660.409521
3799.038621,919.314598,148.041188,8808.450710
3799.038936,919.314598,-0.000000,8734.430116
3799.039251,766.095498,-296.082377,9178.553681
3799.039565,0.000000,-518.144159,9918.759623
3799.039880,0.000000,-740.205942,10214.842000
3799.040195,306.438199,-444.123565,10214.842000
3799.040510,306.438199,-0.000000,10510.924376
3799.040824,-306.438199,814.226536,10584.944971
3799.041139,0.000000,518.144159,10436.903782
3799.041454,-383.047749,370.102971,9844.739029
3799.041768,-153.219100,666.185348,8882.471304
3799.042083,1378.971896,888.247130,8808.450710
3799.042398,1762.019645,370.102971,8290.306550
3799.042713,1302.362347,-74.020594,8364.327145
3799.043027,842.705048,-296.082377,9400.615463
3799.043342,76.609550,-370.102971,8956.491898
3799.043657,0.000000,-74.020594,9474.636058
3799.043971,459.657299,-74.020594,10288.862594
3799.044286,0.000000,-370.102971,10510.924376
3799.044601,-229.828649,-444.123565,10732.986159
3799.044916,0.000000,-74.020594,10732.986159
3799.045230,-612.876398,296.082377,10362.883188
3799.045545,76.609550,1110.308913,9030.512492
3799.045860,1762.019645,962.267725,8438.347739
3799.046174,2528.115143,666.185348,8290.306550
3799.046489,2374.896044,518.144159,8216.285956
3799.046804,1838.629195,296.082377,8438.347739
3799.047118,995.924147,-0.000000,9252.574275
3799.047433,153.219100,592.164754,9400.615463
3799.047748,0.000000,-148.041188,9918.759623
3799.048063,0.000000,-518.144159,10288.862594
3799.048377,-383.047749,-1110.308913,11399.171507
3799.048692,-1149.143247,-888.247130,11325.150913
3799.049007,-842.705048,-148.041188,11177.109724
3799.049321,-612.876398,1110.308913,9770.718434
3799.049636,689.485948,1110.308913,9252.574275
3799.049951,1302.362347,1110.308913,8512.368333
3799.050266,1532.190996,592.164754,8216.285956
3799.050580,1072.533697,-0.000000,8808.450710
3799.050895,229.828649,222.061783,8660.409521
3799.051210,-383.047749,296.082377,9400.615463
3799.051524,0.000000,-0.000000,10214.842000
3799.051839,-689.485948,-0.000000,10955.047942
3799.052154,-1532.190996,-296.082377,11103.089130
3799.052469,-1991.848295,-444.123565,11103.089130
3799.052783,-2145.067394,-74.020594,10955.047942
3799.053098,-2068.457845,666.185348,9844.739029
3799.053413,-306.438199,1036.288319,8808.450710
3799.053727,306.438199,666.185348,9178.553681
3799.054042,459.657299,-0.000000,9474.636058
3799.054357,612.876398,-296.082377,9400.615463
3799.054671,-229.828649,296.082377,9252.574275
3799.054986,-383.047749,814.226536,9400.615463
3799.055301,153.219100,814.226536,9844.739029
3799.055616,229.828649,-0.000000,9696.697840
3799.055930,-229.828649,-0.000000,10140.821405
3799.056245,-1149.143247,-370.102971,10584.944971
3799.056560,-1838.629195,-74.020594,9992.780217
3799.056874,-1532.190996,-296.082377,9474.636058
3799.057189,-153.219100,370.102971,8882.471304
3799.057504,689.485948,-0.000000,9252.574275
3799.057819,919.314598,-0.000000,8512.368333
3799.058133,1149.143247,-0.000000,9030.512492
3799.058448,689.485948,370.102971,9178.553681
3799.058763,536.266849,740.205942,9400.615463
3799.059077,842.705048,1184.329507,9474.636058
3799.059392,1149.143247,666.185348,9622.677246
3799.059707,612.876398,148.041188,10288.862594
3799.060022,306.438199,-0.000000,10658.965565
3799.060336,-536.266849,-0.000000,10584.944971
3799.060651,-229.828649,666.185348,9474.636058
3799.060966,536.266849,518.144159,9474.636058
3799.061280,1072.533697,592.164754,9030.512492
3799.061595,842.705048,-518.144159,9326.594869
3799.061910,1149.143247,-592.164754,9918.759623
3799.062224,306.438199,-592.164754,9622.677246
3799.062539,0.000000,148.041188,9474.636058
3799.062854,766.095498,592.164754,9992.780217
3799.063169,919.314598,740.205942,9844.739029
3799.063483,612.876398,-222.061783,10140.821405
3799.063798,153.219100,-74.020594,10436.903782
3799.064113,-229.828649,-0.000000,10214.842000
3799.064427,-612.876398,444.123565,9918.759623
3799.064742,612.876398,666.185348,9178.553681
3799.065057,1608.800546,-0.000000,8586.388927
3799.065372,842.705048,-74.020594,8882.471304
3799.065686,536.266849,-296.082377,9992.780217
3799.066001,0.000000,-0.000000,9622.677246
3799.066316,383.047749,222.061783,9326.594869
3799.066630,229.828649,-0.000000,9696.697840
3799.066945,689.485948,-0.000000,9548.656652
3799.067260,0.000000,-148.041188,10066.800811
3799.067574,-459.657299,-666.185348,10140.821405
3799.067889,-536.266849,-148.041188,9548.656652
3799.068204,-383.047749,962.267725,8512.368333
3799.068519,536.266849,740.205942,8142.265362
3799.068833,995.924147,-0.000000,9178.553681
3799.069148,766.095498,-666.185348,9178.553681
3799.069463,306.438199,-740.205942,9178.553681
3799.069777,-766.095498,-1110.308913,9400.615463
3799.070092,-842.705048,-0.000000,9696.697840
3799.070407,-229.828649,148.041188,10362.883188
3799.070721,0.000000,296.082377,10214.842000
3799.071036,-536.266849,-0.000000,10510.924376
3799.071351,-689.485948,-148.041188,10140.821405
3799.071665,-1149.143247,222.061783,10066.800811
3799.071980,-612.876398,962.267725,9548.656652
3799.072295,76.609550,518.144159,9178.553681
3799.072610,766.095498,-222.061783,9030.512492
3799.072924,459.657299,296.082377,8364.327145
3799.073239,76.609550,-444.123565,9844.739029
3799.073554,-459.657299,-370.102971,9474.636058
3799.073868,-459.657299,666.185348,9178.553681
3799.074183,383.047749,370.102971,10214.842000
3799.074498,0.000000,-222.061783,10214.842000
3799.074812,-383.047749,-0.000000,10362.883188
3799.075127,-919.314598,-296.082377,10510.924376
3799.075442,-1302.362347,-0.000000,9622.677246
3799.075756,-153.219100,666.185348,9326.594869
3799.076071,1072.533697,1036.288319,8734.430116
3799.076386,1378.971896,592.164754,8586.388927
3799.076700,1378.971896,-0.000000,9178.553681
3799.077015,995.924147,-148.041188,9400.615463
3799.077330,229.828649,-148.041188,9770.718434
3799.077644,0.000000,592.164754,9474.636058
3799.077959,766.095498,222.061783,10584.944971
3799.078274,766.095498,296.082377,9918.759623
3799.078588,612.876398,148.041188,10140.821405
3799.078903,0.000000,148.041188,10214.842000
3799.079218,-306.438199,444.123565,9622.677246
3799.079533,459.657299,1258.350101,8586.388927
3799.079847,1455.581446,740.205942,8586.388927
3799.080162,1072.533697,592.164754,8734.430116
3799.080477,1378.971896,-518.144159,9326.594869
3799.080791,689.485948,-444.123565,9918.759623
3799.081106,-536.266849,-0.000000,10510.924376
3799.081421,-306.438199,1036.288319,10436.903782
3799.081735,459.657299,740.205942,10288.862594
3799.082050,153.219100,888.247130,9992.780217
3799.082365,306.438199,888.247130,10214.842000
3799.082679,0.000000,740.205942,10066.800811
3799.082994,-612.876398,1036.288319,9474.636058
3799.083309,229.828649,1036.288319,9178.553681
3799.083623,995.924147,1110.308913,9104.533087
3799.083938,842.705048,518.144159,8956.491898
3799.084253,383.047749,-518.144159,9400.615463
3799.084567,-306.438199,-1036.288319,10362.883188
3799.084882,-1378.971896,-814.226536,10732.986159
3799.085197,-1149.143247,-222.061783,10510.924376
3799.085511,0.000000,-74.020594,10955.047942
3799.085826,0.000000,-0.000000,10436.903782
3799.086141,0.000000,-0.000000,9474.636058
3799.086455,-153.219100,222.061783,9770.718434
3799.086770,-229.828649,666.185348,8808.450710
3799.087085,459.657299,666.185348,8068.244768
3799.087400,1608.800546,518.144159,8364.327145
3799.087714,1608.800546,-148.041188,8290.306550
3799.088029,919.314598,-1258.350101,9252.574275
3799.088344,-459.657299,-1702.473667,10436.903782
3799.088658,-1302.362347,-1628.453072,11621.233289
3799.088973,-1225.752797,-370.102971,10881.027347
3799.089288,-612.876398,-74.020594,10584.944971
3799.089602,383.047749,-0.000000,9622.677246
3799.089917,229.828649,296.082377,9770.718434
3799.090232,1072.533697,-0.000000,9178.553681
3799.090546,0.000000,370.102971,8586.388927
3799.090861,766.095498,888.247130,8142.265362
3799.091176,1762.019645,296.082377,7846.182985
3799.091490,1685.410096,74.020594,8142.265362
3799.091805,1302.362347,-370.102971,9548.656652
3799.092120,0.000000,-1036.288319,10288.862594
3799.092434,-689.485948,-814.226536,10732.986159
3799.092749,-842.705048,-222.061783,10955.047942
3799.093064,-459.657299,-74.020594,11103.089130
3799.093378,-383.047749,-0.000000,9844.739029
3799.093693,0.000000,592.164754,9252.574275
3799.094008,-153.219100,296.082377,9474.636058
3799.094323,76.609550,592.164754,8660.409521
3799.094637,842.705048,1110.308913,7994.224174
3799.094952,1302.362347,666.185348,7402.059420
3799.095267,1072.533697,444.123565,8586.388927
3799.095581,0.000000,-222.061783,9696.697840
3799.095896,-842.705048,-1110.308913,9770.718434
3799.096211,-1532.190996,-444.123565,10807.006753
3799.096525,-1455.581446,-74.020594,10955.047942
3799.096840,-766.095498,148.041188,10584.944971
3799.097155,153.219100,740.205942,10881.027347
3799.097469,-306.438199,740.205942,10140.821405
3799.097784,-383.047749,518.144159,9992.780217
3799.098099,0.000000,1036.288319,9178.553681
3799.098413,842.705048,1406.391290,8660.409521
3799.098728,1378.971896,1332.370696,8290.306550
3799.099043,1608.800546,444.123565,8586.388927
3799.099357,612.876398,-74.020594,9178.553681
3799.099672,-612.876398,-1036.288319,10214.842000
3799.099987,-1455.581446,-296.082377,10362.883188
3799.100301,-1302.362347,148.041188,10066.800811
3799.100616,-459.657299,-0.000000,10510.924376
3799.100931,-306.438199,666.185348,10510.924376
3799.101245,-306.438199,444.123565,10066.800811
3799.101560,-612.876398,74.020594,9326.594869
3799.101875,0.000000,888.247130,8808.450710
3799.102190,689.485948,1628.453072,8512.368333
3799.102504,1302.362347,962.267725,8290.306550
3799.102819,1685.410096,518.144159,8956.491898
3799.103134,919.314598,-222.061783,9548.656652
3799.103448,0.000000,-740.205942,9992.780217
3799.103763,-1072.533697,-444.123565,11251.130318
3799.104078,-1149.143247,-0.000000,11325.150913
3799.104392,0.000000,-74.020594,10584.944971
3799.104707,0.000000,444.123565,10955.047942
3799.105022,0.000000,222.061783,10510.924376
3799.105336,76.609550,222.061783,9770.718434
3799.105651,76.609550,592.164754,9326.594869
3799.105966,76.609550,962.267725,7550.100608
3799.106280,2068.457845,518.144159,7994.224174
3799.106595,2145.067394,-0.000000,7698.141797
3799.106910,1302.362347,-1406.391290,8734.430116
3799.107224,76.609550,-1480.411884,9696.697840
3799.107539,-919.314598,-1036.288319,10362.883188
3799.107854,-766.095498,-666.185348,9696.697840
3799.108168,0.000000,-74.020594,10140.821405
3799.108483,306.438199,-0.000000,9918.759623
3799.108798,-229.828649,-222.061783,9918.759623
3799.109113,0.000000,148.041188,9548.656652
3799.109427,612.876398,666.185348,8734.430116
3799.109742,919.314598,740.205942,8142.265362
3799.110057,2145.067394,814.226536,7624.121203
3799.110371,2298.286494,148.041188,8290.306550
3799.110686,1302.362347,-1036.288319,8956.491898
3799.111001,383.047749,-962.267725,9696.697840
3799.111315,-536.266849,-1258.350101,10288.862594
3799.111630,-1149.143247,-370.102971,10436.903782
3799.111945,-612.876398,-0.000000,10881.027347
3799.112259,-1072.533697,-148.041188,10732.986159
3799.112574,-919.314598,-148.041188,10658.965565
3799.112889,-229.828649,296.082377,9178.553681
3799.113203,0.000000,518.144159,9178.553681
3799.113518,612.876398,1036.288319,8586.388927
3799.113833,1915.238745,1258.350101,7994.224174
3799.114147,1608.800546,518.144159,8142.265362
3799.114462,1378.971896,-370.102971,8956.491898
3799.114777,229.828649,-296.082377,10140.821405
3799.115091,-995.924147,-370.102971,10510.924376
3799.115406,-1378.971896,-0.000000,10658.965565
3799.115721,-1149.143247,222.061783,11029.068536
3799.116036,-995.924147,-0.000000,10955.047942
3799.116350,-1149.143247,222.061783,10807.006753
3799.116665,-1149.143247,370.102971,9992.780217
3799.116980,-1072.533697,444.123565,9474.636058
3799.117294,76.609550,740.205942,8734.430116
3799.117609,995.924147,1036.288319,8068.244768
3799.117924,1072.533697,1036.288319,8216.285956
3799.118238,766.095498,296.082377,8882.471304
3799.118553,-306.438199,-74.020594,9400.615463
3799.118868,-919.314598,-0.000000,10214.842000
3799.119182,-919.314598,296.082377,10955.047942
3799.119497,-919.314598,74.020594,11029.068536
3799.119812,-1072.533697,-74.020594,11473.192101
3799.120126,-995.924147,370.102971,10658.965565
3799.120441,-995.924147,444.123565,10214.842000
3799.120756,-612.876398,888.247130,9326.594869
3799.121070,383.047749,962.267725,8364.327145
3799.121385,1915.238745,740.205942,8586.388927
3799.121700,1838.629195,666.185348,8142.265362
3799.122014,1685.410096,-74.020594,8364.327145
3799.122329,612.876398,-1036.288319,9548.656652
3799.122644,76.609550,-666.185348,10214.842000
3799.122958,383.047749,740.205942,10066.800811
3799.123273,0.000000,370.102971,10510.924376
3799.123588,0.000000,296.082377,11177.109724
3799.123903,0.000000,-0.000000,10362.883188
3799.124217,-229.828649,-74.020594,10066.800811
3799.124532,-153.219100,444.123565,9844.739029
3799.124847,766.095498,740.205942,8660.409521
3799.125161,2221.676944,444.123565,8364.327145
3799.125476,2221.676944,444.123565,8438.347739
3799.125791,1762.019645,-0.000000,9178.553681
3799.126105,689.485948,-592.164754,9104.533087
3799.126420,0.000000,-148.041188,9474.636058
3799.126735,306.438199,592.164754,9622.677246
3799.127049,76.609550,-370.102971,9992.780217
3799.127364,-153.219100,-888.247130,10288.862594
3799.127679,-459.657299,-740.205942,10288.862594
3799.127993,-842.705048,-296.082377,10510.924376
3799.128308,-919.314598,-0.000000,9548.656652
3799.128623,383.047749,740.205942,8882.471304
3799.128937,2068.457845,666.185348,8068.244768
3799.129252,1762.019645,592.164754,8068.244768
3799.129567,1455.581446,-0.000000,7994.224174
3799.129881,306.438199,-0.000000,8882.471304
3799.130196,-306.438199,-0.000000,9178.553681
3799.130511,-229.828649,296.082377,9918.759623
3799.130826,0.000000,296.082377,9548.656652
3799.131140,-383.047749,-592.164754,10732.986159
3799.131455,-1302.362347,-592.164754,10807.006753
3799.131770,-1378.971896,-518.144159,10732.986159
3799.132084,-1608.800546,-74.020594,9770.718434
3799.132399,-919.314598,296.082377,9030.512492
3799.132714,766.095498,592.164754,8660.409521
3799.133028,1072.533697,296.082377,8216.285956
3799.133343,536.266849,-148.041188,8512.368333
3799.133658,0.000000,-370.102971,8882.471304
3799.133972,0.000000,-296.082377,9474.636058
3799.134287,-689.485948,740.205942,10066.800811
3799.134602,0.000000,814.226536,10658.965565
3799.134916,-689.485948,-74.020594,11103.089130
3799.135231,-919.314598,-592.164754,11251.130318
3799.135546,-1225.752797,-666.185348,11991.336260
3799.135860,-1685.410096,592.164754,10288.862594
3799.136175,-842.705048,1036.288319,9992.780217
3799.136490,919.314598,1258.350101,9030.512492
3799.136804,1685.410096,592.164754,8512.368333
3799.137119,1149.143247,-148.041188,8290.306550
3799.137434,995.924147,-814.226536,9400.615463
3799.137748,-459.657299,-74.020594,9400.615463
3799.138063,-459.657299,-0.000000,9770.718434
3799.138378,76.609550,-222.061783,10140.821405
3799.138693,-306.438199,-296.082377,10436.903782
3799.139007,-612.876398,-74.020594,10658.965565
3799.139322,-1072.533697,-222.061783,10732.986159
3799.139637,-842.705048,-0.000000,9992.780217
3799.139951,0.000000,888.247130,9030.512492
3799.140266,1149.143247,962.267725,8290.306550
3799.140581,1378.971896,666.185348,7772.162391
3799.140895,1838.629195,-0.000000,8512.368333
3799.141210,1532.190996,-518.144159,9104.533087
3799.141525,153.219100,-222.061783,9548.656652
3799.141839,229.828649,370.102971,9696.697840
3799.142154,0.000000,-74.020594,10066.800811
3799.142469,0.000000,-370.102971,10658.965565
3799.142783,-766.095498,-592.164754,11251.130318
3799.143098,-1149.143247,-962.267725,10436.903782
3799.143413,-766.095498,-592.164754,10140.821405
3799.143727,383.047749,444.123565,9252.574275
3799.144042,1762.019645,1110.308913,8290.306550
3799.144357,2221.676944,1406.391290,7254.018232
3799.144671,2298.286494,444.123565,7550.100608
3799.144986,1455.581446,-0.000000,8586.388927
3799.145301,612.876398,-0.000000,8660.409521
3799.145616,612.876398,-0.000000,9696.697840
3799.145930,153.219100,-518.144159,10214.842000
3799.146245,-612.876398,-592.164754,10510.924376
3799.146560,-1302.362347,-666.185348,10881.027347
3799.146874,-1302.362347,-740.205942,11547.212695
3799.147189,-1225.752797,-0.000000,10955.047942
3799.147504,-383.047749,888.247130,9770.718434
3799.147818,766.095498,1480.411884,8586.388927
3799.148133,1378.971896,1406.391290,8660.409521
3799.148448,1225.752797,814.226536,8586.388927
3799.148762,842.705048,370.102971,8956.491898
3799.149077,153.219100,518.144159,9178.553681
3799.149392,76.609550,-0.000000,9326.594869
3799.149706,229.828649,518.144159,10066.800811
3799.150021,-842.705048,148.041188,10288.862594
3799.150336,-1378.971896,-0.000000,11029.068536
3799.150650,-1762.019645,-74.020594,10732.986159
3799.150965,-2298.286494,-0.000000,10510.924376
3799.151280,-995.924147,740.205942,9622.677246
3799.151594,0.000000,888.247130,9104.533087
3799.151909,306.438199,592.164754,9178.553681
3799.152224,536.266849,666.185348,9770.718434
3799.152539,76.609550,444.123565,9548.656652
3799.152853,0.000000,1332.370696,9030.512492
3799.153168,306.438199,1628.453072,9030.512492
3799.153483,383.047749,962.267725,9918.759623
3799.153797,0.000000,518.144159,10510.924376
3799.154112,-459.657299,-0.000000,10436.903782
3799.154427,-995.924147,-444.123565,10658.965565
3799.154741,-1378.971896,-74.020594,10732.986159
3799.155056,-612.876398,1110.308913,9622.677246
3799.155371,153.219100,592.164754,8956.491898
3799.155685,842.705048,-0.000000,9104.533087
3799.156000,919.314598,-296.082377,9622.677246
3799.156315,612.876398,-74.020594,9474.636058
3799.156629,0.000000,296.082377,9252.574275
3799.156944,536.266849,148.041188,9474.636058
3799.157259,1225.752797,222.061783,9474.636058
3799.157573,1072.533697,370.102971,9918.759623
3799.157888,383.047749,-592.164754,10955.047942
3799.158203,0.000000,-518.144159,11029.068536
3799.158517,-536.266849,370.102971,9696.697840
3799.158832,229.828649,814.226536,8956.491898
3799.159147,1072.533697,296.082377,9030.512492
3799.159461,919.314598,-444.123565,9326.594869
3799.159776,459.657299,-1406.391290,8808.450710
3799.160091,76.609550,-1628.453072,9030.512492
3799.160406,-153.219100,-666.185348,9030.512492
3799.160720,229.828649,-740.205942,9400.615463
3799.161035,995.924147,-518.144159,9474.636058
3799.161350,383.047749,-370.102971,9844.739029
3799.161664,153.219100,-814.226536,10214.842000
3799.161979,0.000000,-148.041188,10214.842000
3799.162294,-306.438199,370.102971,9252.574275
3799.162608,459.657299,-0.000000,8956.491898
3799.162923,919.314598,444.123565,8142.265362
3799.163238,1302.362347,-444.123565,9030.512492
3799.163552,919.314598,-666.185348,9104.533087
3799.163867,0.000000,-888.247130,8956.491898
3799.164182,-229.828649,-740.205942,9622.677246
3799.164496,-536.266849,-74.020594,8956.491898
3799.164811,76.609550,-0.000000,9474.636058
3799.165126,-229.828649,-222.061783,9770.718434
3799.165440,0.000000,-740.205942,10066.800811
3799.165755,-842.705048,-814.226536,10066.800811
3799.166070,-1149.143247,370.102971,9696.697840
3799.166384,0.000000,1184.329507,8586.388927
3799.166699,1149.143247,740.205942,8882.471304
3799.167014,1225.752797,370.102971,9178.553681
3799.167329,689.485948,-296.082377,9178.553681
3799.167643,229.828649,-296.082377,9696.697840
3799.167958,-536.266849,148.041188,10214.842000
3799.168273,-766.095498,888.247130,9696.697840
3799.168587,0.000000,296.082377,10288.862594
3799.168902,0.000000,814.226536,10955.047942
3799.169217,-766.095498,-0.000000,10658.965565
3799.169531,-1072.533697,-0.000000,10584.944971
3799.169846,-1149.143247,666.185348,9992.780217
3799.170161,-536.266849,1406.391290,9178.553681
3799.170475,0.000000,1036.288319,9178.553681
3799.170790,153.219100,814.226536,9030.512492
3799.171104,459.657299,-148.041188,9770.718434
3799.171419,76.609550,-0.000000,10214.842000
3799.171734,-766.095498,222.061783,9992.780217
3799.172048,-536.266849,370.102971,10214.842000
3799.172363,689.485948,1184.329507,10362.883188
3799.172677,76.609550,1184.329507,10436.903782
3799.172992,383.047749,1184.329507,10584.944971
3799.173307,0.000000,962.267725,9992.780217
3799.173621,-536.266849,1628.453072,9326.594869
3799.173936,536.266849,1406.391290,8808.450710
3799.174251,1149.143247,962.267725,8734.430116
3799.174565,1149.143247,-0.000000,8956.491898
3799.174880,842.705048,-518.144159,9474.636058
3799.175194,0.000000,-296.082377,10214.842000
3799.175509,-536.266849,222.061783,10288.862594
3799.175824,383.047749,1036.288319,9918.759623
3799.176138,919.314598,962.267725,9696.697840
3799.176453,1149.143247,1110.308913,9992.780217
3799.176767,1072.533697,1184.329507,9474.636058
3799.177082,536.266849,740.205942,8956.491898
3799.177397,153.219100,962.267725,9252.574275
3799.177711,766.095498,1258.350101,8734.430116
3799.178026,1225.752797,592.164754,8882.471304
3799.178341,842.705048,-148.041188,9622.677246
3799.178655,153.219100,-814.226536,10288.862594
3799.178970,0.000000,-1036.288319,11029.068536
3799.179284,-1302.362347,-444.123565,10584.944971
3799.179599,-919.314598,-0.000000,10955.047942
3799.179914,153.219100,-74.020594,10436.903782
3799.180228,229.828649,-148.041188,10214.842000
3799.180543,229.828649,-0.000000,9548.656652
3799.180857,0.000000,296.082377,9104.533087
3799.181172,0.000000,518.144159,8364.327145
3799.181487,766.095498,148.041188,8512.368333
3799.181801,1302.362347,-74.020594,8808.450710
3799.182116,1149.143247,-1036.288319,9400.615463
3799.182431,229.828649,-1480.411884,9844.739029
3799.182745,-919.314598,-1110.308913,10510.924376
3799.183060,-1455.581446,-1184.329507,10658.965565
3799.183374,-689.485948,-518.144159,10214.842000
3799.183689,-689.485948,-0.000000,9918.759623
3799.184004,-536.266849,74.020594,10066.800811
3799.184318,-459.657299,-0.000000,9474.636058
3799.184633,-766.095498,222.061783,8068.244768
3799.184947,-612.876398,222.061783,8142.265362
3799.185262,0.000000,-74.020594,8364.327145
3799.185577,-383.047749,-444.123565,7920.203579
3799.185891,-766.095498,-1332.370696,10140.821405
3799.186206,-1762.019645,-1628.453072,10362.883188
3799.186520,-2374.896044,-1776.494261,11177.109724
3799.186835,-2757.943793,-814.226536,11325.150913
3799.187150,-2834.553343,-0.000000,10955.047942
3799.187464,-1915.238745,-518.144159,10214.842000
3799.187779,-1378.971896,-592.164754,9548.656652
3799.188094,-1149.143247,-888.247130,8956.491898
3799.188408,-689.485948,-518.144159,8882.471304
3799.188723,-1532.190996,-444.123565,8364.327145
3799.189037,-842.705048,-0.000000,8216.285956
3799.189352,-383.047749,-888.247130,7846.182985
3799.189667,-306.438199,-1628.453072,8808.450710
3799.189981,-1225.752797,-1924.535449,9844.739029
3799.190296,-2451.505594,-2220.617826,10881.027347
3799.190610,-3217.601092,-2368.659014,11399.171507
3799.190925,-3677.258390,-1776.494261,10955.047942
3799.191240,-2681.334243,-1480.411884,10436.903782
3799.191554,-2298.286494,-1554.432478,10066.800811
3799.191869,-1915.238745,-1924.535449,9770.718434
3799.192184,-2068.457845,-1702.473667,9844.739029
3799.192498,-1915.238745,-1406.391290,9400.615463
3799.192813,-1532.190996,-1258.350101,8882.471304
3799.193127,-995.924147,-592.164754,8512.368333
3799.193442,-612.876398,-1554.432478,8882.471304
3799.193757,-842.705048,-3034.844362,9474.636058
3799.194071,-1378.971896,-2812.782580,10214.842000
3799.194386,-2145.067394,-3108.864956,10807.006753
3799.194700,-2451.505594,-2590.720797,10807.006753
3799.195015,-2374.896044,-1776.494261,10140.821405
3799.195330,-2221.676944,-1554.432478,9104.533087
3799.195644,-1302.362347,-1998.556043,8808.450710
3799.195959,-766.095498,-2368.659014,9400.615463
3799.196274,-1302.362347,-2442.679609,9474.636058
3799.196588,-842.705048,-2738.761985,9030.512492
3799.196903,-383.047749,-1776.494261,8956.491898
3799.197217,-229.828649,-1406.391290,8512.368333
3799.197532,229.828649,-1036.288319,8290.306550
3799.197847,229.828649,-1036.288319,8586.388927
3799.198161,-306.438199,-2072.576638,8808.450710
3799.198476,-1072.533697,-1776.494261,9178.553681
3799.198790,-2221.676944,-1850.514855,9474.636058
3799.199105,-2451.505594,-2072.576638,9474.636058
3799.199420,-2757.943793,-2590.720797,10362.883188
3799.199734,-2911.162892,-2664.741391,10140.821405
3799.200049,-3064.381992,-2886.803174,9918.759623
3799.200364,-2451.505594,-3182.885551,10140.821405
3799.200678,-2374.896044,-2960.823768,10140.821405
3799.200993,-1838.629195,-3256.906145,10214.842000
3799.201307,-1378.971896,-2294.638420,9770.718434
3799.201622,-1149.143247,-2146.597232,9400.615463
3799.201937,-919.314598,-1776.494261,9918.759623
3799.202251,-1225.752797,-1184.329507,9252.574275
3799.202566,-1838.629195,-1184.329507,8660.409521
3799.202880,-1991.848295,-1184.329507,8438.347739
3799.203195,-1532.190996,-1924.535449,9030.512492
3799.203510,-1915.238745,-2590.720797,9770.718434
3799.203824,-2528.115143,-3330.926739,10066.800811
3799.204139,-3447.429741,-3627.009116,10510.924376
3799.204453,-3447.429741,-3775.050304,11177.109724
3799.204768,-3447.429741,-2886.803174,11103.089130
3799.205083,-2987.772442,-2220.617826,10140.821405
3799.205397,-2604.724693,-1628.453072,8956.491898
3799.205712,-2221.676944,-1406.391290,9104.533087
3799.206027,-1915.238745,-962.267725,8290.306550
3799.206341,-1608.800546,-1184.329507,8660.409521
3799.206656,-1685.410096,-1702.473667,9178.553681
3799.206970,-2451.505594,-2072.576638,10066.800811
3799.207285,-2068.457845,-2072.576638,9992.780217
3799.207600,-2528.115143,-1850.514855,10140.821405
3799.207914,-2604.724693,-1702.473667,9918.759623
3799.208229,-3140.991542,-1924.535449,10066.800811
3799.208543,-2757.943793,-1776.494261,9252.574275
3799.208858,-2834.553343,-2146.597232,9474.636058
3799.209173,-2528.115143,-2146.597232,8734.430116
3799.209487,-2528.115143,-3256.906145,9326.594869
3799.209802,-2451.505594,-2812.782580,10066.800811
3799.210117,-2221.676944,-3256.906145,10510.924376
3799.210431,-2528.115143,-2294.638420,10510.924376
3799.210746,-2145.067394,-1702.473667,10140.821405
3799.211060,-1225.752797,-740.205942,9770.718434
3799.211375,-612.876398,-370.102971,8956.491898
3799.211690,0.000000,-592.164754,7698.141797
3799.212004,-459.657299,-1036.288319,7402.059420
3799.212319,-536.266849,-1628.453072,7476.080014
3799.212633,-1149.143247,-2368.659014,7994.224174
3799.212948,-1608.800546,-2738.761985,8882.471304
3799.213263,-2374.896044,-2812.782580,9992.780217
3799.213577,-2834.553343,-3034.844362,10510.924376
3799.213892,-2911.162892,-3108.864956,11473.192101
3799.214207,-2911.162892,-2664.741391,12065.356855
3799.214521,-3140.991542,-2664.741391,11843.295072
3799.214836,-2681.334243,-1850.514855,10807.006753
3799.215150,-1608.800546,-888.247130,9400.615463
3799.215465,-766.095498,-666.185348,8512.368333
3799.215780,459.657299,-296.082377,7772.162391
3799.216094,229.828649,-370.102971,7550.100608
3799.216409,229.828649,-666.185348,7698.141797
3799.216723,-306.438199,-1036.288319,8438.347739
3799.217038,-842.705048,-1850.514855,10214.842000
3799.217353,-2298.286494,-2220.617826,11473.192101
3799.217667,-3140.991542,-2738.761985,11917.315666
3799.217982,-3677.258390,-2886.803174,12213.398043
3799.218297,-3600.648841,-2738.761985,11695.253884
3799.218611,-2911.162892,-2220.617826,10732.986159
3799.218926,-1991.848295,-1628.453072,9770.718434
3799.219240,-1302.362347,-518.144159,7846.182985
3799.219555,-689.485948,-148.041188,6957.935855
3799.219870,-383.047749,-296.082377,6957.935855
3799.220184,-842.705048,-666.185348,7476.080014
3799.220499,-1608.800546,-1998.556043,9252.574275
3799.220813,-2451.505594,-2220.617826,11029.068536
3799.221128,-2987.772442,-2664.741391,11991.336260
3799.221443,-3217.601092,-2590.720797,12509.480420
3799.221757,-3600.648841,-2368.659014,12065.356855
3799.222072,-2374.896044,-1554.432478,12213.398043
3799.222386,-2528.115143,-962.267725,11103.089130
3799.222701,-2298.286494,-814.226536,9178.553681
3799.223016,-1455.581446,-888.247130,7994.224174
3799.223330,0.000000,-814.226536,6809.894666
3799.223645,-383.047749,-1110.308913,6661.853478
3799.223960,-536.266849,-2072.576638,7920.203579
3799.224274,-1225.752797,-2368.659014,8290.306550
3799.224589,-2221.676944,-2960.823768,9770.718434
3799.224903,-2451.505594,-3330.926739,10807.006753
3799.225218,-3064.381992,-3108.864956,11325.150913
3799.225533,-3524.039291,-2664.741391,11177.109724
3799.225847,-3447.429741,-2664.741391,10288.862594
3799.226162,-3524.039291,-2294.638420,9770.718434
3799.226476,-2987.772442,-2368.659014,8956.491898
3799.226791,-2528.115143,-2220.617826,8808.450710
3799.227106,-1915.238745,-1702.473667,8438.347739
3799.227420,-1608.800546,-1406.391290,8438.347739
3799.227735,-1302.362347,-1628.453072,9326.594869
3799.228050,-1149.143247,-2146.597232,9844.739029
3799.228364,-1685.410096,-2368.659014,11103.089130
3799.228679,-2145.067394,-2516.700203,11325.150913
3799.228993,-2068.457845,-2368.659014,10807.006753
3799.229308,-2374.896044,-2146.597232,10214.842000
3799.229623,-2298.286494,-1924.535449,9252.574275
3799.229937,-1455.581446,-1480.411884,8438.347739
3799.230252,-1685.410096,-1776.494261,7698.141797
3799.230566,-1532.190996,-1776.494261,7179.997637
3799.230881,-1838.629195,-2220.617826,7328.038826
3799.231196,-1762.019645,-2738.761985,8142.265362
3799.231510,-1838.629195,-3108.864956,9474.636058
3799.231825,-2145.067394,-3404.947333,9992.780217
3799.232140,-2374.896044,-3182.885551,11029.068536
3799.232454,-2145.067394,-3034.844362,11399.171507
3799.232769,-1915.238745,-2146.597232,11473.192101
3799.233083,-1532.190996,-1184.329507,10510.924376
3799.233398,-995.924147,-592.164754,9030.512492
3799.233713,-689.485948,-222.061783,8586.388927
3799.234027,-153.219100,-370.102971,8290.306550
3799.234342,0.000000,-666.185348,7624.121203
3799.234656,-383.047749,-1184.329507,8142.265362
3799.234971,-1149.143247,-2442.679609,8660.409521
3799.235286,-1685.410096,-2960.823768,9474.636058
3799.235600,-2145.067394,-3182.885551,9992.780217
3799.235915,-2528.115143,-3330.926739,10955.047942
3799.236229,-2987.772442,-3330.926739,11473.192101
3799.236544,-3217.601092,-2590.720797,10955.047942
3799.236859,-2834.553343,-1850.514855,9918.759623
3799.237173,-1991.848295,-1036.288319,9474.636058
3799.237488,-1455.581446,-518.144159,8808.450710
3799.237803,-842.705048,-296.082377,8734.430116
3799.238117,-306.438199,-0.000000,8734.430116
3799.238432,-306.438199,-0.000000,9326.594869
3799.238746,0.000000,-74.020594,9474.636058
3799.239061,-229.828649,-814.226536,10140.821405
3799.239376,0.000000,-1184.329507,11103.089130
3799.239690,-459.657299,-1258.350101,10510.924376
3799.240005,-842.705048,-1184.329507,10732.986159
3799.240319,-536.266849,-1258.350101,10214.842000
3799.240634,-842.705048,-740.205942,9474.636058
3799.240949,-919.314598,-370.102971,8512.368333
3799.241263,-1072.533697,-444.123565,7772.162391
3799.241578,-766.095498,-370.102971,7846.182985
3799.241893,-1302.362347,-1036.288319,8290.306550
3799.242207,-1302.362347,-1406.391290,8956.491898
3799.242522,-1762.019645,-1850.514855,9696.697840
3799.242836,-2145.067394,-1554.432478,10214.842000
3799.243151,-2987.772442,-1998.556043,11029.068536
3799.243466,-2757.943793,-1480.411884,11769.274478
3799.243780,-2757.943793,-1110.308913,12213.398043
3799.244095,-2528.115143,-370.102971,11621.233289
3799.244409,-2604.724693,296.082377,10214.842000
3799.244724,-2451.505594,962.267725,10214.842000
3799.245039,-2451.505594,444.123565,9696.697840
3799.245353,-2528.115143,-148.041188,9030.512492
3799.245668,-2528.115143,-888.247130,9178.553681
3799.245983,-3294.210641,-1850.514855,9400.615463
3799.246297,-3064.381992,-2368.659014,9696.697840
3799.246612,-3830.477490,-2738.761985,10140.821405
3799.246926,-4060.306139,-2886.803174,10732.986159
3799.247241,-4213.525239,-3330.926739,10732.986159
3799.247556,-3753.867940,-3330.926739,10362.883188
3799.247870,-4136.915689,-3256.906145,10436.903782
3799.248185,-3677.258390,-2812.782580,10214.842000
3799.248499,-3600.648841,-2516.700203,9770.718434
3799.248814,-3524.039291,-2442.679609,9548.656652
3799.249129,-2604.724693,-2072.576638,9474.636058
3799.249443,-2298.286494,-1776.494261,9474.636058
3799.249758,-1838.629195,-1850.514855,9474.636058
3799.250073,-1072.533697,-2220.617826,9696.697840
3799.250387,-995.924147,-2368.659014,9770.718434
3799.250702,-1532.190996,-2886.803174,9918.759623
3799.251016,-1608.800546,-3330.926739,9548.656652
3799.251331,-1991.848295,-3997.112087,9548.656652
3799.251646,-2374.896044,-3627.009116,9326.594869
3799.251960,-2068.457845,-3775.050304,9400.615463
3799.252275,-2757.943793,-4441.235652,9252.574275
3799.252589,-2757.943793,-4589.276840,9252.574275
3799.252904,-2911.162892,-4219.173869,8882.471304
3799.253219,-2451.505594,-4367.215058,8882.471304
3799.253533,-1532.190996,-4589.276840,8586.388927
3799.253848,-1225.752797,-3997.112087,8068.244768
3799.254162,-766.095498,-3552.988522,8290.306550
3799.254477,-766.095498,-3552.988522,8216.285956
3799.254792,-459.657299,-2664.741391,8290.306550
3799.255106,-612.876398,-2738.761985,7624.121203
3799.255421,-842.705048,-2294.638420,7846.182985
3799.255736,-1225.752797,-2442.679609,8734.430116
3799.256050,-1762.019645,-3330.926739,9770.718434
3799.256365,-2298.286494,-3404.947333,9918.759623
3799.256679,-2298.286494,-3775.050304,10214.842000
3799.256994,-2451.505594,-3404.947333,10362.883188
3799.257309,-2145.067394,-3552.988522,10066.800811
3799.257623,-919.314598,-2886.803174,9326.594869
3799.257938,-842.705048,-2294.638420,8438.347739
3799.258252,-459.657299,-1554.432478,6809.894666
3799.258567,-306.438199,-1628.453072,7179.997637
3799.258882,0.000000,-1554.432478,7105.977043
3799.259196,0.000000,-1332.370696,6957.935855
3799.259511,-536.266849,-1702.473667,7550.100608
3799.259826,-1302.362347,-2738.761985,9178.553681
3799.260140,-2604.724693,-2886.803174,9918.759623
3799.260455,-3217.601092,-2960.823768,11473.192101
3799.260769,-3677.258390,-3108.864956,11843.295072
3799.261084,-3524.039291,-2368.659014,11843.295072
3799.261399,-2911.162892,-1628.453072,11473.192101
3799.261713,-2757.943793,-814.226536,10955.047942
3799.262028,-2298.286494,-222.061783,10362.883188
3799.262342,-1838.629195,518.144159,9252.574275
3799.262657,-689.485948,296.082377,8438.347739
3799.262972,-536.266849,740.205942,8438.347739
3799.263286,-1149.143247,666.185348,9104.533087
3799.263601,-1991.848295,-148.041188,10066.800811
3799.263916,-2834.553343,-888.247130,10955.047942
3799.264230,-3370.820191,-1628.453072,12287.418637
3799.264545,-3677.258390,-1702.473667,13101.645173
3799.264859,-3907.087040,-1554.432478,12583.501014
3799.265174,-3294.210641,-1332.370696,12435.459826
3799.265489,-2834.553343,-222.061783,11473.192101
3799.265803,-2451.505594,666.185348,9548.656652
3799.266118,-1072.533697,1628.453072,7550.100608
3799.266432,-306.438199,1628.453072,6957.935855
3799.266747,-153.219100,592.164754,7179.997637
3799.267062,-536.266849,-296.082377,7994.224174
3799.267376,-1072.533697,-1406.391290,9548.656652
3799.267691,-2298.286494,-2072.576638,11103.089130
3799.268005,-2911.162892,-2368.659014,12879.583391
3799.268320,-3217.601092,-2146.597232,13767.830521
3799.268635,-3600.648841,-1184.329507,13101.645173
3799.268949,-2987.772442,-444.123565,11473.192101
3799.269264,-2221.676944,148.041188,10140.821405
3799.269579,-1225.752797,-0.000000,8364.327145
3799.269893,0.000000,-74.020594,6809.894666
3799.270208,459.657299,-592.164754,5995.668130
3799.270522,0.000000,-1184.329507,5699.585753
3799.270837,-612.876398,-2294.638420,7179.997637
3799.271152,-612.876398,-3108.864956,9252.574275
3799.271466,-2068.457845,-3701.029710,10584.944971
3799.271781,-3140.991542,-3034.844362,11473.192101
3799.272095,-4060.306139,-3256.906145,11843.295072
3799.272410,-3753.867940,-2738.761985,11769.274478
3799.272725,-2834.553343,-2294.638420,11103.089130
3799.273039,-2757.943793,-1480.411884,9326.594869
3799.273354,-2451.505594,-1554.432478,7402.059420
3799.273669,-1225.752797,-1998.556043,6957.935855
3799.273983,76.609550,-2368.659014,7550.100608
3799.274298,-229.828649,-1776.494261,7920.203579
3799.274612,-1149.143247,-1628.453072,8364.327145
3799.274927,-1072.533697,-2368.659014,9252.574275
3799.275242,-1915.238745,-2664.741391,10658.965565
3799.275556,-2298.286494,-2738.761985,11177.109724
3799.275871,-2987.772442,-3404.947333,10807.006753
3799.276185,-3294.210641,-4071.132681,10881.027347
3799.276500,-3064.381992,-3775.050304,11399.171507
3799.276815,-2681.334243,-3108.864956,9474.636058
3799.277129,-2451.505594,-2146.597232,7846.182985
3799.277444,-1762.019645,-1332.370696,7105.977043
3799.277758,-1072.533697,-1924.535449,6735.874072
3799.278073,-612.876398,-1406.391290,6883.915261
3799.278388,-995.924147,-2220.617826,7476.080014
3799.278702,-1302.362347,-3849.070898,9178.553681
3799.279017,-1685.410096,-4737.318029,10881.027347
3799.279331,-2604.724693,-3997.112087,11769.274478
3799.279646,-3294.210641,-3627.009116,11769.274478
3799.279961,-3217.601092,-2960.823768,10955.047942
3799.280275,-3600.648841,-2220.617826,10066.800811
3799.280590,-3370.820191,-1702.473667,9400.615463
3799.280905,-3064.381992,-2146.597232,9030.512492
3799.281219,-2681.334243,-2516.700203,8808.450710
3799.281534,-2604.724693,-2960.823768,9474.636058
3799.281848,-2298.286494,-3108.864956,9326.594869
3799.282163,-2221.676944,-3775.050304,10140.821405
3799.282478,-1838.629195,-3256.906145,11029.068536
3799.282792,-1378.971896,-2516.700203,10732.986159
3799.283107,-1225.752797,-2220.617826,11029.068536
3799.283421,-1149.143247,-1998.556043,11029.068536
3799.283736,-1302.362347,-1036.288319,9622.677246
3799.284051,-1072.533697,-1110.308913,8586.388927
3799.284365,-1225.752797,-1110.308913,6957.935855
3799.284680,-1302.362347,-1406.391290,6957.935855
3799.284994,-1225.752797,-2368.659014,7179.997637
3799.285309,-612.876398,-2960.823768,8512.368333
3799.285624,-1685.410096,-3034.844362,9326.594869
3799.285938,-1991.848295,-3034.844362,9918.759623
3799.286253,-1532.190996,-2738.761985,10658.965565
3799.286568,-1378.971896,-2442.679609,11843.295072
3799.286882,-919.314598,-1628.453072,11695.253884
3799.287197,-919.314598,-1850.514855,11621.233289
3799.287511,-689.485948,-444.123565,10362.883188
