#time,accel_x,accel_y,accel_z
3876.198242,153.219100,-0.000000,9918.759623
3876.198557,-229.828649,-0.000000,9918.759623
3876.198872,-153.219100,-0.000000,9474.636058
3876.199186,-229.828649,148.041188,9844.739029
3876.199501,0.000000,148.041188,9474.636058
3876.199816,0.000000,518.144159,9548.656652
3876.200131,306.438199,-74.020594,9400.615463
3876.200446,-153.219100,-0.000000,9474.636058
3876.200761,0.000000,222.061783,9548.656652
3876.201075,0.000000,148.041188,9474.636058
3876.201390,0.000000,148.041188,9622.677246
3876.201705,0.000000,-0.000000,9326.594869
3876.202020,229.828649,444.123565,9326.594869
3876.202335,0.000000,222.061783,9474.636058
3876.202650,76.609550,222.061783,9770.718434
3876.202965,76.609550,-0.000000,9474.636058
3876.203279,0.000000,-0.000000,8882.471304
3876.203594,76.609550,148.041188,9400.615463
3876.203909,76.609550,148.041188,9326.594869
3876.204224,229.828649,370.102971,9252.574275
3876.204539,459.657299,-0.000000,9770.718434
3876.204854,153.219100,-74.020594,9400.615463
3876.205169,689.485948,370.102971,9474.636058
3876.205483,383.047749,-0.000000,9548.656652
3876.205798,76.609550,-0.000000,9696.697840
3876.206113,459.657299,222.061783,9622.677246
3876.206428,76.609550,-0.000000,9548.656652
3876.206743,306.438199,-0.000000,9844.739029
3876.207058,459.657299,-0.000000,9696.697840
3876.207373,229.828649,-0.000000,9326.594869
3876.207687,153.219100,-0.000000,9770.718434
3876.208002,229.828649,296.082377,10066.800811
3876.208317,306.438199,-0.000000,9844.739029
3876.208632,153.219100,-0.000000,9474.636058
3876.208947,0.000000,222.061783,9548.656652
3876.209262,0.000000,444.123565,9844.739029
3876.209576,0.000000,222.061783,9844.739029
3876.209891,0.000000,222.061783,9696.697840
3876.210206,-76.609550,148.041188,9548.656652
3876.210521,0.000000,518.144159,9548.656652
3876.210836,76.609550,222.061783,9622.677246
3876.211151,0.000000,222.061783,9548.656652
3876.211466,0.000000,148.041188,9474.636058
3876.211780,-229.828649,-0.000000,9548.656652
3876.212095,0.000000,-0.000000,9770.718434
3876.212410,0.000000,296.082377,9696.697840
3876.212725,76.609550,444.123565,9252.574275
3876.213040,153.219100,296.082377,9474.636058
3876.213355,76.609550,222.061783,9474.636058
3876.213670,306.438199,222.061783,9474.636058
3876.213984,0.000000,-0.000000,9548.656652
3876.214299,153.219100,74.020594,9326.594869
3876.214614,0.000000,222.061783,9326.594869
3876.214929,229.828649,444.123565,9178.553681
3876.215244,229.828649,-0.000000,9548.656652
3876.215559,229.828649,-74.020594,9770.718434
3876.215873,383.047749,-74.020594,9548.656652
3876.216188,0.000000,-0.000000,9474.636058
3876.216503,306.438199,-0.000000,9770.718434
3876.216818,383.047749,148.041188,9770.718434
3876.217133,76.609550,-0.000000,9918.759623
3876.217448,0.000000,-74.020594,9474.636058
3876.217763,0.000000,-0.000000,9844.739029
3876.218077,76.609550,148.041188,9622.677246
3876.218392,536.266849,-0.000000,10066.800811
3876.218707,229.828649,222.061783,9918.759623
3876.219022,0.000000,370.102971,9696.697840
3876.219337,0.000000,-74.020594,9474.636058
3876.219652,229.828649,-0.000000,9548.656652
3876.219967,76.609550,-0.000000,9474.636058
3876.220281,153.219100,222.061783,9622.677246
3876.220596,-229.828649,222.061783,9918.759623
3876.220911,153.219100,222.061783,9770.718434
3876.221226,0.000000,444.123565,9844.739029
3876.221541,76.609550,-0.000000,9548.656652
3876.221856,153.219100,-0.000000,9844.739029
3876.222171,76.609550,-148.041188,9622.677246
3876.222485,-153.219100,222.061783,9326.594869
3876.222800,0.000000,-0.000000,9474.636058
3876.223115,0.000000,148.041188,9696.697840
3876.223430,0.000000,-0.000000,9696.697840
3876.223745,0.000000,222.061783,9696.697840
3876.224060,229.828649,-0.000000,9474.636058
3876.224374,383.047749,444.123565,9696.697840
3876.224689,766.095498,444.123565,9178.553681
3876.225004,689.485948,666.185348,9474.636058
3876.225319,689.485948,814.226536,8956.491898
3876.225634,995.924147,962.267725,8808.450710
3876.225949,1302.362347,370.102971,9178.553681
3876.226264,766.095498,222.061783,9474.636058
3876.226578,919.314598,-0.000000,9474.636058
3876.226893,383.047749,296.082377,9400.615463
3876.227208,536.266849,370.102971,9770.718434
3876.227523,536.266849,-0.000000,9548.656652
3876.227838,536.266849,740.205942,9770.718434
3876.228153,1072.533697,666.185348,9474.636058
3876.228468,1072.533697,666.185348,9474.636058
3876.228782,1838.629195,518.144159,9770.718434
3876.229097,1685.410096,962.267725,9918.759623
3876.229412,2145.067394,1110.308913,10214.842000
3876.229727,2528.115143,1332.370696,9770.718434
3876.230042,2834.553343,1554.432478,9696.697840
3876.230357,3140.991542,2072.576638,9326.594869
3876.230671,3370.820191,2368.659014,9104.533087
3876.230986,3294.210641,2368.659014,9178.553681
3876.231301,3600.648841,2442.679609,8956.491898
3876.231616,4136.915689,2368.659014,8882.471304
3876.231931,3677.258390,2146.597232,9252.574275
3876.232246,3447.429741,2368.659014,9178.553681
3876.232561,3217.601092,1924.535449,9104.533087
3876.232875,3140.991542,2146.597232,9252.574275
3876.233190,3217.601092,2368.659014,9400.615463
3876.233505,3447.429741,2516.700203,8882.471304
3876.233820,2911.162892,3182.885551,9252.574275
3876.234135,2757.943793,3552.988522,9400.615463
3876.234450,2681.334243,3552.988522,8734.430116
3876.234765,2911.162892,3552.988522,8808.450710
3876.235079,2451.505594,3775.050304,9252.574275
3876.235394,2451.505594,3849.070898,9770.718434
3876.235709,2451.505594,3775.050304,10214.842000
3876.236024,2145.067394,3923.091493,10140.821405
3876.236339,2145.067394,3923.091493,10510.924376
3876.236654,2145.067394,3923.091493,10288.862594
3876.236969,1608.800546,3627.009116,10658.965565
3876.237283,1685.410096,3849.070898,10881.027347
3876.237598,1532.190996,4071.132681,10584.944971
3876.237913,1685.410096,3552.988522,10436.903782
3876.238228,1762.019645,3849.070898,10510.924376
3876.238543,1991.848295,4071.132681,9844.739029
3876.238858,1608.800546,3923.091493,9622.677246
3876.239172,1991.848295,3701.029710,9770.718434
3876.239487,1838.629195,3701.029710,10362.883188
3876.239802,1838.629195,3404.947333,10288.862594
3876.240117,1915.238745,3478.967927,10066.800811
3876.240432,1762.019645,3330.926739,10288.862594
3876.240747,1915.238745,3182.885551,10140.821405
3876.241062,1608.800546,3108.864956,10288.862594
3876.241376,1685.410096,3108.864956,10288.862594
3876.241691,1532.190996,3182.885551,10066.800811
3876.242006,1302.362347,3034.844362,9696.697840
3876.242321,1685.410096,2886.803174,9844.739029
3876.242636,1762.019645,2738.761985,9622.677246
3876.242951,1378.971896,2516.700203,9992.780217
3876.243266,1225.752797,2220.617826,9696.697840
3876.243580,995.924147,1702.473667,9918.759623
3876.243895,1455.581446,1258.350101,10510.924376
3876.244210,1685.410096,1110.308913,10066.800811
3876.244525,1378.971896,1628.453072,9918.759623
3876.244840,1762.019645,1702.473667,10140.821405
3876.245155,1915.238745,1850.514855,9474.636058
3876.245469,2451.505594,2072.576638,9104.533087
3876.245784,2451.505594,1998.556043,8808.450710
3876.246099,3064.381992,2368.659014,8586.388927
3876.246414,2987.772442,1998.556043,8586.388927
3876.246729,3294.210641,1702.473667,8364.327145
3876.247044,3294.210641,1702.473667,8808.450710
3876.247359,3217.601092,1184.329507,8660.409521
3876.247673,2757.943793,814.226536,8882.471304
3876.247988,2528.115143,814.226536,9252.574275
3876.248303,2221.676944,1036.288319,8956.491898
3876.248618,2221.676944,1036.288319,9178.553681
3876.248933,2068.457845,740.205942,9474.636058
3876.249248,2145.067394,444.123565,9770.718434
3876.249563,1915.238745,222.061783,9696.697840
3876.249877,2145.067394,370.102971,10140.821405
3876.250192,2451.505594,888.247130,10214.842000
3876.250507,2987.772442,1628.453072,9918.759623
3876.250822,3600.648841,2220.617826,9474.636058
3876.251137,3830.477490,2368.659014,8660.409521
3876.251452,3753.867940,2442.679609,8364.327145
3876.251767,3677.258390,2368.659014,7920.203579
3876.252081,3524.039291,2072.576638,7624.121203
3876.252396,2987.772442,888.247130,9030.512492
3876.252711,2298.286494,814.226536,9030.512492
3876.253026,919.314598,-148.041188,9474.636058
3876.253341,919.314598,-666.185348,11177.109724
3876.253656,-229.828649,-518.144159,11991.336260
3876.253970,-459.657299,-74.020594,12731.542202
3876.254285,-153.219100,814.226536,11991.336260
3876.254600,1302.362347,1850.514855,11177.109724
3876.254915,2528.115143,3182.885551,10436.903782
3876.255230,3600.648841,4367.215058,8808.450710
3876.255545,4443.353888,4663.297435,7550.100608
3876.255860,4903.011187,4737.318029,7105.977043
3876.256174,4903.011187,4663.297435,6661.853478
3876.256489,4519.963438,3552.988522,7254.018232
3876.256804,3140.991542,2294.638420,8808.450710
3876.257119,1455.581446,1258.350101,10362.883188
3876.257434,-306.438199,370.102971,11399.171507
3876.257749,-919.314598,-222.061783,12065.356855
3876.258064,-1378.971896,444.123565,12657.521608
3876.258378,-689.485948,1554.432478,11473.192101
3876.258693,0.000000,2738.761985,10140.821405
3876.259008,1455.581446,3849.070898,8882.471304
3876.259323,3140.991542,3849.070898,7846.182985
3876.259638,4213.525239,4515.256246,7624.121203
3876.259953,4443.353888,4589.276840,7994.224174
3876.260267,4213.525239,4293.194464,8290.306550
3876.260582,3753.867940,3923.091493,9622.677246
3876.260897,2681.334243,3552.988522,11029.068536
3876.261212,1915.238745,3701.029710,11695.253884
3876.261527,919.314598,3552.988522,11251.130318
3876.261842,383.047749,3478.967927,10436.903782
3876.262157,842.705048,2368.659014,10510.924376
3876.262471,1378.971896,2146.597232,10362.883188
3876.262786,2145.067394,1998.556043,9030.512492
3876.263101,2068.457845,2294.638420,9030.512492
3876.263416,2451.505594,2886.803174,8660.409521
3876.263731,3217.601092,3108.864956,8438.347739
3876.264046,3217.601092,3404.947333,8586.388927
3876.264361,3064.381992,3849.070898,8586.388927
3876.264675,2911.162892,3404.947333,9696.697840
3876.264990,1991.848295,2368.659014,11177.109724
3876.265305,1302.362347,2072.576638,11251.130318
3876.265620,1532.190996,1702.473667,11621.233289
3876.265935,1915.238745,2220.617826,11325.150913
3876.266250,1991.848295,2664.741391,11029.068536
3876.266565,2451.505594,3256.906145,9844.739029
3876.266879,3294.210641,3627.009116,8290.306550
3876.267194,3907.087040,3552.988522,7920.203579
3876.267509,4060.306139,2664.741391,8142.265362
3876.267824,3677.258390,2146.597232,8808.450710
3876.268139,3600.648841,962.267725,9622.677246
3876.268454,2528.115143,-0.000000,10362.883188
3876.268768,2145.067394,888.247130,10510.924376
3876.269083,1532.190996,1332.370696,10362.883188
3876.269398,1762.019645,1702.473667,10214.842000
3876.269713,2528.115143,2368.659014,9918.759623
3876.270028,2451.505594,3034.844362,8882.471304
3876.270343,2987.772442,2960.823768,8216.285956
3876.270658,3447.429741,3034.844362,7550.100608
3876.270972,3524.039291,2146.597232,8068.244768
3876.271287,3064.381992,2146.597232,8142.265362
3876.271602,2834.553343,1110.308913,9178.553681
3876.271917,2374.896044,888.247130,10510.924376
3876.272232,1532.190996,592.164754,10955.047942
3876.272547,612.876398,740.205942,11029.068536
3876.272862,689.485948,888.247130,10955.047942
3876.273176,0.000000,1924.535449,10510.924376
3876.273491,842.705048,1554.432478,10288.862594
3876.273806,1532.190996,1628.453072,9992.780217
3876.274121,2145.067394,1998.556043,9844.739029
3876.274436,3064.381992,2146.597232,8808.450710
3876.274751,4136.915689,2072.576638,7624.121203
3876.275066,3370.820191,2960.823768,7772.162391
3876.275380,3370.820191,2220.617826,7920.203579
3876.275695,2757.943793,1332.370696,8734.430116
3876.276009,1608.800546,888.247130,9622.677246
3876.276324,689.485948,-0.000000,10362.883188
3876.276639,0.000000,-0.000000,10807.006753
3876.276953,-919.314598,222.061783,10881.027347
3876.277268,-306.438199,666.185348,10807.006753
3876.277582,536.266849,1406.391290,10510.924376
3876.277897,1072.533697,1628.453072,10066.800811
3876.278211,1608.800546,2220.617826,10140.821405
3876.278526,1991.848295,2960.823768,9104.533087
3876.278841,2681.334243,3552.988522,8142.265362
3876.279155,4060.306139,2664.741391,8512.368333
3876.279470,4443.353888,2664.741391,8438.347739
3876.279784,3140.991542,1850.514855,9474.636058
3876.280099,2374.896044,1110.308913,9918.759623
3876.280413,1302.362347,1332.370696,10362.883188
3876.280728,306.438199,2072.576638,10140.821405
3876.281043,1072.533697,1554.432478,10140.821405
3876.281357,1762.019645,1776.494261,10214.842000
3876.281672,1072.533697,1258.350101,10436.903782
3876.281986,1608.800546,1776.494261,10214.842000
3876.282301,2068.457845,2590.720797,8882.471304
3876.282615,2987.772442,2960.823768,9030.512492
3876.282930,4673.182538,3182.885551,8956.491898
3876.283245,4903.011187,3775.050304,7994.224174
3876.283559,4519.963438,3256.906145,9326.594869
3876.283874,3217.601092,3404.947333,8734.430116
3876.284188,2451.505594,2886.803174,9622.677246
3876.284503,2604.724693,2368.659014,10362.883188
3876.284817,1991.848295,2368.659014,10584.944971
3876.285132,842.705048,1850.514855,11473.192101
3876.285447,536.266849,2146.597232,10066.800811
3876.285761,766.095498,2220.617826,9992.780217
3876.286076,1762.019645,1702.473667,10807.006753
3876.286390,2681.334243,2368.659014,9474.636058
3876.286705,2451.505594,2442.679609,9104.533087
3876.287019,3447.429741,3701.029710,8364.327145
3876.287334,3830.477490,3034.844362,8586.388927
3876.287648,3677.258390,2886.803174,8660.409521
3876.287963,3294.210641,3108.864956,8808.450710
3876.288278,2298.286494,2886.803174,9178.553681
3876.288592,1455.581446,3849.070898,8808.450710
3876.288907,919.314598,2664.741391,9326.594869
3876.289221,919.314598,1332.370696,10732.986159
3876.289536,153.219100,1480.411884,10288.862594
3876.289850,-459.657299,1480.411884,11103.089130
3876.290165,-1685.410096,2146.597232,11029.068536
3876.290480,-766.095498,1554.432478,10807.006753
3876.290794,689.485948,962.267725,11029.068536
3876.291109,1225.752797,1702.473667,9992.780217
3876.291423,689.485948,2368.659014,9770.718434
3876.291738,153.219100,3330.926739,8142.265362
3876.292052,1072.533697,3108.864956,9400.615463
3876.292367,1915.238745,2146.597232,9918.759623
3876.292682,1225.752797,1628.453072,9696.697840
3876.292996,153.219100,1406.391290,8808.450710
3876.293311,-919.314598,962.267725,9548.656652
3876.293625,-842.705048,222.061783,10658.965565
3876.293940,-229.828649,-296.082377,10732.986159
3876.294254,-383.047749,-222.061783,10140.821405
3876.294569,-1302.362347,296.082377,10066.800811
3876.294884,-766.095498,-74.020594,9548.656652
3876.295198,0.000000,-740.205942,9474.636058
3876.295513,383.047749,-148.041188,9548.656652
3876.295827,0.000000,148.041188,9104.533087
3876.296142,-919.314598,740.205942,9474.636058
3876.296456,-689.485948,444.123565,9474.636058
3876.296771,612.876398,-370.102971,10881.027347
3876.297085,1149.143247,-666.185348,9696.697840
3876.297400,459.657299,-666.185348,9474.636058
3876.297715,306.438199,-0.000000,9474.636058
3876.298029,995.924147,-740.205942,9696.697840
3876.298344,1149.143247,-592.164754,9844.739029
3876.298658,1608.800546,-444.123565,9178.553681
3876.298973,995.924147,-962.267725,8068.244768
3876.299287,612.876398,-1110.308913,7920.203579
3876.299602,-229.828649,-962.267725,7476.080014
3876.299917,1915.238745,-4885.359217,10362.883188
3876.300231,995.924147,-1332.370696,8882.471304
3876.300546,-1991.848295,-1406.391290,9400.615463
3876.300860,-459.657299,-2072.576638,9918.759623
3876.301175,153.219100,-1554.432478,9844.739029
3876.301489,689.485948,-1332.370696,10807.006753
3876.301804,919.314598,-1480.411884,8660.409521
3876.302119,919.314598,-74.020594,8512.368333
3876.302433,1991.848295,-0.000000,9326.594869
3876.302748,1838.629195,444.123565,8660.409521
3876.303062,2068.457845,-148.041188,9030.512492
3876.303377,1762.019645,-444.123565,8216.285956
3876.303691,383.047749,-74.020594,8290.306550
3876.304006,-153.219100,-962.267725,8512.368333
3876.304321,-229.828649,-1998.556043,10362.883188
3876.304635,-842.705048,-1924.535449,9548.656652
3876.304950,-1762.019645,-2294.638420,9844.739029
3876.305264,-1302.362347,-1702.473667,9918.759623
3876.305579,-995.924147,-1332.370696,10362.883188
3876.305893,0.000000,-666.185348,9992.780217
3876.306208,-306.438199,-0.000000,8882.471304
3876.306523,-383.047749,1110.308913,8586.388927
3876.306837,612.876398,962.267725,8438.347739
3876.307152,1302.362347,962.267725,8438.347739
3876.307466,383.047749,518.144159,9400.615463
3876.307781,-153.219100,814.226536,9474.636058
3876.308095,-1072.533697,592.164754,9474.636058
3876.308410,-612.876398,-74.020594,10732.986159
3876.308724,-766.095498,-444.123565,11843.295072
3876.309039,-1455.581446,-0.000000,10584.944971
3876.309354,-2145.067394,666.185348,9992.780217
3876.309668,-1225.752797,592.164754,10066.800811
3876.309983,0.000000,444.123565,9992.780217
3876.310297,383.047749,1184.329507,9696.697840
3876.310612,229.828649,1184.329507,8956.491898
3876.310926,229.828649,1628.453072,8882.471304
3876.311241,153.219100,1332.370696,9696.697840
3876.311556,766.095498,1406.391290,10362.883188
3876.311870,689.485948,1480.411884,10510.924376
3876.312185,153.219100,2294.638420,10066.800811
3876.312499,0.000000,1406.391290,10066.800811
3876.312814,306.438199,1332.370696,10807.006753
3876.313128,383.047749,1184.329507,10881.027347
3876.313443,153.219100,888.247130,10732.986159
3876.313758,0.000000,1924.535449,10436.903782
3876.314072,459.657299,1036.288319,10362.883188
3876.314387,1149.143247,962.267725,10214.842000
3876.314701,1762.019645,1258.350101,9770.718434
3876.315016,459.657299,1850.514855,9474.636058
3876.315330,842.705048,1480.411884,9104.533087
3876.315645,1225.752797,888.247130,9992.780217
3876.315960,1302.362347,740.205942,9992.780217
3876.316274,1149.143247,592.164754,9548.656652
3876.316589,306.438199,370.102971,9696.697840
3876.316903,383.047749,444.123565,9474.636058
3876.317218,383.047749,666.185348,10362.883188
3876.317532,612.876398,-0.000000,10288.862594
3876.317847,1149.143247,592.164754,9622.677246
3876.318162,306.438199,1702.473667,8290.306550
3876.318476,766.095498,518.144159,8808.450710
3876.318791,995.924147,-592.164754,9844.739029
3876.319105,766.095498,-518.144159,9844.739029
3876.319420,0.000000,-222.061783,9178.553681
3876.319734,-459.657299,-0.000000,9178.553681
3876.320049,0.000000,-518.144159,9548.656652
3876.320363,229.828649,-740.205942,9770.718434
3876.320678,0.000000,-74.020594,9474.636058
3876.320993,-536.266849,370.102971,8586.388927
3876.321307,306.438199,-148.041188,8512.368333
3876.321622,383.047749,-148.041188,8512.368333
3876.321936,689.485948,-0.000000,8808.450710
3876.322251,153.219100,-0.000000,7772.162391
3876.322565,-536.266849,-592.164754,8586.388927
3876.322880,-766.095498,-1702.473667,9696.697840
3876.323195,-459.657299,-1406.391290,10436.903782
3876.323509,-306.438199,-518.144159,9918.759623
3876.323824,-995.924147,-74.020594,8956.491898
3876.324138,-612.876398,370.102971,9178.553681
3876.324453,76.609550,-0.000000,9474.636058
3876.324767,-306.438199,-592.164754,9400.615463
3876.325082,-229.828649,-740.205942,9030.512492
3876.325397,-842.705048,296.082377,8364.327145
3876.325711,0.000000,-0.000000,8808.450710
3876.326026,229.828649,-444.123565,10658.965565
3876.326340,76.609550,-518.144159,10214.842000
3876.326655,-766.095498,-222.061783,9178.553681
3876.326969,-1302.362347,-296.082377,9844.739029
3876.327284,-995.924147,-518.144159,10881.027347
3876.327599,-459.657299,-1480.411884,11325.150913
3876.327913,0.000000,-888.247130,10214.842000
3876.328228,-766.095498,-592.164754,9844.739029
3876.328542,-1149.143247,-444.123565,10214.842000
3876.328857,-153.219100,-740.205942,10807.006753
3876.329171,383.047749,-148.041188,10881.027347
3876.329486,612.876398,-74.020594,9770.718434
3876.329800,229.828649,962.267725,8216.285956
3876.330115,919.314598,-0.000000,8808.450710
3876.330430,1072.533697,-740.205942,10362.883188
3876.330744,919.314598,-296.082377,9918.759623
3876.331059,153.219100,-296.082377,8808.450710
3876.331373,-229.828649,-518.144159,9252.574275
3876.331688,-153.219100,-962.267725,11029.068536
3876.332002,76.609550,-814.226536,11177.109724
3876.332317,-536.266849,-370.102971,10362.883188
3876.332632,-919.314598,296.082377,9770.718434
3876.332946,-766.095498,518.144159,8808.450710
3876.333261,153.219100,-0.000000,9548.656652
3876.333575,842.705048,-222.061783,9474.636058
3876.333890,1838.629195,-74.020594,9770.718434
3876.334204,306.438199,1258.350101,7624.121203
3876.334519,536.266849,296.082377,8882.471304
3876.334834,1378.971896,-0.000000,10362.883188
3876.335148,383.047749,518.144159,9844.739029
3876.335463,153.219100,444.123565,8586.388927
3876.335777,306.438199,962.267725,8512.368333
3876.336092,229.828649,888.247130,9844.739029
3876.336406,306.438199,444.123565,9992.780217
3876.336721,-229.828649,740.205942,9474.636058
3876.337036,-306.438199,814.226536,9400.615463
3876.337350,383.047749,888.247130,8956.491898
3876.337665,1149.143247,814.226536,9252.574275
3876.337979,1378.971896,518.144159,10288.862594
3876.338294,0.000000,1184.329507,9622.677246
3876.338608,0.000000,1480.411884,9252.574275
3876.338923,383.047749,1110.308913,9474.636058
3876.339238,612.876398,296.082377,10362.883188
3876.339552,0.000000,888.247130,9918.759623
3876.339867,-306.438199,1036.288319,9770.718434
3876.340181,-612.876398,1184.329507,9104.533087
3876.340496,153.219100,518.144159,10807.006753
3876.340810,459.657299,814.226536,10140.821405
3876.341125,76.609550,888.247130,9696.697840
3876.341439,0.000000,1850.514855,9770.718434
3876.341754,459.657299,1036.288319,9178.553681
3876.342069,459.657299,888.247130,9992.780217
3876.342383,689.485948,666.185348,10362.883188
3876.342698,0.000000,370.102971,9992.780217
3876.343012,-995.924147,666.185348,9696.697840
3876.343327,-383.047749,-0.000000,10584.944971
3876.343641,306.438199,-148.041188,11177.109724
3876.343956,0.000000,-222.061783,10214.842000
3876.344271,-536.266849,296.082377,10214.842000
3876.344585,306.438199,666.185348,9622.677246
3876.344900,459.657299,296.082377,9992.780217
3876.345214,1072.533697,444.123565,9400.615463
3876.345529,1072.533697,592.164754,8068.244768
3876.345843,842.705048,1036.288319,8512.368333
3876.346158,995.924147,-0.000000,9030.512492
3876.346473,919.314598,-0.000000,9474.636058
3876.346787,689.485948,-0.000000,10140.821405
3876.347102,-459.657299,-0.000000,9030.512492
3876.347416,-919.314598,518.144159,9696.697840
3876.347731,-536.266849,296.082377,10436.903782
3876.348045,-306.438199,-296.082377,9992.780217
3876.348360,-612.876398,148.041188,9474.636058
3876.348675,-383.047749,444.123565,8512.368333
3876.348989,-306.438199,592.164754,8882.471304
3876.349304,306.438199,-296.082377,9400.615463
3876.349618,383.047749,-444.123565,9696.697840
3876.349933,229.828649,-0.000000,8882.471304
3876.350247,0.000000,-0.000000,9178.553681
3876.350562,0.000000,222.061783,9548.656652
3876.350877,76.609550,-518.144159,9622.677246
3876.351191,76.609550,-222.061783,9474.636058
3876.351506,-306.438199,-148.041188,8956.491898
3876.351820,-306.438199,-370.102971,9252.574275
3876.352135,0.000000,-814.226536,10436.903782
3876.352449,0.000000,-1628.453072,9992.780217
3876.352764,229.828649,-1036.288319,9844.739029
3876.353078,-153.219100,444.123565,8808.450710
3876.353393,76.609550,-444.123565,9548.656652
3876.353708,536.266849,-444.123565,10288.862594
3876.354022,536.266849,-592.164754,9548.656652
3876.354337,229.828649,-296.082377,9252.574275
3876.354651,229.828649,-1258.350101,9178.553681
3876.354966,-229.828649,-1184.329507,10362.883188
3876.355280,76.609550,-1332.370696,11399.171507
3876.355595,153.219100,-518.144159,9844.739029
3876.355910,-459.657299,-0.000000,9252.574275
3876.356224,689.485948,-148.041188,9844.739029
3876.356539,995.924147,-0.000000,10140.821405
3876.356853,919.314598,-0.000000,8882.471304
3876.357168,612.876398,-74.020594,9178.553681
3876.357482,-306.438199,814.226536,8956.491898
3876.357797,229.828649,-0.000000,9770.718434
3876.358112,383.047749,-814.226536,10732.986159
3876.358426,383.047749,-592.164754,10214.842000
3876.358741,-229.828649,222.061783,9992.780217
3876.359055,-229.828649,740.205942,9030.512492
3876.359370,-612.876398,444.123565,10658.965565
3876.359684,76.609550,-0.000000,10732.986159
3876.359999,76.609550,518.144159,9474.636058
3876.360314,0.000000,1036.288319,8808.450710
3876.360628,229.828649,666.185348,9696.697840
3876.360943,612.876398,1110.308913,10362.883188
3876.361257,689.485948,962.267725,9548.656652
3876.361572,0.000000,740.205942,8512.368333
3876.361886,0.000000,592.164754,8586.388927
3876.362201,229.828649,-0.000000,8882.471304
3876.362515,-229.828649,-666.185348,9770.718434
3876.362830,-1072.533697,-814.226536,10288.862594
3876.363145,-1762.019645,-0.000000,9992.780217
3876.363459,-1455.581446,666.185348,9104.533087
3876.363774,-536.266849,-0.000000,10288.862594
3876.364088,76.609550,444.123565,10140.821405
3876.364403,383.047749,-0.000000,9474.636058
3876.364717,76.609550,1332.370696,9178.553681
3876.365032,229.828649,1480.411884,8882.471304
3876.365347,1149.143247,814.226536,9252.574275
3876.365661,536.266849,222.061783,9548.656652
3876.365976,0.000000,666.185348,8364.327145
3876.366290,229.828649,518.144159,8882.471304
3876.366605,0.000000,370.102971,9696.697840
3876.366919,0.000000,-0.000000,10214.842000
3876.367234,-153.219100,-666.185348,10214.842000
3876.367549,-1149.143247,444.123565,9770.718434
3876.367863,-1302.362347,-0.000000,10214.842000
3876.368178,-229.828649,-222.061783,10510.924376
3876.368492,306.438199,-592.164754,10362.883188
3876.368807,689.485948,-74.020594,9474.636058
3876.369121,459.657299,1110.308913,9104.533087
3876.369436,919.314598,1406.391290,9178.553681
3876.369751,1685.410096,1110.308913,9770.718434
3876.370065,1838.629195,888.247130,9104.533087
3876.370380,1608.800546,1036.288319,8808.450710
3876.370694,766.095498,888.247130,7920.203579
3876.371009,919.314598,-0.000000,9548.656652
3876.371323,306.438199,-370.102971,10436.903782
3876.371638,76.609550,-518.144159,10066.800811
3876.371953,-1302.362347,296.082377,9474.636058
3876.372267,-536.266849,444.123565,9770.718434
3876.372582,0.000000,-666.185348,11177.109724
3876.372896,153.219100,-888.247130,10288.862594
3876.373211,76.609550,-222.061783,9178.553681
3876.373525,0.000000,-222.061783,8586.388927
3876.373840,459.657299,666.185348,9474.636058
3876.374155,689.485948,592.164754,9770.718434
3876.374469,1072.533697,444.123565,9252.574275
3876.374784,0.000000,962.267725,9104.533087
3876.375099,459.657299,-296.082377,9400.615463
3876.375413,766.095498,518.144159,10288.862594
3876.375728,612.876398,-666.185348,10510.924376
3876.376043,306.438199,-740.205942,9696.697840
3876.376357,-842.705048,-0.000000,8512.368333
3876.376672,-612.876398,-518.144159,9548.656652
3876.376986,0.000000,-888.247130,10288.862594
3876.377301,459.657299,-962.267725,9400.615463
3876.377616,0.000000,-148.041188,8808.450710
3876.377930,-612.876398,-74.020594,8882.471304
3876.378245,0.000000,-222.061783,9548.656652
3876.378560,229.828649,-518.144159,9918.759623
3876.378874,153.219100,-518.144159,9844.739029
3876.379189,-536.266849,-74.020594,9400.615463
3876.379503,-383.047749,-0.000000,9770.718434
3876.379818,153.219100,-0.000000,9770.718434
3876.380133,0.000000,-74.020594,10362.883188
3876.380447,0.000000,-0.000000,9326.594869
3876.380762,-842.705048,148.041188,8956.491898
3876.381077,-229.828649,-0.000000,9918.759623
3876.381391,0.000000,-370.102971,9844.739029
3876.381706,0.000000,-518.144159,9474.636058
3876.382020,-689.485948,444.123565,8956.491898
3876.382335,-995.924147,296.082377,9474.636058
3876.382650,-306.438199,-0.000000,9844.739029
3876.382964,0.000000,-148.041188,10066.800811
3876.383279,0.000000,-370.102971,9770.718434
3876.383594,-459.657299,370.102971,9178.553681
3876.383908,459.657299,888.247130,9030.512492
3876.384223,612.876398,518.144159,9474.636058
3876.384537,1302.362347,-222.061783,9474.636058
3876.384852,459.657299,-0.000000,9918.759623
3876.385167,0.000000,1036.288319,8068.244768
3876.385481,689.485948,666.185348,8808.450710
3876.385796,766.095498,-0.000000,10214.842000
3876.386111,536.266849,-444.123565,10436.903782
3876.386425,-306.438199,-148.041188,9622.677246
3876.386740,-612.876398,370.102971,9844.739029
3876.387055,-229.828649,-148.041188,11251.130318
3876.387369,76.609550,-1036.288319,10955.047942
3876.387684,-153.219100,-444.123565,9844.739029
3876.387998,0.000000,888.247130,8956.491898
3876.388313,383.047749,888.247130,9474.636058
3876.388628,1378.971896,666.185348,10362.883188
3876.388942,1302.362347,962.267725,9474.636058
3876.389257,1302.362347,814.226536,8512.368333
3876.389572,919.314598,814.226536,8216.285956
3876.389886,1378.971896,444.123565,9104.533087
3876.390201,1455.581446,-0.000000,9992.780217
3876.390515,1072.533697,222.061783,10362.883188
3876.390830,-842.705048,222.061783,9474.636058
3876.391145,-459.657299,740.205942,9918.759623
3876.391459,-76.609550,444.123565,10658.965565
3876.391774,0.000000,-148.041188,9992.780217
3876.392089,-306.438199,222.061783,9696.697840
3876.392403,-842.705048,1110.308913,9622.677246
3876.392718,-459.657299,518.144159,9030.512492
3876.393032,229.828649,-222.061783,10807.006753
3876.393347,383.047749,-0.000000,10288.862594
3876.393662,-153.219100,1554.432478,9104.533087
3876.393976,-229.828649,1776.494261,9622.677246
3876.394291,0.000000,1258.350101,9548.656652
3876.394606,536.266849,444.123565,9992.780217
3876.394920,536.266849,222.061783,8882.471304
3876.395235,-766.095498,222.061783,8438.347739
3876.395549,-689.485948,-518.144159,10288.862594
3876.395864,-842.705048,-296.082377,10288.862594
3876.396179,-229.828649,-296.082377,9622.677246
3876.396493,-612.876398,-296.082377,9770.718434
3876.396808,-612.876398,666.185348,9030.512492
3876.397123,229.828649,666.185348,9178.553681
3876.397437,766.095498,740.205942,9474.636058
3876.397752,536.266849,370.102971,9474.636058
3876.398067,0.000000,740.205942,8660.409521
3876.398381,306.438199,1110.308913,8512.368333
3876.398696,536.266849,-0.000000,9770.718434
3876.399010,1225.752797,-518.144159,10362.883188
3876.399325,383.047749,-296.082377,9770.718434
3876.399640,-383.047749,666.185348,8882.471304
3876.399954,0.000000,222.061783,9844.739029
3876.400269,0.000000,-370.102971,10140.821405
3876.400584,153.219100,-592.164754,9696.697840
3876.400898,0.000000,-1110.308913,10140.821405
3876.401213,-536.266849,-518.144159,9474.636058
3876.401527,229.828649,-592.164754,9992.780217
3876.401842,536.266849,-518.144159,10288.862594
3876.402157,536.266849,-370.102971,10807.006753
3876.402471,306.438199,370.102971,9030.512492
3876.402786,383.047749,962.267725,9326.594869
3876.403101,842.705048,888.247130,10584.944971
3876.403415,1302.362347,666.185348,9326.594869
3876.403730,1532.190996,-0.000000,9030.512492
3876.404044,689.485948,-0.000000,8660.409521
3876.404359,383.047749,-296.082377,9326.594869
3876.404674,612.876398,-888.247130,9696.697840
3876.404988,459.657299,-962.267725,10066.800811
3876.405303,-229.828649,-666.185348,10214.842000
3876.405618,-842.705048,222.061783,8438.347739
3876.405932,-766.095498,-222.061783,9622.677246
3876.406247,0.000000,-1036.288319,10214.842000
3876.406561,-306.438199,-296.082377,9474.636058
3876.406876,-612.876398,-148.041188,9178.553681
3876.407191,153.219100,-444.123565,9030.512492
3876.407505,383.047749,-148.041188,9992.780217
3876.407820,919.314598,222.061783,9252.574275
3876.408135,1378.971896,222.061783,8586.388927
3876.408449,-306.438199,962.267725,8734.430116
3876.408764,0.000000,740.205942,9474.636058
3876.409079,0.000000,296.082377,9622.677246
3876.409393,0.000000,444.123565,9474.636058
3876.409708,-689.485948,-296.082377,9104.533087
3876.410022,-536.266849,-518.144159,8882.471304
3876.410337,-536.266849,-1332.370696,10214.842000
3876.410652,-153.219100,-740.205942,11103.089130
3876.410966,-612.876398,592.164754,9622.677246
3876.411281,-612.876398,1036.288319,9326.594869
3876.411596,76.609550,1184.329507,9622.677246
3876.411910,612.876398,222.061783,9770.718434
3876.412225,842.705048,370.102971,9252.574275
3876.412539,306.438199,-222.061783,9252.574275
3876.412854,0.000000,592.164754,8660.409521
3876.413169,766.095498,592.164754,9474.636058
3876.413483,536.266849,592.164754,9474.636058
3876.413798,153.219100,-148.041188,9918.759623
3876.414113,-689.485948,-0.000000,10140.821405
3876.414427,-1072.533697,370.102971,10288.862594
3876.414742,-842.705048,-0.000000,10584.944971
3876.415056,-612.876398,-0.000000,10510.924376
3876.415371,-153.219100,-0.000000,9474.636058
3876.415686,-689.485948,-148.041188,9474.636058
3876.416000,229.828649,222.061783,9844.739029
3876.416315,689.485948,518.144159,10732.986159
3876.416630,1072.533697,1036.288319,9474.636058
3876.416944,612.876398,1258.350101,9252.574275
3876.417259,766.095498,1332.370696,9030.512492
3876.417573,1378.971896,-0.000000,8956.491898
3876.417888,1149.143247,-0.000000,9696.697840
3876.418203,612.876398,-74.020594,9474.636058
3876.418517,-153.219100,296.082377,9770.718434
3876.418832,0.000000,444.123565,9400.615463
3876.419147,612.876398,-222.061783,10140.821405
3876.419461,612.876398,-296.082377,10066.800811
3876.419776,383.047749,-518.144159,9252.574275
3876.420091,0.000000,-0.000000,9104.533087
3876.420405,459.657299,1036.288319,9104.533087
3876.420720,689.485948,814.226536,10066.800811
3876.421034,995.924147,962.267725,9104.533087
3876.421349,689.485948,592.164754,9030.512492
3876.421664,306.438199,592.164754,8956.491898
3876.421978,459.657299,1036.288319,9770.718434
3876.422293,229.828649,592.164754,10288.862594
3876.422608,766.095498,296.082377,10436.903782
3876.422922,0.000000,666.185348,9326.594869
3876.423237,0.000000,370.102971,9622.677246
3876.423551,459.657299,-0.000000,10066.800811
3876.423866,536.266849,-0.000000,9696.697840
3876.424181,-153.219100,740.205942,8734.430116
3876.424495,-689.485948,444.123565,8882.471304
3876.424810,0.000000,-0.000000,9696.697840
3876.425125,0.000000,-296.082377,9992.780217
3876.425439,0.000000,-1258.350101,10658.965565
3876.425754,-153.219100,-148.041188,9770.718434
3876.426068,-1302.362347,962.267725,9844.739029
3876.426383,-383.047749,-0.000000,10066.800811
3876.426698,689.485948,-222.061783,10807.006753
3876.427012,229.828649,296.082377,9622.677246
3876.427327,0.000000,-0.000000,8734.430116
3876.427642,76.609550,814.226536,9104.533087
3876.427956,306.438199,-222.061783,9992.780217
3876.428271,306.438199,-740.205942,10214.842000
3876.428586,76.609550,-740.205942,9696.697840
3876.428900,-919.314598,-222.061783,9400.615463
3876.429215,-689.485948,-518.144159,9696.697840
3876.429529,-383.047749,-1110.308913,10955.047942
3876.429844,153.219100,-1110.308913,9548.656652
3876.430159,-612.876398,-296.082377,9400.615463
3876.430473,-459.657299,222.061783,8956.491898
3876.430788,0.000000,-444.123565,9770.718434
3876.431103,1072.533697,-296.082377,9918.759623
3876.431417,612.876398,-0.000000,8882.471304
3876.431732,459.657299,370.102971,9252.574275
3876.432046,766.095498,-222.061783,9400.615463
3876.432361,1225.752797,-0.000000,8660.409521
3876.432676,842.705048,-518.144159,8808.450710
3876.432990,0.000000,-592.164754,9252.574275
3876.433305,-995.924147,296.082377,8882.471304
3876.433620,-229.828649,-296.082377,9252.574275
3876.433934,0.000000,-592.164754,10362.883188
3876.434249,-76.609550,148.041188,10140.821405
3876.434563,-995.924147,740.205942,8956.491898
3876.434878,-383.047749,-592.164754,10066.800811
3876.435193,0.000000,518.144159,10584.944971
3876.435507,383.047749,-296.082377,10140.821405
3876.435822,459.657299,666.185348,8956.491898
3876.436137,-306.438199,444.123565,9474.636058
3876.436451,76.609550,962.267725,8586.388927
3876.436766,689.485948,-296.082377,9622.677246
3876.437080,919.314598,888.247130,8734.430116
3876.437395,383.047749,-0.000000,9474.636058
3876.437710,76.609550,814.226536,8438.347739
3876.438024,0.000000,-148.041188,10288.862594
3876.438339,689.485948,-0.000000,10436.903782
3876.438654,229.828649,-222.061783,9326.594869
3876.438968,0.000000,740.205942,8660.409521
3876.439283,-153.219100,888.247130,9474.636058
3876.439598,306.438199,888.247130,10214.842000
3876.439912,919.314598,740.205942,10066.800811
3876.440227,153.219100,666.185348,9918.759623
3876.440541,0.000000,1036.288319,9770.718434
3876.440856,-383.047749,222.061783,10140.821405
3876.441171,229.828649,296.082377,10955.047942
3876.441485,689.485948,444.123565,10140.821405
3876.441800,-153.219100,444.123565,10362.883188
3876.442115,-383.047749,1406.391290,9770.718434
3876.442429,0.000000,1554.432478,10140.821405
3876.442744,689.485948,370.102971,9918.759623
3876.443058,306.438199,518.144159,9400.615463
3876.443373,0.000000,592.164754,9400.615463
3876.443688,76.609550,814.226536,9548.656652
3876.444002,-536.266849,888.247130,10362.883188
3876.444317,0.000000,370.102971,10214.842000
3876.444632,-153.219100,222.061783,9252.574275
3876.444946,-306.438199,740.205942,9918.759623
3876.445261,0.000000,1110.308913,10288.862594
3876.445575,306.438199,444.123565,11325.150913
3876.445890,76.609550,666.185348,9622.677246
3876.446205,-153.219100,814.226536,9178.553681
3876.446519,76.609550,1258.350101,9474.636058
3876.446834,766.095498,370.102971,9622.677246
3876.447149,995.924147,-0.000000,9770.718434
3876.447463,919.314598,-0.000000,9104.533087
3876.447778,0.000000,666.185348,8512.368333
3876.448092,229.828649,370.102971,9326.594869
3876.448407,459.657299,-0.000000,9844.739029
3876.448722,306.438199,-962.267725,10288.862594
3876.449036,-229.828649,-0.000000,9030.512492
3876.449351,-995.924147,-0.000000,8882.471304
3876.449666,0.000000,-148.041188,9474.636058
3876.449980,766.095498,-370.102971,9844.739029
3876.450295,383.047749,-0.000000,9400.615463
3876.450610,-306.438199,-0.000000,8808.450710
3876.450924,229.828649,-0.000000,9326.594869
3876.451239,306.438199,-370.102971,9696.697840
3876.451553,76.609550,-0.000000,9696.697840
3876.451868,0.000000,-74.020594,9770.718434
3876.452183,-229.828649,296.082377,8364.327145
3876.452497,0.000000,-814.226536,9770.718434
3876.452812,459.657299,-962.267725,10362.883188
3876.453127,153.219100,-814.226536,9844.739029
3876.453441,-612.876398,-666.185348,9844.739029
3876.453756,-766.095498,-444.123565,9696.697840
3876.454070,-536.266849,-0.000000,10288.862594
3876.454385,-153.219100,-888.247130,10510.924376
3876.454700,0.000000,-740.205942,9548.656652
3876.455014,-306.438199,-74.020594,9104.533087
3876.455329,153.219100,-74.020594,8882.471304
3876.455644,383.047749,370.102971,9474.636058
3876.455958,919.314598,-74.020594,9548.656652
3876.456273,842.705048,-0.000000,8660.409521
3876.456587,-383.047749,296.082377,8956.491898
3876.456902,459.657299,-148.041188,9844.739029
3876.457217,383.047749,-370.102971,10066.800811
3876.457531,0.000000,-518.144159,9844.739029
3876.457846,-459.657299,296.082377,8882.471304
3876.458161,-919.314598,-370.102971,8734.430116
3876.458475,-536.266849,-518.144159,10066.800811
3876.458790,-229.828649,-1110.308913,10214.842000
3876.459104,-459.657299,-888.247130,9770.718434
3876.459419,-459.657299,-444.123565,9178.553681
3876.459734,-229.828649,-148.041188,9400.615463
3876.460048,536.266849,370.102971,9992.780217
3876.460363,995.924147,-0.000000,9178.553681
3876.460678,306.438199,-0.000000,9178.553681
3876.460992,153.219100,370.102971,8956.491898
3876.461307,0.000000,740.205942,9326.594869
3876.461622,76.609550,-0.000000,9178.553681
3876.461936,153.219100,-518.144159,9252.574275
3876.462251,-383.047749,-148.041188,9400.615463
3876.462565,-306.438199,-0.000000,9696.697840
3876.462880,229.828649,444.123565,9918.759623
3876.463195,383.047749,-0.000000,9918.759623
3876.463509,153.219100,222.061783,8660.409521
3876.463824,229.828649,222.061783,9178.553681
3876.464139,153.219100,740.205942,9474.636058
3876.464453,842.705048,296.082377,9474.636058
3876.464768,842.705048,814.226536,9992.780217
3876.465082,76.609550,740.205942,9104.533087
3876.465397,229.828649,962.267725,9326.594869
3876.465712,76.609550,962.267725,10288.862594
3876.466026,995.924147,814.226536,10362.883188
3876.466341,1072.533697,740.205942,9548.656652
3876.466656,-153.219100,1554.432478,8956.491898
3876.466970,0.000000,1110.308913,10436.903782
3876.467285,536.266849,1110.308913,9992.780217
3876.467599,306.438199,666.185348,10066.800811
3876.467914,383.047749,814.226536,9030.512492
3876.468229,459.657299,740.205942,9252.574275
3876.468543,383.047749,1036.288319,9548.656652
3876.468858,383.047749,444.123565,11251.130318
3876.469173,0.000000,592.164754,10140.821405
3876.469487,-306.438199,592.164754,9178.553681
3876.469802,459.657299,1110.308913,9252.574275
3876.470116,766.095498,1110.308913,9918.759623
3876.470431,766.095498,1036.288319,9474.636058
3876.470746,536.266849,1036.288319,9622.677246
3876.471060,-229.828649,1332.370696,8512.368333
3876.471375,459.657299,-0.000000,10288.862594
3876.471690,612.876398,370.102971,10288.862594
3876.472004,536.266849,-370.102971,10510.924376
3876.472319,0.000000,296.082377,9844.739029
3876.472634,-995.924147,592.164754,9104.533087
3876.472948,-383.047749,-0.000000,9918.759623
3876.473263,229.828649,-518.144159,10955.047942
3876.473577,-229.828649,-148.041188,9252.574275
3876.473892,-306.438199,-0.000000,9400.615463
3876.474207,0.000000,-0.000000,9696.697840
3876.474522,766.095498,-0.000000,10510.924376
3876.474837,383.047749,-592.164754,10807.006753
3876.475151,0.000000,222.061783,8364.327145
3876.475466,0.000000,-296.082377,9474.636058
3876.475781,153.219100,-0.000000,9696.697840
3876.476096,306.438199,-0.000000,9696.697840
3876.476411,0.000000,222.061783,9474.636058
3876.476726,-153.219100,-0.000000,9104.533087
3876.477040,-306.438199,370.102971,9178.553681
3876.477355,383.047749,-444.123565,10510.924376
3876.477670,0.000000,-1110.308913,11029.068536
3876.477985,0.000000,-740.205942,9992.780217
3876.478300,-306.438199,-74.020594,8734.430116
3876.478614,-383.047749,444.123565,8882.471304
3876.478929,76.609550,592.164754,9548.656652
3876.479244,689.485948,-1110.308913,9474.636058
3876.479559,306.438199,-296.082377,8364.327145
3876.479874,0.000000,148.041188,7624.121203
3876.480188,0.000000,-296.082377,8956.491898
3876.480503,306.438199,-814.226536,9474.636058
3876.480818,153.219100,-814.226536,9252.574275
3876.481133,-842.705048,-1184.329507,9104.533087
3876.481448,-459.657299,-814.226536,9326.594869
3876.481762,-153.219100,-888.247130,10362.883188
3876.482077,-536.266849,-0.000000,10066.800811
3876.482392,-229.828649,370.102971,8734.430116
3876.482707,-536.266849,222.061783,8216.285956
3876.483022,612.876398,-0.000000,9252.574275
3876.483337,1302.362347,296.082377,9548.656652
3876.483651,689.485948,-444.123565,9474.636058
3876.483966,0.000000,-296.082377,9770.718434
3876.484281,0.000000,444.123565,9030.512492
3876.484596,0.000000,666.185348,9844.739029
3876.484911,76.609550,-296.082377,10955.047942
3876.485225,153.219100,-222.061783,10140.821405
3876.485540,153.219100,148.041188,8882.471304
3876.485855,153.219100,148.041188,8882.471304
3876.486170,153.219100,-0.000000,9992.780217
3876.486485,766.095498,-666.185348,11177.109724
3876.486799,689.485948,-222.061783,9548.656652
3876.487114,0.000000,-0.000000,9622.677246
3876.487429,383.047749,1184.329507,9252.574275
3876.487744,612.876398,740.205942,9770.718434
3876.488059,1378.971896,740.205942,9918.759623
3876.488373,0.000000,888.247130,9622.677246
3876.488688,0.000000,1480.411884,9104.533087
3876.489003,306.438199,518.144159,9844.739029
3876.489318,612.876398,-0.000000,10955.047942
3876.489633,-153.219100,592.164754,10140.821405
3876.489948,-995.924147,814.226536,9770.718434
3876.490262,-689.485948,814.226536,9696.697840
3876.490577,0.000000,148.041188,10436.903782
3876.490892,306.438199,518.144159,10362.883188
3876.491207,0.000000,222.061783,9252.574275
3876.491522,-229.828649,962.267725,9252.574275
3876.491836,612.876398,962.267725,9474.636058
3876.492151,0.000000,888.247130,10140.821405
3876.492466,153.219100,1258.350101,9696.697840
3876.492781,-229.828649,370.102971,9548.656652
3876.493096,306.438199,444.123565,8956.491898
3876.493410,383.047749,888.247130,9696.697840
3876.493725,459.657299,666.185348,9844.739029
3876.494040,76.609550,814.226536,8956.491898
3876.494355,-1072.533697,666.185348,8068.244768
3876.494670,-689.485948,518.144159,9400.615463
3876.494984,0.000000,518.144159,9326.594869
3876.495299,76.609550,296.082377,9844.739029
3876.495614,0.000000,370.102971,9474.636058
3876.495929,0.000000,666.185348,9400.615463
3876.496244,76.609550,518.144159,9844.739029
3876.496559,766.095498,740.205942,10584.944971
3876.496873,689.485948,888.247130,9770.718434
3876.497188,153.219100,962.267725,8956.491898
3876.497503,612.876398,962.267725,8734.430116
3876.497818,612.876398,740.205942,9474.636058
3876.498133,1072.533697,222.061783,9474.636058
3876.498447,842.705048,-148.041188,9178.553681
3876.498762,0.000000,444.123565,9178.553681
3876.499077,76.609550,-222.061783,10140.821405
3876.499392,76.609550,296.082377,10214.842000
3876.499707,229.828649,-74.020594,9992.780217
3876.500021,-306.438199,-444.123565,9474.636058
3876.500336,-612.876398,-74.020594,9548.656652
3876.500651,0.000000,-222.061783,10214.842000
3876.500966,153.219100,-222.061783,10288.862594
3876.501281,229.828649,-518.144159,9992.780217
3876.501595,-229.828649,370.102971,9030.512492
3876.501910,689.485948,148.041188,9548.656652
3876.502225,766.095498,296.082377,10362.883188
3876.502540,919.314598,-814.226536,9992.780217
3876.502855,306.438199,222.061783,8956.491898
3876.503170,-306.438199,-222.061783,8660.409521
3876.503484,383.047749,-296.082377,9474.636058
3876.503799,0.000000,-1184.329507,10140.821405
3876.504114,-383.047749,-962.267725,9918.759623
3876.504429,-1072.533697,-1850.514855,9992.780217
3876.504744,-1225.752797,-1406.391290,9548.656652
3876.505058,-612.876398,-1554.432478,10214.842000
3876.505373,0.000000,-888.247130,9326.594869
3876.505688,-383.047749,-740.205942,8660.409521
3876.506003,-383.047749,-222.061783,7920.203579
3876.506318,383.047749,-592.164754,8956.491898
3876.506632,459.657299,-296.082377,9104.533087
3876.506947,766.095498,-370.102971,9400.615463
3876.507262,229.828649,-148.041188,8216.285956
3876.507577,-153.219100,-74.020594,8882.471304
3876.507892,0.000000,370.102971,9918.759623
3876.508207,306.438199,-518.144159,10732.986159
3876.508521,0.000000,-74.020594,10214.842000
3876.508836,-766.095498,-74.020594,9104.533087
3876.509151,-536.266849,-0.000000,8882.471304
3876.509466,0.000000,-222.061783,10510.924376
3876.509781,0.000000,-1036.288319,9696.697840
3876.510095,-536.266849,-0.000000,9030.512492
3876.510410,-766.095498,814.226536,8586.388927
3876.510725,306.438199,-0.000000,9104.533087
3876.511040,842.705048,-74.020594,9622.677246
3876.511355,766.095498,74.020594,9770.718434
3876.511669,-383.047749,444.123565,9104.533087
3876.511984,-842.705048,222.061783,9178.553681
3876.512299,0.000000,518.144159,9992.780217
3876.512614,306.438199,444.123565,10732.986159
3876.512929,0.000000,888.247130,9770.718434
3876.513243,-536.266849,888.247130,9400.615463
3876.513558,-153.219100,666.185348,9918.759623
3876.513873,306.438199,592.164754,10436.903782
3876.514188,1072.533697,-0.000000,10732.986159
3876.514503,0.000000,592.164754,9474.636058
3876.514818,0.000000,962.267725,8956.491898
3876.515132,459.657299,814.226536,9918.759623
3876.515447,612.876398,296.082377,10140.821405
3876.515762,612.876398,592.164754,10214.842000
3876.516077,153.219100,814.226536,8808.450710
3876.516392,229.828649,740.205942,9400.615463
3876.516706,689.485948,1036.288319,9696.697840
3876.517021,689.485948,-0.000000,9696.697840
3876.517336,383.047749,-222.061783,10066.800811
3876.517651,-153.219100,814.226536,9696.697840
3876.517966,0.000000,814.226536,9844.739029
3876.518280,612.876398,740.205942,9844.739029
3876.518595,689.485948,518.144159,10066.800811
3876.518910,229.828649,814.226536,9770.718434
3876.519225,0.000000,814.226536,9400.615463
3876.519540,0.000000,962.267725,10584.944971
3876.519854,383.047749,444.123565,10510.924376
3876.520169,536.266849,740.205942,10288.862594
3876.520484,-153.219100,1036.288319,9252.574275
3876.520799,0.000000,888.247130,9696.697840
3876.521114,842.705048,1110.308913,9548.656652
3876.521429,1378.971896,592.164754,9474.636058
3876.521743,766.095498,888.247130,9178.553681
3876.522058,0.000000,888.247130,8808.450710
3876.522373,153.219100,888.247130,8290.306550
3876.522688,459.657299,518.144159,9252.574275
3876.523003,459.657299,-592.164754,9474.636058
3876.523317,0.000000,-370.102971,9104.533087
3876.523632,-536.266849,-0.000000,8956.491898
3876.523947,-612.876398,-518.144159,9918.759623
3876.524262,-383.047749,-148.041188,11251.130318
3876.524577,-306.438199,-444.123565,9844.739029
3876.524891,-383.047749,370.102971,8586.388927
3876.525206,-229.828649,666.185348,9474.636058
3876.525521,306.438199,296.082377,9474.636058
3876.525836,919.314598,-296.082377,8660.409521
3876.526151,383.047749,-444.123565,8438.347739
3876.526465,-536.266849,666.185348,8290.306550
3876.526780,-306.438199,-296.082377,9252.574275
3876.527095,0.000000,-592.164754,10066.800811
3876.527410,-612.876398,-888.247130,9844.739029
3876.527725,-1302.362347,-592.164754,9918.759623
3876.528040,-1149.143247,-370.102971,9770.718434
3876.528354,-766.095498,-0.000000,10066.800811
3876.528669,-306.438199,-592.164754,10288.862594
3876.528984,612.876398,-1258.350101,9548.656652
3876.529299,-689.485948,444.123565,8512.368333
3876.529614,383.047749,962.267725,9474.636058
3876.529928,1072.533697,444.123565,9622.677246
3876.530243,842.705048,-0.000000,9622.677246
3876.530558,766.095498,-0.000000,8660.409521
3876.530873,383.047749,-592.164754,8956.491898
3876.531188,0.000000,370.102971,9548.656652
3876.531502,306.438199,-666.185348,10510.924376
3876.531817,-383.047749,-1110.308913,10436.903782
3876.532132,-1072.533697,-1554.432478,9474.636058
3876.532447,0.000000,-1776.494261,10584.944971
3876.532762,306.438199,-74.020594,10732.986159
3876.533076,229.828649,-518.144159,10658.965565
3876.533391,383.047749,518.144159,9474.636058
3876.533706,766.095498,592.164754,8364.327145
3876.534021,1225.752797,740.205942,9104.533087
3876.534336,1991.848295,-0.000000,8956.491898
3876.534651,1685.410096,-444.123565,9252.574275
3876.534965,689.485948,-592.164754,9178.553681
3876.535280,153.219100,-0.000000,8512.368333
3876.535595,766.095498,-296.082377,10140.821405
3876.535910,1149.143247,-444.123565,10510.924376
3876.536225,383.047749,-296.082377,9696.697840
3876.536539,0.000000,-0.000000,9252.574275
3876.536854,-536.266849,-370.102971,9326.594869
3876.537169,842.705048,-0.000000,9918.759623
3876.537484,383.047749,-370.102971,9918.759623
3876.537799,0.000000,1110.308913,8142.265362
3876.538113,0.000000,222.061783,8660.409521
3876.538428,919.314598,592.164754,8438.347739
3876.538743,842.705048,222.061783,9474.636058
3876.539058,689.485948,-148.041188,9918.759623
3876.539373,-383.047749,518.144159,8882.471304
3876.539688,-1072.533697,666.185348,8660.409521
3876.540002,0.000000,444.123565,9548.656652
3876.540317,0.000000,-296.082377,10288.862594
3876.540632,-459.657299,-0.000000,10140.821405
3876.540947,-842.705048,888.247130,9326.594869
3876.541262,-995.924147,1110.308913,9252.574275
3876.541576,-612.876398,962.267725,9918.759623
3876.541891,76.609550,-0.000000,9474.636058
3876.542206,536.266849,370.102971,11399.171507
3876.542521,-383.047749,1480.411884,10066.800811
3876.542836,-995.924147,962.267725,8956.491898
3876.543150,76.609550,1332.370696,11103.089130
3876.543465,0.000000,1850.514855,10658.965565
3876.543780,-919.314598,1480.411884,8660.409521
3876.544095,-229.828649,1184.329507,9844.739029
3876.544410,689.485948,1332.370696,10066.800811
3876.544724,0.000000,370.102971,10955.047942
3876.545039,-536.266849,740.205942,10214.842000
3876.545354,-766.095498,518.144159,9030.512492
3876.545669,-919.314598,1036.288319,9400.615463
3876.545984,536.266849,962.267725,10288.862594
3876.546299,766.095498,740.205942,9844.739029
3876.546613,229.828649,148.041188,9178.553681
3876.546928,-229.828649,-0.000000,9548.656652
3876.547243,0.000000,444.123565,9696.697840
3876.547558,842.705048,-222.061783,11103.089130
3876.547873,919.314598,-222.061783,10584.944971
3876.548187,-689.485948,296.082377,9474.636058
3876.548502,0.000000,592.164754,9178.553681
3876.548817,919.314598,444.123565,9548.656652
3876.549132,1378.971896,444.123565,9622.677246
3876.549447,1302.362347,592.164754,8956.491898
3876.549761,0.000000,-0.000000,8142.265362
3876.550076,612.876398,-370.102971,8956.491898
3876.550391,1072.533697,-1036.288319,10436.903782
3876.550706,612.876398,-1110.308913,9844.739029
3876.551021,-153.219100,-962.267725,9992.780217
3876.551335,-459.657299,-74.020594,9474.636058
3876.551650,153.219100,-0.000000,9474.636058
3876.551965,459.657299,-222.061783,10140.821405
3876.552280,536.266849,-592.164754,9696.697840
3876.552595,-153.219100,-74.020594,8216.285956
3876.552910,153.219100,-296.082377,8956.491898
3876.553224,766.095498,-296.082377,9992.780217
3876.553539,689.485948,-814.226536,9696.697840
3876.553854,995.924147,-296.082377,8808.450710
3876.554169,383.047749,-0.000000,8290.306550
3876.554484,1149.143247,-0.000000,8808.450710
3876.554798,1149.143247,-370.102971,8956.491898
3876.555113,612.876398,-222.061783,8734.430116
3876.555428,-459.657299,-222.061783,8512.368333
3876.555743,-459.657299,-666.185348,8512.368333
3876.556058,-612.876398,-740.205942,9696.697840
3876.556372,-536.266849,-1110.308913,10510.924376
3876.556687,-919.314598,-888.247130,9400.615463
3876.557002,-1378.971896,-296.082377,9178.553681
3876.557317,-995.924147,296.082377,9696.697840
3876.557632,0.000000,-0.000000,10658.965565
3876.557946,383.047749,296.082377,9770.718434
3876.558261,0.000000,444.123565,9030.512492
3876.558576,0.000000,296.082377,9400.615463
3876.558891,0.000000,-296.082377,9548.656652
3876.559206,-229.828649,-0.000000,10510.924376
3876.559521,0.000000,-222.061783,10066.800811
3876.559835,-766.095498,-148.041188,9770.718434
3876.560150,-1149.143247,-296.082377,10066.800811
3876.560465,-766.095498,-148.041188,10658.965565
3876.560780,-919.314598,-740.205942,10955.047942
3876.561095,-842.705048,-666.185348,10362.883188
3876.561409,-1072.533697,-222.061783,8734.430116
3876.561724,-229.828649,-74.020594,9326.594869
3876.562039,459.657299,-518.144159,10436.903782
3876.562354,612.876398,-0.000000,9918.759623
3876.562669,612.876398,444.123565,9104.533087
3876.562983,229.828649,1480.411884,9474.636058
3876.563298,229.828649,1628.453072,9622.677246
3876.563613,536.266849,592.164754,10658.965565
3876.563928,0.000000,666.185348,9992.780217
3876.564243,-536.266849,592.164754,9770.718434
3876.564557,0.000000,370.102971,10140.821405
3876.564872,0.000000,296.082377,9992.780217
3876.565187,0.000000,-444.123565,10436.903782
3876.565502,76.609550,222.061783,9696.697840
3876.565817,0.000000,592.164754,8438.347739
3876.566132,383.047749,518.144159,9326.594869
3876.566446,1149.143247,592.164754,9696.697840
3876.566761,612.876398,1480.411884,8808.450710
3876.567076,153.219100,592.164754,8808.450710
3876.567391,-76.609550,222.061783,8734.430116
3876.567706,459.657299,-0.000000,9918.759623
3876.568020,1455.581446,814.226536,10140.821405
3876.568335,1378.971896,592.164754,9696.697840
3876.568650,383.047749,1332.370696,8586.388927
3876.568965,919.314598,1036.288319,9400.615463
3876.569280,1378.971896,1480.411884,8882.471304
3876.569594,1685.410096,518.144159,9696.697840
3876.569909,536.266849,518.144159,9104.533087
3876.570224,459.657299,-0.000000,8068.244768
3876.570539,689.485948,-0.000000,9178.553681
3876.570854,842.705048,-370.102971,10288.862594
3876.571168,306.438199,-1036.288319,10955.047942
3876.571483,-153.219100,-0.000000,9474.636058
3876.571798,0.000000,370.102971,9104.533087
3876.572113,612.876398,518.144159,9548.656652
3876.572428,842.705048,444.123565,9622.677246
3876.572743,229.828649,518.144159,9696.697840
3876.573057,153.219100,666.185348,8512.368333
3876.573372,306.438199,666.185348,9252.574275
3876.573687,766.095498,592.164754,9622.677246
3876.574002,766.095498,-0.000000,9918.759623
3876.574317,76.609550,666.185348,9696.697840
3876.574631,-919.314598,-0.000000,10214.842000
3876.574946,-1072.533697,-0.000000,11029.068536
3876.575261,-995.924147,-148.041188,11473.192101
3876.575575,-1302.362347,-888.247130,11029.068536
3876.575890,-1762.019645,-222.061783,10288.862594
3876.576205,-1838.629195,-148.041188,9622.677246
3876.576520,-612.876398,-592.164754,10288.862594
3876.576834,76.609550,-222.061783,9770.718434
3876.577149,153.219100,222.061783,9474.636058
3876.577464,536.266849,814.226536,7328.038826
3876.577779,536.266849,444.123565,8142.265362
3876.578093,766.095498,592.164754,9400.615463
3876.578408,76.609550,222.061783,9918.759623
3876.578723,-459.657299,-148.041188,9252.574275
3876.579037,-995.924147,-1110.308913,9474.636058
3876.579352,-612.876398,-370.102971,10066.800811
3876.579667,-229.828649,-222.061783,10807.006753
3876.579982,-689.485948,-296.082377,10288.862594
3876.580296,-1378.971896,-148.041188,9770.718434
3876.580611,-612.876398,-0.000000,9474.636058
3876.580926,229.828649,-0.000000,9622.677246
3876.581240,536.266849,370.102971,9622.677246
3876.581555,689.485948,296.082377,8956.491898
3876.581870,842.705048,-0.000000,7698.141797
3876.582185,842.705048,-222.061783,8956.491898
3876.582499,1225.752797,-0.000000,10066.800811
3876.582814,689.485948,-0.000000,9622.677246
3876.583129,0.000000,-222.061783,8956.491898
3876.583444,-383.047749,-444.123565,9696.697840
3876.583758,0.000000,-370.102971,10214.842000
3876.584073,-383.047749,-1184.329507,10214.842000
3876.584388,0.000000,-962.267725,9474.636058
3876.584702,-459.657299,-814.226536,9252.574275
3876.585017,0.000000,-148.041188,9326.594869
3876.585332,995.924147,296.082377,9400.615463
3876.585647,536.266849,-666.185348,10066.800811
3876.585961,612.876398,-74.020594,9918.759623
3876.586276,306.438199,444.123565,9178.553681
3876.586591,842.705048,370.102971,9548.656652
3876.586906,766.095498,-148.041188,10362.883188
3876.587220,842.705048,148.041188,10510.924376
3876.587535,153.219100,592.164754,8808.450710
3876.587850,383.047749,592.164754,9252.574275
3876.588164,1072.533697,962.267725,9548.656652
3876.588479,1455.581446,-0.000000,9326.594869
3876.588794,76.609550,-444.123565,9548.656652
3876.589109,-229.828649,-0.000000,8808.450710
3876.589423,-306.438199,592.164754,9474.636058
3876.589738,383.047749,-0.000000,10140.821405
3876.590053,766.095498,-666.185348,10288.862594
3876.590367,0.000000,-0.000000,8882.471304
3876.590682,0.000000,222.061783,9548.656652
3876.590997,76.609550,962.267725,9918.759623
3876.591312,536.266849,1036.288319,10881.027347
3876.591626,383.047749,1776.494261,9326.594869
3876.591941,153.219100,1480.411884,8660.409521
3876.592256,383.047749,962.267725,9474.636058
3876.592571,76.609550,370.102971,9992.780217
3876.592885,76.609550,-148.041188,10362.883188
3876.593200,-689.485948,296.082377,9770.718434
3876.593515,-1532.190996,296.082377,9992.780217
3876.593829,-995.924147,814.226536,9474.636058
3876.594144,-536.266849,-222.061783,11547.212695
3876.594459,-612.876398,518.144159,10362.883188
3876.594774,-1149.143247,296.082377,10362.883188
3876.595088,-1149.143247,1036.288319,9030.512492
3876.595403,0.000000,740.205942,8956.491898
3876.595718,153.219100,814.226536,9844.739029
3876.596032,229.828649,-0.000000,9252.574275
3876.596347,0.000000,444.123565,8734.430116
3876.596662,306.438199,370.102971,8734.430116
3876.596977,0.000000,666.185348,9252.574275
3876.597291,-306.438199,-296.082377,9918.759623
3876.597606,-1072.533697,-444.123565,9770.718434
3876.597921,-1225.752797,-518.144159,8956.491898
3876.598236,-612.876398,-518.144159,9992.780217
3876.598550,-612.876398,-592.164754,10584.944971
3876.598865,-383.047749,-592.164754,10881.027347
3876.599180,-383.047749,222.061783,9474.636058
3876.599494,0.000000,222.061783,9474.636058
3876.599809,459.657299,1110.308913,9326.594869
3876.600124,1532.190996,296.082377,10140.821405
3876.600439,1608.800546,444.123565,9400.615463
3876.600753,1455.581446,888.247130,7846.182985
3876.601068,995.924147,962.267725,8068.244768
3876.601383,1762.019645,222.061783,9474.636058
3876.601697,1378.971896,-0.000000,9474.636058
3876.602012,229.828649,-666.185348,9178.553681
3876.602327,153.219100,-666.185348,8660.409521
3876.602642,306.438199,-814.226536,9696.697840
3876.602956,0.000000,-666.185348,10584.944971
3876.603271,-306.438199,-814.226536,10510.924376
3876.603586,-919.314598,-222.061783,9622.677246
3876.603901,-153.219100,-444.123565,9252.574275
3876.604215,842.705048,-74.020594,10066.800811
3876.604530,1302.362347,222.061783,9474.636058
3876.604845,1302.362347,-0.000000,9770.718434
3876.605159,995.924147,-0.000000,8808.450710
3876.605474,1455.581446,444.123565,8808.450710
3876.605789,1455.581446,370.102971,9770.718434
3876.606104,1072.533697,222.061783,10140.821405
3876.606418,689.485948,296.082377,9326.594869
3876.606733,306.438199,-444.123565,8586.388927
3876.607048,536.266849,-592.164754,9400.615463
3876.607362,153.219100,-962.267725,10288.862594
3876.607677,-612.876398,-1036.288319,9696.697840
3876.607992,-383.047749,-740.205942,9474.636058
3876.608307,-383.047749,-666.185348,9326.594869
3876.608621,76.609550,-740.205942,10066.800811
3876.608936,0.000000,-592.164754,10066.800811
3876.609251,-612.876398,370.102971,9474.636058
3876.609566,-612.876398,-444.123565,9178.553681
3876.609880,-306.438199,666.185348,9696.697840
3876.610195,153.219100,222.061783,9770.718434
3876.610510,0.000000,-222.061783,9548.656652
3876.610824,-536.266849,666.185348,9474.636058
3876.611139,-842.705048,370.102971,9770.718434
3876.611454,-306.438199,222.061783,10214.842000
3876.611769,0.000000,-74.020594,10066.800811
3876.612083,-306.438199,-0.000000,9770.718434
3876.612398,-1455.581446,444.123565,9474.636058
3876.612713,-1225.752797,888.247130,9326.594869
3876.613027,-689.485948,296.082377,9622.677246
3876.613342,-689.485948,-0.000000,9844.739029
3876.613657,-766.095498,148.041188,9178.553681
3876.613972,0.000000,-148.041188,9104.533087
3876.614286,-306.438199,-0.000000,10140.821405
3876.614601,0.000000,814.226536,10510.924376
3876.614916,-153.219100,888.247130,10584.944971
3876.615231,-536.266849,1628.453072,9474.636058
3876.615545,0.000000,1776.494261,9918.759623
3876.615860,612.876398,1924.535449,9400.615463
3876.616175,383.047749,1110.308913,9622.677246
3876.616489,229.828649,1110.308913,9326.594869
3876.616804,0.000000,666.185348,9178.553681
3876.617119,536.266849,-74.020594,9844.739029
3876.617434,689.485948,222.061783,10510.924376
3876.617748,229.828649,-0.000000,10955.047942
3876.618063,-306.438199,-222.061783,9696.697840
3876.618378,-612.876398,-0.000000,9474.636058
3876.618693,-459.657299,-0.000000,10362.883188
3876.619007,153.219100,-518.144159,10362.883188
3876.619322,689.485948,-0.000000,9252.574275
3876.619637,0.000000,-0.000000,7994.224174
3876.619951,459.657299,-296.082377,9696.697840
3876.620266,1532.190996,-296.082377,9474.636058
3876.620581,1532.190996,-370.102971,9474.636058
3876.620896,612.876398,-74.020594,8808.450710
3876.621210,459.657299,888.247130,8956.491898
3876.621525,1149.143247,1332.370696,8734.430116
3876.621840,1455.581446,296.082377,9474.636058
3876.622154,536.266849,-148.041188,9622.677246
3876.622469,0.000000,-222.061783,9252.574275
3876.622784,-229.828649,-148.041188,9252.574275
3876.623099,153.219100,-666.185348,10362.883188
3876.623413,0.000000,-148.041188,10807.006753
3876.623728,76.609550,-592.164754,9918.759623
3876.624043,0.000000,444.123565,8956.491898
3876.624358,766.095498,740.205942,8956.491898
3876.624672,1378.971896,814.226536,9104.533087
3876.624987,1225.752797,-0.000000,8734.430116
3876.625302,459.657299,962.267725,8290.306550
3876.625616,229.828649,-0.000000,8956.491898
3876.625931,383.047749,-222.061783,9474.636058
3876.626246,229.828649,-740.205942,10436.903782
3876.626561,0.000000,-0.000000,11177.109724
3876.626875,-1072.533697,-0.000000,10066.800811
3876.627190,-766.095498,1258.350101,9104.533087
3876.627505,76.609550,962.267725,9770.718434
3876.627819,536.266849,-0.000000,10066.800811
3876.628134,612.876398,-0.000000,9030.512492
3876.628449,-306.438199,296.082377,7772.162391
3876.628764,229.828649,-0.000000,9104.533087
3876.629078,306.438199,518.144159,9844.739029
3876.629393,0.000000,-296.082377,10214.842000
3876.629708,-689.485948,-592.164754,9178.553681
3876.630023,-229.828649,222.061783,9548.656652
3876.630337,0.000000,370.102971,9992.780217
3876.630652,0.000000,222.061783,10732.986159
3876.630967,-1072.533697,-0.000000,9992.780217
3876.631281,-1455.581446,444.123565,8808.450710
3876.631596,-306.438199,-0.000000,9104.533087
3876.631911,612.876398,-74.020594,9400.615463
3876.632226,383.047749,-370.102971,10732.986159
3876.632540,-229.828649,-74.020594,9770.718434
3876.632855,-536.266849,148.041188,9178.553681
3876.633170,536.266849,-0.000000,10584.944971
3876.633484,995.924147,-74.020594,10436.903782
3876.633799,536.266849,-0.000000,9844.739029
3876.634114,153.219100,-296.082377,10066.800811
3876.634429,-536.266849,-74.020594,9104.533087
3876.634743,689.485948,-0.000000,9548.656652
3876.635058,689.485948,592.164754,10362.883188
3876.635373,1225.752797,-0.000000,9992.780217
3876.635688,536.266849,370.102971,8438.347739
3876.636002,459.657299,296.082377,9474.636058
3876.636317,1378.971896,592.164754,9918.759623
3876.636632,0.000000,-148.041188,9474.636058
3876.636946,229.828649,-148.041188,9770.718434
3876.637261,229.828649,370.102971,9178.553681
3876.637576,459.657299,814.226536,8438.347739
3876.637891,689.485948,148.041188,11103.089130
3876.638205,76.609550,-148.041188,10066.800811
3876.638520,-689.485948,-0.000000,8586.388927
3876.638835,-306.438199,222.061783,9548.656652
3876.639149,459.657299,740.205942,9030.512492
3876.639464,229.828649,-0.000000,9030.512492
3876.639779,0.000000,592.164754,9030.512492
3876.640094,-842.705048,296.082377,8364.327145
3876.640408,-153.219100,-0.000000,8808.450710
3876.640723,76.609550,-0.000000,9622.677246
3876.641038,306.438199,296.082377,9770.718434
3876.641353,-306.438199,962.267725,9474.636058
3876.641667,-919.314598,888.247130,9770.718434
3876.641982,-383.047749,666.185348,10658.965565
3876.642297,0.000000,-0.000000,10140.821405
3876.642611,-459.657299,444.123565,9696.697840
3876.642926,-766.095498,444.123565,8882.471304
3876.643241,-153.219100,518.144159,8660.409521
3876.643556,459.657299,-0.000000,9474.636058
3876.643870,766.095498,-74.020594,9770.718434
3876.644185,229.828649,-74.020594,9474.636058
3876.644500,153.219100,-0.000000,8290.306550
3876.644815,766.095498,222.061783,9696.697840
3876.645129,842.705048,-148.041188,9770.718434
3876.645444,919.314598,-0.000000,9918.759623
3876.645759,153.219100,518.144159,9252.574275
3876.646073,459.657299,518.144159,9400.615463
3876.646388,153.219100,444.123565,9844.739029
3876.646703,612.876398,518.144159,10436.903782
3876.647018,306.438199,370.102971,10288.862594
3876.647332,-229.828649,666.185348,9992.780217
3876.647647,-306.438199,222.061783,10658.965565
3876.647962,0.000000,-74.020594,11177.109724
3876.648276,-306.438199,-518.144159,10658.965565
3876.648591,-383.047749,-814.226536,10288.862594
3876.648906,-766.095498,444.123565,9918.759623
3876.649221,0.000000,222.061783,10436.903782
3876.649535,383.047749,666.185348,9696.697840
3876.649850,229.828649,296.082377,10436.903782
3876.650165,383.047749,666.185348,9474.636058
3876.650480,306.438199,370.102971,8956.491898
3876.650794,919.314598,-0.000000,9918.759623
3876.651109,995.924147,-296.082377,9992.780217
3876.651424,383.047749,-222.061783,9252.574275
3876.651738,76.609550,370.102971,8290.306550
3876.652053,766.095498,-0.000000,9326.594869
3876.652368,842.705048,-370.102971,10658.965565
3876.652683,383.047749,-962.267725,9770.718434
3876.652997,-383.047749,-296.082377,8734.430116
3876.653312,-459.657299,-444.123565,8512.368333
3876.653627,383.047749,-444.123565,9696.697840
3876.653941,689.485948,-296.082377,9918.759623
3876.654256,153.219100,-518.144159,9326.594869
3876.654571,383.047749,-0.000000,8882.471304
3876.654886,919.314598,222.061783,7994.224174
3876.655200,919.314598,222.061783,8660.409521
3876.655515,842.705048,-444.123565,9696.697840
3876.655830,76.609550,-74.020594,8438.347739
3876.656145,-229.828649,-444.123565,8808.450710
3876.656459,76.609550,-592.164754,9770.718434
3876.656774,-536.266849,-592.164754,9918.759623
3876.657089,-689.485948,-740.205942,10658.965565
3876.657403,-1302.362347,-0.000000,9178.553681
3876.657718,-1072.533697,-0.000000,9326.594869
3876.658033,-459.657299,-0.000000,10214.842000
3876.658348,306.438199,-370.102971,10140.821405
3876.658662,-459.657299,-148.041188,9696.697840
3876.658977,-842.705048,444.123565,9104.533087
3876.659292,-459.657299,518.144159,9400.615463
3876.659606,0.000000,370.102971,10214.842000
3876.659921,383.047749,-0.000000,10658.965565
3876.660236,-536.266849,592.164754,9400.615463
3876.660551,-306.438199,740.205942,9326.594869
3876.660865,-153.219100,962.267725,9474.636058
3876.661180,-229.828649,370.102971,10362.883188
3876.661495,306.438199,-592.164754,10288.862594
3876.661810,-612.876398,-74.020594,9770.718434
3876.662124,-536.266849,666.185348,9548.656652
3876.662439,153.219100,370.102971,9992.780217
3876.662754,536.266849,518.144159,9844.739029
3876.663068,0.000000,-74.020594,10214.842000
3876.663383,536.266849,222.061783,8660.409521
3876.663698,612.876398,-0.000000,9770.718434
3876.664013,995.924147,370.102971,9474.636058
3876.664327,612.876398,-148.041188,9844.739029
3876.664642,0.000000,888.247130,8734.430116
3876.664957,0.000000,222.061783,9474.636058
3876.665271,383.047749,-0.000000,9622.677246
3876.665586,459.657299,-444.123565,10658.965565
3876.665901,-229.828649,-148.041188,9844.739029
3876.666216,-306.438199,-296.082377,9400.615463
3876.666530,383.047749,-0.000000,9400.615463
3876.666845,689.485948,-0.000000,10066.800811
3876.667160,689.485948,592.164754,9400.615463
3876.667475,1072.533697,-0.000000,9548.656652
3876.667789,689.485948,592.164754,9252.574275
3876.668104,842.705048,1406.391290,8216.285956
3876.668419,1225.752797,148.041188,9178.553681
3876.668733,612.876398,-0.000000,9548.656652
3876.669048,306.438199,-222.061783,9326.594869
3876.669363,-383.047749,-296.082377,9326.594869
3876.669678,-306.438199,-444.123565,9992.780217
3876.669992,0.000000,-296.082377,10658.965565
3876.670307,0.000000,-444.123565,9844.739029
3876.670622,0.000000,296.082377,8956.491898
3876.670936,0.000000,-0.000000,8734.430116
3876.671251,306.438199,888.247130,8882.471304
3876.671566,842.705048,370.102971,9178.553681
3876.671881,306.438199,592.164754,9030.512492
3876.672196,0.000000,444.123565,8734.430116
3876.672510,459.657299,148.041188,9844.739029
3876.672825,689.485948,444.123565,10066.800811
3876.673140,153.219100,222.061783,9992.780217
3876.673455,-459.657299,962.267725,9030.512492
3876.673770,-842.705048,148.041188,9474.636058
3876.674085,0.000000,-444.123565,9918.759623
3876.674400,536.266849,518.144159,10066.800811
3876.674715,0.000000,592.164754,8956.491898
3876.675029,-459.657299,-222.061783,9104.533087
3876.675344,-229.828649,148.041188,9326.594869
3876.675659,459.657299,370.102971,9992.780217
3876.675974,153.219100,-0.000000,9770.718434
3876.676289,-306.438199,-0.000000,9918.759623
3876.676604,-689.485948,148.041188,9400.615463
3876.676919,-229.828649,148.041188,10288.862594
3876.677234,0.000000,-0.000000,9696.697840
3876.677548,-536.266849,-592.164754,11029.068536
3876.677863,-536.266849,-0.000000,9770.718434
3876.678178,-306.438199,370.102971,9918.759623
3876.678493,76.609550,444.123565,10362.883188
3876.678808,0.000000,444.123565,10214.842000
3876.679123,383.047749,740.205942,9548.656652
3876.679438,0.000000,296.082377,9326.594869
3876.679753,383.047749,592.164754,9326.594869
3876.680067,842.705048,-370.102971,10732.986159
3876.680382,536.266849,-666.185348,10214.842000
3876.680697,0.000000,-0.000000,9622.677246
3876.681012,-306.438199,-0.000000,9992.780217
3876.681327,536.266849,-74.020594,10362.883188
3876.681642,766.095498,-222.061783,10288.862594
3876.681957,766.095498,-74.020594,9622.677246
3876.682272,229.828649,-0.000000,9178.553681
3876.682586,153.219100,296.082377,8808.450710
3876.682901,459.657299,-222.061783,9474.636058
3876.683216,0.000000,-370.102971,10066.800811
3876.683531,612.876398,-296.082377,9252.574275
3876.683846,0.000000,-0.000000,7846.182985
3876.684161,0.000000,-148.041188,9252.574275
3876.684476,0.000000,-592.164754,10436.903782
3876.684791,76.609550,-814.226536,10955.047942
3876.685105,-306.438199,-74.020594,10066.800811
3876.685420,-842.705048,370.102971,9548.656652
3876.685735,0.000000,518.144159,10214.842000
3876.686050,306.438199,518.144159,9474.636058
3876.686365,153.219100,666.185348,9326.594869
3876.686680,229.828649,-148.041188,8290.306550
3876.686995,536.266849,-370.102971,8068.244768
3876.687310,766.095498,-0.000000,8068.244768
3876.687624,842.705048,-148.041188,8438.347739
3876.687939,383.047749,-0.000000,8438.347739
3876.688254,0.000000,-148.041188,7846.182985
3876.688569,76.609550,-0.000000,8512.368333
3876.688884,306.438199,-888.247130,9696.697840
3876.689199,-536.266849,-222.061783,9696.697840
3876.689514,-995.924147,148.041188,9400.615463
3876.689829,-1225.752797,370.102971,9474.636058
3876.690143,0.000000,-666.185348,10288.862594
3876.690458,76.609550,-0.000000,10510.924376
3876.690773,-536.266849,-0.000000,10510.924376
3876.691088,153.219100,518.144159,9548.656652
3876.691403,0.000000,518.144159,10066.800811
3876.691718,995.924147,1184.329507,10288.862594
3876.692033,842.705048,1036.288319,9548.656652
3876.692348,459.657299,666.185348,8882.471304
3876.692662,459.657299,-0.000000,9178.553681
3876.692977,229.828649,-740.205942,9844.739029
3876.693292,229.828649,-74.020594,11029.068536
3876.693607,-306.438199,-0.000000,9844.739029
3876.693922,-689.485948,-0.000000,9400.615463
3876.694237,-153.219100,-222.061783,9400.615463
3876.694552,689.485948,444.123565,9770.718434
3876.694867,612.876398,148.041188,9992.780217
3876.695181,306.438199,370.102971,9548.656652
3876.695496,0.000000,444.123565,9474.636058
3876.695811,842.705048,-0.000000,10066.800811
3876.696126,1072.533697,296.082377,10881.027347
3876.696441,1149.143247,740.205942,10658.965565
3876.696756,383.047749,1036.288319,9918.759623
3876.697071,383.047749,1258.350101,8956.491898
3876.697386,766.095498,1258.350101,10214.842000
3876.697700,842.705048,962.267725,9918.759623
3876.698015,689.485948,444.123565,9030.512492
3876.698330,383.047749,-444.123565,8808.450710
3876.698645,0.000000,-370.102971,8808.450710
3876.698960,0.000000,-444.123565,9696.697840
3876.699275,0.000000,-222.061783,9622.677246
3876.699590,153.219100,-370.102971,9696.697840
3876.699905,-612.876398,444.123565,8808.450710
3876.700219,229.828649,222.061783,9918.759623
3876.700534,766.095498,148.041188,9474.636058
3876.700849,-459.657299,296.082377,9696.697840
3876.701164,76.609550,740.205942,9326.594869
3876.701479,0.000000,962.267725,9030.512492
3876.701794,612.876398,888.247130,9326.594869
3876.702109,1225.752797,-222.061783,10140.821405
3876.702424,0.000000,666.185348,9474.636058
3876.702738,0.000000,370.102971,9474.636058
3876.703053,0.000000,296.082377,9844.739029
3876.703368,459.657299,370.102971,9992.780217
3876.703683,459.657299,-74.020594,9696.697840
3876.703998,-612.876398,-74.020594,9178.553681
3876.704313,-689.485948,-0.000000,9030.512492
3876.704628,-383.047749,-1036.288319,9844.739029
3876.704943,153.219100,-1110.308913,9844.739029
3876.705257,153.219100,-962.267725,10288.862594
3876.705572,-153.219100,222.061783,9030.512492
3876.705887,-536.266849,148.041188,8808.450710
3876.706202,0.000000,-370.102971,10510.924376
3876.706517,76.609550,-222.061783,10510.924376
3876.706832,153.219100,-0.000000,9474.636058
3876.707147,0.000000,666.185348,8956.491898
3876.707462,0.000000,296.082377,9104.533087
3876.707776,76.609550,-0.000000,10288.862594
3876.708091,-229.828649,-296.082377,10288.862594
3876.708406,-689.485948,-222.061783,10066.800811
3876.708721,-612.876398,-0.000000,10140.821405
3876.709036,76.609550,296.082377,10658.965565
3876.709351,0.000000,-0.000000,10584.944971
3876.709666,-383.047749,-0.000000,9400.615463
3876.709981,-306.438199,444.123565,8364.327145
3876.710295,0.000000,-0.000000,9400.615463
3876.710610,919.314598,-0.000000,9918.759623
3876.710925,919.314598,-74.020594,9326.594869
3876.711240,612.876398,-222.061783,8734.430116
3876.711555,612.876398,222.061783,8808.450710
3876.711870,383.047749,592.164754,9548.656652
3876.712185,995.924147,-370.102971,10140.821405
3876.712500,536.266849,-370.102971,9696.697840
3876.712814,229.828649,-0.000000,8956.491898
3876.713129,153.219100,444.123565,8586.388927
3876.713444,459.657299,-296.082377,9696.697840
3876.713759,229.828649,-0.000000,10066.800811
3876.714074,0.000000,-814.226536,9918.759623
3876.714389,153.219100,-74.020594,9622.677246
3876.714704,995.924147,-222.061783,9992.780217
3876.715019,842.705048,444.123565,9770.718434
3876.715333,0.000000,-592.164754,10436.903782
3876.715648,-229.828649,-148.041188,9178.553681
3876.715963,-383.047749,296.082377,9252.574275
3876.716278,76.609550,-444.123565,9992.780217
3876.716593,612.876398,-370.102971,9400.615463
3876.716908,0.000000,-814.226536,9622.677246
3876.717223,-306.438199,-518.144159,9252.574275
3876.717538,0.000000,-0.000000,9030.512492
3876.717852,383.047749,-148.041188,10510.924376
3876.718167,306.438199,-0.000000,9770.718434
3876.718482,229.828649,444.123565,9696.697840
3876.718797,229.828649,1036.288319,8734.430116
3876.719112,306.438199,296.082377,9400.615463
3876.719427,0.000000,444.123565,10510.924376
3876.719742,0.000000,-0.000000,9992.780217
3876.720057,-612.876398,444.123565,9252.574275
3876.720371,-306.438199,592.164754,9474.636058
3876.720686,995.924147,1332.370696,9548.656652
3876.721001,842.705048,592.164754,9696.697840
3876.721316,383.047749,814.226536,9918.759623
3876.721631,-229.828649,1554.432478,8586.388927
3876.721946,-306.438199,814.226536,8660.409521
3876.722261,229.828649,296.082377,10288.862594
3876.722576,-229.828649,-0.000000,10584.944971
3876.722890,-612.876398,-444.123565,9474.636058
3876.723205,-1149.143247,-518.144159,9548.656652
3876.723520,-842.705048,-0.000000,10140.821405
3876.723835,-459.657299,-148.041188,10732.986159
3876.724150,-612.876398,518.144159,9992.780217
3876.724465,-842.705048,1036.288319,9400.615463
3876.724780,0.000000,814.226536,9844.739029
3876.725095,229.828649,740.205942,9104.533087
3876.725409,536.266849,-0.000000,9770.718434
3876.725724,0.000000,1110.308913,10066.800811
3876.726039,-612.876398,740.205942,9252.574275
3876.726354,0.000000,814.226536,9104.533087
3876.726669,919.314598,-444.123565,9918.759623
3876.726984,0.000000,-74.020594,10066.800811
3876.727299,0.000000,-0.000000,9770.718434
3876.727614,-766.095498,592.164754,8808.450710
3876.727928,-459.657299,-222.061783,10140.821405
3876.728243,383.047749,-148.041188,10732.986159
3876.728558,229.828649,-1036.288319,9918.759623
3876.728873,-229.828649,-0.000000,8734.430116
3876.729188,383.047749,222.061783,9400.615463
3876.729503,842.705048,370.102971,9770.718434
3876.729818,1302.362347,518.144159,9548.656652
3876.730133,919.314598,592.164754,9474.636058
3876.730447,612.876398,592.164754,9030.512492
3876.730762,919.314598,592.164754,9252.574275
3876.731077,689.485948,-0.000000,9548.656652
3876.731392,1072.533697,-74.020594,9918.759623
3876.731707,306.438199,222.061783,9474.636058
3876.732022,229.828649,296.082377,9474.636058
3876.732337,766.095498,-222.061783,9696.697840
3876.732652,766.095498,-370.102971,9474.636058
3876.732967,0.000000,-518.144159,9770.718434
3876.733281,-612.876398,888.247130,8364.327145
3876.733596,0.000000,-296.082377,9400.615463
3876.733911,612.876398,-296.082377,9770.718434
3876.734226,612.876398,-222.061783,9252.574275
3876.734541,536.266849,-370.102971,9104.533087
3876.734856,-459.657299,-0.000000,9178.553681
3876.735171,0.000000,296.082377,9622.677246
3876.735486,0.000000,-0.000000,10288.862594
3876.735800,-383.047749,-1110.308913,10140.821405
3876.736115,-612.876398,-740.205942,10140.821405
3876.736430,-306.438199,-0.000000,9696.697840
3876.736745,459.657299,-0.000000,10140.821405
3876.737060,76.609550,222.061783,9104.533087
3876.737375,306.438199,-74.020594,9178.553681
3876.737690,0.000000,-148.041188,7846.182985
3876.738005,76.609550,-814.226536,9178.553681
3876.738319,-306.438199,-74.020594,9104.533087
3876.738634,-383.047749,-814.226536,9104.533087
3876.738949,-1225.752797,-1036.288319,9696.697840
3876.739264,-2145.067394,-1924.535449,9844.739029
3876.739579,-1685.410096,-1036.288319,10807.006753
3876.739894,-1455.581446,-1702.473667,11473.192101
3876.740209,-2374.896044,-1036.288319,11029.068536
3876.740524,-1685.410096,-0.000000,10732.986159
3876.740838,-1762.019645,814.226536,9178.553681
3876.741153,-1225.752797,592.164754,9326.594869
3876.741468,-229.828649,296.082377,9104.533087
3876.741783,-1072.533697,-0.000000,8882.471304
3876.742098,-766.095498,-148.041188,8142.265362
3876.742413,-842.705048,-370.102971,9474.636058
3876.742728,-995.924147,-740.205942,9844.739029
3876.743043,-1378.971896,-1628.453072,10584.944971
3876.743357,-1762.019645,-1850.514855,10362.883188
3876.743672,-2681.334243,-1036.288319,9770.718434
3876.743987,-3140.991542,-518.144159,10214.842000
3876.744302,-2451.505594,-888.247130,9918.759623
3876.744617,-2374.896044,-1924.535449,9918.759623
3876.744932,-1685.410096,-2368.659014,9696.697840
3876.745247,-2068.457845,-888.247130,8956.491898
3876.745562,-1991.848295,-962.267725,8956.491898
3876.745876,-995.924147,-1258.350101,9252.574275
3876.746191,-766.095498,-1110.308913,9770.718434
3876.746506,-383.047749,-1110.308913,9622.677246
3876.746821,-1225.752797,-666.185348,9104.533087
3876.747136,-1608.800546,-962.267725,9178.553681
3876.747451,-1378.971896,-2072.576638,9918.759623
3876.747766,-1532.190996,-2516.700203,9548.656652
3876.748081,-1991.848295,-2220.617826,9918.759623
3876.748395,-2221.676944,-2220.617826,9474.636058
3876.748710,-2145.067394,-2146.597232,9252.574275
3876.749025,-1378.971896,-2368.659014,9252.574275
3876.749340,-1455.581446,-2220.617826,8956.491898
3876.749655,-1302.362347,-1924.535449,8882.471304
3876.749970,-1225.752797,-1924.535449,8882.471304
3876.750285,-1455.581446,-2368.659014,9548.656652
3876.750600,-919.314598,-2516.700203,9474.636058
3876.750914,-919.314598,-3034.844362,9696.697840
3876.751229,-1072.533697,-2664.741391,9770.718434
3876.751544,-1762.019645,-2812.782580,10658.965565
3876.751859,-2221.676944,-2442.679609,10066.800811
3876.752174,-2298.286494,-1998.556043,9918.759623
3876.752489,-1685.410096,-1554.432478,9548.656652
3876.752804,-919.314598,-1702.473667,9548.656652
3876.753119,-1455.581446,-2294.638420,10288.862594
3876.753433,-1532.190996,-2368.659014,9548.656652
3876.753748,-1608.800546,-2516.700203,9030.512492
3876.754063,-1302.362347,-2812.782580,8808.450710
3876.754378,-689.485948,-2812.782580,9400.615463
3876.754693,-1072.533697,-2220.617826,9992.780217
3876.755008,-1685.410096,-2146.597232,9622.677246
3876.755323,-2145.067394,-2072.576638,9844.739029
3876.755638,-2451.505594,-2146.597232,9548.656652
3876.755952,-1915.238745,-2072.576638,8882.471304
3876.756267,-2221.676944,-2664.741391,9178.553681
3876.756582,-2757.943793,-2442.679609,8882.471304
3876.756897,-2681.334243,-2664.741391,9622.677246
3876.757212,-2681.334243,-3108.864956,9252.574275
3876.757527,-3294.210641,-2072.576638,8364.327145
3876.757842,-3140.991542,-2590.720797,9844.739029
3876.758157,-1991.848295,-2368.659014,9548.656652
3876.758471,-2374.896044,-2368.659014,10362.883188
3876.758786,-2987.772442,-2590.720797,10066.800811
3876.759101,-3447.429741,-2294.638420,10214.842000
3876.759416,-3140.991542,-1998.556043,10066.800811
3876.759731,-3064.381992,-1406.391290,9178.553681
3876.760046,-1838.629195,-1850.514855,9178.553681
3876.760361,-1149.143247,-2220.617826,9474.636058
3876.760676,-1915.238745,-2220.617826,8956.491898
3876.760990,-1915.238745,-2368.659014,9918.759623
3876.761305,-2681.334243,-1628.453072,8808.450710
3876.761620,-2145.067394,-1998.556043,8808.450710
3876.761935,-1455.581446,-1998.556043,8660.409521
3876.762250,-1915.238745,-2590.720797,9326.594869
3876.762565,-2298.286494,-2368.659014,9474.636058
3876.762880,-3294.210641,-3108.864956,10658.965565
3876.763195,-3447.429741,-2590.720797,10436.903782
3876.763509,-2911.162892,-1480.411884,10658.965565
3876.763824,-2681.334243,-518.144159,9770.718434
3876.764139,-1915.238745,-1036.288319,9992.780217
3876.764454,-1378.971896,-1776.494261,10436.903782
3876.764769,-1378.971896,-1924.535449,10066.800811
3876.765084,-1608.800546,-1776.494261,10066.800811
3876.765399,-842.705048,-1110.308913,10584.944971
3876.765714,-383.047749,-0.000000,9178.553681
3876.766028,-459.657299,-148.041188,8734.430116
3876.766343,-536.266849,-1332.370696,8956.491898
3876.766658,-1149.143247,-1628.453072,9400.615463
3876.766973,-1838.629195,-2442.679609,10140.821405
3876.767288,-2451.505594,-2590.720797,10288.862594
3876.767603,-2374.896044,-2368.659014,10658.965565
3876.767918,-2298.286494,-1998.556043,10436.903782
3876.768233,-2374.896044,-1776.494261,9844.739029
3876.768547,-2145.067394,-1776.494261,9696.697840
3876.768862,-1532.190996,-1776.494261,9918.759623
3876.769177,-919.314598,-1036.288319,9252.574275
3876.769492,-689.485948,-518.144159,8808.450710
3876.769807,-536.266849,-444.123565,8734.430116
3876.770122,-306.438199,-888.247130,8660.409521
3876.770437,-612.876398,-1184.329507,9178.553681
3876.770752,-1762.019645,-1406.391290,9622.677246
3876.771066,-2145.067394,-1258.350101,9104.533087
3876.771381,-2451.505594,-1480.411884,9548.656652
3876.771696,-2681.334243,-2072.576638,9992.780217
3876.772011,-2681.334243,-2590.720797,10584.944971
3876.772326,-3064.381992,-3182.885551,10436.903782
3876.772641,-3217.601092,-3330.926739,10362.883188
3876.772956,-3140.991542,-2738.761985,11547.212695
3876.773271,-2757.943793,-1850.514855,10362.883188
3876.773585,-2068.457845,-814.226536,9326.594869
3876.773900,-1762.019645,-592.164754,8660.409521
3876.774215,-842.705048,-518.144159,8068.244768
3876.774530,-306.438199,-1036.288319,8438.347739
3876.774845,-766.095498,-1776.494261,9178.553681
3876.775160,-1378.971896,-2368.659014,9992.780217
3876.775475,-1991.848295,-2886.803174,9992.780217
3876.775790,-2145.067394,-2220.617826,10362.883188
3876.776104,-1915.238745,-1924.535449,10214.842000
3876.776419,-2451.505594,-1332.370696,9696.697840
3876.776734,-2604.724693,-1480.411884,8808.450710
3876.777049,-2681.334243,-1924.535449,8216.285956
3876.777364,-2221.676944,-2294.638420,8438.347739
3876.777679,-3064.381992,-2960.823768,9030.512492
3876.777994,-3140.991542,-3330.926739,9844.739029
3876.778308,-3753.867940,-3849.070898,10881.027347
3876.778623,-3830.477490,-3404.947333,11177.109724
3876.778938,-3217.601092,-2442.679609,11473.192101
3876.779253,-2911.162892,-1480.411884,11251.130318
3876.779568,-2145.067394,-962.267725,10288.862594
3876.779883,-1225.752797,-518.144159,9548.656652
3876.780198,-919.314598,-814.226536,8364.327145
3876.780513,-612.876398,-1406.391290,7550.100608
3876.780827,-1225.752797,-2294.638420,7402.059420
3876.781142,-1302.362347,-2886.803174,7920.203579
3876.781457,-1608.800546,-3404.947333,8882.471304
3876.781772,-2298.286494,-3552.988522,10140.821405
3876.782087,-2451.505594,-3404.947333,10584.944971
3876.782402,-2451.505594,-3108.864956,10436.903782
3876.782717,-2451.505594,-2738.761985,10955.047942
3876.783031,-2145.067394,-2516.700203,9918.759623
3876.783346,-1762.019645,-1850.514855,9178.553681
3876.783661,-995.924147,-1406.391290,8290.306550
3876.783976,-612.876398,-1628.453072,7105.977043
3876.784291,229.828649,-1184.329507,6809.894666
3876.784606,-383.047749,-1480.411884,7179.997637
3876.784921,-766.095498,-1406.391290,8068.244768
3876.785235,-1149.143247,-2072.576638,9770.718434
3876.785550,-2068.457845,-2812.782580,11621.233289
3876.785865,-2987.772442,-2738.761985,13027.624579
3876.786180,-3064.381992,-3182.885551,12953.603985
3876.786495,-2834.553343,-2442.679609,12139.377449
3876.786810,-2451.505594,-1998.556043,11769.274478
3876.787125,-1762.019645,-1036.288319,10510.924376
3876.787440,-995.924147,-444.123565,8290.306550
3876.787754,-383.047749,-0.000000,6809.894666
3876.788069,306.438199,-0.000000,6143.709319
3876.788384,0.000000,-222.061783,6439.791695
3876.788699,-689.485948,-1850.514855,7254.018232
3876.789014,-1685.410096,-2738.761985,9474.636058
3876.789329,-2987.772442,-3627.009116,10881.027347
3876.789644,-3753.867940,-3849.070898,12435.459826
3876.789958,-4366.744339,-3627.009116,13175.665768
3876.790273,-3830.477490,-2812.782580,13175.665768
3876.790588,-3677.258390,-1554.432478,11695.253884
3876.790903,-2911.162892,-666.185348,10066.800811
3876.791218,-2374.896044,-0.000000,9178.553681
3876.791533,-1225.752797,-222.061783,8290.306550
3876.791848,0.000000,-518.144159,7031.956449
3876.792162,153.219100,-444.123565,7624.121203
3876.792477,153.219100,-962.267725,8438.347739
3876.792792,-306.438199,-1702.473667,9400.615463
3876.793107,-1149.143247,-1702.473667,10066.800811
3876.793422,-1532.190996,-1776.494261,10732.986159
3876.793737,-2528.115143,-1998.556043,10140.821405
3876.794052,-3217.601092,-2294.638420,9844.739029
3876.794367,-3753.867940,-2146.597232,9622.677246
3876.794681,-3753.867940,-2368.659014,9030.512492
3876.794996,-3677.258390,-2294.638420,8438.347739
3876.795311,-3447.429741,-2368.659014,8512.368333
3876.795626,-2757.943793,-2072.576638,9400.615463
3876.795941,-2451.505594,-1924.535449,10066.800811
3876.796256,-2068.457845,-1924.535449,10807.006753
3876.796571,-1762.019645,-1480.411884,11843.295072
3876.796885,-1378.971896,-1258.350101,11473.192101
3876.797200,-995.924147,-518.144159,10881.027347
3876.797515,-842.705048,-592.164754,10288.862594
3876.797830,-1072.533697,148.041188,9252.574275
3876.798145,-1072.533697,-0.000000,7772.162391
3876.798460,-1149.143247,-592.164754,7254.018232
3876.798775,-1455.581446,-1628.453072,7254.018232
3876.799090,-2451.505594,-2590.720797,8364.327145
3876.799404,-3140.991542,-4219.173869,9474.636058
3876.799719,-3983.696590,-4441.235652,10807.006753
3876.800034,-3600.648841,-4589.276840,11621.233289
3876.800349,-3140.991542,-4515.256246,11917.315666
3876.800664,-3294.210641,-3552.988522,11991.336260
3876.800979,-1991.848295,-2368.659014,11177.109724
3876.801294,-1378.971896,-1332.370696,10288.862594
3876.801608,-536.266849,-296.082377,8882.471304
3876.801923,153.219100,518.144159,7920.203579
3876.802238,689.485948,592.164754,7105.977043
3876.802553,689.485948,-0.000000,6587.832884
3876.802868,229.828649,-888.247130,7328.038826
3876.803183,-229.828649,-1924.535449,8364.327145
3876.803498,-1149.143247,-3330.926739,9622.677246
3876.803812,-2451.505594,-4071.132681,10658.965565
3876.804127,-3217.601092,-4589.276840,11621.233289
3876.804442,-3907.087040,-4589.276840,11399.171507
3876.804757,-3677.258390,-3997.112087,10732.986159
3876.805072,-3294.210641,-3330.926739,10436.903782
3876.805387,-2834.553343,-2516.700203,9400.615463
3876.805702,-1532.190996,-1406.391290,7994.224174
3876.806017,-612.876398,-518.144159,7698.141797
3876.806331,0.000000,-222.061783,7624.121203
3876.806646,306.438199,-222.061783,8068.244768
3876.806961,536.266849,-740.205942,9178.553681
3876.807276,536.266849,-962.267725,9918.759623
3876.807591,76.609550,-1406.391290,10584.944971
3876.807906,0.000000,-1554.432478,11177.109724
3876.808221,-842.705048,-1628.453072,11029.068536
3876.808535,-1225.752797,-1554.432478,10510.924376
3876.808850,-919.314598,-1628.453072,9178.553681
3876.809165,-1149.143247,-1258.350101,8142.265362
3876.809480,-995.924147,-1184.329507,7920.203579
3876.809795,-1455.581446,-1258.350101,7698.141797
3876.810110,-995.924147,-1924.535449,8290.306550
3876.810425,-2068.457845,-2072.576638,8882.471304
3876.810739,-1915.238745,-2368.659014,9474.636058
3876.811054,-1915.238745,-2442.679609,10288.862594
3876.811369,-2221.676944,-1850.514855,10732.986159
3876.811684,-2145.067394,-1480.411884,11103.089130
3876.811999,-2528.115143,-740.205942,11325.150913
3876.812314,-2145.067394,-74.020594,10955.047942
3876.812629,-2298.286494,296.082377,9844.739029
3876.812944,-2681.334243,666.185348,9844.739029
3876.813258,-2604.724693,370.102971,9474.636058
3876.813573,-2834.553343,-370.102971,9622.677246
3876.813888,-3140.991542,-1332.370696,9696.697840
3876.814203,-3140.991542,-1702.473667,9844.739029
3876.814518,-3600.648841,-2368.659014,10362.883188
3876.814833,-3753.867940,-2812.782580,10288.862594
3876.815148,-4290.134789,-2590.720797,10288.862594
3876.815462,-4366.744339,-2664.741391,10362.883188
3876.815777,-4213.525239,-2368.659014,11029.068536
3876.816092,-3370.820191,-2442.679609,10288.862594
3876.816407,-3830.477490,-2294.638420,9770.718434
3876.816722,-3830.477490,-1998.556043,9770.718434
3876.817037,-2987.772442,-1850.514855,9548.656652
3876.817352,-2451.505594,-1850.514855,10066.800811
3876.817666,-2451.505594,-1776.494261,9918.759623
3876.817981,-1915.238745,-1702.473667,9844.739029
3876.818296,-1685.410096,-1702.473667,9622.677246
3876.818611,-1762.019645,-1998.556043,9548.656652
3876.818926,-1762.019645,-2442.679609,9770.718434
3876.819241,-1991.848295,-2368.659014,9770.718434
3876.819556,-1991.848295,-3108.864956,9474.636058
3876.819871,-2374.896044,-3034.844362,9326.594869
3876.820185,-2451.505594,-3108.864956,9178.553681
3876.820500,-2528.115143,-3182.885551,9474.636058
3876.820815,-2911.162892,-3404.947333,9770.718434
3876.821130,-2834.553343,-3701.029710,9474.636058
3876.821445,-2374.896044,-3775.050304,9104.533087
3876.821760,-1838.629195,-3775.050304,9548.656652
3876.822075,-1378.971896,-3108.864956,9326.594869
3876.822389,-1378.971896,-3330.926739,8512.368333
3876.822704,-995.924147,-2886.803174,8216.285956
3876.823019,-766.095498,-2368.659014,7698.141797
3876.823334,76.609550,-2368.659014,8142.265362
3876.823649,-612.876398,-1850.514855,8142.265362
3876.823964,-995.924147,-1998.556043,8068.244768
3876.824279,-1149.143247,-2960.823768,8956.491898
3876.824593,-1685.410096,-3404.947333,9844.739029
3876.824908,-2145.067394,-3849.070898,10955.047942
3876.825223,-2451.505594,-4293.194464,10955.047942
3876.825538,-1991.848295,-3330.926739,10658.965565
3876.825853,-766.095498,-3182.885551,9622.677246
3876.826168,-306.438199,-1998.556043,8512.368333
3876.826483,0.000000,-1924.535449,7698.141797
3876.826798,0.000000,-1258.350101,6809.894666
3876.827112,153.219100,-1258.350101,6661.853478
3876.827427,76.609550,-1628.453072,6439.791695
3876.827742,-383.047749,-2072.576638,6735.874072
3876.828057,-766.095498,-2368.659014,8438.347739
3876.828372,-2221.676944,-3108.864956,9696.697840
3876.828687,-3370.820191,-3849.070898,10955.047942
3876.829002,-3753.867940,-3627.009116,11769.274478
3876.829316,-3907.087040,-3404.947333,12065.356855
3876.829631,-3524.039291,-3108.864956,11695.253884
3876.829946,-2987.772442,-1776.494261,11103.089130
3876.830261,-2451.505594,-1184.329507,10362.883188
3876.830576,-1915.238745,-0.000000,9474.636058
3876.830891,-1762.019645,518.144159,8142.265362
3876.831206,-689.485948,518.144159,8216.285956
3876.831520,-459.657299,666.185348,8364.327145
3876.831835,-1378.971896,-74.020594,9104.533087
3876.832150,-2298.286494,-1258.350101,9696.697840
3876.832465,-3064.381992,-2146.597232,11769.274478
3876.832780,-3907.087040,-2294.638420,12879.583391
3876.833095,-4213.525239,-2886.803174,13249.686362
3876.833410,-4366.744339,-2220.617826,12435.459826
3876.833725,-4136.915689,-1332.370696,12065.356855
3876.834039,-3447.429741,-592.164754,10658.965565
3876.834354,-2681.334243,740.205942,8956.491898
3876.834669,-1838.629195,1110.308913,7402.059420
3876.834984,-766.095498,592.164754,6883.915261
3876.835299,-459.657299,-0.000000,7550.100608
3876.835614,-766.095498,-1184.329507,8808.450710
3876.835929,-1608.800546,-1924.535449,10584.944971
3876.836243,-2681.334243,-2294.638420,11917.315666
3876.836558,-3064.381992,-1998.556043,13175.665768
3876.836873,-2834.553343,-1554.432478,13693.809927
3876.837188,-2834.553343,-518.144159,12731.542202
3876.837503,-3064.381992,-0.000000,11621.233289
3876.837818,-2145.067394,518.144159,9326.594869
3876.838133,-1072.533697,-370.102971,7846.182985
3876.838448,0.000000,-222.061783,6957.935855
3876.838762,-153.219100,-518.144159,5773.606348
3876.839077,-459.657299,-1554.432478,6661.853478
3876.839392,-459.657299,-2960.823768,8364.327145
3876.839707,-1225.752797,-3478.967927,9400.615463
3876.840022,-2221.676944,-3108.864956,11251.130318
3876.840337,-3064.381992,-2738.761985,11843.295072
3876.840652,-3600.648841,-2664.741391,12213.398043
3876.840966,-3140.991542,-2294.638420,11251.130318
3876.841281,-2298.286494,-1332.370696,9622.677246
3876.841596,-2374.896044,-1184.329507,8290.306550
3876.841911,-1991.848295,-1110.308913,7105.977043
3876.842226,-229.828649,-1406.391290,7624.121203
3876.842541,0.000000,-1998.556043,7772.162391
3876.842856,-383.047749,-1554.432478,7920.203579
3876.843170,-842.705048,-1480.411884,8734.430116
3876.843485,-1302.362347,-2220.617826,9918.759623
3876.843800,-1915.238745,-2738.761985,11103.089130
3876.844115,-2681.334243,-3256.906145,11325.150913
3876.844430,-3140.991542,-3849.070898,11177.109724
3876.844745,-2834.553343,-4367.215058,11103.089130
3876.845060,-2681.334243,-3256.906145,10584.944971
3876.845375,-2145.067394,-2368.659014,9104.533087
3876.845689,-2451.505594,-1110.308913,6661.853478
3876.846004,-1378.971896,-1184.329507,6513.812290
3876.846319,76.609550,-1036.288319,6587.832884
3876.846634,-383.047749,-1332.370696,6513.812290
3876.846949,-536.266849,-2442.679609,8068.244768
3876.847264,-612.876398,-3775.050304,9770.718434
3876.847579,-1915.238745,-4441.235652,11325.150913
3876.847893,-2834.553343,-3627.009116,11695.253884
3876.848208,-3064.381992,-2960.823768,11843.295072
3876.848523,-3677.258390,-2368.659014,10436.903782
3876.848838,-3217.601092,-1628.453072,9400.615463
3876.849153,-2911.162892,-1332.370696,8808.450710
3876.849468,-2911.162892,-2072.576638,8068.244768
3876.849783,-2528.115143,-3182.885551,9030.512492
3876.850097,-2834.553343,-3849.070898,9474.636058
3876.850412,-2681.334243,-3404.947333,9548.656652
3876.850727,-1838.629195,-3256.906145,10807.006753
3876.851042,-1532.190996,-2442.679609,11103.089130
3876.851357,-1455.581446,-1776.494261,11917.315666
3876.851672,-1455.581446,-2072.576638,11103.089130
3876.851987,-1532.190996,-1406.391290,9992.780217
3876.852302,-1685.410096,-592.164754,9178.553681
3876.852616,-1838.629195,-814.226536,7772.162391
3876.852931,-1378.971896,-1924.535449,7402.059420
3876.853246,-2145.067394,-1998.556043,7179.997637
3876.853561,-2451.505594,-3404.947333,7994.224174
3876.853876,-2604.724693,-3404.947333,9104.533087
3876.854191,-3217.601092,-3034.844362,9252.574275
3876.854506,-2987.772442,-3256.906145,10510.924376
3876.854820,-2757.943793,-3256.906145,11177.109724
3876.855135,-2757.943793,-3404.947333,11917.315666
3876.855450,-2451.505594,-3552.988522,12435.459826
3876.855765,-2757.943793,-2368.659014,11991.336260
3876.856080,-2681.334243,-222.061783,9918.759623
3876.856395,-1762.019645,740.205942,8734.430116
3876.856710,0.000000,1554.432478,7550.100608
3876.857024,459.657299,1036.288319,6735.874072
3876.857339,919.314598,-518.144159,7254.018232
3876.857654,459.657299,-1480.411884,8438.347739
3876.857969,-919.314598,-1998.556043,8882.471304
3876.858284,-1915.238745,-2664.741391,9844.739029
3876.858599,-2681.334243,-3701.029710,10362.883188
3876.858914,-2681.334243,-3627.009116,11399.171507
3876.859229,-3064.381992,-3108.864956,11325.150913
3876.859543,-3294.210641,-2368.659014,10881.027347
3876.859858,-3140.991542,-1258.350101,10214.842000
3876.860173,-2221.676944,-222.061783,9030.512492
3876.860488,-1455.581446,740.205942,8142.265362
3876.860803,-383.047749,370.102971,7476.080014
3876.861118,153.219100,-814.226536,7994.224174
3876.861433,-459.657299,-666.185348,8512.368333
3876.861747,-842.705048,-1184.329507,9548.656652
3876.862062,-1149.143247,-1332.370696,9844.739029
3876.862377,-1302.362347,-1702.473667,10510.924376
3876.862692,-1762.019645,-2294.638420,11473.192101
3876.863007,-2451.505594,-2220.617826,11769.274478
3876.863322,-4136.915689,-1628.453072,11399.171507
3876.863637,-4136.915689,-1776.494261,12065.356855
3876.863951,-3600.648841,-1332.370696,10288.862594
3876.864266,-2528.115143,-1480.411884,9622.677246
3876.864581,-1302.362347,-1332.370696,9104.533087
3876.864896,-1991.848295,-1406.391290,7476.080014
3876.865211,-1455.581446,-1406.391290,8068.244768
3876.865526,-842.705048,-2146.597232,9548.656652
3876.865841,-766.095498,-1702.473667,9178.553681
3876.866156,-1225.752797,-2220.617826,10214.842000
3876.866470,-1532.190996,-1554.432478,10881.027347
3876.866785,-2757.943793,-962.267725,10140.821405
3876.867100,-2681.334243,-888.247130,10658.965565
3876.867415,-2451.505594,-888.247130,10732.986159
3876.867730,-2451.505594,-1184.329507,10584.944971
3876.868045,-2528.115143,-1110.308913,10066.800811
3876.868360,-2221.676944,-1036.288319,9178.553681
3876.868674,-1302.362347,-1850.514855,9178.553681
3876.868989,-229.828649,-2516.700203,9918.759623
3876.869304,0.000000,-2146.597232,10066.800811
3876.869619,-459.657299,-1332.370696,9696.697840
3876.869934,-383.047749,-962.267725,9326.594869
3876.870249,76.609550,-1036.288319,9400.615463
3876.870564,766.095498,-1554.432478,9992.780217
3876.870879,229.828649,-592.164754,8734.430116
3876.871193,-842.705048,-666.185348,8586.388927
3876.871508,-1378.971896,-740.205942,8512.368333
3876.871823,-842.705048,-1332.370696,8290.306550
3876.872138,0.000000,-2072.576638,8734.430116
3876.872453,0.000000,-1850.514855,9030.512492
3876.872768,-306.438199,-1776.494261,9178.553681
3876.873083,-306.438199,-2220.617826,9474.636058
3876.873397,536.266849,-1850.514855,9918.759623
3876.873712,383.047749,-1480.411884,10288.862594
3876.874027,0.000000,-888.247130,9696.697840
3876.874342,229.828649,-0.000000,10066.800811
3876.874657,76.609550,-74.020594,9178.553681
3876.874972,995.924147,-222.061783,10140.821405
3876.875287,1225.752797,740.205942,9252.574275
3876.875602,689.485948,1036.288319,7994.224174
3876.875916,766.095498,814.226536,7402.059420
3876.876231,766.095498,148.041188,8438.347739
3876.876546,1302.362347,-222.061783,9400.615463
3876.876861,612.876398,-1110.308913,9030.512492
3876.877176,0.000000,-1036.288319,9030.512492
3876.877491,-1072.533697,-1258.350101,9622.677246
3876.877806,-1225.752797,-1110.308913,9770.718434
3876.878121,-1685.410096,-1480.411884,10732.986159
3876.878436,-1455.581446,-222.061783,10362.883188
3876.878750,-2068.457845,666.185348,10066.800811
3876.879065,-1915.238745,1628.453072,10214.842000
3876.879380,-766.095498,1332.370696,11029.068536
3876.879695,-536.266849,1332.370696,10288.862594
3876.880010,76.609550,1480.411884,9474.636058
3876.880325,-229.828649,1850.514855,9474.636058
3876.880640,383.047749,1776.494261,9770.718434
3876.880955,919.314598,1554.432478,10362.883188
3876.881270,689.485948,444.123565,10066.800811
3876.881584,-383.047749,962.267725,9326.594869
3876.881899,-842.705048,-0.000000,9252.574275
3876.882214,-919.314598,296.082377,10807.006753
3876.882529,-1149.143247,518.144159,11251.130318
3876.882844,-2068.457845,888.247130,10214.842000
3876.883159,-1915.238745,666.185348,10140.821405
3876.883474,-689.485948,370.102971,10732.986159
3876.883789,842.705048,740.205942,9770.718434
3876.884103,842.705048,1110.308913,9178.553681
3876.884418,1149.143247,1628.453072,8438.347739
3876.884733,2221.676944,1924.535449,8142.265362
3876.885048,2374.896044,1702.473667,9474.636058
3876.885363,2681.334243,1628.453072,9548.656652
3876.885678,1455.581446,888.247130,9696.697840
3876.885993,153.219100,1332.370696,9252.574275
3876.886308,-229.828649,666.185348,10288.862594
3876.886623,-306.438199,222.061783,11473.192101
3876.886937,0.000000,-814.226536,11399.171507
3876.887252,-229.828649,-888.247130,10658.965565
3876.887567,0.000000,-444.123565,9178.553681
3876.887882,459.657299,444.123565,9326.594869
3876.888197,995.924147,666.185348,9104.533087
3876.888512,1991.848295,592.164754,8956.491898
3876.888827,1762.019645,1332.370696,7920.203579
3876.889142,2451.505594,1110.308913,7698.141797
3876.889456,2911.162892,1258.350101,8808.450710
3876.889771,2221.676944,1776.494261,9178.553681
3876.890086,536.266849,1036.288319,9030.512492
3876.890401,229.828649,222.061783,9400.615463
3876.890716,0.000000,962.267725,9474.636058
3876.891031,383.047749,-0.000000,9622.677246
3876.891346,-306.438199,-740.205942,9770.718434
3876.891661,-383.047749,-1036.288319,9252.574275
3876.891976,-689.485948,-1110.308913,9548.656652
3876.892290,-383.047749,-296.082377,9548.656652
3876.892605,229.828649,-74.020594,9770.718434
3876.892920,306.438199,-370.102971,9770.718434
3876.893235,0.000000,-74.020594,9474.636058
3876.893550,-153.219100,518.144159,9252.574275
3876.893865,-76.609550,444.123565,9622.677246
3876.894180,-536.266849,370.102971,11177.109724
3876.894495,-919.314598,444.123565,9992.780217
3876.894810,-995.924147,296.082377,9696.697840
3876.895124,-919.314598,-0.000000,9326.594869
3876.895439,0.000000,-1036.288319,10658.965565
3876.895754,-383.047749,-1036.288319,11029.068536
3876.896069,-1608.800546,-962.267725,9178.553681
3876.896384,-1762.019645,-444.123565,8882.471304
3876.896699,-995.924147,-962.267725,9400.615463
3876.897014,-536.266849,-1480.411884,10436.903782
3876.897329,-1072.533697,-1554.432478,10140.821405
3876.897643,-1838.629195,-518.144159,8956.491898
3876.897958,-1838.629195,-74.020594,9400.615463
3876.898273,-842.705048,-0.000000,9844.739029
3876.898588,-153.219100,74.020594,10807.006753
3876.898903,-306.438199,370.102971,9326.594869
3876.899218,0.000000,-0.000000,8438.347739
3876.899533,459.657299,-0.000000,8438.347739
3876.899848,536.266849,-518.144159,9252.574275
3876.900163,612.876398,-444.123565,9178.553681
3876.900477,306.438199,-444.123565,9104.533087
3876.900792,0.000000,-1110.308913,9474.636058
3876.901107,0.000000,-1110.308913,10510.924376
3876.901422,0.000000,-1184.329507,10955.047942
3876.901737,-459.657299,-222.061783,9918.759623
3876.902052,-842.705048,-148.041188,9252.574275
3876.902367,0.000000,-148.041188,8512.368333
3876.902682,1302.362347,-370.102971,9400.615463
3876.902996,2068.457845,-444.123565,9622.677246
3876.903311,2145.067394,-0.000000,8808.450710
3876.903626,1838.629195,592.164754,8586.388927
3876.903941,2221.676944,1036.288319,8438.347739
3876.904256,2528.115143,1036.288319,9474.636058
3876.904571,1762.019645,296.082377,9104.533087
3876.904886,1455.581446,296.082377,8882.471304
3876.905201,612.876398,666.185348,9030.512492
3876.905516,0.000000,-0.000000,9178.553681
3876.905830,0.000000,-962.267725,10732.986159
3876.906145,153.219100,-1036.288319,10140.821405
3876.906460,-612.876398,-370.102971,10214.842000
3876.906775,-383.047749,-0.000000,9696.697840
3876.907090,766.095498,-74.020594,9770.718434
3876.907405,1455.581446,962.267725,9992.780217
3876.907720,919.314598,1184.329507,8660.409521
3876.908035,1072.533697,1628.453072,8512.368333
3876.908350,1149.143247,1480.411884,9178.553681
3876.908664,919.314598,962.267725,10288.862594
3876.908979,153.219100,592.164754,10288.862594
3876.909294,-612.876398,814.226536,9918.759623
3876.909609,-766.095498,740.205942,9992.780217
3876.909924,-995.924147,592.164754,10436.903782
3876.910239,-842.705048,1036.288319,10881.027347
3876.910554,-1072.533697,-74.020594,9918.759623
3876.910869,-1072.533697,370.102971,9326.594869
3876.911183,-995.924147,1184.329507,9326.594869
3876.911498,0.000000,222.061783,10288.862594
3876.911813,0.000000,740.205942,9548.656652
3876.912128,-536.266849,1036.288319,8882.471304
3876.912443,-919.314598,1036.288319,9844.739029
3876.912758,-306.438199,1258.350101,10214.842000
3876.913073,-536.266849,1332.370696,11399.171507
3876.913388,-459.657299,888.247130,11029.068536
3876.913703,-1072.533697,1702.473667,9696.697840
3876.914017,-689.485948,1406.391290,9400.615463
3876.914332,-306.438199,518.144159,9696.697840
3876.914647,153.219100,296.082377,10510.924376
3876.914962,-459.657299,222.061783,9474.636058
3876.915277,-842.705048,-0.000000,9474.636058
3876.915592,-383.047749,-0.000000,9548.656652
3876.915907,306.438199,-222.061783,9992.780217
3876.916222,-766.095498,-0.000000,9770.718434
3876.916536,-766.095498,-0.000000,9696.697840
3876.916851,0.000000,222.061783,9252.574275
3876.917166,0.000000,-148.041188,9992.780217
3876.917481,842.705048,-74.020594,10140.821405
3876.917796,536.266849,222.061783,8734.430116
3876.918111,766.095498,-148.041188,8290.306550
3876.918426,1225.752797,518.144159,8734.430116
3876.918741,1685.410096,-148.041188,9326.594869
3876.919056,1378.971896,-666.185348,9474.636058
3876.919370,842.705048,-888.247130,8734.430116
3876.919685,536.266849,-370.102971,8734.430116
3876.920000,612.876398,-370.102971,9104.533087
3876.920315,306.438199,-592.164754,10288.862594
3876.920630,229.828649,-1258.350101,10288.862594
3876.920945,-306.438199,-962.267725,9474.636058
3876.921260,0.000000,-740.205942,9474.636058
3876.921575,842.705048,-888.247130,9918.759623
3876.921890,1532.190996,-518.144159,10066.800811
3876.922204,1608.800546,-0.000000,8882.471304
3876.922519,1455.581446,666.185348,8142.265362
3876.922834,1225.752797,370.102971,7254.018232
3876.923149,1838.629195,-222.061783,9474.636058
3876.923464,1532.190996,-148.041188,9474.636058
3876.923779,1378.971896,-666.185348,8216.285956
3876.924094,536.266849,-74.020594,9104.533087
3876.924409,766.095498,-1110.308913,9770.718434
3876.924723,689.485948,-1036.288319,10658.965565
3876.925038,0.000000,-444.123565,9548.656652
3876.925353,-689.485948,-592.164754,9178.553681
3876.925668,-766.095498,-0.000000,9918.759623
3876.925983,76.609550,-0.000000,9622.677246
3876.926298,-153.219100,-370.102971,9918.759623
3876.926613,-383.047749,-370.102971,9400.615463
3876.926928,-995.924147,-444.123565,9622.677246
3876.927243,-689.485948,518.144159,8882.471304
3876.927557,-383.047749,148.041188,11251.130318
3876.927872,-689.485948,814.226536,11103.089130
3876.928187,-536.266849,814.226536,9770.718434
3876.928502,-1532.190996,1258.350101,9770.718434
3876.928817,-306.438199,1332.370696,10436.903782
3876.929132,-459.657299,888.247130,10510.924376
3876.929447,-689.485948,-444.123565,9918.759623
3876.929762,-919.314598,-370.102971,9178.553681
3876.930077,-1072.533697,-0.000000,8882.471304
3876.930391,-459.657299,-222.061783,9252.574275
3876.930706,-383.047749,-666.185348,9992.780217
3876.931021,-1149.143247,-0.000000,9548.656652
3876.931336,-995.924147,148.041188,8882.471304
3876.931651,-612.876398,518.144159,8808.450710
3876.931966,-306.438199,-0.000000,10584.944971
3876.932281,-229.828649,296.082377,10066.800811
3876.932596,-536.266849,518.144159,9622.677246
3876.932910,459.657299,444.123565,9844.739029
3876.933225,1455.581446,1110.308913,10732.986159
3876.933540,1455.581446,1258.350101,10584.944971
3876.933855,1302.362347,1850.514855,9252.574275
3876.934170,459.657299,1998.556043,9252.574275
3876.934485,536.266849,1998.556043,8734.430116
3876.934800,1072.533697,814.226536,9696.697840
3876.935115,995.924147,-0.000000,10288.862594
3876.935430,-459.657299,-592.164754,9696.697840
3876.935744,-766.095498,-518.144159,9178.553681
3876.936059,-153.219100,-518.144159,9474.636058
3876.936374,229.828649,-592.164754,11103.089130
3876.936689,153.219100,-222.061783,10436.903782
3876.937004,0.000000,592.164754,9104.533087
3876.937319,153.219100,1036.288319,9474.636058
3876.937634,1532.190996,962.267725,9400.615463
3876.937949,1302.362347,1258.350101,9252.574275
3876.938263,612.876398,1036.288319,8660.409521
3876.938578,383.047749,370.102971,9400.615463
3876.938893,766.095498,518.144159,9770.718434
3876.939208,995.924147,222.061783,10436.903782
3876.939523,689.485948,296.082377,10881.027347
3876.939838,-383.047749,666.185348,10510.924376
3876.940153,-306.438199,518.144159,9770.718434
3876.940468,0.000000,-0.000000,9400.615463
3876.940783,306.438199,-370.102971,9770.718434
3876.941097,383.047749,-518.144159,9178.553681
3876.941412,76.609550,-74.020594,8660.409521
3876.941727,689.485948,814.226536,8364.327145
3876.942042,1149.143247,-0.000000,9030.512492
3876.942357,766.095498,-148.041188,8956.491898
3876.942672,383.047749,-0.000000,8956.491898
3876.942987,76.609550,814.226536,8734.430116
3876.943302,229.828649,-296.082377,9548.656652
3876.943617,612.876398,-74.020594,10510.924376
3876.943931,306.438199,-592.164754,10362.883188
3876.944246,-766.095498,444.123565,9104.533087
3876.944561,-919.314598,-0.000000,9696.697840
3876.944876,306.438199,-888.247130,10955.047942
3876.945191,383.047749,-222.061783,10658.965565
3876.945506,-383.047749,-148.041188,9918.759623
3876.945821,0.000000,-0.000000,9104.533087
3876.946136,0.000000,222.061783,8808.450710
3876.946450,766.095498,-592.164754,9918.759623
3876.946765,153.219100,-0.000000,8660.409521
3876.947080,76.609550,-814.226536,9770.718434
3876.947395,-383.047749,444.123565,9030.512492
3876.947710,0.000000,444.123565,8734.430116
3876.948025,459.657299,-370.102971,10362.883188
3876.948340,153.219100,-148.041188,9622.677246
3876.948655,-306.438199,-370.102971,9400.615463
3876.948970,-612.876398,-222.061783,9400.615463
3876.949284,-306.438199,-0.000000,10288.862594
3876.949599,306.438199,-296.082377,10436.903782
3876.949914,383.047749,222.061783,8882.471304
3876.950229,-153.219100,592.164754,8882.471304
3876.950544,0.000000,518.144159,9104.533087
3876.950859,919.314598,222.061783,9622.677246
3876.951174,383.047749,-74.020594,9622.677246
3876.951489,76.609550,-74.020594,8882.471304
3876.951803,-383.047749,518.144159,8660.409521
3876.952118,76.609550,444.123565,9400.615463
3876.952433,229.828649,-740.205942,10584.944971
3876.952748,-153.219100,-888.247130,9474.636058
3876.953063,-766.095498,-666.185348,9326.594869
3876.953378,-689.485948,148.041188,9104.533087
3876.953693,76.609550,-370.102971,10362.883188
3876.954008,229.828649,-814.226536,9918.759623
3876.954323,459.657299,-370.102971,8808.450710
3876.954637,-459.657299,-148.041188,8882.471304
3876.954952,76.609550,-74.020594,9400.615463
3876.955267,612.876398,-0.000000,10584.944971
3876.955582,536.266849,814.226536,10066.800811
3876.955897,-459.657299,1036.288319,9474.636058
3876.956212,0.000000,1036.288319,9696.697840
3876.956527,536.266849,592.164754,10436.903782
3876.956842,1378.971896,-0.000000,10584.944971
3876.957157,229.828649,740.205942,9474.636058
3876.957471,-689.485948,740.205942,8438.347739
3876.957786,229.828649,-222.061783,9992.780217
3876.958101,612.876398,-296.082377,9622.677246
3876.958416,536.266849,-148.041188,9770.718434
3876.958731,0.000000,-148.041188,9844.739029
3876.959046,-1225.752797,592.164754,8956.491898
3876.959361,0.000000,-0.000000,9474.636058
3876.959676,383.047749,-370.102971,10807.006753
3876.959990,76.609550,-0.000000,10362.883188
3876.960305,0.000000,740.205942,10288.862594
3876.960620,383.047749,740.205942,9326.594869
3876.960935,919.314598,1332.370696,10362.883188
3876.961250,1532.190996,1258.350101,10807.006753
3876.961565,1225.752797,740.205942,9030.512492
3876.961880,536.266849,1258.350101,8660.409521
3876.962195,919.314598,1480.411884,8438.347739
3876.962510,1455.581446,740.205942,9622.677246
3876.962824,1378.971896,370.102971,9474.636058
3876.963139,153.219100,-370.102971,9918.759623
3876.963454,-689.485948,-0.000000,8734.430116
3876.963769,0.000000,-148.041188,9918.759623
3876.964084,0.000000,-518.144159,10362.883188
3876.964399,-229.828649,-370.102971,9548.656652
3876.964714,0.000000,-0.000000,8882.471304
3876.965029,0.000000,888.247130,8290.306550
3876.965343,229.828649,740.205942,9474.636058
3876.965658,1302.362347,-0.000000,10066.800811
3876.965973,766.095498,888.247130,8882.471304
3876.966288,-229.828649,1258.350101,9252.574275
3876.966603,153.219100,444.123565,9474.636058
3876.966918,536.266849,-592.164754,10732.986159
3876.967233,153.219100,-74.020594,10732.986159
3876.967548,-1149.143247,-222.061783,10732.986159
3876.967863,-1225.752797,-148.041188,9548.656652
3876.968177,-536.266849,-0.000000,9844.739029
3876.968492,0.000000,-222.061783,10362.883188
3876.968807,0.000000,-370.102971,9474.636058
3876.969122,-459.657299,-148.041188,8660.409521
3876.969437,-459.657299,-0.000000,7994.224174
3876.969752,306.438199,-0.000000,9030.512492
3876.970067,842.705048,-0.000000,9474.636058
3876.970382,-306.438199,-74.020594,9178.553681
3876.970697,-766.095498,-148.041188,9548.656652
3876.971011,-383.047749,296.082377,9696.697840
3876.971326,0.000000,444.123565,10732.986159
3876.971641,0.000000,444.123565,10584.944971
3876.971956,-842.705048,518.144159,9696.697840
3876.972271,-842.705048,666.185348,9474.636058
3876.972586,-536.266849,-0.000000,9474.636058
3876.972901,0.000000,-222.061783,9992.780217
3876.973216,-383.047749,-962.267725,9252.574275
3876.973530,-536.266849,-148.041188,8808.450710
3876.973845,-383.047749,-74.020594,8956.491898
3876.974160,0.000000,-518.144159,9918.759623
3876.974475,689.485948,-814.226536,10066.800811
3876.974790,-153.219100,-0.000000,9252.574275
3876.975105,-229.828649,222.061783,8586.388927
3876.975420,306.438199,-0.000000,8956.491898
3876.975735,1149.143247,-74.020594,9770.718434
3876.976050,1455.581446,-0.000000,9548.656652
3876.976364,383.047749,-74.020594,8586.388927
3876.976679,459.657299,370.102971,8734.430116
3876.976994,1225.752797,-222.061783,9918.759623
3876.977309,1455.581446,444.123565,9326.594869
3876.977624,306.438199,-0.000000,9474.636058
3876.977939,536.266849,-148.041188,9918.759623
3876.978253,76.609550,518.144159,9104.533087
3876.978568,536.266849,-444.123565,10732.986159
3876.978883,919.314598,-444.123565,10362.883188
3876.979198,229.828649,-296.082377,9696.697840
3876.979513,306.438199,-444.123565,9400.615463
3876.979827,76.609550,222.061783,9770.718434
3876.980142,995.924147,518.144159,10362.883188
3876.980457,1302.362347,370.102971,8956.491898
3876.980772,766.095498,666.185348,8956.491898
3876.981087,306.438199,740.205942,8808.450710
3876.981401,842.705048,-74.020594,9474.636058
3876.981716,1149.143247,-518.144159,9844.739029
3876.982031,229.828649,-666.185348,9622.677246
3876.982346,0.000000,-148.041188,9622.677246
3876.982660,-842.705048,814.226536,9474.636058
3876.982975,-459.657299,518.144159,10955.047942
3876.983290,-383.047749,444.123565,9992.780217
3876.983605,-995.924147,-0.000000,9548.656652
3876.983920,-536.266849,888.247130,8808.450710
3876.984234,0.000000,814.226536,9326.594869
3876.984549,229.828649,592.164754,10140.821405
3876.984864,76.609550,-0.000000,9178.553681
3876.985179,-153.219100,444.123565,8956.491898
3876.985494,-766.095498,1258.350101,9104.533087
3876.985808,-229.828649,-0.000000,10510.924376
3876.986123,76.609550,518.144159,10140.821405
3876.986438,-689.485948,370.102971,9474.636058
3876.986753,-689.485948,592.164754,9326.594869
3876.987067,-689.485948,-0.000000,8882.471304
3876.987382,-306.438199,-0.000000,9918.759623
3876.987697,0.000000,222.061783,10140.821405
3876.988012,-612.876398,740.205942,9252.574275
3876.988327,0.000000,962.267725,9400.615463
3876.988641,612.876398,518.144159,10140.821405
3876.988956,919.314598,666.185348,10288.862594
3876.989271,153.219100,592.164754,9326.594869
3876.989586,0.000000,370.102971,8956.491898
3876.989901,153.219100,1258.350101,9178.553681
3876.990215,919.314598,666.185348,9918.759623
3876.990530,1685.410096,444.123565,9844.739029
3876.990845,689.485948,148.041188,9474.636058
3876.991160,459.657299,444.123565,9178.553681
3876.991474,766.095498,296.082377,9104.533087
3876.991789,1455.581446,-0.000000,10732.986159
3876.992104,1149.143247,-0.000000,9770.718434
3876.992419,153.219100,-0.000000,8956.491898
3876.992734,306.438199,592.164754,8586.388927
3876.993048,459.657299,-296.082377,10066.800811
3876.993363,1072.533697,296.082377,9992.780217
3876.993678,383.047749,518.144159,9474.636058
3876.993993,-229.828649,370.102971,8956.491898
3876.994308,306.438199,-0.000000,9252.574275
3876.994622,842.705048,-370.102971,10584.944971
3876.994937,919.314598,296.082377,9992.780217
3876.995252,0.000000,666.185348,9770.718434
3876.995567,-459.657299,814.226536,9030.512492
3876.995881,153.219100,888.247130,8882.471304
3876.996196,1149.143247,-0.000000,9400.615463
3876.996511,459.657299,-0.000000,9178.553681
3876.996826,0.000000,-0.000000,8216.285956
3876.997141,0.000000,-148.041188,8734.430116
3876.997455,689.485948,-1110.308913,10066.800811
3876.997770,76.609550,-1184.329507,9992.780217
