#time,accel_x,accel_y,accel_z
4116.472298,229.828649,148.041188,9770.718434
4116.472613,-229.828649,296.082377,9474.636058
4116.472929,0.000000,370.102971,9696.697840
4116.473244,0.000000,296.082377,9474.636058
4116.473560,76.609550,-0.000000,9622.677246
4116.473875,-536.266849,-444.123565,9474.636058
4116.474191,-153.219100,370.102971,9770.718434
4116.474506,0.000000,148.041188,10140.821405
4116.474821,76.609550,296.082377,9844.739029
4116.475137,153.219100,148.041188,9622.677246
4116.475452,76.609550,74.020594,9696.697840
4116.475768,0.000000,-0.000000,9400.615463
4116.476083,76.609550,222.061783,9400.615463
4116.476399,153.219100,-0.000000,9474.636058
4116.476714,229.828649,-0.000000,9548.656652
4116.477030,153.219100,148.041188,9474.636058
4116.477345,-306.438199,148.041188,9474.636058
4116.477660,0.000000,-0.000000,9326.594869
4116.477976,153.219100,148.041188,9548.656652
4116.478291,229.828649,-0.000000,9622.677246
4116.478607,76.609550,296.082377,9474.636058
4116.478922,76.609550,222.061783,9622.677246
4116.479238,229.828649,-0.000000,9474.636058
4116.479553,306.438199,592.164754,9178.553681
4116.479868,459.657299,148.041188,9918.759623
4116.480184,383.047749,-74.020594,9474.636058
4116.480499,153.219100,-0.000000,9400.615463
4116.480815,0.000000,-222.061783,9474.636058
4116.481130,0.000000,-0.000000,9474.636058
4116.481446,229.828649,-370.102971,9992.780217
4116.481761,0.000000,222.061783,9474.636058
4116.482076,0.000000,-148.041188,9992.780217
4116.482392,76.609550,-0.000000,9548.656652
4116.482707,153.219100,296.082377,9104.533087
4116.483023,76.609550,-0.000000,9696.697840
4116.483338,76.609550,444.123565,9770.718434
4116.483654,153.219100,518.144159,9696.697840
4116.483969,-153.219100,-0.000000,9474.636058
4116.484285,-306.438199,-0.000000,9696.697840
4116.484600,306.438199,-0.000000,9770.718434
4116.484915,0.000000,222.061783,9474.636058
4116.485231,0.000000,222.061783,9474.636058
4116.485546,0.000000,148.041188,9474.636058
4116.485862,383.047749,-0.000000,9474.636058
4116.486177,0.000000,444.123565,9548.656652
4116.486493,0.000000,-0.000000,9622.677246
4116.486808,0.000000,-0.000000,9622.677246
4116.487123,0.000000,-0.000000,9696.697840
4116.487439,536.266849,-74.020594,9474.636058
4116.487754,0.000000,296.082377,9474.636058
4116.488070,0.000000,-0.000000,9400.615463
4116.488385,0.000000,-0.000000,9474.636058
4116.488701,76.609550,444.123565,9474.636058
4116.489016,229.828649,296.082377,9622.677246
4116.489332,229.828649,-0.000000,9474.636058
4116.489647,153.219100,-0.000000,9548.656652
4116.489962,0.000000,-0.000000,9622.677246
4116.490278,229.828649,148.041188,9104.533087
4116.490593,459.657299,-0.000000,9548.656652
4116.490909,459.657299,-0.000000,9622.677246
4116.491224,76.609550,444.123565,9696.697840
4116.491540,76.609550,-0.000000,9474.636058
4116.491855,306.438199,-0.000000,9474.636058
4116.492170,306.438199,-0.000000,9696.697840
4116.492486,0.000000,222.061783,9844.739029
4116.492801,153.219100,-222.061783,9696.697840
4116.493117,153.219100,-0.000000,9548.656652
4116.493432,76.609550,-0.000000,9326.594869
4116.493748,459.657299,-0.000000,9548.656652
4116.494063,-229.828649,74.020594,9696.697840
4116.494378,76.609550,-0.000000,9770.718434
4116.494694,0.000000,296.082377,9252.574275
4116.495009,0.000000,-148.041188,9548.656652
4116.495325,153.219100,-0.000000,9696.697840
4116.495640,76.609550,-0.000000,9918.759623
4116.495956,0.000000,-0.000000,9696.697840
4116.496271,76.609550,-0.000000,9474.636058
4116.496587,76.609550,-0.000000,9474.636058
4116.496902,459.657299,370.102971,9844.739029
4116.497217,0.000000,-0.000000,9474.636058
4116.497533,0.000000,-0.000000,9622.677246
4116.497848,0.000000,-0.000000,9474.636058
4116.498164,153.219100,148.041188,9548.656652
4116.498479,0.000000,-0.000000,9474.636058
4116.498795,0.000000,-0.000000,9252.574275
4116.499110,0.000000,-0.000000,9252.574275
4116.499425,0.000000,740.205942,9474.636058
4116.499741,-689.485948,-0.000000,9696.697840
4116.500056,-229.828649,-0.000000,9474.636058
4116.500372,-153.219100,296.082377,9844.739029
4116.500687,-383.047749,222.061783,9918.759623
4116.501003,-306.438199,592.164754,9474.636058
4116.501318,-766.095498,-0.000000,9474.636058
4116.501633,-306.438199,-0.000000,9770.718434
4116.501949,-536.266849,518.144159,9696.697840
4116.502264,-536.266849,666.185348,9252.574275
4116.502580,-536.266849,518.144159,9030.512492
4116.502895,-536.266849,1110.308913,9474.636058
4116.503211,-1072.533697,740.205942,9252.574275
4116.503526,-1455.581446,592.164754,9252.574275
4116.503842,-1762.019645,888.247130,9030.512492
4116.504157,-1991.848295,962.267725,9474.636058
4116.504472,-1915.238745,518.144159,9400.615463
4116.504788,-2604.724693,1036.288319,9844.739029
4116.505103,-2757.943793,1036.288319,10066.800811
4116.505419,-2987.772442,1036.288319,9844.739029
4116.505734,-3140.991542,1184.329507,9548.656652
4116.506050,-3140.991542,1702.473667,10066.800811
4116.506365,-2911.162892,2072.576638,9844.739029
4116.506680,-2681.334243,2368.659014,9548.656652
4116.506996,-2451.505594,2590.720797,9030.512492
4116.507311,-2451.505594,2812.782580,8956.491898
4116.507627,-2528.115143,3034.844362,9252.574275
4116.507942,-2374.896044,2738.761985,9326.594869
4116.508258,-2604.724693,2590.720797,9400.615463
4116.508573,-2757.943793,2516.700203,9918.759623
4116.508889,-2604.724693,2146.597232,9696.697840
4116.509204,-2451.505594,2516.700203,9992.780217
4116.509519,-2451.505594,2368.659014,10140.821405
4116.509835,-1685.410096,2812.782580,9474.636058
4116.510150,-1225.752797,3330.926739,8956.491898
4116.510466,-1072.533697,3404.947333,8660.409521
4116.510781,-1302.362347,3923.091493,8290.306550
4116.511097,-1378.971896,4663.297435,8216.285956
4116.511412,-1225.752797,4589.276840,8290.306550
4116.511727,-1532.190996,4367.215058,9104.533087
4116.512043,-2451.505594,3478.967927,9548.656652
4116.512358,-2604.724693,3108.864956,10362.883188
4116.512674,-2987.772442,3034.844362,11103.089130
4116.512989,-2911.162892,3034.844362,10955.047942
4116.513305,-2528.115143,3330.926739,11325.150913
4116.513620,-2068.457845,3775.050304,10955.047942
4116.513935,-2145.067394,4737.318029,10288.862594
4116.514251,-1762.019645,5255.462188,9548.656652
4116.514566,-1532.190996,5625.565159,9178.553681
4116.514882,-1685.410096,5403.503377,9178.553681
4116.515197,-1991.848295,4885.359217,9844.739029
4116.515513,-1762.019645,4737.318029,9622.677246
4116.515828,-2451.505594,3701.029710,10214.842000
4116.516144,-2374.896044,2960.823768,11103.089130
4116.516459,-2528.115143,2664.741391,11399.171507
4116.516774,-2374.896044,2442.679609,11621.233289
4116.517090,-1991.848295,1998.556043,11843.295072
4116.517405,-1225.752797,2590.720797,11251.130318
4116.517721,-383.047749,2664.741391,10362.883188
4116.518036,612.876398,3182.885551,9770.718434
4116.518352,919.314598,3627.009116,9178.553681
4116.518667,612.876398,3627.009116,8438.347739
4116.518982,229.828649,3849.070898,8216.285956
4116.519298,-612.876398,3701.029710,7994.224174
4116.519613,-1302.362347,2886.803174,8142.265362
4116.519929,-1991.848295,2368.659014,8882.471304
4116.520244,-3370.820191,1258.350101,9992.780217
4116.520560,-4443.353888,444.123565,10288.862594
4116.520875,-3907.087040,-0.000000,11695.253884
4116.521191,-4366.744339,-444.123565,10362.883188
4116.521506,-4136.915689,-222.061783,11251.130318
4116.521821,-3217.601092,518.144159,11029.068536
4116.522137,-2528.115143,518.144159,10658.965565
4116.522452,-1149.143247,1258.350101,10066.800811
4116.522768,0.000000,1998.556043,9030.512492
4116.523083,0.000000,2368.659014,8142.265362
4116.523399,383.047749,2812.782580,8660.409521
4116.523714,229.828649,2442.679609,7772.162391
4116.524029,0.000000,1850.514855,7402.059420
4116.524345,-842.705048,1332.370696,7550.100608
4116.524660,-2221.676944,518.144159,7402.059420
4116.524976,-3600.648841,-518.144159,7846.182985
4116.525291,-4826.401637,-1036.288319,9030.512492
4116.525607,-4903.011187,-1850.514855,10732.986159
4116.525922,-5056.230287,-1702.473667,9992.780217
4116.526237,-5209.449386,-1998.556043,10881.027347
4116.526553,-4213.525239,-1480.411884,11695.253884
4116.526868,-2681.334243,-1850.514855,11769.274478
4116.527184,-1072.533697,-0.000000,10955.047942
4116.527499,919.314598,1258.350101,9474.636058
4116.527815,1838.629195,3627.009116,8216.285956
4116.528130,2374.896044,5255.462188,6735.874072
4116.528446,2068.457845,5921.647536,5625.565159
4116.528761,1072.533697,5181.441594,4811.338623
4116.529076,-459.657299,4663.297435,5551.544565
4116.529392,-2911.162892,2812.782580,7624.121203
4116.529707,-4903.011187,-814.226536,10881.027347
4116.530023,-6665.030833,-2664.741391,12287.418637
4116.530338,-7507.735880,-4367.215058,12435.459826
4116.530654,-8044.002729,-4441.235652,14656.077652
4116.530969,-6052.154434,-4071.132681,15322.262999
4116.531284,-3983.696590,-1850.514855,12657.521608
4116.531600,-383.047749,1850.514855,9696.697840
4116.531915,1532.190996,5699.585753,7031.956449
4116.532231,2604.724693,8438.347739,5477.523971
4116.532546,3524.039291,10658.965565,4737.318029
4116.532862,2528.115143,9474.636058,4885.359217
4116.533177,1762.019645,7476.080014,6957.935855
4116.533493,383.047749,4737.318029,9992.780217
4116.533808,-1608.800546,444.123565,11843.295072
4116.534123,-2987.772442,-2590.720797,15544.324782
4116.534439,-3677.258390,-3182.885551,15544.324782
4116.534754,-4826.401637,-3256.906145,14137.933492
4116.535070,-3600.648841,-1850.514855,12879.583391
4116.535385,-1762.019645,592.164754,12287.418637
4116.535701,229.828649,3627.009116,8364.327145
4116.536016,1378.971896,5699.585753,5773.606348
4116.536331,2451.505594,7105.977043,5255.462188
4116.536647,2374.896044,7105.977043,5995.668130
4116.536962,1685.410096,5551.544565,7105.977043
4116.537278,1685.410096,3034.844362,8586.388927
4116.537593,459.657299,444.123565,10584.944971
4116.537909,306.438199,-666.185348,11769.274478
4116.538224,536.266849,-1184.329507,12065.356855
4116.538539,-153.219100,-1110.308913,11325.150913
4116.538855,-306.438199,740.205942,10732.986159
4116.539170,-689.485948,2072.576638,9104.533087
4116.539486,-842.705048,2220.617826,9030.512492
4116.539801,-919.314598,2886.803174,8734.430116
4116.540117,-1685.410096,1924.535449,8586.388927
4116.540432,-2374.896044,518.144159,9104.533087
4116.540748,-2145.067394,-0.000000,9992.780217
4116.541063,-842.705048,-222.061783,10510.924376
4116.541378,-536.266849,-444.123565,11177.109724
4116.541694,459.657299,148.041188,11843.295072
4116.542009,919.314598,296.082377,11695.253884
4116.542325,1838.629195,1110.308913,10955.047942
4116.542640,1991.848295,1332.370696,9696.697840
4116.542956,1608.800546,666.185348,8956.491898
4116.543271,1149.143247,518.144159,7920.203579
4116.543586,459.657299,-0.000000,7105.977043
4116.543902,0.000000,148.041188,7031.956449
4116.544217,0.000000,-0.000000,6883.915261
4116.544533,-1608.800546,592.164754,7179.997637
4116.544848,-2221.676944,-592.164754,9030.512492
4116.545164,-2757.943793,-1776.494261,11251.130318
4116.545479,-2834.553343,-2738.761985,11843.295072
4116.545794,-2451.505594,-4071.132681,12879.583391
4116.546109,-1378.971896,-4367.215058,12361.439231
4116.546424,0.000000,-2516.700203,11843.295072
4116.546740,1455.581446,-814.226536,9992.780217
4116.547055,2681.334243,1850.514855,7846.182985
4116.547370,3140.991542,4145.153275,6883.915261
4116.547685,3064.381992,4441.235652,6143.709319
4116.548000,2221.676944,3701.029710,6513.812290
4116.548316,1149.143247,1406.391290,7402.059420
4116.548631,-689.485948,-1776.494261,9326.594869
4116.548946,-1378.971896,-4589.276840,10881.027347
4116.549261,-2221.676944,-5625.565159,12139.377449
4116.549576,-1455.581446,-5551.544565,11991.336260
4116.549892,-1762.019645,-4515.256246,11325.150913
4116.550207,-1302.362347,-3034.844362,11843.295072
4116.550522,766.095498,-1332.370696,10732.986159
4116.550837,842.705048,370.102971,9696.697840
4116.551152,1225.752797,962.267725,8512.368333
4116.551468,919.314598,1036.288319,7994.224174
4116.551783,1608.800546,518.144159,7402.059420
4116.552098,2528.115143,-0.000000,7328.038826
4116.552413,2681.334243,-296.082377,7476.080014
4116.552728,2374.896044,-370.102971,8290.306550
4116.553044,1762.019645,-222.061783,9770.718434
4116.553359,1378.971896,-814.226536,10881.027347
4116.553674,-153.219100,-1776.494261,11621.233289
4116.553989,-1149.143247,-2812.782580,11991.336260
4116.554304,-1838.629195,-3997.112087,11695.253884
4116.554620,-1532.190996,-3997.112087,11029.068536
4116.554935,-229.828649,-2812.782580,8808.450710
4116.555250,0.000000,-666.185348,8068.244768
4116.555565,229.828649,1036.288319,6809.894666
4116.555880,766.095498,2886.803174,7031.956449
4116.556196,1149.143247,2812.782580,7328.038826
4116.556511,1149.143247,1850.514855,8956.491898
4116.556826,689.485948,296.082377,10140.821405
4116.557141,536.266849,-1258.350101,10807.006753
4116.557456,612.876398,-1776.494261,11103.089130
4116.557772,995.924147,-1184.329507,11103.089130
4116.558087,1302.362347,444.123565,10362.883188
4116.558402,1072.533697,1850.514855,8586.388927
4116.558717,383.047749,3256.906145,7698.141797
4116.559032,76.609550,3478.967927,7920.203579
4116.559348,-689.485948,3108.864956,7846.182985
4116.559663,-1532.190996,1258.350101,9104.533087
4116.559978,-2451.505594,-370.102971,9992.780217
4116.560293,-1915.238745,-1184.329507,10807.006753
4116.560608,-1072.533697,-1036.288319,11547.212695
4116.560924,-229.828649,-0.000000,10807.006753
4116.561239,536.266849,1036.288319,11251.130318
4116.561554,689.485948,2738.761985,10510.924376
4116.561869,919.314598,4367.215058,9326.594869
4116.562185,1225.752797,4071.132681,9178.553681
4116.562500,1072.533697,3256.906145,8808.450710
4116.562815,766.095498,1998.556043,9178.553681
4116.563130,1302.362347,666.185348,8734.430116
4116.563445,0.000000,962.267725,9030.512492
4116.563761,-612.876398,1554.432478,9548.656652
4116.564076,-612.876398,1332.370696,10658.965565
4116.564391,-1532.190996,888.247130,11029.068536
4116.564706,-1302.362347,370.102971,12287.418637
4116.565021,-1915.238745,-518.144159,12287.418637
4116.565337,-1838.629195,-1184.329507,12287.418637
4116.565652,-919.314598,-1628.453072,11547.212695
4116.565967,306.438199,-296.082377,10288.862594
4116.566282,1838.629195,1258.350101,8808.450710
4116.566597,2068.457845,3108.864956,7550.100608
4116.566913,2221.676944,4219.173869,7105.977043
4116.567228,2298.286494,4145.153275,7772.162391
4116.567543,1149.143247,2886.803174,8956.491898
4116.567858,-306.438199,1110.308913,9770.718434
4116.568173,-995.924147,-1332.370696,11029.068536
4116.568489,-1838.629195,-3034.844362,11843.295072
4116.568804,-1302.362347,-3701.029710,11917.315666
4116.569119,-766.095498,-2368.659014,11251.130318
4116.569434,-766.095498,-592.164754,10214.842000
4116.569749,-612.876398,740.205942,9622.677246
4116.570065,76.609550,1850.514855,8734.430116
4116.570380,842.705048,2072.576638,8216.285956
4116.570695,536.266849,1332.370696,7846.182985
4116.571010,383.047749,666.185348,8438.347739
4116.571325,306.438199,-518.144159,8808.450710
4116.571641,1072.533697,-1036.288319,8512.368333
4116.571956,1608.800546,-74.020594,8660.409521
4116.572271,766.095498,222.061783,9178.553681
4116.572586,76.609550,-148.041188,9548.656652
4116.572901,0.000000,-0.000000,9770.718434
4116.573217,-842.705048,-666.185348,10362.883188
4116.573532,-1072.533697,-2220.617826,10584.944971
4116.573847,-1225.752797,-2368.659014,9770.718434
4116.574162,-536.266849,-2294.638420,9474.636058
4116.574477,0.000000,-1480.411884,8216.285956
4116.574793,306.438199,-592.164754,8290.306550
4116.575108,1225.752797,888.247130,7624.121203
4116.575423,842.705048,1258.350101,8438.347739
4116.575738,842.705048,1036.288319,9474.636058
4116.576053,229.828649,-0.000000,10140.821405
4116.576369,-536.266849,-1554.432478,10881.027347
4116.576684,76.609550,-2442.679609,10807.006753
4116.576999,153.219100,-2960.823768,10732.986159
4116.577314,842.705048,-2146.597232,9696.697840
4116.577629,766.095498,-740.205942,8808.450710
4116.577945,766.095498,592.164754,8068.244768
4116.578260,536.266849,962.267725,8882.471304
4116.578575,153.219100,1258.350101,8882.471304
4116.578890,-459.657299,296.082377,9474.636058
4116.579205,-1302.362347,-1110.308913,9844.739029
4116.579521,-995.924147,-2442.679609,10140.821405
4116.579836,-383.047749,-2960.823768,10584.944971
4116.580151,229.828649,-2220.617826,10510.924376
4116.580466,229.828649,-740.205942,10066.800811
4116.580781,76.609550,148.041188,9770.718434
4116.581097,766.095498,1998.556043,9548.656652
4116.581412,612.876398,1628.453072,9548.656652
4116.581727,0.000000,1554.432478,9030.512492
4116.582042,-229.828649,444.123565,9252.574275
4116.582357,-459.657299,-518.144159,9030.512492
4116.582673,0.000000,-592.164754,8956.491898
4116.582988,0.000000,-0.000000,9030.512492
4116.583303,-766.095498,666.185348,8956.491898
4116.583618,-536.266849,1258.350101,9770.718434
4116.583933,-689.485948,1258.350101,10510.924376
4116.584249,-1225.752797,888.247130,10658.965565
4116.584564,-919.314598,-74.020594,10436.903782
4116.584879,-689.485948,-370.102971,10362.883188
4116.585194,-459.657299,-592.164754,9992.780217
4116.585509,842.705048,592.164754,8808.450710
4116.585825,1455.581446,1924.535449,7994.224174
4116.586140,1455.581446,3701.029710,7550.100608
4116.586455,1302.362347,4293.194464,7624.121203
4116.586770,919.314598,3849.070898,8512.368333
4116.587085,229.828649,2368.659014,9696.697840
4116.587401,-766.095498,222.061783,10584.944971
4116.587716,-1378.971896,-1998.556043,11547.212695
4116.588031,-1378.971896,-1998.556043,11843.295072
4116.588346,-306.438199,-1036.288319,11843.295072
4116.588661,383.047749,-0.000000,10214.842000
4116.588977,459.657299,1924.535449,9992.780217
4116.589292,1072.533697,2886.803174,9326.594869
4116.589607,1608.800546,2812.782580,8956.491898
4116.589922,1455.581446,2664.741391,8734.430116
4116.590237,1072.533697,1554.432478,9178.553681
4116.590553,919.314598,222.061783,9400.615463
4116.590868,766.095498,-814.226536,10214.842000
4116.591183,1302.362347,-666.185348,10214.842000
4116.591498,612.876398,-296.082377,10658.965565
4116.591813,153.219100,814.226536,10214.842000
4116.592129,383.047749,1258.350101,10288.862594
4116.592444,459.657299,888.247130,10584.944971
4116.592759,0.000000,-0.000000,10362.883188
4116.593074,-612.876398,-592.164754,10436.903782
4116.593389,-306.438199,-1036.288319,9918.759623
4116.593705,0.000000,-666.185348,9178.553681
4116.594020,536.266849,-74.020594,8660.409521
4116.594335,995.924147,1036.288319,8734.430116
4116.594650,919.314598,2294.638420,8364.327145
4116.594965,842.705048,1554.432478,9030.512492
4116.595281,229.828649,1110.308913,9622.677246
4116.595596,-995.924147,-444.123565,10436.903782
4116.595911,-1685.410096,-2072.576638,10510.924376
4116.596226,-1225.752797,-2368.659014,10436.903782
4116.596541,-766.095498,-2220.617826,9844.739029
4116.596857,0.000000,-740.205942,9104.533087
4116.597172,-306.438199,1036.288319,7920.203579
4116.597487,-306.438199,1924.535449,7846.182985
4116.597802,229.828649,1702.473667,8290.306550
4116.598117,0.000000,592.164754,8660.409521
4116.598433,-612.876398,-592.164754,9252.574275
4116.598748,-1225.752797,-1924.535449,9992.780217
4116.599063,-1225.752797,-2442.679609,9992.780217
4116.599378,-306.438199,-2368.659014,9770.718434
4116.599693,153.219100,-1480.411884,9548.656652
4116.600009,306.438199,296.082377,8882.471304
4116.600324,536.266849,1036.288319,8734.430116
4116.600639,766.095498,1110.308913,8808.450710
4116.600954,153.219100,1036.288319,9474.636058
4116.601269,-612.876398,-148.041188,8956.491898
4116.601585,-689.485948,-1332.370696,9622.677246
4116.601900,-459.657299,-2516.700203,9844.739029
4116.602215,0.000000,-2072.576638,9622.677246
4116.602530,0.000000,-888.247130,9474.636058
4116.602845,76.609550,-0.000000,9474.636058
4116.603161,383.047749,666.185348,10066.800811
4116.603476,459.657299,296.082377,10140.821405
4116.603791,0.000000,-222.061783,10140.821405
4116.604106,0.000000,-1406.391290,10436.903782
4116.604421,0.000000,-1998.556043,9918.759623
4116.604737,383.047749,-1776.494261,9770.718434
4116.605052,1532.190996,-962.267725,9474.636058
4116.605367,1455.581446,740.205942,8512.368333
4116.605682,1532.190996,1480.411884,8438.347739
4116.605997,1455.581446,1480.411884,8956.491898
4116.606313,919.314598,1332.370696,9696.697840
4116.606628,0.000000,-0.000000,10362.883188
4116.606943,-306.438199,-888.247130,10807.006753
4116.607258,-229.828649,-1998.556043,10881.027347
4116.607573,229.828649,-1702.473667,10584.944971
4116.607889,995.924147,-518.144159,9622.677246
4116.608204,1302.362347,1184.329507,8808.450710
4116.608519,1991.848295,2072.576638,8364.327145
4116.608834,1991.848295,2738.761985,8290.306550
4116.609149,1302.362347,2516.700203,8512.368333
4116.609465,766.095498,1924.535449,9104.533087
4116.609780,0.000000,518.144159,9918.759623
4116.610095,0.000000,-962.267725,9548.656652
4116.610410,306.438199,-962.267725,9918.759623
4116.610725,153.219100,-296.082377,9696.697840
4116.611041,229.828649,444.123565,9474.636058
4116.611356,229.828649,2072.576638,9474.636058
4116.611671,0.000000,2516.700203,9770.718434
4116.611986,-153.219100,1850.514855,9548.656652
4116.612301,-612.876398,814.226536,9844.739029
4116.612617,-766.095498,-74.020594,10362.883188
4116.612932,-842.705048,-518.144159,9844.739029
4116.613247,-229.828649,222.061783,9474.636058
4116.613562,0.000000,814.226536,9178.553681
4116.613878,-229.828649,1850.514855,9030.512492
4116.614193,0.000000,1998.556043,9400.615463
4116.614508,-229.828649,1702.473667,9622.677246
4116.614823,-536.266849,888.247130,10436.903782
4116.615138,-1225.752797,-148.041188,10807.006753
4116.615454,-1378.971896,-1702.473667,10658.965565
4116.615769,-842.705048,-1110.308913,10584.944971
4116.616084,-306.438199,-814.226536,9696.697840
4116.616399,0.000000,-0.000000,9400.615463
4116.616714,229.828649,1480.411884,9178.553681
4116.617030,0.000000,1258.350101,9474.636058
4116.617345,0.000000,1850.514855,9474.636058
4116.617660,0.000000,1110.308913,9548.656652
4116.617975,-536.266849,-74.020594,10140.821405
4116.618290,-536.266849,-1406.391290,10214.842000
4116.618606,-459.657299,-1480.411884,10214.842000
4116.618921,306.438199,-1036.288319,9918.759623
4116.619236,459.657299,74.020594,9548.656652
4116.619551,229.828649,1110.308913,8882.471304
4116.619866,842.705048,1184.329507,9252.574275
4116.620182,383.047749,1554.432478,9770.718434
4116.620497,0.000000,962.267725,9104.533087
4116.620812,-306.438199,-222.061783,9548.656652
4116.621127,-383.047749,-1036.288319,9548.656652
4116.621442,306.438199,-1258.350101,9474.636058
4116.621758,1149.143247,-888.247130,9030.512492
4116.622073,306.438199,-0.000000,8808.450710
4116.622388,383.047749,518.144159,9770.718434
4116.622703,459.657299,1110.308913,9770.718434
4116.623018,229.828649,740.205942,9622.677246
4116.623334,0.000000,222.061783,9770.718434
4116.623649,-689.485948,-962.267725,9992.780217
4116.623964,0.000000,-1628.453072,9400.615463
4116.624279,536.266849,-1628.453072,9326.594869
4116.624594,995.924147,-740.205942,9252.574275
4116.624910,612.876398,296.082377,8586.388927
4116.625225,766.095498,1110.308913,8586.388927
4116.625540,306.438199,1258.350101,9104.533087
4116.625855,76.609550,518.144159,9770.718434
4116.626170,-229.828649,-444.123565,10214.842000
4116.626486,-383.047749,-1702.473667,10362.883188
4116.626801,0.000000,-2590.720797,10066.800811
4116.627116,383.047749,-1702.473667,9622.677246
4116.627431,612.876398,-740.205942,9252.574275
4116.627746,536.266849,518.144159,9030.512492
4116.628062,612.876398,1332.370696,8956.491898
4116.628377,689.485948,1480.411884,9178.553681
4116.628692,306.438199,888.247130,9400.615463
4116.629007,-306.438199,-74.020594,9918.759623
4116.629322,-306.438199,-1554.432478,10288.862594
4116.629638,-383.047749,-1998.556043,9918.759623
4116.629953,459.657299,-1554.432478,10510.924376
4116.630268,383.047749,-740.205942,9770.718434
4116.630583,153.219100,444.123565,9252.574275
4116.630898,229.828649,1036.288319,9770.718434
4116.631214,229.828649,1850.514855,9622.677246
4116.631529,76.609550,962.267725,9844.739029
4116.631844,-306.438199,-222.061783,10066.800811
4116.632159,-153.219100,-1258.350101,10140.821405
4116.632474,153.219100,-1258.350101,9474.636058
4116.632790,766.095498,-74.020594,8882.471304
4116.633105,689.485948,814.226536,9178.553681
4116.633420,689.485948,1702.473667,9178.553681
4116.633735,612.876398,2146.597232,9696.697840
4116.634050,76.609550,1628.453072,9844.739029
4116.634366,0.000000,370.102971,9918.759623
4116.634681,-383.047749,-74.020594,10214.842000
4116.634996,-306.438199,-962.267725,10066.800811
4116.635311,0.000000,-1036.288319,9844.739029
4116.635626,0.000000,-148.041188,9474.636058
4116.635942,689.485948,1258.350101,8660.409521
4116.636257,766.095498,2146.597232,8660.409521
4116.636572,842.705048,2664.741391,9178.553681
4116.636887,0.000000,1924.535449,9770.718434
4116.637202,-229.828649,592.164754,10140.821405
4116.637518,-842.705048,-444.123565,10140.821405
4116.637833,-536.266849,-1554.432478,10732.986159
4116.638148,0.000000,-1258.350101,10214.842000
4116.638463,-153.219100,-370.102971,9918.759623
4116.638778,0.000000,444.123565,9252.574275
4116.639094,306.438199,1702.473667,9104.533087
4116.639409,76.609550,1998.556043,9400.615463
4116.639724,-153.219100,1184.329507,9844.739029
4116.640039,0.000000,148.041188,9622.677246
4116.640354,-689.485948,-740.205942,9918.759623
4116.640670,-612.876398,-1702.473667,9696.697840
4116.640985,76.609550,-1110.308913,9474.636058
4116.641300,229.828649,-518.144159,9104.533087
4116.641615,0.000000,740.205942,9104.533087
4116.641930,459.657299,1406.391290,9326.594869
4116.642246,306.438199,1480.411884,9474.636058
4116.642561,76.609550,888.247130,9770.718434
4116.642876,-459.657299,-74.020594,10140.821405
4116.643191,-536.266849,-1036.288319,10288.862594
4116.643506,0.000000,-1332.370696,9622.677246
4116.643822,919.314598,-592.164754,9474.636058
4116.644137,1378.971896,148.041188,9178.553681
4116.644452,995.924147,1258.350101,8956.491898
4116.644767,919.314598,1702.473667,8956.491898
4116.645082,689.485948,1480.411884,9474.636058
4116.645398,153.219100,888.247130,9474.636058
4116.645713,229.828649,-518.144159,10140.821405
4116.646028,76.609550,-1776.494261,9696.697840
4116.646343,383.047749,-1628.453072,9326.594869
4116.646658,612.876398,-148.041188,9030.512492
4116.646973,766.095498,444.123565,8438.347739
4116.647288,842.705048,1036.288319,9104.533087
4116.647603,459.657299,1702.473667,9548.656652
4116.647919,306.438199,1480.411884,9622.677246
4116.648234,229.828649,444.123565,9622.677246
4116.648549,-612.876398,-592.164754,10362.883188
4116.648864,-612.876398,-1628.453072,10214.842000
4116.649179,-306.438199,-1554.432478,10288.862594
4116.649494,76.609550,-444.123565,9918.759623
4116.649809,0.000000,370.102971,9178.553681
4116.650124,383.047749,1332.370696,8956.491898
4116.650439,612.876398,1184.329507,9474.636058
4116.650754,76.609550,1036.288319,9622.677246
4116.651069,-459.657299,-222.061783,9844.739029
4116.651385,-689.485948,-1480.411884,9918.759623
4116.651700,-153.219100,-1850.514855,9844.739029
4116.652015,0.000000,-1702.473667,9548.656652
4116.652330,229.828649,-740.205942,9104.533087
4116.652645,153.219100,-0.000000,9104.533087
4116.652960,306.438199,962.267725,9252.574275
4116.653275,229.828649,1110.308913,9696.697840
4116.653590,-536.266849,444.123565,9844.739029
4116.653905,-919.314598,-444.123565,10066.800811
4116.654220,-1072.533697,-1258.350101,10362.883188
4116.654535,-995.924147,-2072.576638,10140.821405
4116.654851,0.000000,-1258.350101,9992.780217
4116.655166,229.828649,-0.000000,9474.636058
4116.655481,0.000000,1480.411884,9178.553681
4116.655796,459.657299,2146.597232,9030.512492
4116.656111,229.828649,1998.556043,9326.594869
4116.656426,0.000000,888.247130,9548.656652
4116.656741,-536.266849,-74.020594,9918.759623
4116.657056,-536.266849,-1110.308913,10214.842000
4116.657371,-612.876398,-1480.411884,9844.739029
4116.657686,153.219100,-592.164754,9548.656652
4116.658001,459.657299,444.123565,9104.533087
4116.658317,306.438199,1628.453072,8660.409521
4116.658632,536.266849,2072.576638,9326.594869
4116.658947,306.438199,1702.473667,9622.677246
4116.659262,0.000000,1258.350101,9474.636058
4116.659577,0.000000,-0.000000,9548.656652
4116.659892,-536.266849,-888.247130,9696.697840
4116.660207,0.000000,-1184.329507,9548.656652
4116.660522,536.266849,-592.164754,9622.677246
4116.660837,766.095498,888.247130,9030.512492
4116.661152,919.314598,2072.576638,9104.533087
4116.661467,1149.143247,2220.617826,9474.636058
4116.661783,842.705048,2146.597232,9400.615463
4116.662098,536.266849,740.205942,9696.697840
4116.662413,229.828649,-222.061783,9844.739029
4116.662728,76.609550,-1036.288319,10288.862594
4116.663043,383.047749,-1036.288319,9548.656652
4116.663358,1225.752797,-0.000000,9696.697840
4116.663673,1149.143247,962.267725,9178.553681
4116.663988,919.314598,1480.411884,9030.512492
4116.664303,919.314598,1480.411884,9844.739029
4116.664618,306.438199,740.205942,10140.821405
4116.664933,0.000000,-148.041188,10510.924376
4116.665249,-229.828649,-518.144159,10510.924376
4116.665564,-229.828649,-1406.391290,10362.883188
4116.665879,153.219100,-962.267725,10140.821405
4116.666194,536.266849,-222.061783,9622.677246
4116.666509,1225.752797,814.226536,9474.636058
4116.666824,536.266849,1628.453072,9918.759623
4116.667139,459.657299,2072.576638,9474.636058
4116.667454,-153.219100,1110.308913,9918.759623
4116.667769,-689.485948,296.082377,10140.821405
4116.668084,-842.705048,-1036.288319,10362.883188
4116.668399,-842.705048,-1850.514855,10066.800811
4116.668714,-153.219100,-1406.391290,9696.697840
4116.669030,0.000000,-444.123565,9178.553681
4116.669345,76.609550,740.205942,8734.430116
4116.669660,0.000000,1480.411884,9400.615463
4116.669975,229.828649,1850.514855,9474.636058
4116.670290,-383.047749,888.247130,9696.697840
4116.670605,-536.266849,-0.000000,9474.636058
4116.670920,-1378.971896,-1332.370696,9696.697840
4116.671235,-689.485948,-1924.535449,9918.759623
4116.671550,0.000000,-1480.411884,9474.636058
4116.671865,306.438199,-0.000000,8734.430116
4116.672180,306.438199,1406.391290,8808.450710
4116.672496,766.095498,1776.494261,9030.512492
4116.672811,536.266849,1554.432478,9030.512492
4116.673126,153.219100,370.102971,9252.574275
4116.673441,-306.438199,-666.185348,9770.718434
4116.673756,-383.047749,-1776.494261,9548.656652
4116.674071,153.219100,-1998.556043,9400.615463
4116.674386,536.266849,-1258.350101,8734.430116
4116.674701,919.314598,-0.000000,8660.409521
4116.675016,919.314598,1036.288319,8586.388927
4116.675331,1302.362347,1776.494261,9252.574275
4116.675646,383.047749,1184.329507,9326.594869
4116.675962,0.000000,148.041188,9622.677246
4116.676277,-306.438199,-962.267725,9770.718434
4116.676592,153.219100,-1924.535449,10288.862594
4116.676907,229.828649,-1480.411884,10288.862594
4116.677222,459.657299,-444.123565,9770.718434
4116.677537,536.266849,370.102971,9030.512492
4116.677852,306.438199,1258.350101,9474.636058
4116.678167,612.876398,1776.494261,9474.636058
4116.678482,76.609550,1332.370696,10066.800811
4116.678797,-153.219100,518.144159,9918.759623
4116.679112,-919.314598,-814.226536,10288.862594
4116.679428,-229.828649,-1184.329507,10288.862594
4116.679743,153.219100,-1258.350101,10584.944971
4116.680058,383.047749,-148.041188,9474.636058
4116.680373,383.047749,1110.308913,9400.615463
4116.680688,459.657299,1998.556043,9030.512492
4116.681003,919.314598,1998.556043,9696.697840
4116.681318,76.609550,1332.370696,9844.739029
4116.681633,-995.924147,148.041188,9992.780217
4116.681948,-1072.533697,-592.164754,10362.883188
4116.682263,-612.876398,-1110.308913,9992.780217
4116.682578,459.657299,-1184.329507,9696.697840
4116.682894,612.876398,74.020594,9178.553681
4116.683209,995.924147,1998.556043,8882.471304
4116.683524,842.705048,2368.659014,8882.471304
4116.683839,995.924147,2442.679609,9030.512492
4116.684154,689.485948,1702.473667,9696.697840
4116.684469,0.000000,592.164754,9918.759623
4116.684784,0.000000,-592.164754,9844.739029
4116.685099,0.000000,-962.267725,9548.656652
4116.685414,229.828649,-962.267725,9548.656652
4116.685729,612.876398,-0.000000,9474.636058
4116.686044,229.828649,740.205942,9326.594869
4116.686360,229.828649,1480.411884,8956.491898
4116.686675,-383.047749,1110.308913,9696.697840
4116.686990,-459.657299,666.185348,9696.697840
4116.687305,-995.924147,-962.267725,10658.965565
4116.687620,-766.095498,-1554.432478,10362.883188
4116.687935,-306.438199,-1480.411884,9992.780217
4116.688250,842.705048,-444.123565,9474.636058
4116.688565,995.924147,1258.350101,8734.430116
4116.688880,1149.143247,2146.597232,8216.285956
4116.689195,1302.362347,1998.556043,9104.533087
4116.689510,766.095498,1924.535449,9252.574275
4116.689826,0.000000,-0.000000,9770.718434
4116.690141,-306.438199,-740.205942,10362.883188
4116.690456,-842.705048,-1776.494261,10658.965565
4116.690771,-612.876398,-1924.535449,10288.862594
4116.691086,0.000000,-1258.350101,9844.739029
4116.691401,0.000000,-370.102971,9326.594869
4116.691716,76.609550,222.061783,9548.656652
4116.692031,0.000000,740.205942,9918.759623
4116.692346,-459.657299,666.185348,9696.697840
4116.692661,-229.828649,-0.000000,9622.677246
4116.692976,-383.047749,-740.205942,9474.636058
4116.693292,0.000000,-1776.494261,9548.656652
4116.693607,153.219100,-1480.411884,9474.636058
4116.693922,919.314598,-592.164754,8586.388927
4116.694237,919.314598,814.226536,8512.368333
4116.694552,536.266849,1406.391290,8882.471304
4116.694867,612.876398,1110.308913,9104.533087
4116.695182,0.000000,-0.000000,9474.636058
4116.695497,-1302.362347,-814.226536,10066.800811
4116.695812,-1302.362347,-1924.535449,10214.842000
4116.696127,-766.095498,-2442.679609,9918.759623
4116.696442,0.000000,-1998.556043,9548.656652
4116.696757,766.095498,-518.144159,9030.512492
4116.697073,0.000000,740.205942,8882.471304
4116.697388,383.047749,1406.391290,9104.533087
4116.697703,689.485948,1628.453072,9326.594869
4116.698018,459.657299,814.226536,9474.636058
4116.698333,0.000000,222.061783,10066.800811
4116.698648,0.000000,-962.267725,9770.718434
4116.698963,153.219100,-1258.350101,9770.718434
4116.699278,459.657299,-1110.308913,9548.656652
4116.699593,612.876398,-0.000000,8956.491898
4116.699908,536.266849,1554.432478,9400.615463
4116.700223,383.047749,1628.453072,9696.697840
4116.700539,229.828649,1480.411884,9326.594869
4116.700854,0.000000,370.102971,10140.821405
4116.701169,-536.266849,-666.185348,10214.842000
4116.701484,-536.266849,-1554.432478,10510.924376
4116.701799,76.609550,-1036.288319,10214.842000
4116.702114,919.314598,-370.102971,9622.677246
4116.702429,1225.752797,740.205942,9104.533087
4116.702744,1225.752797,2072.576638,9030.512492
4116.703059,1225.752797,2516.700203,9474.636058
4116.703374,919.314598,1924.535449,9400.615463
4116.703689,766.095498,1480.411884,9548.656652
4116.704005,76.609550,-444.123565,9696.697840
4116.704320,-229.828649,-1480.411884,9918.759623
4116.704635,0.000000,-962.267725,9844.739029
4116.704950,689.485948,-740.205942,9548.656652
4116.705265,536.266849,444.123565,9252.574275
4116.705580,0.000000,962.267725,9400.615463
4116.705895,76.609550,962.267725,9696.697840
4116.706210,-536.266849,666.185348,10066.800811
4116.706525,-536.266849,592.164754,9992.780217
4116.706840,-766.095498,-444.123565,10140.821405
4116.707155,0.000000,-1110.308913,9844.739029
4116.707471,306.438199,-666.185348,9770.718434
4116.707786,689.485948,296.082377,9178.553681
4116.708101,536.266849,1184.329507,8734.430116
4116.708416,306.438199,1924.535449,9104.533087
4116.708731,229.828649,1850.514855,9474.636058
4116.709046,-536.266849,1184.329507,10214.842000
4116.709361,-995.924147,-666.185348,10288.862594
4116.709676,-1149.143247,-1406.391290,11103.089130
4116.709991,-689.485948,-1628.453072,10362.883188
4116.710306,-153.219100,-1184.329507,9844.739029
4116.710621,153.219100,-74.020594,9474.636058
4116.710937,306.438199,1258.350101,8734.430116
4116.711252,612.876398,1554.432478,8438.347739
4116.711567,383.047749,1628.453072,9104.533087
4116.711882,0.000000,1036.288319,9326.594869
4116.712197,-536.266849,444.123565,9696.697840
4116.712512,-536.266849,-1332.370696,9770.718434
4116.712827,-306.438199,-1554.432478,9696.697840
4116.713142,229.828649,-1258.350101,9326.594869
4116.713457,76.609550,-222.061783,9030.512492
4116.713772,153.219100,740.205942,9770.718434
4116.714087,76.609550,1554.432478,10140.821405
4116.714403,0.000000,1406.391290,9252.574275
4116.714718,-229.828649,518.144159,9622.677246
4116.715033,-383.047749,-148.041188,9918.759623
4116.715348,0.000000,-1258.350101,9696.697840
4116.715663,0.000000,-1184.329507,9104.533087
4116.715978,689.485948,-1036.288319,9178.553681
4116.716293,689.485948,518.144159,8660.409521
4116.716608,459.657299,1184.329507,8512.368333
4116.716923,612.876398,1406.391290,9474.636058
4116.717238,76.609550,814.226536,9918.759623
4116.717553,229.828649,222.061783,9918.759623
4116.717869,-153.219100,-592.164754,9992.780217
4116.718184,-612.876398,-1480.411884,10214.842000
4116.718499,0.000000,-1332.370696,9992.780217
4116.718814,536.266849,-148.041188,9474.636058
4116.719129,536.266849,888.247130,8882.471304
4116.719444,766.095498,1776.494261,9474.636058
4116.719759,995.924147,2072.576638,9548.656652
4116.720074,306.438199,1406.391290,9696.697840
4116.720389,153.219100,222.061783,10066.800811
4116.720704,-459.657299,-592.164754,10140.821405
4116.721019,0.000000,-1406.391290,10214.842000
4116.721335,153.219100,-1332.370696,10214.842000
4116.721650,76.609550,-518.144159,10066.800811
4116.721965,153.219100,518.144159,9104.533087
4116.722280,153.219100,1628.453072,9400.615463
4116.722595,153.219100,1628.453072,9474.636058
4116.722910,0.000000,1184.329507,10288.862594
4116.723225,-995.924147,-0.000000,10140.821405
4116.723540,-689.485948,-592.164754,9918.759623
4116.723855,0.000000,-1110.308913,9622.677246
4116.724170,536.266849,-814.226536,9400.615463
4116.724485,689.485948,296.082377,9622.677246
4116.724800,306.438199,1332.370696,9400.615463
4116.725116,612.876398,1776.494261,9548.656652
4116.725431,459.657299,1554.432478,9622.677246
4116.725746,0.000000,740.205942,9844.739029
4116.726061,-153.219100,-148.041188,10436.903782
4116.726376,-842.705048,-1184.329507,10288.862594
4116.726691,0.000000,-1258.350101,10066.800811
4116.727006,612.876398,-814.226536,9252.574275
4116.727321,689.485948,-0.000000,8808.450710
4116.727636,536.266849,888.247130,9104.533087
4116.727951,612.876398,1406.391290,9400.615463
4116.728266,306.438199,1110.308913,9474.636058
4116.728582,76.609550,370.102971,9474.636058
4116.728897,229.828649,-444.123565,9992.780217
4116.729212,229.828649,-1480.411884,10140.821405
4116.729527,0.000000,-1406.391290,9400.615463
4116.729842,459.657299,-1110.308913,9548.656652
4116.730157,766.095498,-0.000000,9252.574275
4116.730472,612.876398,1258.350101,9326.594869
4116.730787,766.095498,1702.473667,9326.594869
4116.731102,459.657299,1332.370696,9474.636058
4116.731417,0.000000,296.082377,9622.677246
4116.731732,-229.828649,-888.247130,9622.677246
4116.732048,0.000000,-1998.556043,9918.759623
4116.732363,0.000000,-1258.350101,9622.677246
4116.732678,306.438199,-518.144159,9474.636058
4116.732993,0.000000,296.082377,8512.368333
4116.733308,0.000000,1406.391290,8956.491898
4116.733623,306.438199,1332.370696,9400.615463
4116.733938,-689.485948,814.226536,9770.718434
4116.734253,-612.876398,-0.000000,9770.718434
4116.734568,-842.705048,-666.185348,9696.697840
4116.734883,-459.657299,-1554.432478,9400.615463
4116.735198,0.000000,-962.267725,9474.636058
4116.735514,76.609550,-0.000000,9474.636058
4116.735829,0.000000,740.205942,8808.450710
4116.736144,76.609550,1850.514855,9474.636058
4116.736459,0.000000,1110.308913,9474.636058
4116.736774,-306.438199,962.267725,9696.697840
4116.737089,-689.485948,74.020594,10066.800811
4116.737404,-1149.143247,-814.226536,9918.759623
4116.737719,-919.314598,-1406.391290,9400.615463
4116.738034,-229.828649,-1110.308913,9548.656652
4116.738349,76.609550,-0.000000,9030.512492
4116.738664,306.438199,1332.370696,8956.491898
4116.738980,153.219100,1850.514855,9178.553681
4116.739295,536.266849,2442.679609,9400.615463
4116.739610,0.000000,1628.453072,10140.821405
4116.739925,-459.657299,296.082377,9992.780217
4116.740240,-459.657299,-222.061783,10362.883188
4116.740555,0.000000,-1184.329507,9844.739029
4116.740870,459.657299,-444.123565,9548.656652
4116.741185,459.657299,296.082377,9918.759623
4116.741500,536.266849,1628.453072,9104.533087
4116.741815,612.876398,1850.514855,9548.656652
4116.742130,689.485948,1998.556043,9622.677246
4116.742446,612.876398,962.267725,10140.821405
4116.742761,-153.219100,-148.041188,10140.821405
4116.743076,-689.485948,-1258.350101,10510.924376
4116.743391,0.000000,-1184.329507,10362.883188
4116.743706,689.485948,-518.144159,10066.800811
4116.744021,612.876398,370.102971,9770.718434
4116.744336,766.095498,1184.329507,9622.677246
4116.744651,1302.362347,1184.329507,9696.697840
4116.744966,842.705048,1406.391290,9918.759623
4116.745281,766.095498,592.164754,9696.697840
4116.745596,689.485948,-370.102971,9696.697840
4116.745912,536.266849,-1184.329507,9326.594869
4116.746227,536.266849,-1258.350101,9104.533087
4116.746542,995.924147,-148.041188,9400.615463
4116.746857,689.485948,444.123565,8956.491898
4116.747172,766.095498,1036.288319,9178.553681
4116.747487,766.095498,1184.329507,9474.636058
4116.747803,306.438199,-0.000000,9474.636058
4116.748118,-229.828649,-296.082377,9992.780217
4116.748433,-1072.533697,-1332.370696,10140.821405
4116.748749,-1149.143247,-2072.576638,9992.780217
4116.749064,0.000000,-1776.494261,9178.553681
4116.749379,383.047749,-740.205942,9400.615463
4116.749694,153.219100,740.205942,9030.512492
4116.750010,76.609550,1554.432478,8882.471304
4116.750325,153.219100,1924.535449,9474.636058
4116.750640,0.000000,1036.288319,10140.821405
4116.750956,-459.657299,-0.000000,9474.636058
4116.751271,-995.924147,-1258.350101,9918.759623
4116.751586,-689.485948,-1554.432478,9178.553681
4116.751902,-459.657299,-1628.453072,9770.718434
4116.752217,-229.828649,-814.226536,9252.574275
4116.752532,-383.047749,370.102971,9474.636058
4116.752847,-459.657299,1036.288319,9400.615463
4116.753163,-153.219100,962.267725,9474.636058
4116.753478,-766.095498,444.123565,9474.636058
4116.753793,-995.924147,-222.061783,9326.594869
4116.754109,-1225.752797,-962.267725,9918.759623
4116.754424,-536.266849,-1406.391290,9474.636058
4116.754739,383.047749,-518.144159,9474.636058
4116.755055,689.485948,-0.000000,9178.553681
4116.755370,459.657299,888.247130,8808.450710
4116.755685,306.438199,1406.391290,9622.677246
4116.756001,306.438199,1480.411884,9622.677246
4116.756316,0.000000,518.144159,10066.800811
4116.756631,-153.219100,-444.123565,9918.759623
4116.756946,-612.876398,-1332.370696,10140.821405
4116.757262,229.828649,-1480.411884,9622.677246
4116.757577,842.705048,-814.226536,9400.615463
4116.757892,766.095498,-148.041188,9104.533087
4116.758208,459.657299,814.226536,9104.533087
4116.758523,995.924147,1480.411884,9770.718434
4116.758838,919.314598,1332.370696,9474.636058
4116.759154,306.438199,666.185348,9992.780217
4116.759469,0.000000,-370.102971,9992.780217
4116.759784,229.828649,-1332.370696,9918.759623
4116.760099,995.924147,-962.267725,9844.739029
4116.760415,1149.143247,-74.020594,9326.594869
4116.760730,1225.752797,962.267725,9030.512492
4116.761045,1225.752797,1628.453072,9030.512492
4116.761361,919.314598,1924.535449,9696.697840
4116.761676,153.219100,1702.473667,10140.821405
4116.761991,-76.609550,814.226536,10066.800811
4116.762307,-459.657299,-592.164754,10066.800811
4116.762622,-459.657299,-1332.370696,9770.718434
4116.762937,383.047749,-1036.288319,9770.718434
4116.763252,689.485948,-444.123565,9474.636058
4116.763568,153.219100,888.247130,8956.491898
4116.763883,383.047749,1850.514855,9178.553681
4116.764198,459.657299,2220.617826,9474.636058
4116.764514,76.609550,1480.411884,9474.636058
4116.764829,0.000000,814.226536,9696.697840
4116.765144,-306.438199,-148.041188,9548.656652
4116.765460,-383.047749,-666.185348,9474.636058
4116.765775,153.219100,-592.164754,9326.594869
4116.766090,0.000000,-0.000000,9474.636058
4116.766405,-383.047749,1110.308913,9252.574275
4116.766721,-229.828649,1554.432478,9696.697840
4116.767036,0.000000,1702.473667,9770.718434
4116.767351,-689.485948,1258.350101,10066.800811
4116.767667,-1149.143247,-296.082377,9770.718434
4116.767982,-919.314598,-962.267725,10436.903782
4116.768297,-995.924147,-1036.288319,9696.697840
4116.768613,76.609550,-740.205942,9474.636058
4116.768928,459.657299,518.144159,9326.594869
4116.769243,536.266849,1332.370696,9104.533087
4116.769558,459.657299,1998.556043,8956.491898
4116.769874,383.047749,1850.514855,9326.594869
4116.770189,-153.219100,518.144159,10066.800811
4116.770504,-536.266849,-888.247130,10288.862594
4116.770820,-459.657299,-1850.514855,10288.862594
4116.771135,-229.828649,-1702.473667,10066.800811
4116.771450,229.828649,-1258.350101,9844.739029
4116.771766,536.266849,-0.000000,9474.636058
4116.772081,766.095498,1036.288319,9474.636058
4116.772396,766.095498,1184.329507,9622.677246
4116.772711,459.657299,1554.432478,9696.697840
4116.773027,229.828649,592.164754,9696.697840
4116.773342,153.219100,-148.041188,9622.677246
4116.773657,153.219100,-1110.308913,9770.718434
4116.773973,689.485948,-1184.329507,9474.636058
4116.774288,995.924147,-1110.308913,9474.636058
4116.774603,995.924147,222.061783,8882.471304
4116.774919,689.485948,592.164754,9104.533087
4116.775234,766.095498,1036.288319,9992.780217
4116.775549,0.000000,666.185348,9918.759623
4116.775864,-153.219100,-0.000000,9474.636058
4116.776180,-536.266849,-1036.288319,9770.718434
4116.776495,-383.047749,-1776.494261,9770.718434
4116.776810,0.000000,-1554.432478,9622.677246
4116.777126,0.000000,-444.123565,9400.615463
4116.777441,383.047749,518.144159,8956.491898
4116.777756,229.828649,1258.350101,9474.636058
4116.778072,612.876398,1924.535449,9622.677246
4116.778387,229.828649,1406.391290,9696.697840
4116.778702,0.000000,222.061783,9474.636058
4116.779017,0.000000,-370.102971,9474.636058
4116.779333,459.657299,-1332.370696,9326.594869
4116.779648,459.657299,-1110.308913,9400.615463
4116.779963,842.705048,-0.000000,9104.533087
4116.780279,306.438199,1036.288319,8734.430116
4116.780594,229.828649,1554.432478,8882.471304
4116.780909,0.000000,1184.329507,9400.615463
4116.781225,-689.485948,444.123565,9622.677246
4116.781540,-919.314598,-740.205942,10066.800811
4116.781855,-995.924147,-1776.494261,9992.780217
4116.782170,-459.657299,-1850.514855,9918.759623
4116.782486,229.828649,-666.185348,9696.697840
4116.782801,383.047749,444.123565,9326.594869
4116.783116,919.314598,1628.453072,8956.491898
4116.783432,1302.362347,1998.556043,9326.594869
4116.783747,995.924147,1998.556043,9622.677246
4116.784062,153.219100,1184.329507,9844.739029
4116.784378,0.000000,296.082377,9770.718434
4116.784693,-536.266849,-1036.288319,9992.780217
4116.785008,0.000000,-1110.308913,9696.697840
4116.785323,0.000000,-666.185348,9770.718434
4116.785639,-229.828649,-222.061783,9770.718434
4116.785954,-459.657299,740.205942,9992.780217
4116.786269,0.000000,962.267725,10436.903782
4116.786585,-306.438199,592.164754,9992.780217
4116.786900,-459.657299,592.164754,10214.842000
4116.787215,-383.047749,-74.020594,9992.780217
4116.787531,-306.438199,-518.144159,9918.759623
4116.787846,0.000000,-444.123565,9474.636058
4116.788161,612.876398,-518.144159,9178.553681
4116.788476,689.485948,1110.308913,8882.471304
4116.788792,536.266849,1554.432478,9400.615463
4116.789107,383.047749,1480.411884,9844.739029
4116.789422,0.000000,1332.370696,9918.759623
4116.789738,-919.314598,296.082377,10066.800811
4116.790053,-995.924147,-888.247130,9918.759623
4116.790368,-689.485948,-1554.432478,10066.800811
4116.790684,-153.219100,-1258.350101,9770.718434
4116.790999,76.609550,-222.061783,8882.471304
4116.791314,0.000000,592.164754,9252.574275
4116.791629,766.095498,1332.370696,8808.450710
4116.791945,459.657299,1776.494261,9030.512492
4116.792260,0.000000,1258.350101,9474.636058
4116.792575,153.219100,370.102971,9622.677246
4116.792891,0.000000,-296.082377,9992.780217
4116.793206,229.828649,-1036.288319,9548.656652
4116.793521,689.485948,-666.185348,9474.636058
4116.793837,459.657299,222.061783,9104.533087
4116.794152,383.047749,888.247130,8956.491898
4116.794467,459.657299,1184.329507,9696.697840
4116.794782,306.438199,1850.514855,9844.739029
4116.795098,0.000000,1036.288319,9696.697840
4116.795413,-383.047749,296.082377,9844.739029
4116.795728,-306.438199,-1110.308913,9918.759623
4116.796044,0.000000,-814.226536,10140.821405
4116.796359,689.485948,-888.247130,9696.697840
4116.796674,766.095498,-148.041188,9326.594869
4116.796990,612.876398,1110.308913,9252.574275
4116.797305,842.705048,1406.391290,9474.636058
4116.797620,612.876398,1184.329507,9548.656652
4116.797935,0.000000,370.102971,9918.759623
4116.798251,76.609550,-296.082377,10066.800811
4116.798566,0.000000,-1036.288319,9844.739029
4116.798881,612.876398,-1036.288319,9770.718434
4116.799197,459.657299,-666.185348,9474.636058
4116.799512,536.266849,-0.000000,8882.471304
4116.799827,306.438199,740.205942,9918.759623
4116.800143,459.657299,1184.329507,10066.800811
4116.800458,306.438199,592.164754,10658.965565
4116.800773,0.000000,222.061783,10214.842000
4116.801088,0.000000,-740.205942,9992.780217
4116.801404,76.609550,-1036.288319,10362.883188
4116.801719,153.219100,-1110.308913,9474.636058
4116.802034,842.705048,-518.144159,9918.759623
4116.802350,536.266849,148.041188,9030.512492
4116.802665,612.876398,888.247130,8808.450710
4116.802980,536.266849,1110.308913,9474.636058
4116.803296,-229.828649,740.205942,9548.656652
4116.803611,-306.438199,-0.000000,9696.697840
4116.803926,-689.485948,-1036.288319,9918.759623
4116.804241,-383.047749,-1628.453072,9844.739029
4116.804557,-153.219100,-1110.308913,9696.697840
4116.804872,0.000000,-740.205942,9252.574275
4116.805187,229.828649,222.061783,9474.636058
4116.805503,0.000000,1036.288319,9474.636058
4116.805818,459.657299,1702.473667,9696.697840
4116.806133,0.000000,1480.411884,9474.636058
4116.806449,383.047749,222.061783,9622.677246
4116.806764,-383.047749,-444.123565,9770.718434
4116.807079,-153.219100,-1036.288319,9474.636058
4116.807394,153.219100,-888.247130,8956.491898
4116.807710,153.219100,296.082377,9400.615463
4116.808025,76.609550,1332.370696,9252.574275
4116.808340,383.047749,1258.350101,8956.491898
4116.808656,0.000000,1184.329507,9844.739029
4116.808971,-459.657299,666.185348,9992.780217
4116.809286,-689.485948,-518.144159,9918.759623
4116.809602,-153.219100,-1480.411884,9918.759623
4116.809917,153.219100,-1110.308913,9844.739029
4116.810232,842.705048,-592.164754,9474.636058
4116.810547,689.485948,148.041188,8734.430116
4116.810863,919.314598,888.247130,9474.636058
4116.811178,1302.362347,1628.453072,9474.636058
4116.811493,766.095498,1332.370696,9104.533087
4116.811809,229.828649,666.185348,9474.636058
4116.812124,0.000000,-296.082377,10362.883188
4116.812439,0.000000,-1554.432478,10436.903782
4116.812755,0.000000,-1776.494261,10140.821405
4116.813070,153.219100,-1036.288319,10362.883188
4116.813385,0.000000,222.061783,9474.636058
4116.813700,76.609550,1258.350101,9252.574275
4116.814016,459.657299,1480.411884,9770.718434
4116.814331,306.438199,1406.391290,9548.656652
4116.814646,0.000000,592.164754,9622.677246
4116.814962,-459.657299,-518.144159,9622.677246
4116.815277,76.609550,-1258.350101,9770.718434
4116.815592,0.000000,-888.247130,9696.697840
4116.815908,229.828649,-592.164754,9326.594869
4116.816223,612.876398,-0.000000,9030.512492
4116.816538,76.609550,1036.288319,9622.677246
4116.816853,153.219100,962.267725,9844.739029
4116.817169,-229.828649,1110.308913,9918.759623
4116.817484,-689.485948,-0.000000,9622.677246
4116.817799,-689.485948,-888.247130,9992.780217
4116.818115,-459.657299,-1258.350101,9918.759623
4116.818430,0.000000,-740.205942,9918.759623
4116.818745,76.609550,148.041188,9622.677246
4116.819061,306.438199,1406.391290,8512.368333
4116.819376,536.266849,2294.638420,9474.636058
4116.819691,153.219100,1998.556043,10066.800811
4116.820007,0.000000,962.267725,9918.759623
4116.820322,-536.266849,-0.000000,10066.800811
4116.820637,-995.924147,-666.185348,9992.780217
4116.820952,-459.657299,-962.267725,9696.697840
4116.821268,536.266849,-814.226536,9474.636058
4116.821583,0.000000,-0.000000,9400.615463
4116.821898,0.000000,1036.288319,9326.594869
4116.822214,0.000000,1406.391290,8956.491898
4116.822529,0.000000,1036.288319,9696.697840
4116.822844,-612.876398,666.185348,9548.656652
4116.823160,-995.924147,-666.185348,10140.821405
4116.823475,-536.266849,-1036.288319,9696.697840
4116.823790,229.828649,-1258.350101,9400.615463
4116.824105,1072.533697,-444.123565,9696.697840
4116.824421,1149.143247,-0.000000,8808.450710
4116.824736,766.095498,1554.432478,9252.574275
4116.825051,1302.362347,1850.514855,9474.636058
4116.825367,842.705048,1702.473667,9178.553681
4116.825682,76.609550,962.267725,9622.677246
4116.825997,-306.438199,-518.144159,10140.821405
4116.826313,-459.657299,-1554.432478,10140.821405
4116.826628,229.828649,-1332.370696,9548.656652
4116.826943,612.876398,-1036.288319,9474.636058
4116.827258,536.266849,-0.000000,9548.656652
4116.827574,536.266849,962.267725,9918.759623
4116.827889,76.609550,1628.453072,9474.636058
4116.828204,536.266849,1702.473667,9474.636058
4116.828520,229.828649,518.144159,9622.677246
4116.828835,153.219100,-370.102971,9548.656652
4116.829150,766.095498,-740.205942,9548.656652
4116.829466,995.924147,-222.061783,9548.656652
4116.829781,1072.533697,-222.061783,9400.615463
4116.830096,919.314598,888.247130,8734.430116
4116.830411,459.657299,1332.370696,9696.697840
4116.830727,383.047749,1776.494261,9548.656652
4116.831042,-383.047749,1110.308913,9918.759623
4116.831357,-536.266849,222.061783,9918.759623
4116.831673,-306.438199,-1036.288319,10140.821405
4116.831988,-306.438199,-1406.391290,9918.759623
4116.832303,459.657299,-1406.391290,9622.677246
4116.832619,76.609550,-592.164754,9474.636058
4116.832934,383.047749,740.205942,9104.533087
4116.833249,459.657299,1628.453072,9104.533087
4116.833564,459.657299,1702.473667,9474.636058
4116.833880,306.438199,1110.308913,9548.656652
4116.834195,-229.828649,-148.041188,9622.677246
4116.834510,0.000000,-1258.350101,9770.718434
4116.834826,-229.828649,-1924.535449,9770.718434
4116.835141,383.047749,-1332.370696,9844.739029
4116.835456,229.828649,-74.020594,9326.594869
4116.835772,76.609550,814.226536,9178.553681
4116.836087,459.657299,1184.329507,9696.697840
4116.836402,383.047749,1036.288319,9918.759623
4116.836717,-153.219100,592.164754,9844.739029
4116.837033,0.000000,-740.205942,10066.800811
4116.837348,-536.266849,-1258.350101,9548.656652
4116.837663,0.000000,-1702.473667,9400.615463
4116.837979,689.485948,-1036.288319,9474.636058
4116.838294,383.047749,370.102971,9326.594869
4116.838609,0.000000,814.226536,9400.615463
4116.838925,612.876398,1406.391290,9548.656652
4116.839240,76.609550,1036.288319,9474.636058
4116.839555,-229.828649,444.123565,9474.636058
4116.839870,-306.438199,-592.164754,9844.739029
4116.840186,-153.219100,-1406.391290,9992.780217
4116.840501,76.609550,-1332.370696,9622.677246
4116.840816,459.657299,-296.082377,9252.574275
4116.841132,536.266849,370.102971,9104.533087
4116.841447,76.609550,1036.288319,9326.594869
4116.841762,612.876398,1776.494261,9252.574275
4116.842078,153.219100,1184.329507,9400.615463
4116.842393,0.000000,-296.082377,9770.718434
4116.842708,-306.438199,-740.205942,9918.759623
4116.843023,-459.657299,-1258.350101,9474.636058
4116.843339,-459.657299,-1480.411884,9030.512492
4116.843654,229.828649,-444.123565,9400.615463
4116.843969,306.438199,296.082377,8956.491898
4116.844285,153.219100,1184.329507,9326.594869
4116.844600,0.000000,1480.411884,9696.697840
4116.844915,-306.438199,888.247130,9992.780217
4116.845231,-612.876398,-0.000000,9770.718434
4116.845546,-459.657299,-1036.288319,9844.739029
4116.845861,0.000000,-1406.391290,9770.718434
4116.846177,383.047749,-444.123565,9474.636058
4116.846492,612.876398,444.123565,9178.553681
4116.846807,536.266849,1702.473667,8882.471304
4116.847123,919.314598,1776.494261,9178.553681
4116.847438,383.047749,1924.535449,9326.594869
4116.847753,0.000000,962.267725,9918.759623
4116.848069,-612.876398,-0.000000,9844.739029
4116.848384,-995.924147,-666.185348,10140.821405
4116.848699,-153.219100,-1110.308913,9918.759623
4116.849015,0.000000,-148.041188,9918.759623
4116.849330,229.828649,444.123565,9400.615463
4116.849645,306.438199,1406.391290,9326.594869
4116.849961,536.266849,2146.597232,9696.697840
4116.850276,459.657299,1924.535449,9918.759623
4116.850591,0.000000,1628.453072,9770.718434
4116.850907,-612.876398,666.185348,9844.739029
4116.851222,-536.266849,-370.102971,10288.862594
4116.851537,383.047749,-444.123565,9696.697840
4116.851853,766.095498,-0.000000,9844.739029
4116.852168,459.657299,962.267725,9474.636058
4116.852483,536.266849,1332.370696,9918.759623
4116.852799,766.095498,1554.432478,9844.739029
4116.853114,459.657299,1554.432478,9844.739029
4116.853429,76.609550,814.226536,9770.718434
4116.853745,-153.219100,-74.020594,10362.883188
4116.854060,-306.438199,-1036.288319,9622.677246
4116.854375,76.609550,-740.205942,9400.615463
4116.854691,612.876398,-444.123565,9400.615463
4116.855006,842.705048,666.185348,9178.553681
4116.855321,536.266849,1554.432478,9474.636058
4116.855637,919.314598,1258.350101,9622.677246
4116.855952,306.438199,888.247130,10288.862594
4116.856267,153.219100,-0.000000,9770.718434
4116.856583,0.000000,-962.267725,9992.780217
4116.856898,-766.095498,-1258.350101,10140.821405
4116.857213,229.828649,-962.267725,9622.677246
4116.857529,229.828649,-666.185348,9400.615463
4116.857844,229.828649,-0.000000,9252.574275
4116.858159,0.000000,814.226536,9474.636058
4116.858475,0.000000,740.205942,9474.636058
4116.858790,-76.609550,666.185348,9696.697840
4116.859105,-842.705048,-370.102971,9548.656652
4116.859421,-689.485948,-1258.350101,9918.759623
4116.859736,-383.047749,-2146.597232,9770.718434
4116.860051,153.219100,-1480.411884,9474.636058
4116.860367,153.219100,-814.226536,9400.615463
4116.860682,0.000000,518.144159,8882.471304
4116.860997,153.219100,962.267725,9252.574275
4116.861313,0.000000,666.185348,10066.800811
4116.861628,-612.876398,518.144159,9474.636058
4116.861943,-842.705048,-444.123565,9178.553681
4116.862259,-842.705048,-1258.350101,9770.718434
4116.862574,-153.219100,-1480.411884,9400.615463
4116.862889,459.657299,-1184.329507,9400.615463
4116.863205,229.828649,-296.082377,9252.574275
4116.863520,0.000000,814.226536,8956.491898
4116.863835,76.609550,1036.288319,9104.533087
4116.864151,919.314598,1258.350101,9252.574275
4116.864466,0.000000,518.144159,9622.677246
4116.864781,-536.266849,-518.144159,9696.697840
4116.865097,0.000000,-1110.308913,9622.677246
4116.865412,153.219100,-1332.370696,9104.533087
4116.865727,1149.143247,-1036.288319,9252.574275
4116.866043,1072.533697,740.205942,8734.430116
4116.866358,842.705048,1850.514855,8586.388927
4116.866673,995.924147,1628.453072,9030.512492
4116.866989,1149.143247,1332.370696,9400.615463
4116.867304,229.828649,444.123565,9696.697840
4116.867619,0.000000,-518.144159,9992.780217
4116.867935,153.219100,-1258.350101,10140.821405
4116.868250,306.438199,-1110.308913,9918.759623
4116.868565,842.705048,-296.082377,9844.739029
4116.868881,766.095498,518.144159,9548.656652
4116.869196,536.266849,1258.350101,9918.759623
4116.869511,689.485948,1554.432478,9622.677246
4116.869827,612.876398,1480.411884,10214.842000
4116.870142,0.000000,444.123565,10288.862594
4116.870457,-306.438199,-0.000000,10436.903782
4116.870773,-536.266849,-370.102971,10732.986159
4116.871088,153.219100,-888.247130,9992.780217
4116.871403,536.266849,74.020594,9696.697840
4116.871719,383.047749,1036.288319,9178.553681
4116.872034,153.219100,1702.473667,9844.739029
4116.872349,0.000000,1924.535449,10140.821405
4116.872665,0.000000,1554.432478,9696.697840
4116.872980,-383.047749,296.082377,9918.759623
4116.873295,-766.095498,-592.164754,9918.759623
4116.873611,0.000000,-1554.432478,10066.800811
4116.873926,-153.219100,-592.164754,9474.636058
4116.874241,0.000000,-0.000000,8808.450710
4116.874557,-383.047749,1184.329507,9178.553681
4116.874872,0.000000,1850.514855,9474.636058
4116.875187,0.000000,1628.453072,9104.533087
4116.875503,-995.924147,1110.308913,10140.821405
4116.875818,-1302.362347,74.020594,10140.821405
4116.876133,-1149.143247,-666.185348,10140.821405
4116.876449,-689.485948,-1036.288319,9696.697840
4116.876764,-306.438199,-592.164754,9474.636058
4116.877079,383.047749,666.185348,9252.574275
4116.877395,229.828649,1850.514855,8586.388927
4116.877710,229.828649,2220.617826,8734.430116
4116.878025,0.000000,1628.453072,9030.512492
4116.878341,-766.095498,740.205942,9400.615463
4116.878656,-842.705048,-444.123565,9696.697840
4116.878971,-1072.533697,-1406.391290,10140.821405
4116.879287,-689.485948,-1850.514855,9696.697840
4116.879602,-229.828649,-1406.391290,9918.759623
4116.879917,0.000000,-296.082377,9622.677246
4116.880233,0.000000,888.247130,9622.677246
4116.880548,383.047749,1702.473667,9400.615463
4116.880863,612.876398,1554.432478,9548.656652
4116.881179,766.095498,888.247130,9918.759623
4116.881494,306.438199,-592.164754,10066.800811
4116.881809,306.438199,-814.226536,9770.718434
4116.882125,766.095498,-1184.329507,9474.636058
4116.882440,1225.752797,-592.164754,9622.677246
4116.882755,995.924147,-74.020594,9178.553681
4116.883071,1149.143247,740.205942,9696.697840
4116.883386,842.705048,1406.391290,9696.697840
4116.883701,612.876398,666.185348,9918.759623
4116.884017,229.828649,-518.144159,10066.800811
4116.884332,153.219100,-1924.535449,9918.759623
4116.884647,153.219100,-2146.597232,9622.677246
4116.884963,919.314598,-1628.453072,9474.636058
4116.885278,1225.752797,-444.123565,9400.615463
4116.885593,1225.752797,740.205942,8956.491898
4116.885909,1149.143247,1110.308913,9252.574275
4116.886224,995.924147,1036.288319,9622.677246
4116.886539,306.438199,962.267725,9770.718434
4116.886855,153.219100,-0.000000,9844.739029
4116.887170,0.000000,-1184.329507,9992.780217
4116.887486,-153.219100,-1480.411884,9918.759623
4116.887801,689.485948,-1480.411884,9918.759623
4116.888116,459.657299,-740.205942,9400.615463
4116.888432,76.609550,592.164754,9178.553681
4116.888747,0.000000,1184.329507,9030.512492
4116.889062,306.438199,1184.329507,9178.553681
4116.889378,-689.485948,518.144159,9548.656652
4116.889693,-995.924147,-444.123565,9918.759623
4116.890008,-689.485948,-1258.350101,9696.697840
4116.890324,0.000000,-1480.411884,9548.656652
4116.890639,0.000000,-740.205942,9252.574275
4116.890954,76.609550,296.082377,9474.636058
4116.891270,383.047749,1332.370696,8734.430116
4116.891585,306.438199,1480.411884,8956.491898
4116.891900,153.219100,1480.411884,9992.780217
4116.892216,-229.828649,962.267725,9770.718434
4116.892531,-842.705048,-74.020594,9844.739029
4116.892846,-995.924147,-1036.288319,9992.780217
4116.893162,-612.876398,-740.205942,9844.739029
4116.893477,-153.219100,-518.144159,9400.615463
4116.893792,0.000000,370.102971,9474.636058
4116.894108,0.000000,1850.514855,10214.842000
4116.894423,306.438199,1998.556043,9474.636058
4116.894738,0.000000,1480.411884,9918.759623
4116.895054,-229.828649,962.267725,10140.821405
4116.895369,-842.705048,-0.000000,10066.800811
4116.895684,0.000000,-1110.308913,9400.615463
4116.896000,306.438199,-1110.308913,9326.594869
4116.896315,612.876398,-370.102971,8882.471304
4116.896630,153.219100,518.144159,9104.533087
4116.896946,0.000000,1480.411884,9400.615463
4116.897261,383.047749,1628.453072,9474.636058
4116.897576,-306.438199,962.267725,9918.759623
4116.897892,-612.876398,-222.061783,9918.759623
4116.898207,-995.924147,-888.247130,10288.862594
4116.898522,-459.657299,-1406.391290,10140.821405
4116.898838,306.438199,-1184.329507,9992.780217
4116.899153,766.095498,148.041188,9474.636058
4116.899468,766.095498,1036.288319,9622.677246
4116.899784,612.876398,2146.597232,9400.615463
4116.900099,1225.752797,2146.597232,9326.594869
4116.900414,229.828649,1554.432478,9622.677246
4116.900730,229.828649,296.082377,9622.677246
4116.901045,306.438199,-518.144159,9474.636058
4116.901360,306.438199,-1258.350101,9548.656652
4116.901676,612.876398,-1480.411884,9770.718434
4116.901991,612.876398,-592.164754,9400.615463
4116.902306,153.219100,-0.000000,9252.574275
4116.902622,0.000000,740.205942,9844.739029
4116.902937,-383.047749,1332.370696,10140.821405
4116.903252,0.000000,888.247130,9770.718434
4116.903568,-612.876398,-222.061783,9696.697840
4116.903883,-536.266849,-1332.370696,9844.739029
4116.904198,459.657299,-814.226536,9474.636058
4116.904514,842.705048,-518.144159,9474.636058
4116.904829,842.705048,740.205942,9326.594869
4116.905144,383.047749,1702.473667,9252.574275
4116.905460,459.657299,2146.597232,9326.594869
4116.905775,153.219100,1406.391290,9918.759623
4116.906090,0.000000,370.102971,10140.821405
4116.906406,-842.705048,-518.144159,10066.800811
4116.906721,-919.314598,-1850.514855,9622.677246
4116.907036,-459.657299,-1480.411884,9770.718434
4116.907352,0.000000,-1036.288319,9252.574275
4116.907667,0.000000,-0.000000,9178.553681
4116.907982,153.219100,518.144159,9252.574275
4116.908298,612.876398,1184.329507,9104.533087
4116.908613,536.266849,1332.370696,9178.553681
4116.908928,-229.828649,814.226536,9474.636058
4116.909244,306.438199,-592.164754,9918.759623
4116.909559,0.000000,-1332.370696,8956.491898
4116.909874,383.047749,-1480.411884,9104.533087
4116.910190,995.924147,-444.123565,9918.759623
4116.910505,612.876398,370.102971,9474.636058
4116.910820,612.876398,962.267725,9770.718434
4116.911136,229.828649,1480.411884,9918.759623
4116.911451,0.000000,962.267725,9992.780217
4116.911766,0.000000,-148.041188,10140.821405
4116.912082,-383.047749,-1110.308913,9844.739029
4116.912397,153.219100,-1850.514855,9844.739029
4116.912712,229.828649,-1554.432478,9326.594869
4116.913028,766.095498,-444.123565,8882.471304
4116.913343,689.485948,666.185348,8808.450710
4116.913658,536.266849,1776.494261,9474.636058
4116.913974,306.438199,1480.411884,9622.677246
4116.914289,76.609550,1036.288319,9844.739029
4116.914604,-919.314598,-0.000000,10066.800811
4116.914920,-766.095498,-592.164754,9918.759623
4116.915235,-842.705048,-1184.329507,10362.883188
4116.915550,0.000000,-888.247130,10288.862594
4116.915866,0.000000,-0.000000,9844.739029
4116.916181,-306.438199,1406.391290,9548.656652
4116.916496,76.609550,1924.535449,10362.883188
4116.916812,0.000000,1702.473667,10066.800811
4116.917127,0.000000,1258.350101,9992.780217
4116.917442,-229.828649,-0.000000,9474.636058
4116.917758,0.000000,-1036.288319,9474.636058
4116.918073,536.266849,-814.226536,9326.594869
4116.918388,459.657299,-0.000000,9030.512492
4116.918704,766.095498,222.061783,8586.388927
4116.919019,919.314598,1776.494261,8586.388927
4116.919334,919.314598,1554.432478,8734.430116
4116.919650,306.438199,740.205942,9474.636058
4116.919965,-229.828649,296.082377,10214.842000
4116.920280,-1072.533697,-740.205942,9992.780217
4116.920596,-689.485948,-1480.411884,9918.759623
4116.920911,-229.828649,-1628.453072,10214.842000
4116.921226,229.828649,-592.164754,10288.862594
4116.921542,306.438199,518.144159,9400.615463
4116.921857,612.876398,1184.329507,9400.615463
4116.922172,766.095498,1702.473667,9474.636058
4116.922488,766.095498,1554.432478,9548.656652
4116.922803,536.266849,888.247130,9622.677246
4116.923118,76.609550,-370.102971,9622.677246
4116.923434,306.438199,-1332.370696,9622.677246
4116.923749,612.876398,-1184.329507,9252.574275
4116.924064,766.095498,-888.247130,9474.636058
4116.924380,306.438199,-0.000000,9622.677246
4116.924695,0.000000,592.164754,9622.677246
4116.925010,0.000000,444.123565,10066.800811
4116.925326,-306.438199,222.061783,9696.697840
4116.925641,-689.485948,-74.020594,10288.862594
4116.925956,-612.876398,-962.267725,10140.821405
4116.926272,0.000000,-1406.391290,9992.780217
4116.926587,612.876398,-1036.288319,9696.697840
4116.926902,1149.143247,-0.000000,9178.553681
4116.927218,1225.752797,1184.329507,8882.471304
4116.927533,842.705048,1628.453072,9326.594869
4116.927848,689.485948,1554.432478,9696.697840
4116.928164,536.266849,1110.308913,9770.718434
4116.928479,-383.047749,-0.000000,9770.718434
4116.928794,-612.876398,-1332.370696,9622.677246
4116.929110,-536.266849,-1628.453072,9400.615463
4116.929425,-459.657299,-1776.494261,9474.636058
4116.929740,0.000000,-592.164754,9252.574275
4116.930056,-383.047749,592.164754,8512.368333
4116.930371,0.000000,1110.308913,9326.594869
4116.930686,-306.438199,1406.391290,9474.636058
4116.931002,-459.657299,1036.288319,9326.594869
4116.931317,-689.485948,-0.000000,9548.656652
4116.931632,-536.266849,-666.185348,9326.594869
4116.931948,0.000000,-1480.411884,9844.739029
4116.932263,0.000000,-444.123565,9474.636058
4116.932578,-306.438199,666.185348,9400.615463
4116.932894,0.000000,1850.514855,9326.594869
4116.933209,153.219100,1628.453072,9992.780217
4116.933524,0.000000,1702.473667,10214.842000
4116.933840,-153.219100,666.185348,9770.718434
4116.934155,-689.485948,-444.123565,9622.677246
4116.934470,-612.876398,-1036.288319,9696.697840
4116.934786,153.219100,-888.247130,9770.718434
4116.935101,1302.362347,-74.020594,9474.636058
4116.935416,766.095498,592.164754,8808.450710
4116.935732,842.705048,1554.432478,9326.594869
4116.936047,995.924147,1998.556043,9474.636058
4116.936362,459.657299,1628.453072,9844.739029
4116.936678,76.609550,962.267725,9844.739029
4116.936993,-306.438199,-0.000000,10066.800811
4116.937308,-229.828649,-666.185348,10140.821405
4116.937624,153.219100,-740.205942,10436.903782
4116.937939,536.266849,-222.061783,10214.842000
4116.938254,306.438199,518.144159,10066.800811
4116.938570,153.219100,1554.432478,9992.780217
4116.938885,459.657299,1776.494261,9992.780217
4116.939200,306.438199,1332.370696,9918.759623
4116.939516,306.438199,444.123565,9622.677246
4116.939831,536.266849,-666.185348,10140.821405
4116.940146,229.828649,-888.247130,9696.697840
4116.940462,766.095498,-814.226536,9400.615463
4116.940777,1149.143247,-0.000000,9030.512492
4116.941092,1072.533697,296.082377,8734.430116
4116.941408,995.924147,296.082377,9474.636058
4116.941723,459.657299,962.267725,9770.718434
4116.942038,229.828649,666.185348,9696.697840
4116.942354,-383.047749,-444.123565,9474.636058
4116.942669,-612.876398,-1036.288319,9400.615463
4116.942984,-536.266849,-1258.350101,10140.821405
4116.943300,-229.828649,-1554.432478,9474.636058
4116.943615,229.828649,-444.123565,9474.636058
4116.943930,0.000000,296.082377,9326.594869
4116.944246,229.828649,740.205942,9622.677246
4116.944561,0.000000,74.020594,9400.615463
4116.944876,-689.485948,-0.000000,9622.677246
4116.945192,-306.438199,-444.123565,9474.636058
4116.945507,0.000000,-1554.432478,9548.656652
4116.945822,612.876398,-1776.494261,8882.471304
4116.946138,612.876398,-1554.432478,9030.512492
4116.946453,459.657299,-222.061783,8586.388927
4116.946768,306.438199,666.185348,8586.388927
4116.947084,76.609550,888.247130,9178.553681
4116.947399,-153.219100,370.102971,9104.533087
4116.947714,-995.924147,-814.226536,9474.636058
4116.948030,-1072.533697,-1184.329507,10140.821405
4116.948345,-766.095498,-2146.597232,10288.862594
4116.948660,-919.314598,-1110.308913,9844.739029
4116.948976,0.000000,-518.144159,10140.821405
4116.949291,306.438199,444.123565,9400.615463
4116.949606,383.047749,1702.473667,9326.594869
4116.949922,919.314598,1850.514855,9548.656652
4116.950237,842.705048,1998.556043,9030.512492
4116.950552,-229.828649,666.185348,9918.759623
4116.950867,-306.438199,-518.144159,9844.739029
4116.951183,-76.609550,-888.247130,9548.656652
4116.951498,0.000000,-1258.350101,9400.615463
4116.951813,689.485948,-666.185348,9326.594869
4116.952128,229.828649,444.123565,9400.615463
4116.952444,0.000000,1110.308913,9474.636058
4116.952759,153.219100,1184.329507,9918.759623
4116.953074,0.000000,1110.308913,9696.697840
4116.953390,-229.828649,370.102971,9400.615463
4116.953705,-153.219100,-666.185348,9400.615463
4116.954020,0.000000,-888.247130,9474.636058
4116.954335,536.266849,-370.102971,9770.718434
4116.954651,689.485948,962.267725,9400.615463
4116.954966,689.485948,1554.432478,9252.574275
4116.955281,766.095498,2072.576638,9770.718434
4116.955596,459.657299,2146.597232,9770.718434
4116.955912,0.000000,962.267725,9770.718434
4116.956227,-306.438199,-222.061783,10288.862594
4116.956542,-842.705048,-592.164754,10510.924376
4116.956857,-612.876398,-1036.288319,10436.903782
4116.957173,306.438199,-1036.288319,10214.842000
4116.957488,153.219100,-296.082377,9844.739029
4116.957803,229.828649,1110.308913,9178.553681
4116.958119,306.438199,1850.514855,9474.636058
4116.958434,229.828649,1998.556043,9474.636058
4116.958749,-229.828649,1628.453072,9474.636058
4116.959064,-383.047749,666.185348,9474.636058
4116.959380,-536.266849,-666.185348,10214.842000
4116.959695,-229.828649,-1110.308913,10362.883188
4116.960010,0.000000,-1036.288319,9918.759623
4116.960325,0.000000,148.041188,9770.718434
4116.960641,-459.657299,1332.370696,9474.636058
4116.960956,306.438199,2072.576638,9548.656652
4116.961271,153.219100,1702.473667,9770.718434
4116.961586,0.000000,814.226536,9696.697840
4116.961902,-383.047749,-0.000000,9622.677246
4116.962217,0.000000,-814.226536,9474.636058
4116.962532,459.657299,-444.123565,9030.512492
4116.962848,689.485948,-444.123565,9252.574275
4116.963163,76.609550,666.185348,9178.553681
4116.963478,306.438199,444.123565,9326.594869
4116.963793,536.266849,1258.350101,9474.636058
4116.964109,76.609550,1036.288319,9918.759623
4116.964424,-383.047749,-74.020594,9696.697840
4116.964739,0.000000,-592.164754,9770.718434
4116.965054,-306.438199,-1480.411884,9770.718434
4116.965370,459.657299,-1258.350101,9104.533087
4116.965685,995.924147,-370.102971,9104.533087
4116.966000,842.705048,370.102971,8882.471304
4116.966316,1072.533697,1110.308913,8956.491898
4116.966631,842.705048,1184.329507,9252.574275
4116.966946,383.047749,740.205942,9474.636058
4116.967261,229.828649,-148.041188,10214.842000
4116.967577,-229.828649,-1110.308913,9770.718434
4116.967892,0.000000,-2294.638420,9622.677246
4116.968207,306.438199,-1702.473667,9696.697840
4116.968522,383.047749,-814.226536,9474.636058
4116.968838,0.000000,222.061783,9474.636058
4116.969153,153.219100,814.226536,9548.656652
4116.969468,0.000000,1036.288319,9918.759623
4116.969783,-76.609550,370.102971,9844.739029
4116.970099,-306.438199,-592.164754,9918.759623
4116.970414,-459.657299,-1554.432478,9918.759623
4116.970729,-459.657299,-1184.329507,9548.656652
4116.971045,612.876398,-962.267725,9104.533087
4116.971360,536.266849,148.041188,9178.553681
4116.971675,306.438199,740.205942,9622.677246
4116.971990,229.828649,888.247130,9474.636058
4116.972306,229.828649,962.267725,9548.656652
4116.972621,-612.876398,148.041188,10658.965565
4116.972936,-919.314598,-888.247130,9992.780217
4116.973251,-612.876398,-1406.391290,9696.697840
4116.973567,229.828649,-1184.329507,9548.656652
4116.973882,612.876398,-888.247130,9178.553681
4116.974197,383.047749,296.082377,8512.368333
4116.974512,536.266849,1184.329507,8660.409521
4116.974828,536.266849,1406.391290,9474.636058
4116.975143,229.828649,1110.308913,9474.636058
4116.975458,-306.438199,518.144159,9844.739029
4116.975774,-459.657299,-666.185348,9844.739029
4116.976089,0.000000,-1036.288319,10066.800811
4116.976404,536.266849,-666.185348,9474.636058
4116.976719,383.047749,-0.000000,9474.636058
4116.977035,612.876398,518.144159,9178.553681
4116.977350,536.266849,1480.411884,9104.533087
4116.977665,766.095498,1702.473667,9474.636058
4116.977980,306.438199,1554.432478,9844.739029
4116.978296,-229.828649,814.226536,10140.821405
4116.978611,-995.924147,-740.205942,10066.800811
4116.978926,0.000000,-962.267725,9474.636058
4116.979242,689.485948,-814.226536,9770.718434
4116.979557,766.095498,-296.082377,9178.553681
4116.979872,689.485948,1036.288319,8882.471304
4116.980187,383.047749,1850.514855,9474.636058
4116.980503,306.438199,1554.432478,9918.759623
4116.980818,0.000000,1258.350101,9992.780217
4116.981133,-536.266849,148.041188,9992.780217
4116.981448,0.000000,-814.226536,10214.842000
4116.981764,-306.438199,-444.123565,10066.800811
4116.982079,0.000000,-888.247130,9844.739029
4116.982394,536.266849,-222.061783,9696.697840
4116.982709,229.828649,1184.329507,9474.636058
4116.983025,536.266849,1924.535449,9474.636058
4116.983340,229.828649,1702.473667,9770.718434
4116.983655,0.000000,962.267725,9918.759623
4116.983971,-842.705048,148.041188,9622.677246
4116.984286,-536.266849,-666.185348,9770.718434
4116.984601,0.000000,-1258.350101,9548.656652
4116.984916,612.876398,-666.185348,9474.636058
4116.985232,383.047749,370.102971,8734.430116
4116.985547,0.000000,740.205942,9400.615463
4116.985862,0.000000,1184.329507,9326.594869
4116.986177,-229.828649,1258.350101,9474.636058
4116.986493,-689.485948,740.205942,9548.656652
4116.986808,-536.266849,-370.102971,9918.759623
4116.987123,-612.876398,-1258.350101,9770.718434
4116.987438,-306.438199,-1480.411884,9474.636058
4116.987754,153.219100,-962.267725,9474.636058
4116.988069,383.047749,444.123565,8882.471304
4116.988384,383.047749,1184.329507,8956.491898
4116.988700,229.828649,1332.370696,9252.574275
4116.989015,306.438199,1332.370696,9474.636058
4116.989330,-306.438199,370.102971,9474.636058
4116.989645,-689.485948,-740.205942,9622.677246
4116.989961,-689.485948,-1258.350101,9696.697840
4116.990276,0.000000,-1258.350101,9548.656652
4116.990591,383.047749,-666.185348,9400.615463
4116.990906,76.609550,370.102971,9622.677246
4116.991222,0.000000,962.267725,9400.615463
4116.991537,0.000000,1184.329507,9696.697840
4116.991852,0.000000,1110.308913,9548.656652
4116.992167,-306.438199,-0.000000,10066.800811
4116.992483,-229.828649,-370.102971,9918.759623
4116.992798,0.000000,-1332.370696,9696.697840
4116.993113,842.705048,-1406.391290,9400.615463
4116.993429,995.924147,-74.020594,9844.739029
4116.993744,995.924147,1110.308913,9178.553681
4116.994059,766.095498,1406.391290,9474.636058
4116.994374,919.314598,1702.473667,9696.697840
4116.994690,995.924147,740.205942,9696.697840
4116.995005,1072.533697,222.061783,9992.780217
4116.995320,0.000000,-518.144159,9770.718434
4116.995635,153.219100,-1110.308913,9770.718434
4116.995951,919.314598,-814.226536,9696.697840
4116.996266,1149.143247,-370.102971,9252.574275
4116.996581,1225.752797,666.185348,8660.409521
4116.996897,689.485948,1258.350101,9548.656652
4116.997212,536.266849,1332.370696,9474.636058
4116.997527,0.000000,814.226536,9622.677246
4116.997842,0.000000,74.020594,9844.739029
4116.998158,-689.485948,-592.164754,10066.800811
4116.998473,-229.828649,-1036.288319,9696.697840
4116.998788,0.000000,-888.247130,9474.636058
4116.999103,459.657299,-0.000000,9178.553681
4116.999419,229.828649,888.247130,9474.636058
4116.999734,76.609550,1480.411884,9918.759623
4117.000049,-229.828649,1480.411884,9844.739029
4117.000364,-306.438199,666.185348,10288.862594
4117.000680,-536.266849,-74.020594,9696.697840
4117.000995,-459.657299,-1110.308913,10066.800811
4117.001310,0.000000,-962.267725,9844.739029
4117.001626,0.000000,-888.247130,9104.533087
4117.001941,-229.828649,-222.061783,9326.594869
4117.002256,229.828649,1036.288319,9400.615463
4117.002571,76.609550,1332.370696,9548.656652
4117.002887,0.000000,1184.329507,9696.697840
4117.003202,-766.095498,518.144159,9992.780217
4117.003517,-919.314598,-370.102971,9770.718434
4117.003832,-459.657299,-1406.391290,9622.677246
4117.004148,0.000000,-1332.370696,9696.697840
4117.004463,536.266849,-148.041188,9696.697840
4117.004778,0.000000,518.144159,9030.512492
4117.005093,0.000000,1184.329507,9400.615463
4117.005409,383.047749,1702.473667,9474.636058
4117.005724,0.000000,1036.288319,9474.636058
4117.006039,-612.876398,592.164754,9474.636058
4117.006355,-612.876398,-888.247130,9992.780217
4117.006670,-229.828649,-1480.411884,9622.677246
4117.006985,306.438199,-1850.514855,9548.656652
4117.007300,0.000000,-1036.288319,9326.594869
4117.007616,153.219100,-74.020594,9474.636058
4117.007931,76.609550,1110.308913,9252.574275
4117.008246,229.828649,1258.350101,9474.636058
4117.008561,0.000000,888.247130,9696.697840
4117.008877,0.000000,296.082377,9474.636058
4117.009192,-383.047749,-888.247130,9696.697840
4117.009507,306.438199,-1480.411884,9474.636058
4117.009823,383.047749,-1184.329507,9696.697840
4117.010138,459.657299,-518.144159,9252.574275
4117.010453,229.828649,370.102971,9548.656652
4117.010768,153.219100,1110.308913,9844.739029
4117.011084,383.047749,1110.308913,9918.759623
4117.011399,306.438199,962.267725,9326.594869
4117.011714,0.000000,148.041188,9622.677246
4117.012029,0.000000,-666.185348,10066.800811
4117.012345,0.000000,-666.185348,9178.553681
4117.012660,612.876398,-814.226536,8586.388927
4117.012975,1072.533697,-148.041188,8956.491898
4117.013290,459.657299,1258.350101,9252.574275
4117.013606,153.219100,1332.370696,9696.697840
4117.013921,0.000000,1184.329507,9918.759623
4117.014236,-383.047749,1036.288319,10214.842000
4117.014552,-612.876398,-0.000000,9918.759623
4117.014867,-612.876398,-592.164754,9918.759623
4117.015182,0.000000,-444.123565,10140.821405
4117.015497,0.000000,-296.082377,9548.656652
4117.015813,76.609550,814.226536,9474.636058
4117.016128,76.609550,1702.473667,9252.574275
4117.016443,383.047749,1776.494261,9474.636058
4117.016758,0.000000,1702.473667,10066.800811
4117.017074,0.000000,1036.288319,10510.924376
4117.017389,-536.266849,-148.041188,10066.800811
4117.017704,-383.047749,-814.226536,9622.677246
4117.018019,153.219100,-1258.350101,9992.780217
4117.018335,153.219100,-222.061783,9474.636058
4117.018650,0.000000,666.185348,9326.594869
4117.018965,76.609550,1184.329507,9696.697840
4117.019281,459.657299,1036.288319,9918.759623
4117.019596,0.000000,1332.370696,9844.739029
4117.019911,0.000000,740.205942,9992.780217
4117.020226,-1149.143247,-74.020594,10140.821405
4117.020542,-459.657299,-740.205942,10214.842000
4117.020857,689.485948,-1110.308913,9844.739029
4117.021172,919.314598,-444.123565,9992.780217
4117.021487,306.438199,666.185348,9696.697840
4117.021803,459.657299,1332.370696,9844.739029
4117.022118,459.657299,1776.494261,9770.718434
4117.022433,0.000000,1184.329507,10214.842000
4117.022748,0.000000,-222.061783,10214.842000
4117.023064,0.000000,-814.226536,9844.739029
4117.023379,-383.047749,-888.247130,9326.594869
4117.023694,689.485948,-518.144159,9030.512492
4117.024010,1072.533697,-74.020594,8956.491898
4117.024325,766.095498,888.247130,9104.533087
4117.024640,536.266849,1110.308913,9326.594869
4117.024955,383.047749,1332.370696,9474.636058
4117.025271,76.609550,518.144159,9696.697840
4117.025586,-459.657299,-592.164754,9696.697840
4117.025901,-612.876398,-1258.350101,9992.780217
4117.026216,-459.657299,-1850.514855,9696.697840
4117.026532,459.657299,-1406.391290,9474.636058
4117.026847,229.828649,-74.020594,9474.636058
4117.027162,383.047749,962.267725,9104.533087
4117.027478,612.876398,1332.370696,9400.615463
4117.027793,0.000000,1554.432478,9696.697840
4117.028108,0.000000,666.185348,9326.594869
4117.028423,0.000000,-518.144159,9104.533087
4117.028739,0.000000,-1480.411884,9474.636058
4117.029054,0.000000,-1554.432478,9104.533087
4117.029369,536.266849,-962.267725,9474.636058
4117.029684,153.219100,-444.123565,9252.574275
4117.030000,76.609550,518.144159,9178.553681
4117.030315,153.219100,888.247130,9770.718434
4117.030630,-306.438199,962.267725,9474.636058
4117.030945,-459.657299,-296.082377,9770.718434
4117.031261,-612.876398,-962.267725,9770.718434
4117.031576,-306.438199,-2072.576638,9918.759623
4117.031891,153.219100,-1332.370696,10066.800811
4117.032207,459.657299,-518.144159,9400.615463
4117.032522,229.828649,592.164754,9400.615463
4117.032837,76.609550,1332.370696,9696.697840
4117.033152,612.876398,1406.391290,9844.739029
4117.033468,306.438199,888.247130,9622.677246
4117.033783,-306.438199,-0.000000,9622.677246
4117.034098,0.000000,-814.226536,9992.780217
4117.034413,0.000000,-1480.411884,9474.636058
4117.034729,459.657299,-1184.329507,9400.615463
4117.035044,306.438199,-592.164754,9474.636058
4117.035359,153.219100,222.061783,9326.594869
4117.035674,306.438199,1184.329507,9400.615463
4117.035990,0.000000,1258.350101,9548.656652
4117.036305,-383.047749,888.247130,9992.780217
4117.036620,-689.485948,-0.000000,10214.842000
4117.036936,-919.314598,-518.144159,10288.862594
4117.037251,-536.266849,-1184.329507,10214.842000
4117.037566,536.266849,-814.226536,9770.718434
4117.037881,842.705048,-0.000000,9474.636058
4117.038197,612.876398,1702.473667,8882.471304
4117.038512,995.924147,2220.617826,9252.574275
4117.038827,919.314598,1850.514855,9474.636058
4117.039142,383.047749,1332.370696,9474.636058
4117.039458,0.000000,-0.000000,9474.636058
4117.039773,-536.266849,-1184.329507,9770.718434
4117.040088,-229.828649,-962.267725,9474.636058
4117.040404,229.828649,-888.247130,9474.636058
4117.040719,76.609550,-0.000000,9104.533087
4117.041034,229.828649,1184.329507,9474.636058
4117.041349,76.609550,1776.494261,9696.697840
4117.041665,306.438199,1924.535449,10362.883188
4117.041980,0.000000,1776.494261,9548.656652
4117.042295,-229.828649,592.164754,9326.594869
4117.042610,0.000000,-444.123565,9770.718434
4117.042926,76.609550,-444.123565,9474.636058
4117.043241,459.657299,-0.000000,9622.677246
4117.043556,612.876398,666.185348,9178.553681
4117.043871,76.609550,1258.350101,9548.656652
4117.044187,306.438199,2146.597232,9474.636058
4117.044502,-229.828649,1480.411884,9474.636058
4117.044817,-536.266849,1036.288319,10288.862594
4117.045133,-919.314598,-370.102971,10140.821405
4117.045448,-689.485948,-1036.288319,9622.677246
4117.045763,0.000000,-1258.350101,9548.656652
4117.046078,459.657299,-592.164754,9548.656652
4117.046394,689.485948,1036.288319,9104.533087
4117.046709,612.876398,1776.494261,9474.636058
4117.047024,919.314598,1776.494261,9696.697840
4117.047339,459.657299,1702.473667,9548.656652
4117.047654,-306.438199,814.226536,9918.759623
4117.047970,-383.047749,-370.102971,9992.780217
4117.048285,76.609550,-1110.308913,9844.739029
4117.048600,612.876398,-1184.329507,9770.718434
4117.048915,612.876398,-888.247130,9992.780217
4117.049230,153.219100,370.102971,9770.718434
4117.049545,0.000000,370.102971,9770.718434
4117.049861,0.000000,1258.350101,10140.821405
4117.050176,0.000000,666.185348,10658.965565
4117.050491,0.000000,-0.000000,9622.677246
4117.050806,0.000000,-1036.288319,9844.739029
4117.051121,153.219100,-1628.453072,9252.574275
4117.051437,919.314598,-1258.350101,9104.533087
4117.051752,766.095498,-592.164754,8882.471304
4117.052067,306.438199,444.123565,8956.491898
4117.052382,612.876398,740.205942,9474.636058
4117.052697,612.876398,1184.329507,9622.677246
4117.053013,0.000000,296.082377,9326.594869
4117.053328,-459.657299,-814.226536,9918.759623
4117.053643,-766.095498,-1406.391290,9696.697840
4117.053958,-766.095498,-1924.535449,9548.656652
4117.054273,0.000000,-1406.391290,9400.615463
4117.054588,0.000000,-444.123565,9178.553681
4117.054904,0.000000,592.164754,8882.471304
4117.055219,-229.828649,1332.370696,9622.677246
4117.055534,-306.438199,1184.329507,9770.718434
4117.055849,0.000000,296.082377,9474.636058
4117.056164,-153.219100,-370.102971,9622.677246
4117.056480,0.000000,-1480.411884,9622.677246
4117.056795,459.657299,-1628.453072,9474.636058
4117.057110,842.705048,-1480.411884,9104.533087
4117.057425,536.266849,-0.000000,8660.409521
4117.057740,383.047749,814.226536,8734.430116
4117.058056,612.876398,1258.350101,8956.491898
4117.058371,153.219100,962.267725,9104.533087
4117.058686,-383.047749,-0.000000,9918.759623
4117.059001,-459.657299,-370.102971,9844.739029
4117.059316,-612.876398,-1480.411884,9474.636058
4117.059631,76.609550,-1480.411884,9474.636058
4117.059947,919.314598,-370.102971,9918.759623
4117.060262,689.485948,666.185348,9326.594869
4117.060577,1455.581446,1776.494261,9178.553681
4117.060892,995.924147,1776.494261,10066.800811
4117.061207,766.095498,1480.411884,10066.800811
4117.061523,536.266849,888.247130,9844.739029
4117.061838,536.266849,-0.000000,9622.677246
4117.062153,76.609550,-592.164754,9696.697840
4117.062468,919.314598,-814.226536,9622.677246
4117.062783,612.876398,-370.102971,9474.636058
4117.063099,0.000000,592.164754,9474.636058
4117.063414,-153.219100,1258.350101,10436.903782
4117.063729,0.000000,1628.453072,9992.780217
4117.064044,0.000000,1184.329507,10362.883188
4117.064359,-153.219100,-0.000000,10362.883188
4117.064674,-536.266849,-592.164754,10066.800811
4117.064990,0.000000,-222.061783,9696.697840
4117.065305,536.266849,-0.000000,9474.636058
4117.065620,842.705048,1110.308913,9474.636058
4117.065935,536.266849,1998.556043,9474.636058
4117.066250,383.047749,2146.597232,10066.800811
4117.066566,0.000000,1258.350101,10214.842000
4117.066881,-766.095498,962.267725,10436.903782
4117.067196,-1455.581446,-222.061783,10214.842000
4117.067511,-1455.581446,-1258.350101,10066.800811
4117.067826,-842.705048,-1332.370696,9918.759623
4117.068141,-459.657299,-1110.308913,9326.594869
4117.068457,0.000000,-148.041188,9104.533087
4117.068772,-536.266849,1036.288319,9474.636058
4117.069087,-459.657299,1776.494261,9178.553681
4117.069402,-383.047749,1480.411884,9252.574275
4117.069717,-306.438199,962.267725,9474.636058
4117.070033,-536.266849,-222.061783,9548.656652
4117.070348,-919.314598,-1406.391290,9622.677246
4117.070663,-536.266849,-1332.370696,9474.636058
4117.070978,153.219100,-222.061783,9030.512492
4117.071293,229.828649,740.205942,9104.533087
4117.071609,-229.828649,814.226536,8956.491898
4117.071924,0.000000,962.267725,9622.677246
4117.072239,-153.219100,592.164754,9844.739029
4117.072554,-689.485948,-0.000000,9622.677246
4117.072869,-919.314598,-222.061783,9548.656652
4117.073184,-229.828649,-962.267725,9326.594869
4117.073500,536.266849,-962.267725,9326.594869
4117.073815,1149.143247,-740.205942,8660.409521
4117.074130,766.095498,518.144159,8364.327145
4117.074445,612.876398,1480.411884,9178.553681
4117.074760,689.485948,1480.411884,9400.615463
4117.075076,0.000000,1258.350101,9622.677246
4117.075391,0.000000,-0.000000,9696.697840
4117.075706,153.219100,-1036.288319,9400.615463
4117.076021,306.438199,-1480.411884,9252.574275
4117.076336,612.876398,-1480.411884,9474.636058
4117.076652,766.095498,-296.082377,9474.636058
4117.076967,919.314598,444.123565,9474.636058
4117.077282,842.705048,1628.453072,9622.677246
4117.077597,689.485948,1850.514855,9474.636058
4117.077912,766.095498,962.267725,10066.800811
4117.078227,612.876398,-0.000000,9844.739029
4117.078543,153.219100,-962.267725,9770.718434
4117.078858,459.657299,-1258.350101,9622.677246
4117.079173,1225.752797,-814.226536,9622.677246
4117.079488,995.924147,518.144159,9326.594869
4117.079803,459.657299,1776.494261,9918.759623
4117.080119,229.828649,1628.453072,9770.718434
4117.080434,306.438199,1850.514855,9770.718434
4117.080749,-459.657299,888.247130,10288.862594
4117.081064,-536.266849,-74.020594,10288.862594
4117.081379,-229.828649,-1406.391290,10214.842000
4117.081695,0.000000,-1406.391290,10214.842000
4117.082010,383.047749,-888.247130,10214.842000
4117.082325,229.828649,-222.061783,9326.594869
4117.082640,0.000000,1184.329507,9474.636058
4117.082955,306.438199,1332.370696,10140.821405
4117.083270,0.000000,1332.370696,9770.718434
4117.083586,76.609550,666.185348,9992.780217
4117.083901,-536.266849,-518.144159,9844.739029
4117.084216,-306.438199,-1184.329507,9474.636058
4117.084531,76.609550,-1332.370696,9696.697840
4117.084846,306.438199,-962.267725,9400.615463
4117.085162,153.219100,296.082377,9252.574275
4117.085477,0.000000,1258.350101,9474.636058
4117.085792,-76.609550,1110.308913,9474.636058
4117.086107,-612.876398,1036.288319,9844.739029
4117.086422,-689.485948,-0.000000,9548.656652
4117.086738,-919.314598,-962.267725,9548.656652
4117.087053,-842.705048,-1702.473667,9696.697840
4117.087368,-153.219100,-1554.432478,9474.636058
4117.087683,153.219100,-888.247130,9178.553681
4117.087998,0.000000,518.144159,8586.388927
4117.088313,229.828649,1258.350101,8956.491898
4117.088629,459.657299,1628.453072,8956.491898
4117.088944,153.219100,1110.308913,9474.636058
4117.089259,-459.657299,148.041188,9474.636058
4117.089574,-459.657299,-1110.308913,9474.636058
4117.089889,-306.438199,-1998.556043,9400.615463
4117.090205,383.047749,-1554.432478,9252.574275
4117.090520,229.828649,-888.247130,9696.697840
4117.090835,383.047749,-0.000000,9474.636058
4117.091150,383.047749,962.267725,9400.615463
4117.091465,229.828649,1184.329507,9252.574275
4117.091780,459.657299,962.267725,9252.574275
4117.092096,76.609550,296.082377,9400.615463
4117.092411,153.219100,-592.164754,9696.697840
4117.092726,842.705048,-1332.370696,9400.615463
4117.093041,1225.752797,-1406.391290,9252.574275
4117.093356,383.047749,-518.144159,8660.409521
4117.093672,229.828649,592.164754,9400.615463
4117.093987,0.000000,1332.370696,9770.718434
4117.094302,0.000000,962.267725,10214.842000
4117.094617,-383.047749,444.123565,10732.986159
4117.094932,-689.485948,-518.144159,10066.800811
4117.095248,-459.657299,-1406.391290,10288.862594
4117.095563,76.609550,-814.226536,10066.800811
4117.095878,689.485948,-592.164754,9474.636058
4117.096193,995.924147,814.226536,9030.512492
4117.096508,766.095498,1998.556043,9400.615463
4117.096823,536.266849,2368.659014,9622.677246
4117.097139,229.828649,2146.597232,9844.739029
4117.097454,153.219100,1258.350101,10140.821405
4117.097769,-229.828649,-74.020594,10510.924376
4117.098084,-459.657299,-1184.329507,10140.821405
4117.098399,0.000000,-1184.329507,9844.739029
4117.098715,0.000000,-666.185348,9696.697840
4117.099030,306.438199,888.247130,9252.574275
4117.099345,-306.438199,1406.391290,9474.636058
4117.099660,0.000000,1702.473667,10066.800811
4117.099975,-306.438199,1628.453072,10066.800811
4117.100291,306.438199,814.226536,9696.697840
4117.100606,-459.657299,-0.000000,9770.718434
4117.100921,0.000000,-814.226536,9696.697840
4117.101236,459.657299,-592.164754,9622.677246
4117.101551,766.095498,-0.000000,9400.615463
4117.101866,0.000000,1406.391290,9400.615463
4117.102182,306.438199,1924.535449,9326.594869
4117.102497,76.609550,1258.350101,9178.553681
4117.102812,153.219100,1332.370696,9992.780217
4117.103127,-153.219100,296.082377,9770.718434
4117.103442,-229.828649,-1554.432478,9844.739029
4117.103758,0.000000,-1184.329507,9622.677246
4117.104073,383.047749,-1036.288319,9400.615463
4117.104388,383.047749,-0.000000,8956.491898
4117.104703,919.314598,814.226536,9104.533087
4117.105018,689.485948,1110.308913,9326.594869
4117.105334,766.095498,1480.411884,9252.574275
4117.105649,842.705048,1110.308913,9474.636058
4117.105964,0.000000,370.102971,9918.759623
4117.106279,-383.047749,-666.185348,9992.780217
4117.106594,229.828649,-1628.453072,9474.636058
4117.106909,842.705048,-1258.350101,9474.636058
4117.107225,612.876398,-74.020594,9622.677246
4117.107540,153.219100,888.247130,9474.636058
4117.107855,0.000000,962.267725,9474.636058
4117.108170,-306.438199,740.205942,9918.759623
4117.108485,-383.047749,592.164754,9770.718434
4117.108801,-766.095498,-814.226536,10140.821405
4117.109116,-995.924147,-1036.288319,9696.697840
4117.109431,153.219100,-1406.391290,9844.739029
4117.109746,306.438199,-962.267725,9474.636058
4117.110061,76.609550,296.082377,9178.553681
4117.110377,0.000000,1036.288319,9252.574275
4117.110692,76.609550,1332.370696,9548.656652
4117.111007,0.000000,1036.288319,9918.759623
4117.111322,-536.266849,370.102971,9918.759623
4117.111637,-536.266849,-518.144159,9844.739029
4117.111952,-612.876398,-1406.391290,9696.697840
4117.112268,76.609550,-1628.453072,9326.594869
4117.112583,995.924147,-740.205942,9474.636058
4117.112898,459.657299,444.123565,8734.430116
4117.113213,536.266849,1184.329507,9104.533087
4117.113528,612.876398,1480.411884,9474.636058
4117.113844,536.266849,1184.329507,9474.636058
4117.114159,383.047749,296.082377,9844.739029
4117.114474,0.000000,-888.247130,9696.697840
4117.114789,-306.438199,-1406.391290,9696.697840
4117.115104,383.047749,-1332.370696,9548.656652
4117.115420,306.438199,-370.102971,9474.636058
4117.115735,153.219100,592.164754,9178.553681
4117.116050,383.047749,1406.391290,9548.656652
4117.116365,612.876398,1332.370696,9696.697840
4117.116680,306.438199,1332.370696,10066.800811
4117.116995,306.438199,740.205942,9844.739029
4117.117311,0.000000,-370.102971,9622.677246
4117.117626,306.438199,-1332.370696,9400.615463
4117.117941,1225.752797,-888.247130,9844.739029
4117.118256,995.924147,-148.041188,9326.594869
4117.118571,536.266849,666.185348,9326.594869
4117.118887,689.485948,1184.329507,9622.677246
4117.119202,459.657299,1110.308913,9918.759623
4117.119517,0.000000,666.185348,9696.697840
4117.119832,-459.657299,-0.000000,9622.677246
4117.120147,-766.095498,-1184.329507,10140.821405
4117.120462,-153.219100,-888.247130,9918.759623
4117.120778,536.266849,-1036.288319,9622.677246
4117.121093,383.047749,-148.041188,9252.574275
4117.121408,306.438199,1110.308913,9474.636058
4117.121723,306.438199,1702.473667,10066.800811
4117.122038,76.609550,1628.453072,9696.697840
4117.122354,76.609550,1184.329507,9696.697840
4117.122669,0.000000,518.144159,9030.512492
4117.122984,0.000000,-592.164754,8882.471304
4117.123299,536.266849,-962.267725,8956.491898
4117.123614,766.095498,-666.185348,8956.491898
4117.123930,383.047749,-0.000000,8734.430116
4117.124245,-306.438199,962.267725,9252.574275
4117.124560,-306.438199,1110.308913,9696.697840
4117.124875,-689.485948,666.185348,9622.677246
4117.125190,-1149.143247,296.082377,9844.739029
4117.125505,-1149.143247,-666.185348,10140.821405
4117.125821,-995.924147,-1258.350101,9474.636058
4117.126136,-536.266849,-1258.350101,9548.656652
4117.126451,229.828649,-74.020594,9622.677246
4117.126766,383.047749,814.226536,9178.553681
4117.127081,306.438199,2294.638420,9474.636058
4117.127397,536.266849,2516.700203,9474.636058
4117.127712,229.828649,2072.576638,9696.697840
4117.128027,-536.266849,666.185348,9992.780217
4117.128342,-689.485948,-74.020594,9622.677246
4117.128657,-383.047749,-1110.308913,9696.697840
4117.128973,0.000000,-1184.329507,10066.800811
4117.129288,0.000000,-740.205942,9918.759623
4117.129603,-383.047749,370.102971,9252.574275
4117.129918,-383.047749,1258.350101,10140.821405
4117.130233,0.000000,1406.391290,9696.697840
4117.130548,0.000000,1628.453072,9844.739029
4117.130864,0.000000,592.164754,9696.697840
4117.131179,0.000000,-518.144159,9844.739029
4117.131494,612.876398,-962.267725,9400.615463
4117.131809,842.705048,-888.247130,9326.594869
4117.132124,766.095498,-0.000000,9400.615463
4117.132440,383.047749,1332.370696,9326.594869
4117.132755,536.266849,1480.411884,9844.739029
4117.133070,536.266849,1110.308913,9696.697840
4117.133385,229.828649,740.205942,10362.883188
4117.133700,229.828649,-444.123565,9844.739029
4117.134016,-612.876398,-1406.391290,9474.636058
4117.134331,0.000000,-1850.514855,9474.636058
4117.134646,383.047749,-1184.329507,9104.533087
4117.134961,612.876398,-592.164754,9178.553681
4117.135276,76.609550,444.123565,9178.553681
4117.135591,536.266849,740.205942,9696.697840
4117.135907,689.485948,1184.329507,9770.718434
4117.136222,306.438199,592.164754,9696.697840
4117.136537,-383.047749,-592.164754,9844.739029
4117.136852,229.828649,-1554.432478,9326.594869
4117.137167,459.657299,-1184.329507,9252.574275
4117.137483,995.924147,-666.185348,9178.553681
4117.137798,995.924147,-0.000000,9474.636058
4117.138113,689.485948,962.267725,9474.636058
4117.138428,459.657299,1110.308913,9548.656652
4117.138743,0.000000,888.247130,9696.697840
4117.139059,-612.876398,148.041188,9992.780217
4117.139374,-612.876398,-518.144159,10214.842000
4117.139689,-229.828649,-1628.453072,10436.903782
4117.140004,0.000000,-1332.370696,9104.533087
4117.140319,536.266849,-592.164754,8956.491898
4117.140634,766.095498,296.082377,8956.491898
4117.140950,306.438199,1554.432478,9252.574275
4117.141265,766.095498,1702.473667,9696.697840
4117.141580,459.657299,888.247130,9770.718434
4117.141895,0.000000,444.123565,9548.656652
4117.142210,-306.438199,-444.123565,9696.697840
4117.142526,-459.657299,-962.267725,9474.636058
4117.142841,76.609550,-1406.391290,9696.697840
4117.143156,76.609550,-666.185348,9474.636058
4117.143471,229.828649,444.123565,9252.574275
4117.143786,-153.219100,444.123565,9400.615463
4117.144101,0.000000,1480.411884,9622.677246
4117.144417,-612.876398,1110.308913,10214.842000
4117.144732,-766.095498,-0.000000,9696.697840
4117.145047,-536.266849,-740.205942,9770.718434
4117.145362,229.828649,-1036.288319,9326.594869
4117.145677,995.924147,-1110.308913,9178.553681
4117.145993,1225.752797,-0.000000,9104.533087
4117.146308,76.609550,1036.288319,9178.553681
4117.146623,306.438199,1036.288319,9548.656652
4117.146938,842.705048,1036.288319,9622.677246
4117.147253,76.609550,666.185348,9770.718434
4117.147569,-459.657299,-370.102971,9844.739029
4117.147884,-229.828649,-1036.288319,9622.677246
4117.148199,0.000000,-1554.432478,9844.739029
4117.148514,612.876398,-1406.391290,9474.636058
4117.148829,689.485948,-74.020594,9474.636058
4117.149144,383.047749,1258.350101,9326.594869
4117.149459,306.438199,1924.535449,9474.636058
4117.149775,612.876398,2146.597232,9770.718434
4117.150090,76.609550,1036.288319,9770.718434
4117.150405,-306.438199,-74.020594,10066.800811
4117.150720,-766.095498,-592.164754,10066.800811
4117.151035,153.219100,-814.226536,9474.636058
4117.151350,459.657299,-444.123565,9400.615463
4117.151666,0.000000,592.164754,8808.450710
4117.151981,-229.828649,1184.329507,9548.656652
4117.152296,-229.828649,1184.329507,9918.759623
4117.152611,-536.266849,1406.391290,9548.656652
4117.152926,-842.705048,666.185348,9992.780217
4117.153241,-995.924147,-148.041188,9770.718434
4117.153557,-766.095498,-740.205942,10066.800811
4117.153872,-306.438199,-962.267725,9844.739029
4117.154187,153.219100,-296.082377,9400.615463
4117.154502,0.000000,888.247130,9252.574275
4117.154817,76.609550,1776.494261,9104.533087
4117.155132,153.219100,2294.638420,9548.656652
4117.155447,-76.609550,2072.576638,9548.656652
4117.155763,-842.705048,518.144159,9474.636058
4117.156078,-383.047749,-296.082377,9474.636058
4117.156393,-76.609550,-1406.391290,9548.656652
4117.156708,153.219100,-1184.329507,9622.677246
4117.157023,229.828649,-444.123565,9474.636058
4117.157338,76.609550,592.164754,9252.574275
4117.157654,383.047749,1258.350101,9400.615463
4117.157969,766.095498,1406.391290,9474.636058
4117.158284,612.876398,1406.391290,9474.636058
4117.158599,536.266849,-0.000000,9474.636058
4117.158914,0.000000,-370.102971,9770.718434
4117.159229,536.266849,-814.226536,9474.636058
4117.159544,1072.533697,-740.205942,9474.636058
4117.159860,995.924147,-148.041188,9622.677246
4117.160175,766.095498,592.164754,9622.677246
4117.160490,612.876398,1332.370696,10140.821405
4117.160805,689.485948,1406.391290,10288.862594
4117.161120,689.485948,740.205942,10436.903782
4117.161435,-153.219100,-74.020594,10140.821405
4117.161751,0.000000,-1554.432478,9622.677246
4117.162066,689.485948,-1554.432478,9622.677246
4117.162381,1072.533697,-1184.329507,9622.677246
4117.162696,766.095498,-592.164754,9252.574275
4117.163011,306.438199,740.205942,9326.594869
4117.163326,689.485948,1110.308913,9844.739029
4117.163642,689.485948,1184.329507,9844.739029
4117.163957,0.000000,518.144159,9844.739029
4117.164272,-383.047749,-592.164754,9992.780217
4117.164587,-689.485948,-1332.370696,9918.759623
4117.164902,0.000000,-1998.556043,9622.677246
4117.165217,536.266849,-1258.350101,9622.677246
4117.165532,229.828649,-0.000000,8956.491898
4117.165848,0.000000,1036.288319,9178.553681
4117.166163,229.828649,888.247130,9326.594869
4117.166478,-306.438199,1184.329507,9474.636058
4117.166793,-459.657299,148.041188,9918.759623
4117.167108,-842.705048,-962.267725,9178.553681
4117.167423,-536.266849,-1702.473667,9326.594869
4117.167739,0.000000,-2294.638420,9548.656652
4117.168054,76.609550,-888.247130,8882.471304
4117.168369,-76.609550,-0.000000,8364.327145
4117.168684,0.000000,962.267725,8734.430116
4117.168999,-536.266849,1628.453072,9474.636058
4117.169314,-689.485948,1406.391290,9178.553681
4117.169630,-689.485948,-148.041188,9622.677246
4117.169945,-689.485948,-888.247130,9770.718434
4117.170260,-536.266849,-1406.391290,9770.718434
4117.170575,-153.219100,-1258.350101,9474.636058
4117.170890,229.828649,-592.164754,9400.615463
4117.171205,0.000000,740.205942,9400.615463
4117.171520,229.828649,1406.391290,9474.636058
4117.171836,459.657299,1924.535449,9770.718434
4117.172151,76.609550,1258.350101,10140.821405
4117.172466,-459.657299,296.082377,9992.780217
4117.172781,-383.047749,-222.061783,9770.718434
4117.173096,0.000000,-888.247130,9696.697840
4117.173411,612.876398,-1110.308913,9400.615463
4117.173727,536.266849,-0.000000,9178.553681
4117.174042,0.000000,1184.329507,9400.615463
4117.174357,229.828649,1702.473667,9696.697840
4117.174672,0.000000,1924.535449,9992.780217
4117.174987,0.000000,1036.288319,9844.739029
4117.175302,-536.266849,148.041188,10066.800811
4117.175617,-153.219100,-296.082377,9992.780217
4117.175933,153.219100,-1036.288319,9770.718434
4117.176248,995.924147,-592.164754,9622.677246
4117.176563,919.314598,444.123565,9696.697840
4117.176878,689.485948,1702.473667,9326.594869
4117.177193,842.705048,2442.679609,9622.677246
4117.177508,766.095498,2146.597232,9770.718434
4117.177824,689.485948,1406.391290,9548.656652
4117.178139,153.219100,-0.000000,9474.636058
4117.178454,0.000000,-962.267725,9622.677246
4117.178769,306.438199,-1258.350101,9474.636058
4117.179084,536.266849,-592.164754,9474.636058
4117.179399,229.828649,370.102971,9252.574275
4117.179715,153.219100,888.247130,9400.615463
4117.180030,689.485948,1702.473667,9992.780217
4117.180345,76.609550,1110.308913,9844.739029
4117.180660,76.609550,1332.370696,9992.780217
4117.180975,-459.657299,-0.000000,9992.780217
4117.181290,-153.219100,-592.164754,9918.759623
4117.181605,383.047749,-1036.288319,10140.821405
4117.181921,689.485948,-518.144159,9178.553681
4117.182236,536.266849,518.144159,8956.491898
4117.182551,306.438199,1702.473667,9918.759623
4117.182866,459.657299,1924.535449,9844.739029
4117.183181,153.219100,1258.350101,10066.800811
4117.183496,-459.657299,148.041188,9844.739029
4117.183812,-306.438199,-962.267725,9622.677246
4117.184127,-306.438199,-1554.432478,9622.677246
4117.184442,0.000000,-1480.411884,9474.636058
4117.184757,0.000000,-814.226536,9696.697840
4117.185072,229.828649,592.164754,9030.512492
4117.185387,306.438199,962.267725,9178.553681
4117.185703,306.438199,1480.411884,9474.636058
4117.186018,229.828649,962.267725,9622.677246
4117.186333,0.000000,-0.000000,9326.594869
4117.186648,-229.828649,-1036.288319,9326.594869
4117.186963,383.047749,-1184.329507,8956.491898
4117.187278,536.266849,-1480.411884,9104.533087
4117.187593,153.219100,-962.267725,9178.553681
4117.187909,-459.657299,-296.082377,9622.677246
4117.188224,0.000000,740.205942,9548.656652
4117.188539,0.000000,814.226536,9844.739029
4117.188854,-306.438199,148.041188,10288.862594
4117.189169,-612.876398,-518.144159,10140.821405
4117.189484,-153.219100,-962.267725,9178.553681
4117.189800,612.876398,-1110.308913,8660.409521
4117.190115,1378.971896,-592.164754,9104.533087
4117.190430,995.924147,-74.020594,8660.409521
4117.190745,612.876398,1184.329507,8660.409521
4117.191060,459.657299,1480.411884,9326.594869
4117.191375,229.828649,1110.308913,9548.656652
4117.191691,0.000000,444.123565,9992.780217
4117.192006,-612.876398,-814.226536,9844.739029
4117.192321,-995.924147,-1998.556043,10066.800811
4117.192636,-459.657299,-1998.556043,9696.697840
4117.192951,0.000000,-1258.350101,9104.533087
4117.193266,0.000000,-74.020594,9474.636058
4117.193581,0.000000,888.247130,9622.677246
4117.193897,0.000000,1258.350101,9770.718434
4117.194212,153.219100,1480.411884,9696.697840
4117.194527,76.609550,740.205942,9992.780217
4117.194842,0.000000,-222.061783,9770.718434
4117.195157,0.000000,-666.185348,9918.759623
4117.195472,536.266849,-962.267725,9696.697840
4117.195788,689.485948,-592.164754,9400.615463
4117.196103,536.266849,592.164754,9474.636058
4117.196418,229.828649,1258.350101,9474.636058
4117.196733,0.000000,1850.514855,10362.883188
4117.197048,-153.219100,1702.473667,9918.759623
4117.197363,-536.266849,370.102971,9992.780217
4117.197678,-536.266849,-1184.329507,9844.739029
4117.197994,0.000000,-1702.473667,9770.718434
4117.198309,383.047749,-740.205942,9770.718434
4117.198624,612.876398,-222.061783,9400.615463
4117.198939,536.266849,1332.370696,9400.615463
4117.199254,612.876398,1628.453072,9474.636058
4117.199569,383.047749,1628.453072,9326.594869
4117.199885,153.219100,1554.432478,9918.759623
4117.200200,306.438199,962.267725,9474.636058
4117.200515,229.828649,-0.000000,9104.533087
4117.200830,383.047749,-962.267725,9474.636058
4117.201145,383.047749,-1110.308913,9696.697840
4117.201460,229.828649,-148.041188,9252.574275
4117.201776,0.000000,1110.308913,9030.512492
4117.202091,153.219100,1480.411884,9770.718434
4117.202406,76.609550,1406.391290,10140.821405
4117.202721,0.000000,1184.329507,9622.677246
4117.203036,-842.705048,-592.164754,9622.677246
4117.203351,-536.266849,-1036.288319,9770.718434
4117.203666,0.000000,-1110.308913,9474.636058
4117.203982,919.314598,-592.164754,9252.574275
4117.204297,689.485948,444.123565,9252.574275
4117.204612,0.000000,1110.308913,9252.574275
4117.204927,383.047749,1554.432478,9104.533087
4117.205242,306.438199,1702.473667,9622.677246
4117.205557,0.000000,814.226536,10140.821405
4117.205873,-1149.143247,-148.041188,9918.759623
4117.206188,-1455.581446,-888.247130,9992.780217
4117.206503,-306.438199,-1184.329507,9770.718434
4117.206818,459.657299,-814.226536,9696.697840
4117.207133,153.219100,592.164754,9548.656652
4117.207448,-229.828649,1110.308913,9474.636058
4117.207764,-459.657299,1850.514855,10214.842000
4117.208079,-306.438199,1480.411884,9770.718434
4117.208394,-689.485948,814.226536,9696.697840
4117.208709,-995.924147,-74.020594,9844.739029
4117.209024,-689.485948,-1184.329507,9474.636058
4117.209339,0.000000,-1628.453072,9548.656652
4117.209654,153.219100,-296.082377,9770.718434
4117.209970,-76.609550,1036.288319,9326.594869
4117.210285,-229.828649,1406.391290,9400.615463
4117.210600,-153.219100,1406.391290,9844.739029
4117.210915,0.000000,740.205942,9918.759623
4117.211230,-229.828649,296.082377,10066.800811
4117.211545,-306.438199,-666.185348,9252.574275
4117.211861,-383.047749,-1406.391290,9548.656652
4117.212176,536.266849,-1332.370696,9548.656652
4117.212491,612.876398,-518.144159,9178.553681
4117.212806,766.095498,814.226536,9104.533087
4117.213121,689.485948,1702.473667,9474.636058
4117.213436,612.876398,1776.494261,9548.656652
4117.213751,229.828649,814.226536,9252.574275
4117.214067,0.000000,-74.020594,9474.636058
4117.214382,0.000000,-962.267725,9844.739029
4117.214697,76.609550,-1480.411884,9400.615463
4117.215012,766.095498,-1406.391290,9696.697840
4117.215327,536.266849,-814.226536,9474.636058
4117.215642,459.657299,592.164754,9326.594869
4117.215958,689.485948,1332.370696,9548.656652
4117.216273,842.705048,1480.411884,9548.656652
4117.216588,612.876398,592.164754,9992.780217
4117.216903,76.609550,-370.102971,9844.739029
4117.217218,306.438199,-1480.411884,9548.656652
4117.217533,995.924147,-1628.453072,9548.656652
4117.217849,1225.752797,-1110.308913,9400.615463
4117.218164,1149.143247,-74.020594,9326.594869
4117.218479,76.609550,1110.308913,9178.553681
4117.218794,306.438199,1036.288319,9400.615463
4117.219109,0.000000,370.102971,9696.697840
4117.219424,-306.438199,222.061783,10066.800811
4117.219739,-612.876398,-518.144159,10066.800811
4117.220055,-536.266849,-1776.494261,9252.574275
4117.220370,76.609550,-1628.453072,9548.656652
4117.220685,536.266849,-1258.350101,9252.574275
4117.221000,612.876398,-222.061783,8660.409521
4117.221315,229.828649,1332.370696,9252.574275
4117.221630,612.876398,1628.453072,9770.718434
4117.221946,0.000000,888.247130,9918.759623
4117.222261,229.828649,814.226536,9400.615463
4117.222576,-459.657299,-518.144159,9548.656652
4117.222891,-536.266849,-1332.370696,9474.636058
4117.223206,229.828649,-1184.329507,9548.656652
4117.223521,306.438199,-444.123565,9400.615463
4117.223837,0.000000,592.164754,9326.594869
4117.224152,-383.047749,1036.288319,9474.636058
4117.224467,306.438199,1258.350101,10140.821405
4117.224782,-536.266849,1110.308913,10436.903782
4117.225097,-1072.533697,444.123565,10584.944971
4117.225412,-842.705048,-148.041188,9844.739029
4117.225727,-459.657299,-888.247130,9696.697840
4117.226043,229.828649,-666.185348,9844.739029
4117.226358,459.657299,-296.082377,9474.636058
4117.226673,306.438199,1332.370696,9252.574275
4117.226988,459.657299,1924.535449,9474.636058
4117.227303,153.219100,2368.659014,9770.718434
4117.227618,76.609550,1702.473667,9622.677246
4117.227934,-459.657299,296.082377,10066.800811
4117.228249,-612.876398,-518.144159,9992.780217
4117.228564,-383.047749,-1628.453072,9918.759623
4117.228879,459.657299,-1036.288319,10066.800811
4117.229194,229.828649,-370.102971,9844.739029
4117.229509,0.000000,888.247130,9104.533087
4117.229824,153.219100,1628.453072,9474.636058
4117.230140,153.219100,1406.391290,9844.739029
4117.230455,306.438199,1332.370696,10066.800811
4117.230770,76.609550,-0.000000,10140.821405
4117.231085,0.000000,-592.164754,9178.553681
4117.231400,689.485948,-962.267725,9326.594869
4117.231715,612.876398,-1110.308913,9474.636058
4117.232031,612.876398,296.082377,9400.615463
4117.232346,536.266849,1184.329507,9770.718434
4117.232661,459.657299,1332.370696,9992.780217
4117.232976,0.000000,1184.329507,9918.759623
4117.233291,-229.828649,222.061783,9918.759623
4117.233606,-306.438199,-518.144159,10140.821405
4117.233922,-229.828649,-1332.370696,9548.656652
4117.234237,306.438199,-1406.391290,9474.636058
4117.234552,612.876398,-962.267725,9474.636058
4117.234867,995.924147,666.185348,8512.368333
4117.235182,766.095498,1406.391290,8882.471304
4117.235497,536.266849,1776.494261,9622.677246
4117.235812,459.657299,1628.453072,9400.615463
4117.236128,306.438199,962.267725,9400.615463
4117.236443,-229.828649,-444.123565,9474.636058
4117.236758,-306.438199,-1332.370696,9696.697840
4117.237073,229.828649,-1998.556043,9548.656652
4117.237388,766.095498,-518.144159,9178.553681
4117.237703,76.609550,74.020594,9548.656652
4117.238019,-229.828649,1036.288319,9474.636058
4117.238334,229.828649,1702.473667,9622.677246
4117.238649,0.000000,1406.391290,9844.739029
4117.238964,-306.438199,592.164754,9770.718434
4117.239279,-536.266849,-370.102971,9474.636058
4117.239594,76.609550,-1406.391290,9548.656652
4117.239910,229.828649,-1406.391290,9474.636058
4117.240225,612.876398,-888.247130,9400.615463
4117.240540,153.219100,740.205942,9178.553681
4117.240855,383.047749,1554.432478,9548.656652
4117.241170,76.609550,1702.473667,9770.718434
4117.241485,0.000000,444.123565,10140.821405
4117.241800,-306.438199,-0.000000,10066.800811
4117.242116,-689.485948,-814.226536,9696.697840
4117.242431,0.000000,-1628.453072,9844.739029
4117.242746,229.828649,-1406.391290,9474.636058
4117.243061,842.705048,-888.247130,9548.656652
4117.243376,536.266849,518.144159,9474.636058
4117.243691,229.828649,1036.288319,10362.883188
4117.244007,766.095498,1480.411884,10140.821405
4117.244322,536.266849,1258.350101,10066.800811
4117.244637,153.219100,296.082377,9696.697840
4117.244952,229.828649,-666.185348,9696.697840
4117.245267,689.485948,-1258.350101,9326.594869
4117.245582,1378.971896,-1184.329507,9030.512492
4117.245898,919.314598,-444.123565,9474.636058
4117.246213,612.876398,740.205942,9252.574275
4117.246528,459.657299,1332.370696,9252.574275
4117.246843,383.047749,1332.370696,9474.636058
4117.247158,0.000000,666.185348,9918.759623
4117.247473,0.000000,-370.102971,9770.718434
4117.247788,0.000000,-1258.350101,9622.677246
4117.248104,459.657299,-1776.494261,9474.636058
4117.248419,842.705048,-888.247130,9622.677246
4117.248734,1072.533697,-0.000000,9030.512492
4117.249049,0.000000,1702.473667,9326.594869
4117.249364,229.828649,1998.556043,9770.718434
4117.249680,383.047749,1776.494261,9770.718434
4117.249995,-306.438199,740.205942,9918.759623
4117.250310,-383.047749,-518.144159,10214.842000
4117.250625,-459.657299,-1258.350101,9770.718434
4117.250940,0.000000,-1406.391290,9104.533087
4117.251256,229.828649,-740.205942,9178.553681
4117.251571,306.438199,-0.000000,9400.615463
4117.251886,-459.657299,1184.329507,9104.533087
4117.252201,-229.828649,1184.329507,9474.636058
4117.252516,-153.219100,1110.308913,9844.739029
4117.252832,-689.485948,370.102971,9622.677246
4117.253147,0.000000,-740.205942,9548.656652
4117.253462,0.000000,-1036.288319,9548.656652
4117.253777,383.047749,-666.185348,9474.636058
4117.254092,306.438199,-0.000000,9474.636058
4117.254408,0.000000,962.267725,9252.574275
4117.254723,0.000000,1332.370696,9992.780217
4117.255038,-153.219100,1776.494261,9992.780217
4117.255353,-383.047749,1332.370696,9992.780217
4117.255668,-919.314598,-0.000000,10214.842000
4117.255984,-459.657299,-666.185348,10066.800811
4117.256299,229.828649,-1406.391290,9548.656652
4117.256614,306.438199,-962.267725,9844.739029
4117.256929,0.000000,-0.000000,9548.656652
4117.257244,0.000000,1110.308913,9178.553681
4117.257560,0.000000,1554.432478,9474.636058
4117.257875,76.609550,1036.288319,10362.883188
4117.258190,-383.047749,962.267725,9770.718434
4117.258505,-689.485948,-0.000000,9696.697840
4117.258820,-536.266849,-888.247130,9770.718434
4117.259136,-153.219100,-1184.329507,9918.759623
4117.259451,229.828649,-1184.329507,9918.759623
4117.259766,306.438199,-0.000000,9178.553681
4117.260081,0.000000,1184.329507,9696.697840
4117.260396,76.609550,1702.473667,9770.718434
4117.260712,76.609550,1480.411884,9770.718434
4117.261027,153.219100,296.082377,9696.697840
4117.261342,-383.047749,-444.123565,9918.759623
4117.261657,-229.828649,-1110.308913,9474.636058
4117.261972,306.438199,-1480.411884,9178.553681
4117.262288,612.876398,-1036.288319,9474.636058
4117.262603,306.438199,-0.000000,8808.450710
4117.262918,-383.047749,888.247130,8956.491898
4117.263233,0.000000,1036.288319,9696.697840
4117.263548,0.000000,370.102971,10140.821405
4117.263864,0.000000,-0.000000,9770.718434
4117.264179,-229.828649,-666.185348,9844.739029
4117.264494,0.000000,-444.123565,9622.677246
4117.264809,766.095498,-1258.350101,9400.615463
4117.265124,1072.533697,-0.000000,8956.491898
4117.265440,766.095498,518.144159,9400.615463
4117.265755,229.828649,1554.432478,9326.594869
4117.266070,459.657299,1776.494261,9474.636058
4117.266385,153.219100,1406.391290,9548.656652
4117.266700,0.000000,370.102971,9770.718434
4117.267016,76.609550,-1036.288319,9918.759623
4117.267331,-153.219100,-1628.453072,9622.677246
4117.267646,383.047749,-1702.473667,9548.656652
4117.267961,459.657299,-814.226536,9474.636058
4117.268276,229.828649,518.144159,8882.471304
4117.268592,153.219100,1554.432478,9400.615463
4117.268907,306.438199,1998.556043,9844.739029
4117.269222,306.438199,1628.453072,9770.718434
4117.269537,0.000000,518.144159,9252.574275
4117.269852,0.000000,-592.164754,9548.656652
4117.270168,76.609550,-1110.308913,9474.636058
4117.270483,536.266849,-592.164754,9474.636058
4117.270798,612.876398,-0.000000,9696.697840
4117.271113,306.438199,888.247130,9696.697840
4117.271428,383.047749,1332.370696,9992.780217
4117.271744,0.000000,1332.370696,9548.656652
4117.272059,-459.657299,592.164754,10140.821405
4117.272374,-459.657299,-0.000000,10066.800811
4117.272689,-383.047749,-1184.329507,9770.718434
4117.273004,76.609550,-1480.411884,9474.636058
4117.273320,383.047749,-1406.391290,9548.656652
4117.273635,153.219100,296.082377,9104.533087
4117.273950,-229.828649,1258.350101,9178.553681
4117.274265,0.000000,1628.453072,9844.739029
4117.274580,0.000000,1776.494261,10288.862594
4117.274896,-459.657299,666.185348,9770.718434
4117.275211,-459.657299,-222.061783,9844.739029
4117.275526,-459.657299,-888.247130,9770.718434
4117.275841,459.657299,-1110.308913,9622.677246
4117.276156,612.876398,-814.226536,9548.656652
4117.276472,76.609550,296.082377,9474.636058
