#time,accel_x,accel_y,accel_z
3666.208624,1762.019645,1480.411884,8882.471304
3666.208939,2068.457845,1332.370696,8660.409521
3666.209253,1915.238745,1110.308913,8290.306550
3666.209568,2068.457845,888.247130,8734.430116
3666.209882,1378.971896,222.061783,9474.636058
3666.210197,1072.533697,-0.000000,9548.656652
3666.210511,995.924147,-222.061783,9622.677246
3666.210826,842.705048,-296.082377,9844.739029
3666.211141,0.000000,-0.000000,9918.759623
3666.211455,0.000000,222.061783,9622.677246
3666.211770,-229.828649,370.102971,9178.553681
3666.212084,0.000000,-74.020594,8586.388927
3666.212399,153.219100,370.102971,8586.388927
3666.212713,459.657299,-0.000000,7994.224174
3666.213028,76.609550,-296.082377,8438.347739
3666.213342,0.000000,-592.164754,9400.615463
3666.213657,-306.438199,-1110.308913,9918.759623
3666.213971,-842.705048,-962.267725,10140.821405
3666.214286,-842.705048,-1258.350101,10436.903782
3666.214601,-612.876398,-1110.308913,9992.780217
3666.214915,-153.219100,-962.267725,9770.718434
3666.215230,0.000000,-518.144159,9548.656652
3666.215544,0.000000,-444.123565,9622.677246
3666.215859,0.000000,-0.000000,8364.327145
3666.216173,229.828649,-148.041188,8586.388927
3666.216488,383.047749,-296.082377,9104.533087
3666.216802,536.266849,-444.123565,9030.512492
3666.217117,306.438199,-666.185348,9326.594869
3666.217432,229.828649,-1036.288319,9696.697840
3666.217746,229.828649,-740.205942,9770.718434
3666.218061,153.219100,-888.247130,9770.718434
3666.218375,306.438199,-444.123565,9252.574275
3666.218690,0.000000,-444.123565,9622.677246
3666.219004,0.000000,-592.164754,8882.471304
3666.219319,153.219100,-518.144159,9104.533087
3666.219633,0.000000,-296.082377,9030.512492
3666.219948,0.000000,-296.082377,9474.636058
3666.220262,76.609550,-222.061783,9474.636058
3666.220577,0.000000,-222.061783,9770.718434
3666.220892,383.047749,-296.082377,9992.780217
3666.221206,766.095498,-370.102971,9696.697840
3666.221521,919.314598,-370.102971,9770.718434
3666.221835,612.876398,-0.000000,9844.739029
3666.222150,536.266849,296.082377,9326.594869
3666.222464,383.047749,740.205942,9326.594869
3666.222779,766.095498,444.123565,9104.533087
3666.223093,612.876398,666.185348,9474.636058
3666.223408,612.876398,518.144159,9104.533087
3666.223723,306.438199,592.164754,9326.594869
3666.224037,229.828649,370.102971,9622.677246
3666.224352,612.876398,518.144159,9548.656652
3666.224666,536.266849,962.267725,9474.636058
3666.224981,229.828649,962.267725,9844.739029
3666.225295,306.438199,1184.329507,9474.636058
3666.225610,229.828649,1184.329507,9326.594869
3666.225924,459.657299,1628.453072,9474.636058
3666.226239,459.657299,1184.329507,9844.739029
3666.226553,306.438199,1480.411884,9548.656652
3666.226868,229.828649,1480.411884,9400.615463
3666.227183,-153.219100,1110.308913,9918.759623
3666.227497,153.219100,814.226536,10362.883188
3666.227812,-612.876398,962.267725,10732.986159
3666.228126,-229.828649,962.267725,10214.842000
3666.228441,-306.438199,666.185348,10288.862594
3666.228755,0.000000,888.247130,9992.780217
3666.229070,-153.219100,962.267725,10066.800811
3666.229384,-306.438199,444.123565,10436.903782
3666.229699,-383.047749,518.144159,10288.862594
3666.230014,-306.438199,592.164754,10288.862594
3666.230328,-306.438199,518.144159,10658.965565
3666.230643,-383.047749,444.123565,10436.903782
3666.230957,-383.047749,-222.061783,10807.006753
3666.231272,0.000000,-0.000000,10214.842000
3666.231586,383.047749,296.082377,10214.842000
3666.231901,459.657299,444.123565,9918.759623
3666.232215,612.876398,296.082377,9770.718434
3666.232530,229.828649,-0.000000,9474.636058
3666.232844,689.485948,-0.000000,9326.594869
3666.233159,689.485948,-0.000000,9474.636058
3666.233474,383.047749,-74.020594,9548.656652
3666.233788,536.266849,-296.082377,9992.780217
3666.234103,0.000000,-444.123565,9030.512492
3666.234417,306.438199,-0.000000,9252.574275
3666.234732,0.000000,-444.123565,9326.594869
3666.235046,153.219100,-444.123565,9252.574275
3666.235361,306.438199,-296.082377,9252.574275
3666.235675,306.438199,-148.041188,8956.491898
3666.235990,76.609550,-148.041188,8882.471304
3666.236304,229.828649,-0.000000,9252.574275
3666.236619,153.219100,-0.000000,9104.533087
3666.236934,153.219100,-370.102971,9326.594869
3666.237248,0.000000,-370.102971,9178.553681
3666.237563,153.219100,-0.000000,8956.491898
3666.237877,-383.047749,-222.061783,9104.533087
3666.238192,153.219100,-148.041188,9252.574275
3666.238506,689.485948,-222.061783,8882.471304
3666.238821,-306.438199,-296.082377,9104.533087
3666.239135,-383.047749,-518.144159,8956.491898
3666.239450,0.000000,-518.144159,9252.574275
3666.239765,0.000000,-666.185348,9474.636058
3666.240079,-229.828649,-666.185348,9474.636058
3666.240394,-306.438199,-814.226536,9696.697840
3666.240708,-459.657299,-592.164754,9622.677246
3666.241023,0.000000,-518.144159,9474.636058
3666.241337,153.219100,-518.144159,9474.636058
3666.241652,76.609550,-740.205942,9474.636058
3666.241966,306.438199,-444.123565,9400.615463
3666.242281,153.219100,-370.102971,9178.553681
3666.242595,153.219100,-296.082377,9548.656652
3666.242910,76.609550,-370.102971,9622.677246
3666.243225,76.609550,-592.164754,9622.677246
3666.243539,76.609550,-222.061783,10066.800811
3666.243854,0.000000,-222.061783,9770.718434
3666.244168,153.219100,-296.082377,9918.759623
3666.244483,0.000000,-0.000000,10214.842000
3666.244797,76.609550,-0.000000,9918.759623
3666.245112,0.000000,296.082377,9696.697840
3666.245426,0.000000,222.061783,9400.615463
3666.245741,229.828649,222.061783,9918.759623
3666.246056,306.438199,370.102971,10140.821405
3666.246370,76.609550,148.041188,9696.697840
3666.246685,229.828649,592.164754,9918.759623
3666.246999,153.219100,592.164754,9918.759623
3666.247314,0.000000,518.144159,10066.800811
3666.247628,0.000000,592.164754,9548.656652
3666.247943,459.657299,888.247130,9474.636058
3666.248258,229.828649,1036.288319,9548.656652
3666.248572,229.828649,1110.308913,9178.553681
3666.248887,383.047749,962.267725,9252.574275
3666.249201,153.219100,666.185348,9400.615463
3666.249516,229.828649,888.247130,9474.636058
3666.249831,0.000000,518.144159,9252.574275
3666.250145,306.438199,666.185348,9696.697840
3666.250460,306.438199,962.267725,9696.697840
3666.250774,153.219100,814.226536,9400.615463
3666.251089,383.047749,518.144159,9178.553681
3666.251404,306.438199,666.185348,9178.553681
3666.251718,229.828649,888.247130,9548.656652
3666.252033,306.438199,592.164754,9548.656652
3666.252347,229.828649,518.144159,9622.677246
3666.252662,306.438199,148.041188,9548.656652
3666.252977,76.609550,444.123565,10214.842000
3666.253291,0.000000,518.144159,9918.759623
3666.253606,153.219100,-0.000000,9918.759623
3666.253920,0.000000,-0.000000,9918.759623
3666.254235,153.219100,-74.020594,9696.697840
3666.254550,229.828649,-0.000000,10066.800811
3666.254864,153.219100,-0.000000,9622.677246
3666.255179,0.000000,-74.020594,10066.800811
3666.255494,0.000000,-0.000000,10140.821405
3666.255808,76.609550,-0.000000,10510.924376
3666.256123,76.609550,-74.020594,9696.697840
3666.256437,153.219100,-74.020594,9622.677246
3666.256752,306.438199,-222.061783,10288.862594
3666.257067,153.219100,-74.020594,9548.656652
3666.257381,0.000000,-222.061783,9696.697840
3666.257696,0.000000,-74.020594,9622.677246
3666.258010,0.000000,-0.000000,9548.656652
3666.258325,0.000000,-74.020594,9474.636058
3666.258640,306.438199,-0.000000,9252.574275
3666.258954,0.000000,-222.061783,9770.718434
3666.259269,76.609550,-74.020594,9474.636058
3666.259583,383.047749,-0.000000,9178.553681
3666.259898,-153.219100,-0.000000,9326.594869
3666.260213,0.000000,-222.061783,9104.533087
3666.260527,-229.828649,-74.020594,9178.553681
3666.260842,0.000000,-74.020594,9030.512492
3666.261157,229.828649,-0.000000,9030.512492
3666.261471,0.000000,-0.000000,9030.512492
3666.261786,0.000000,-0.000000,8882.471304
3666.262100,229.828649,-370.102971,9178.553681
3666.262415,383.047749,370.102971,9178.553681
3666.262730,689.485948,-0.000000,9326.594869
3666.263044,153.219100,-0.000000,9252.574275
3666.263359,76.609550,-0.000000,9104.533087
3666.263673,229.828649,370.102971,9474.636058
3666.263988,76.609550,222.061783,9474.636058
3666.264303,383.047749,296.082377,9622.677246
3666.264617,229.828649,-0.000000,9474.636058
3666.264932,229.828649,-0.000000,9400.615463
3666.265246,459.657299,-0.000000,9770.718434
3666.265561,153.219100,-222.061783,9918.759623
3666.265876,76.609550,-0.000000,10214.842000
3666.266190,76.609550,148.041188,10066.800811
3666.266505,0.000000,-0.000000,10436.903782
3666.266820,-153.219100,-0.000000,10140.821405
3666.267134,0.000000,296.082377,9696.697840
3666.267449,229.828649,222.061783,10214.842000
3666.267763,76.609550,370.102971,10288.862594
3666.268078,0.000000,444.123565,10214.842000
3666.268393,0.000000,370.102971,9844.739029
3666.268707,-306.438199,592.164754,10362.883188
3666.269022,0.000000,444.123565,10288.862594
3666.269336,-229.828649,444.123565,9918.759623
3666.269651,-306.438199,370.102971,9992.780217
3666.269966,0.000000,444.123565,10140.821405
3666.270280,0.000000,592.164754,9844.739029
3666.270595,0.000000,518.144159,9992.780217
3666.270909,76.609550,740.205942,9918.759623
3666.271224,-229.828649,740.205942,9548.656652
3666.271539,-76.609550,592.164754,9844.739029
3666.271853,536.266849,444.123565,9918.759623
3666.272168,536.266849,592.164754,9326.594869
3666.272483,459.657299,740.205942,9474.636058
3666.272797,229.828649,814.226536,9400.615463
3666.273112,459.657299,814.226536,9474.636058
3666.273426,229.828649,518.144159,9474.636058
3666.273741,459.657299,518.144159,9326.594869
3666.274056,306.438199,444.123565,9178.553681
3666.274370,459.657299,518.144159,8808.450710
3666.274685,383.047749,592.164754,9104.533087
3666.274999,0.000000,-0.000000,10362.883188
3666.275314,-229.828649,-74.020594,9770.718434
3666.275629,76.609550,-0.000000,9326.594869
3666.275943,0.000000,-74.020594,9252.574275
3666.276258,612.876398,-74.020594,9696.697840
3666.276572,76.609550,222.061783,9622.677246
3666.276887,153.219100,148.041188,9474.636058
3666.277202,306.438199,-222.061783,9622.677246
3666.277516,306.438199,-0.000000,9474.636058
3666.277831,306.438199,148.041188,9474.636058
3666.278145,919.314598,-0.000000,9622.677246
3666.278460,612.876398,-0.000000,9696.697840
3666.278775,0.000000,-222.061783,9696.697840
3666.279089,76.609550,-148.041188,9548.656652
3666.279404,459.657299,-370.102971,9918.759623
3666.279719,153.219100,-148.041188,9844.739029
3666.280033,76.609550,-148.041188,9770.718434
3666.280348,0.000000,-222.061783,9622.677246
3666.280662,153.219100,-74.020594,9474.636058
3666.280977,153.219100,-370.102971,9622.677246
3666.281292,0.000000,-0.000000,9918.759623
3666.281606,0.000000,-296.082377,9548.656652
3666.281921,0.000000,-296.082377,9622.677246
3666.282235,0.000000,-0.000000,9548.656652
3666.282550,-459.657299,-518.144159,9622.677246
3666.282865,0.000000,-148.041188,9474.636058
3666.283179,-229.828649,-0.000000,9326.594869
3666.283494,0.000000,-74.020594,9178.553681
3666.283808,0.000000,-0.000000,9400.615463
3666.284123,-383.047749,-74.020594,9400.615463
3666.284438,-306.438199,-0.000000,9104.533087
3666.284752,76.609550,-74.020594,9326.594869
3666.285067,153.219100,-0.000000,9474.636058
3666.285382,76.609550,-0.000000,8956.491898
3666.285696,76.609550,-666.185348,9844.739029
3666.286011,229.828649,-74.020594,9548.656652
3666.286325,153.219100,-0.000000,9400.615463
3666.286640,0.000000,74.020594,9030.512492
3666.286955,0.000000,-0.000000,9474.636058
3666.287269,536.266849,-0.000000,9474.636058
3666.287584,383.047749,-0.000000,9474.636058
3666.287898,229.828649,-0.000000,9622.677246
3666.288213,229.828649,296.082377,9622.677246
3666.288528,229.828649,222.061783,9474.636058
3666.288842,383.047749,222.061783,9474.636058
3666.289157,153.219100,518.144159,9622.677246
3666.289471,153.219100,-74.020594,9548.656652
3666.289786,0.000000,518.144159,9474.636058
3666.290101,229.828649,444.123565,9770.718434
3666.290415,153.219100,296.082377,10066.800811
3666.290730,76.609550,296.082377,9992.780217
3666.291045,-153.219100,-0.000000,9918.759623
3666.291359,76.609550,148.041188,9992.780217
3666.291674,0.000000,370.102971,10140.821405
3666.291988,0.000000,592.164754,10140.821405
3666.292303,153.219100,222.061783,9548.656652
3666.292618,0.000000,148.041188,9770.718434
3666.292932,0.000000,148.041188,9548.656652
3666.293247,153.219100,222.061783,9622.677246
3666.293561,76.609550,666.185348,10288.862594
3666.293876,0.000000,-0.000000,9992.780217
3666.294191,76.609550,-0.000000,9474.636058
3666.294505,0.000000,370.102971,9696.697840
3666.294820,153.219100,222.061783,9770.718434
3666.295134,153.219100,-0.000000,9548.656652
3666.295449,0.000000,296.082377,9474.636058
3666.295764,229.828649,296.082377,9474.636058
3666.296078,76.609550,518.144159,9474.636058
3666.296393,76.609550,296.082377,9104.533087
3666.296708,229.828649,-0.000000,9696.697840
3666.297022,-306.438199,-74.020594,9918.759623
3666.297337,0.000000,148.041188,9548.656652
3666.297651,76.609550,-0.000000,9474.636058
3666.297966,306.438199,-0.000000,9548.656652
3666.298281,229.828649,-0.000000,9548.656652
3666.298595,0.000000,-0.000000,9400.615463
3666.298910,76.609550,-0.000000,9104.533087
3666.299224,153.219100,-0.000000,9770.718434
3666.299539,383.047749,-0.000000,9696.697840
3666.299854,0.000000,-222.061783,9326.594869
3666.300168,689.485948,-0.000000,9696.697840
3666.300483,0.000000,-0.000000,9696.697840
3666.300797,0.000000,222.061783,9474.636058
3666.301112,0.000000,-0.000000,9696.697840
3666.301427,76.609550,-148.041188,9844.739029
3666.301741,383.047749,-296.082377,9548.656652
3666.302056,229.828649,-0.000000,9474.636058
3666.302370,0.000000,-0.000000,9474.636058
3666.302685,306.438199,-74.020594,9548.656652
3666.303000,76.609550,-74.020594,9696.697840
3666.303314,-76.609550,-444.123565,9474.636058
3666.303629,459.657299,-0.000000,9326.594869
3666.303944,0.000000,-148.041188,9252.574275
3666.304258,383.047749,-0.000000,9548.656652
3666.304573,76.609550,-0.000000,9696.697840
3666.304887,0.000000,-0.000000,9400.615463
3666.305202,153.219100,148.041188,9326.594869
3666.305517,76.609550,-0.000000,9178.553681
3666.305831,153.219100,-0.000000,9474.636058
3666.306146,76.609550,-0.000000,9326.594869
3666.306460,0.000000,-148.041188,9326.594869
3666.306775,229.828649,-148.041188,9918.759623
3666.307090,229.828649,-0.000000,9326.594869
3666.307404,153.219100,-74.020594,9178.553681
3666.307719,153.219100,-0.000000,9770.718434
3666.308033,0.000000,-0.000000,9548.656652
3666.308348,153.219100,-0.000000,9474.636058
3666.308663,306.438199,296.082377,9696.697840
3666.308977,153.219100,444.123565,9918.759623
3666.309292,229.828649,-0.000000,9474.636058
3666.309607,-306.438199,444.123565,9178.553681
3666.309921,76.609550,296.082377,9992.780217
3666.310236,153.219100,518.144159,9770.718434
3666.310550,0.000000,518.144159,9696.697840
3666.310865,306.438199,222.061783,9696.697840
3666.311180,0.000000,222.061783,9548.656652
3666.311494,153.219100,444.123565,9696.697840
3666.311809,306.438199,444.123565,9696.697840
3666.312123,153.219100,148.041188,9992.780217
3666.312438,612.876398,370.102971,9844.739029
3666.312753,229.828649,740.205942,9918.759623
3666.313067,306.438199,518.144159,9696.697840
3666.313382,306.438199,444.123565,9548.656652
3666.313696,76.609550,444.123565,9696.697840
3666.314011,-459.657299,-0.000000,9770.718434
3666.314326,76.609550,370.102971,9622.677246
3666.314640,153.219100,296.082377,9400.615463
3666.314955,76.609550,592.164754,9252.574275
3666.315270,76.609550,444.123565,9918.759623
3666.315584,0.000000,222.061783,9918.759623
3666.315899,383.047749,518.144159,9474.636058
3666.316213,229.828649,296.082377,9474.636058
3666.316528,229.828649,222.061783,9622.677246
3666.316843,229.828649,148.041188,9548.656652
3666.317157,0.000000,222.061783,9844.739029
3666.317472,76.609550,222.061783,9622.677246
3666.317786,306.438199,296.082377,9474.636058
3666.318101,306.438199,296.082377,9326.594869
3666.318416,76.609550,-0.000000,9474.636058
3666.318730,76.609550,-0.000000,9474.636058
3666.319045,153.219100,-0.000000,9770.718434
3666.319359,383.047749,-0.000000,9622.677246
3666.319674,306.438199,-74.020594,9696.697840
3666.319989,0.000000,-0.000000,9770.718434
3666.320303,306.438199,-0.000000,9474.636058
3666.320618,229.828649,-0.000000,9474.636058
3666.320933,153.219100,-0.000000,9770.718434
3666.321247,306.438199,-0.000000,9696.697840
3666.321562,229.828649,-0.000000,9548.656652
3666.321876,76.609550,-0.000000,9844.739029
3666.322191,383.047749,-0.000000,9622.677246
3666.322506,306.438199,222.061783,9696.697840
3666.322820,0.000000,-0.000000,9696.697840
3666.323135,0.000000,-0.000000,9474.636058
3666.323449,-306.438199,-222.061783,9770.718434
3666.323764,153.219100,-74.020594,9474.636058
3666.324079,0.000000,-74.020594,9474.636058
3666.324393,0.000000,-0.000000,9474.636058
3666.324708,229.828649,-0.000000,9252.574275
3666.325022,76.609550,-0.000000,9474.636058
3666.325337,0.000000,-74.020594,9844.739029
3666.325652,383.047749,-0.000000,9474.636058
3666.325966,0.000000,-0.000000,9474.636058
3666.326281,0.000000,-0.000000,9770.718434
3666.326596,76.609550,-148.041188,9770.718434
3666.326910,0.000000,-0.000000,9326.594869
3666.327225,153.219100,-0.000000,9474.636058
3666.327539,306.438199,148.041188,9400.615463
3666.327854,766.095498,222.061783,9474.636058
3666.328169,-153.219100,-222.061783,9474.636058
3666.328483,383.047749,-0.000000,9474.636058
3666.328798,76.609550,222.061783,9474.636058
3666.329112,76.609550,-0.000000,9326.594869
3666.329427,0.000000,-0.000000,9474.636058
3666.329742,0.000000,-296.082377,9548.656652
3666.330056,76.609550,-0.000000,9252.574275
3666.330371,0.000000,-0.000000,9474.636058
3666.330685,306.438199,148.041188,9622.677246
3666.331000,0.000000,-0.000000,9474.636058
3666.331315,153.219100,-0.000000,9400.615463
3666.331629,0.000000,-0.000000,9770.718434
3666.331944,76.609550,148.041188,10140.821405
3666.332258,229.828649,370.102971,9918.759623
3666.332573,229.828649,148.041188,9770.718434
3666.332888,0.000000,222.061783,10066.800811
3666.333202,76.609550,370.102971,9770.718434
3666.333517,153.219100,-0.000000,9696.697840
3666.333832,0.000000,370.102971,9844.739029
3666.334146,76.609550,222.061783,9548.656652
3666.334461,0.000000,-0.000000,9400.615463
3666.334775,153.219100,370.102971,10066.800811
3666.335090,0.000000,-0.000000,10066.800811
3666.335405,-306.438199,-0.000000,9696.697840
3666.335719,-153.219100,-0.000000,9696.697840
3666.336034,153.219100,222.061783,9770.718434
3666.336348,0.000000,296.082377,9770.718434
3666.336663,0.000000,148.041188,9474.636058
3666.336978,0.000000,296.082377,9548.656652
3666.337292,0.000000,-0.000000,9844.739029
3666.337607,-229.828649,592.164754,9400.615463
3666.337921,0.000000,148.041188,9474.636058
3666.338236,0.000000,296.082377,9622.677246
3666.338551,0.000000,222.061783,9622.677246
3666.338865,0.000000,296.082377,9474.636058
3666.339180,229.828649,444.123565,9474.636058
3666.339495,459.657299,444.123565,9622.677246
3666.339809,0.000000,148.041188,9104.533087
3666.340124,306.438199,-0.000000,9104.533087
3666.340438,153.219100,-0.000000,9548.656652
3666.340753,459.657299,-0.000000,9326.594869
3666.341068,306.438199,-0.000000,9474.636058
3666.341382,0.000000,-0.000000,9622.677246
3666.341697,0.000000,-0.000000,9622.677246
3666.342011,229.828649,-74.020594,9474.636058
3666.342326,919.314598,-0.000000,9548.656652
3666.342641,383.047749,148.041188,9844.739029
3666.342955,153.219100,296.082377,9474.636058
3666.343270,153.219100,-0.000000,9548.656652
3666.343584,229.828649,-0.000000,9548.656652
3666.343899,76.609550,-148.041188,9400.615463
3666.344214,76.609550,-0.000000,9622.677246
3666.344528,229.828649,222.061783,9918.759623
3666.344843,0.000000,-0.000000,9622.677246
3666.345158,0.000000,-74.020594,9548.656652
3666.345472,383.047749,-0.000000,9474.636058
3666.345787,0.000000,-0.000000,9770.718434
3666.346101,0.000000,-74.020594,9548.656652
3666.346416,0.000000,-74.020594,9622.677246
3666.346731,153.219100,-0.000000,9548.656652
3666.347045,306.438199,-0.000000,9844.739029
3666.347360,229.828649,-0.000000,9474.636058
3666.347674,0.000000,-0.000000,9474.636058
3666.347989,-459.657299,-0.000000,9696.697840
3666.348304,0.000000,-0.000000,9622.677246
3666.348618,306.438199,-0.000000,9474.636058
3666.348933,459.657299,-0.000000,9548.656652
3666.349247,0.000000,444.123565,9696.697840
3666.349562,0.000000,518.144159,9252.574275
3666.349877,76.609550,296.082377,9252.574275
3666.350191,153.219100,-0.000000,9622.677246
3666.350506,-153.219100,-148.041188,9548.656652
3666.350820,76.609550,-0.000000,9178.553681
3666.351135,0.000000,370.102971,9400.615463
3666.351450,229.828649,296.082377,9474.636058
3666.351764,153.219100,370.102971,9622.677246
3666.352079,76.609550,370.102971,9548.656652
3666.352393,229.828649,296.082377,9474.636058
3666.352708,0.000000,-0.000000,9474.636058
3666.353023,306.438199,-0.000000,9474.636058
3666.353337,229.828649,222.061783,9770.718434
3666.353652,76.609550,296.082377,9770.718434
3666.353967,0.000000,-0.000000,9622.677246
3666.354281,306.438199,148.041188,9548.656652
3666.354596,76.609550,222.061783,10140.821405
3666.354910,612.876398,370.102971,9844.739029
3666.355225,229.828649,444.123565,9400.615463
3666.355540,0.000000,222.061783,9844.739029
3666.355854,0.000000,148.041188,9992.780217
3666.356169,229.828649,296.082377,9844.739029
3666.356483,383.047749,296.082377,9770.718434
3666.356798,0.000000,-0.000000,9696.697840
3666.357113,153.219100,-0.000000,9770.718434
3666.357427,76.609550,-0.000000,9696.697840
3666.357742,383.047749,-222.061783,10288.862594
3666.358056,842.705048,-148.041188,10140.821405
3666.358371,0.000000,222.061783,9844.739029
3666.358686,229.828649,444.123565,9770.718434
3666.359000,612.876398,1036.288319,9548.656652
3666.359315,612.876398,740.205942,9104.533087
3666.359629,1149.143247,518.144159,8734.430116
3666.359944,1225.752797,148.041188,8586.388927
3666.360259,842.705048,296.082377,9178.553681
3666.360573,383.047749,444.123565,9622.677246
3666.360888,383.047749,-0.000000,9770.718434
3666.361202,306.438199,-592.164754,10288.862594
3666.361517,536.266849,-0.000000,10362.883188
3666.361832,689.485948,296.082377,10066.800811
3666.362146,766.095498,814.226536,10066.800811
3666.362461,1302.362347,1110.308913,9844.739029
3666.362775,1762.019645,1628.453072,9622.677246
3666.363090,2528.115143,1776.494261,9178.553681
3666.363405,2757.943793,1554.432478,8660.409521
3666.363719,3140.991542,1850.514855,8586.388927
3666.364034,3294.210641,1702.473667,8512.368333
3666.364348,2987.772442,2072.576638,9548.656652
3666.364663,2987.772442,1702.473667,8956.491898
3666.364978,2681.334243,1776.494261,8512.368333
3666.365292,2681.334243,1924.535449,9030.512492
3666.365607,2451.505594,1702.473667,9474.636058
3666.365921,2145.067394,1702.473667,9474.636058
3666.366236,2451.505594,2072.576638,9622.677246
3666.366551,2528.115143,2146.597232,9770.718434
3666.366865,2834.553343,2738.761985,9770.718434
3666.367180,3294.210641,3330.926739,9252.574275
3666.367494,3370.820191,3923.091493,8734.430116
3666.367809,3524.039291,4145.153275,8512.368333
3666.368124,3753.867940,4145.153275,8364.327145
3666.368438,3447.429741,3701.029710,8808.450710
3666.368753,2681.334243,3330.926739,9474.636058
3666.369068,1608.800546,3182.885551,10658.965565
3666.369382,1532.190996,3182.885551,10584.944971
3666.369697,1608.800546,3330.926739,11621.233289
3666.370011,1455.581446,3182.885551,11547.212695
3666.370326,1685.410096,3627.009116,11177.109724
3666.370641,1991.848295,3849.070898,10732.986159
3666.370955,2911.162892,4959.379811,10214.842000
3666.371270,3600.648841,5329.482782,9474.636058
3666.371584,3983.696590,5699.585753,8586.388927
3666.371899,3830.477490,5847.626942,8438.347739
3666.372214,3370.820191,4737.318029,8216.285956
3666.372528,3294.210641,4441.235652,8956.491898
3666.372843,2528.115143,3849.070898,9474.636058
3666.373157,1455.581446,3330.926739,10362.883188
3666.373472,766.095498,2664.741391,11251.130318
3666.373787,-306.438199,2368.659014,12213.398043
3666.374101,-306.438199,2072.576638,12139.377449
3666.374416,-229.828649,2368.659014,12361.439231
3666.374730,383.047749,2590.720797,11769.274478
3666.375045,919.314598,3034.844362,10955.047942
3666.375360,2221.676944,4071.132681,9844.739029
3666.375674,3217.601092,4589.276840,8586.388927
3666.375989,3447.429741,4589.276840,8216.285956
3666.376303,3677.258390,4367.215058,8290.306550
3666.376618,2987.772442,3108.864956,8660.409521
3666.376933,2298.286494,2220.617826,8882.471304
3666.377247,1302.362347,1036.288319,9622.677246
3666.377562,536.266849,370.102971,10732.986159
3666.377876,-536.266849,-0.000000,10658.965565
3666.378191,-842.705048,-0.000000,11399.171507
3666.378506,-995.924147,-74.020594,10955.047942
3666.378820,-766.095498,74.020594,9844.739029
3666.379135,0.000000,740.205942,8956.491898
3666.379449,612.876398,1258.350101,8290.306550
3666.379764,1225.752797,1332.370696,8438.347739
3666.380079,1915.238745,1184.329507,8290.306550
3666.380393,2145.067394,666.185348,8586.388927
3666.380708,1762.019645,666.185348,8956.491898
3666.381022,1302.362347,296.082377,9326.594869
3666.381337,1302.362347,-74.020594,9918.759623
3666.381652,919.314598,-74.020594,10362.883188
3666.381966,306.438199,-296.082377,10436.903782
3666.382281,76.609550,-518.144159,9622.677246
3666.382595,76.609550,-1036.288319,9548.656652
3666.382910,229.828649,-1258.350101,9326.594869
3666.383225,689.485948,-1110.308913,8586.388927
3666.383539,1072.533697,-888.247130,7994.224174
3666.383854,1225.752797,-962.267725,8068.244768
3666.384169,1378.971896,-666.185348,8512.368333
3666.384483,842.705048,-888.247130,8290.306550
3666.384798,689.485948,-740.205942,8586.388927
3666.385112,306.438199,-740.205942,9622.677246
3666.385427,0.000000,-1110.308913,10066.800811
3666.385742,0.000000,-1406.391290,10732.986159
3666.386056,-766.095498,-1924.535449,10881.027347
3666.386371,-459.657299,-1776.494261,10732.986159
3666.386685,-229.828649,-1036.288319,10584.944971
3666.387000,76.609550,-518.144159,10436.903782
3666.387315,306.438199,-296.082377,10214.842000
3666.387629,1072.533697,-592.164754,9104.533087
3666.387944,1608.800546,-444.123565,8808.450710
3666.388258,2068.457845,-444.123565,9030.512492
3666.388573,1991.848295,-592.164754,8512.368333
3666.388888,1378.971896,-740.205942,8660.409521
3666.389202,919.314598,-592.164754,8660.409521
3666.389517,612.876398,-962.267725,8512.368333
3666.389831,229.828649,-1110.308913,8216.285956
3666.390146,76.609550,-1110.308913,9030.512492
3666.390461,-1072.533697,-1332.370696,9326.594869
3666.390775,-1378.971896,-1702.473667,9474.636058
3666.391090,-1225.752797,-1554.432478,9918.759623
3666.391404,-1149.143247,-1258.350101,10140.821405
3666.391719,-842.705048,-814.226536,10807.006753
3666.392034,-383.047749,148.041188,10362.883188
3666.392348,306.438199,592.164754,9918.759623
3666.392663,1072.533697,1924.535449,9548.656652
3666.392977,1915.238745,2294.638420,8956.491898
3666.393292,1532.190996,2886.803174,8142.265362
3666.393607,1302.362347,2738.761985,7920.203579
3666.393921,1072.533697,2368.659014,7846.182985
3666.394236,459.657299,1480.411884,7920.203579
3666.394550,-153.219100,296.082377,8882.471304
3666.394865,-766.095498,-0.000000,9844.739029
3666.395180,-1838.629195,-148.041188,10066.800811
3666.395494,-2451.505594,-740.205942,10510.924376
3666.395809,-2145.067394,-888.247130,11473.192101
3666.396123,-2221.676944,-444.123565,11917.315666
3666.396438,-1455.581446,814.226536,11325.150913
3666.396753,-689.485948,1702.473667,10658.965565
3666.397067,919.314598,2738.761985,10214.842000
3666.397382,1915.238745,3552.988522,9474.636058
3666.397697,2451.505594,3552.988522,8660.409521
3666.398011,2834.553343,3923.091493,8438.347739
3666.398326,2451.505594,3256.906145,8660.409521
3666.398640,1762.019645,3034.844362,8734.430116
3666.398955,689.485948,1924.535449,9474.636058
3666.399270,-153.219100,222.061783,10214.842000
3666.399584,-1532.190996,-888.247130,11547.212695
3666.399899,-2451.505594,-1628.453072,11843.295072
3666.400213,-2911.162892,-1998.556043,12287.418637
3666.400528,-2604.724693,-1554.432478,12509.480420
3666.400843,-1608.800546,-1184.329507,12139.377449
3666.401157,-689.485948,296.082377,11251.130318
3666.401472,76.609550,1258.350101,10362.883188
3666.401786,1762.019645,1924.535449,9474.636058
3666.402101,2757.943793,2664.741391,8956.491898
3666.402416,3677.258390,2812.782580,7994.224174
3666.402730,3907.087040,2590.720797,7624.121203
3666.403045,3600.648841,1924.535449,7994.224174
3666.403359,2604.724693,1480.411884,7476.080014
3666.403674,1762.019645,-0.000000,8438.347739
3666.403989,459.657299,-370.102971,9474.636058
3666.404303,-1378.971896,-1702.473667,9770.718434
3666.404618,-2451.505594,-2664.741391,10658.965565
3666.404932,-2834.553343,-2738.761985,10955.047942
3666.405247,-2528.115143,-2886.803174,11029.068536
3666.405562,-1991.848295,-2368.659014,11103.089130
3666.405876,-919.314598,-1184.329507,10436.903782
3666.406191,383.047749,-148.041188,9474.636058
3666.406505,1762.019645,814.226536,8808.450710
3666.406820,2834.553343,1628.453072,8364.327145
3666.407135,3753.867940,1850.514855,7846.182985
3666.407449,3524.039291,2368.659014,7254.018232
3666.407764,3140.991542,1998.556043,7105.977043
3666.408078,2068.457845,1036.288319,7402.059420
3666.408393,766.095498,-74.020594,7920.203579
3666.408708,-383.047749,-1554.432478,8660.409521
3666.409022,-1762.019645,-2738.761985,9696.697840
3666.409337,-2987.772442,-3256.906145,10066.800811
3666.409651,-3524.039291,-3849.070898,10732.986159
3666.409966,-3600.648841,-3923.091493,11177.109724
3666.410281,-3294.210641,-3404.947333,11547.212695
3666.410595,-2604.724693,-2220.617826,10881.027347
3666.410910,-1072.533697,-740.205942,9918.759623
3666.411224,0.000000,296.082377,9178.553681
3666.411539,2451.505594,1480.411884,8882.471304
3666.411854,2528.115143,2072.576638,7920.203579
3666.412168,2911.162892,2146.597232,7254.018232
3666.412483,2604.724693,1924.535449,7698.141797
3666.412798,1991.848295,1628.453072,7698.141797
3666.413112,612.876398,444.123565,8512.368333
3666.413427,-536.266849,-740.205942,9178.553681
3666.413741,-1685.410096,-2146.597232,9918.759623
3666.414056,-3064.381992,-3330.926739,10807.006753
3666.414371,-3753.867940,-3775.050304,11843.295072
3666.414685,-3217.601092,-4145.153275,12065.356855
3666.415000,-2987.772442,-3034.844362,11621.233289
3666.415314,-2145.067394,-1406.391290,11251.130318
3666.415629,-919.314598,-0.000000,10436.903782
3666.415944,536.266849,1480.411884,9474.636058
3666.416258,2145.067394,2368.659014,8956.491898
3666.416573,3370.820191,3478.967927,7698.141797
3666.416887,3753.867940,3627.009116,7624.121203
3666.417202,3600.648841,3330.926739,7031.956449
3666.417517,2987.772442,2664.741391,7476.080014
3666.417831,1991.848295,1406.391290,8512.368333
3666.418146,229.828649,296.082377,9474.636058
3666.418460,-1608.800546,-740.205942,10436.903782
3666.418775,-2757.943793,-1628.453072,11399.171507
3666.419090,-3753.867940,-2294.638420,11917.315666
3666.419404,-3830.477490,-2442.679609,12287.418637
3666.419719,-3064.381992,-1702.473667,11917.315666
3666.420033,-2221.676944,-444.123565,11621.233289
3666.420348,-612.876398,888.247130,10140.821405
3666.420663,1532.190996,2072.576638,9474.636058
3666.420977,3064.381992,3552.988522,8660.409521
3666.421292,3983.696590,4071.132681,7624.121203
3666.421606,4596.572988,4515.256246,6883.915261
3666.421921,4673.182538,4219.173869,6957.935855
3666.422236,3830.477490,3182.885551,7328.038826
3666.422550,2374.896044,1998.556043,7994.224174
3666.422865,766.095498,444.123565,9474.636058
3666.423179,-1149.143247,-962.267725,10288.862594
3666.423494,-2451.505594,-1850.514855,11103.089130
3666.423809,-3064.381992,-2590.720797,11769.274478
3666.424123,-2681.334243,-2886.803174,12287.418637
3666.424438,-2451.505594,-1998.556043,12213.398043
3666.424752,-1378.971896,-666.185348,11177.109724
3666.425067,153.219100,666.185348,10362.883188
3666.425382,1685.410096,2146.597232,9696.697840
3666.425696,2987.772442,2886.803174,8364.327145
3666.426011,3983.696590,3478.967927,7476.080014
3666.426325,4136.915689,3849.070898,7254.018232
3666.426640,3677.258390,3256.906145,7476.080014
3666.426955,2987.772442,2812.782580,7698.141797
3666.427269,1455.581446,1480.411884,8512.368333
3666.427584,0.000000,296.082377,9622.677246
3666.427899,-1762.019645,-1332.370696,10658.965565
3666.428213,-3140.991542,-2368.659014,10955.047942
3666.428528,-3677.258390,-2960.823768,12139.377449
3666.428842,-4213.525239,-2960.823768,12139.377449
3666.429157,-3447.429741,-2294.638420,11917.315666
3666.429472,-2221.676944,-888.247130,11177.109724
3666.429786,-919.314598,444.123565,10288.862594
3666.430101,689.485948,1776.494261,9252.574275
3666.430415,2068.457845,2516.700203,8734.430116
3666.430730,2834.553343,3552.988522,7846.182985
3666.431045,3600.648841,3404.947333,6957.935855
3666.431359,3217.601092,2960.823768,7179.997637
3666.431674,2911.162892,1850.514855,7698.141797
3666.431988,536.266849,296.082377,8216.285956
3666.432303,-383.047749,-666.185348,8882.471304
3666.432618,-1915.238745,-2072.576638,10288.862594
3666.432932,-3524.039291,-3108.864956,11399.171507
3666.433247,-3907.087040,-3701.029710,11917.315666
3666.433561,-4366.744339,-3552.988522,12287.418637
3666.433876,-3600.648841,-2960.823768,12213.398043
3666.434191,-2221.676944,-1628.453072,11325.150913
3666.434505,-919.314598,-444.123565,10362.883188
3666.434820,689.485948,666.185348,9548.656652
3666.435134,2221.676944,1776.494261,9030.512492
3666.435449,3370.820191,2516.700203,7402.059420
3666.435764,4136.915689,3108.864956,7105.977043
3666.436078,3907.087040,2516.700203,7698.141797
3666.436393,2681.334243,1628.453072,7698.141797
3666.436707,1302.362347,296.082377,8290.306550
3666.437022,0.000000,-1036.288319,9104.533087
3666.437337,-1455.581446,-2738.761985,10510.924376
3666.437651,-3217.601092,-3478.967927,11177.109724
3666.437966,-4136.915689,-3997.112087,12213.398043
3666.438280,-3524.039291,-4367.215058,12509.480420
3666.438595,-2757.943793,-3627.009116,11991.336260
3666.438910,-2374.896044,-1998.556043,11029.068536
3666.439224,-383.047749,-666.185348,10510.924376
3666.439539,1149.143247,518.144159,9844.739029
3666.439853,2911.162892,2072.576638,8216.285956
3666.440168,3983.696590,2886.803174,7402.059420
3666.440483,4749.792088,3404.947333,6957.935855
3666.440797,4366.744339,2960.823768,6883.915261
3666.441112,3370.820191,2220.617826,7179.997637
3666.441427,1991.848295,962.267725,7772.162391
3666.441741,459.657299,-666.185348,8734.430116
3666.442056,-1455.581446,-1924.535449,9844.739029
3666.442370,-2987.772442,-2812.782580,10658.965565
3666.442685,-3830.477490,-3775.050304,11695.253884
3666.443000,-3753.867940,-3627.009116,12139.377449
3666.443314,-3140.991542,-2960.823768,12065.356855
3666.443629,-2298.286494,-1776.494261,11473.192101
3666.443943,-383.047749,-0.000000,10066.800811
3666.444258,1225.752797,1406.391290,8882.471304
3666.444573,2451.505594,3034.844362,7772.162391
3666.444887,3753.867940,3923.091493,7772.162391
3666.445202,4136.915689,4293.194464,6883.915261
3666.445516,4213.525239,3775.050304,6809.894666
3666.445831,3140.991542,3108.864956,7476.080014
3666.446146,1532.190996,1924.535449,7920.203579
3666.446460,76.609550,444.123565,9030.512492
3666.446775,-1608.800546,-962.267725,10807.006753
3666.447089,-2987.772442,-2368.659014,11769.274478
3666.447404,-3983.696590,-2960.823768,12361.439231
3666.447719,-3983.696590,-3034.844362,12509.480420
3666.448033,-3447.429741,-2220.617826,12213.398043
3666.448348,-2068.457845,-888.247130,11843.295072
3666.448662,-612.876398,888.247130,10510.924376
3666.448977,1302.362347,1998.556043,9770.718434
3666.449291,2681.334243,3627.009116,8734.430116
3666.449606,3983.696590,4515.256246,7402.059420
3666.449920,4519.963438,4663.297435,7105.977043
3666.450235,4213.525239,4219.173869,7328.038826
3666.450549,3217.601092,3034.844362,7920.203579
3666.450863,1225.752797,1628.453072,8660.409521
3666.451178,-229.828649,222.061783,9770.718434
3666.451492,-1455.581446,-962.267725,11029.068536
3666.451806,-3370.820191,-2072.576638,11843.295072
3666.452121,-4213.525239,-3256.906145,12435.459826
3666.452435,-4290.134789,-2812.782580,12805.562797
3666.452750,-3294.210641,-2072.576638,12657.521608
3666.453064,-2298.286494,-1036.288319,11695.253884
3666.453378,-306.438199,592.164754,10362.883188
3666.453693,1532.190996,2294.638420,9400.615463
3666.454007,2834.553343,3182.885551,8142.265362
3666.454321,4596.572988,3849.070898,7105.977043
3666.454636,4673.182538,4145.153275,6809.894666
3666.454950,4519.963438,3701.029710,6883.915261
3666.455265,3370.820191,2590.720797,7031.956449
3666.455579,1762.019645,1258.350101,7624.121203
3666.455893,306.438199,-518.144159,8808.450710
3666.456208,-1608.800546,-2220.617826,10066.800811
3666.456522,-3217.601092,-3404.947333,11029.068536
3666.456836,-4136.915689,-3997.112087,11917.315666
3666.457151,-3907.087040,-3923.091493,12213.398043
3666.457465,-3447.429741,-3552.988522,11991.336260
3666.457780,-2068.457845,-1776.494261,11843.295072
3666.458094,-612.876398,-444.123565,10584.944971
3666.458408,1149.143247,1110.308913,9474.636058
3666.458723,3064.381992,2146.597232,8142.265362
3666.459037,4213.525239,3182.885551,7846.182985
3666.459352,4366.744339,3701.029710,6809.894666
3666.459666,4596.572988,2960.823768,6439.791695
3666.459980,3600.648841,2072.576638,7105.977043
3666.460295,2068.457845,666.185348,8142.265362
3666.460609,612.876398,-1036.288319,8882.471304
3666.460923,-1685.410096,-2516.700203,10362.883188
3666.461238,-3294.210641,-3701.029710,11251.130318
3666.461552,-4290.134789,-4441.235652,11769.274478
3666.461867,-4290.134789,-4441.235652,12139.377449
3666.462181,-3677.258390,-4071.132681,12139.377449
3666.462495,-2604.724693,-2442.679609,11547.212695
3666.462810,-919.314598,-888.247130,10510.924376
3666.463124,766.095498,888.247130,9252.574275
3666.463438,2757.943793,2368.659014,8290.306550
3666.463753,3600.648841,2886.803174,7550.100608
3666.464067,3983.696590,3478.967927,6809.894666
3666.464382,3830.477490,2960.823768,6957.935855
3666.464696,3064.381992,2368.659014,7105.977043
3666.465010,2068.457845,666.185348,7698.141797
3666.465325,76.609550,-222.061783,8882.471304
3666.465639,-1915.238745,-1924.535449,10584.944971
3666.465953,-3524.039291,-3182.885551,10584.944971
3666.466268,-4673.182538,-4145.153275,11843.295072
3666.466582,-4443.353888,-4663.297435,12065.356855
3666.466897,-3983.696590,-3701.029710,12435.459826
3666.467211,-3294.210641,-2294.638420,11621.233289
3666.467525,-1378.971896,-518.144159,10510.924376
3666.467840,766.095498,1110.308913,9548.656652
3666.468154,2757.943793,2368.659014,8068.244768
3666.468469,3753.867940,3182.885551,7698.141797
3666.468783,3907.087040,3923.091493,7254.018232
3666.469097,3830.477490,4071.132681,7105.977043
3666.469412,3294.210641,3330.926739,7031.956449
3666.469726,1991.848295,1850.514855,7698.141797
3666.470040,76.609550,518.144159,9252.574275
3666.470355,-1532.190996,-1406.391290,10362.883188
3666.470669,-2987.772442,-2294.638420,11473.192101
3666.470984,-4060.306139,-2960.823768,12361.439231
3666.471298,-3830.477490,-3627.009116,12435.459826
3666.471612,-3600.648841,-2738.761985,12657.521608
3666.471927,-2604.724693,-1110.308913,11621.233289
3666.472241,-1072.533697,296.082377,10436.903782
3666.472555,766.095498,1702.473667,9474.636058
3666.472870,2604.724693,3404.947333,8808.450710
3666.473184,4136.915689,4219.173869,7624.121203
3666.473499,4749.792088,4737.318029,6809.894666
3666.473813,4443.353888,4441.235652,6883.915261
3666.474127,3907.087040,3330.926739,7328.038826
3666.474442,2528.115143,2442.679609,8364.327145
3666.474756,536.266849,1110.308913,9326.594869
3666.475070,-1149.143247,-888.247130,10288.862594
3666.475385,-2757.943793,-1998.556043,11473.192101
3666.475699,-3294.210641,-3108.864956,12213.398043
3666.476014,-3753.867940,-2812.782580,12805.562797
3666.476328,-3370.820191,-2516.700203,12879.583391
3666.476642,-2681.334243,-1406.391290,11473.192101
3666.476957,-689.485948,-0.000000,10510.924376
3666.477271,1378.971896,1406.391290,9696.697840
3666.477585,2451.505594,2664.741391,8512.368333
3666.477900,3830.477490,3849.070898,7476.080014
3666.478214,4519.963438,4145.153275,6883.915261
3666.478529,4749.792088,3701.029710,7031.956449
3666.478843,3983.696590,2812.782580,6661.853478
3666.479157,2298.286494,1702.473667,7772.162391
3666.479472,536.266849,296.082377,9252.574275
3666.479786,-1455.581446,-1184.329507,10288.862594
3666.480101,-2757.943793,-2072.576638,10807.006753
3666.480415,-3524.039291,-3034.844362,12287.418637
3666.480729,-3830.477490,-3404.947333,12509.480420
3666.481044,-3600.648841,-3256.906145,12361.439231
3666.481358,-2757.943793,-1924.535449,11029.068536
3666.481672,-1225.752797,-296.082377,10807.006753
3666.481987,612.876398,888.247130,9844.739029
3666.482301,2528.115143,2738.761985,8512.368333
3666.482616,3907.087040,3330.926739,7179.997637
3666.482930,4213.525239,3552.988522,6957.935855
3666.483244,3830.477490,3330.926739,6883.915261
3666.483559,3370.820191,2738.761985,7179.997637
3666.483873,1915.238745,1554.432478,7994.224174
3666.484187,76.609550,-0.000000,8586.388927
3666.484502,-1838.629195,-1628.453072,9770.718434
3666.484816,-3217.601092,-2886.803174,11547.212695
3666.485131,-4673.182538,-3775.050304,12731.542202
3666.485445,-4596.572988,-3997.112087,12657.521608
3666.485759,-4213.525239,-3849.070898,12583.501014
3666.486074,-3140.991542,-2516.700203,11695.253884
3666.486388,-1532.190996,-1332.370696,10732.986159
3666.486702,229.828649,370.102971,9622.677246
3666.487017,1685.410096,1628.453072,8586.388927
3666.487331,3064.381992,2590.720797,7846.182985
3666.487646,3830.477490,3330.926739,6957.935855
3666.487960,3830.477490,3256.906145,6957.935855
3666.488274,3294.210641,2146.597232,7105.977043
3666.488589,2068.457845,1110.308913,7846.182985
3666.488903,689.485948,-444.123565,8734.430116
3666.489218,-842.705048,-1998.556043,10362.883188
3666.489532,-2528.115143,-3627.009116,10807.006753
3666.489846,-3677.258390,-3849.070898,11547.212695
3666.490161,-3753.867940,-4219.173869,11843.295072
3666.490475,-3294.210641,-3552.988522,11991.336260
3666.490789,-2451.505594,-2368.659014,10955.047942
3666.491104,-1302.362347,-1184.329507,10436.903782
3666.491418,1225.752797,222.061783,9474.636058
3666.491733,2451.505594,1480.411884,8290.306550
3666.492047,3064.381992,2516.700203,7624.121203
3666.492361,3907.087040,2812.782580,7476.080014
3666.492676,4060.306139,3034.844362,7476.080014
3666.492990,3370.820191,2738.761985,7179.997637
3666.493304,2451.505594,2146.597232,8142.265362
3666.493619,612.876398,370.102971,8808.450710
3666.493933,-689.485948,-740.205942,10510.924376
3666.494248,-2298.286494,-2220.617826,10881.027347
3666.494562,-3294.210641,-3330.926739,11843.295072
3666.494876,-3600.648841,-3330.926739,12139.377449
3666.495191,-3140.991542,-2664.741391,11843.295072
3666.495505,-2604.724693,-1776.494261,11473.192101
3666.495819,-1302.362347,-222.061783,10658.965565
3666.496134,612.876398,1110.308913,9844.739029
3666.496448,1915.238745,2516.700203,8512.368333
3666.496763,3294.210641,2812.782580,7698.141797
3666.497077,4136.915689,3775.050304,6957.935855
3666.497391,4136.915689,3701.029710,6883.915261
3666.497706,3600.648841,2886.803174,7105.977043
3666.498020,2451.505594,1924.535449,8068.244768
3666.498335,995.924147,888.247130,9104.533087
3666.498649,-459.657299,-444.123565,9992.780217
3666.498963,-2221.676944,-1628.453072,10807.006753
3666.499278,-3064.381992,-2442.679609,11991.336260
3666.499592,-3677.258390,-2886.803174,12287.418637
3666.499906,-3294.210641,-2368.659014,12139.377449
3666.500221,-2528.115143,-1184.329507,11103.089130
3666.500535,-919.314598,-444.123565,11029.068536
3666.500850,689.485948,1628.453072,9622.677246
3666.501164,1838.629195,2664.741391,8734.430116
3666.501478,3064.381992,3627.009116,8142.265362
3666.501793,3753.867940,4367.215058,7105.977043
3666.502107,3907.087040,3627.009116,7402.059420
3666.502421,3064.381992,2886.803174,7624.121203
3666.502736,1762.019645,1998.556043,8660.409521
3666.503050,459.657299,296.082377,9326.594869
3666.503365,-1302.362347,-666.185348,10658.965565
3666.503679,-2604.724693,-1702.473667,11917.315666
3666.503993,-3677.258390,-2664.741391,12213.398043
3666.504308,-3524.039291,-2886.803174,12731.542202
3666.504622,-2987.772442,-2294.638420,12287.418637
3666.504936,-2451.505594,-1110.308913,11695.253884
3666.505251,-1149.143247,-0.000000,10584.944971
3666.505565,536.266849,1406.391290,9622.677246
3666.505880,2068.457845,2368.659014,8882.471304
3666.506194,2911.162892,3330.926739,7624.121203
3666.506508,3524.039291,3182.885551,7031.956449
3666.506823,3524.039291,2960.823768,7254.018232
3666.507137,2834.553343,2368.659014,7624.121203
3666.507451,1991.848295,1258.350101,7772.162391
3666.507766,306.438199,-148.041188,8882.471304
3666.508080,-1149.143247,-1480.411884,10066.800811
3666.508395,-2451.505594,-2442.679609,11029.068536
3666.508709,-3294.210641,-3108.864956,11621.233289
3666.509023,-3064.381992,-3552.988522,12065.356855
3666.509338,-3217.601092,-2812.782580,11621.233289
3666.509652,-2298.286494,-2072.576638,10955.047942
3666.509967,-689.485948,-518.144159,10436.903782
3666.510281,842.705048,518.144159,9474.636058
3666.510595,2145.067394,1184.329507,8142.265362
3666.510910,2987.772442,2368.659014,7179.997637
3666.511224,3600.648841,2664.741391,7105.977043
3666.511538,3370.820191,2590.720797,6735.874072
3666.511853,2681.334243,1850.514855,7179.997637
3666.512167,1762.019645,592.164754,7328.038826
3666.512482,383.047749,-518.144159,8808.450710
3666.512796,-1149.143247,-1924.535449,10288.862594
3666.513110,-2834.553343,-2960.823768,11177.109724
3666.513425,-3524.039291,-3478.967927,11843.295072
3666.513739,-3447.429741,-3552.988522,11991.336260
3666.514053,-3370.820191,-3034.844362,12287.418637
3666.514368,-2145.067394,-2220.617826,11695.253884
3666.514682,-1072.533697,-518.144159,10732.986159
3666.514997,766.095498,740.205942,9178.553681
3666.515311,2298.286494,1406.391290,8512.368333
3666.515625,3294.210641,2368.659014,8068.244768
3666.515940,3753.867940,2960.823768,7179.997637
3666.516254,3677.258390,2886.803174,6957.935855
3666.516568,3217.601092,2294.638420,7328.038826
3666.516883,2068.457845,1258.350101,7476.080014
3666.517197,459.657299,148.041188,8882.471304
3666.517512,-1149.143247,-1554.432478,10214.842000
3666.517826,-2451.505594,-2220.617826,10807.006753
3666.518140,-3140.991542,-3034.844362,11621.233289
3666.518455,-3447.429741,-3256.906145,11917.315666
3666.518769,-2834.553343,-2590.720797,12509.480420
3666.519084,-2451.505594,-1554.432478,11399.171507
3666.519398,-1225.752797,-222.061783,10140.821405
3666.519712,459.657299,1258.350101,9770.718434
3666.520027,1991.848295,2664.741391,9030.512492
3666.520341,2834.553343,3108.864956,8068.244768
3666.520655,3753.867940,3775.050304,7402.059420
3666.520970,3677.258390,3478.967927,7105.977043
3666.521284,3064.381992,2886.803174,7105.977043
3666.521599,1838.629195,1998.556043,8142.265362
3666.521913,76.609550,666.185348,9178.553681
3666.522227,-1685.410096,-814.226536,10140.821405
3666.522542,-2757.943793,-1998.556043,10881.027347
3666.522856,-3753.867940,-2442.679609,11769.274478
3666.523170,-3983.696590,-3034.844362,12213.398043
3666.523485,-3217.601092,-2368.659014,12879.583391
3666.523799,-2221.676944,-1110.308913,11843.295072
3666.524114,-995.924147,-0.000000,10510.924376
3666.524428,842.705048,1776.494261,9548.656652
3666.524742,2451.505594,2738.761985,8734.430116
3666.525057,3677.258390,3775.050304,7698.141797
3666.525371,4060.306139,4293.194464,7254.018232
3666.525685,4290.134789,3775.050304,7179.997637
3666.526000,3064.381992,2516.700203,7476.080014
3666.526314,1608.800546,1628.453072,8290.306550
3666.526629,383.047749,518.144159,9548.656652
3666.526943,-1072.533697,-888.247130,10140.821405
3666.527257,-2374.896044,-2220.617826,11399.171507
3666.527572,-3753.867940,-2590.720797,12139.377449
3666.527886,-3600.648841,-2590.720797,12509.480420
3666.528201,-3217.601092,-2368.659014,12287.418637
3666.528515,-2451.505594,-1184.329507,11769.274478
3666.528829,-689.485948,444.123565,10658.965565
3666.529144,612.876398,1406.391290,9696.697840
3666.529458,2451.505594,2442.679609,8956.491898
3666.529772,3447.429741,3256.906145,7402.059420
3666.530087,3677.258390,3627.009116,6735.874072
3666.530401,3753.867940,2960.823768,7772.162391
3666.530716,3140.991542,2886.803174,7328.038826
3666.531030,1685.410096,1480.411884,7772.162391
3666.531344,383.047749,-0.000000,8734.430116
3666.531659,-1302.362347,-1628.453072,9992.780217
3666.531973,-2757.943793,-2442.679609,11103.089130
3666.532287,-3677.258390,-3034.844362,11621.233289
3666.532602,-3983.696590,-3775.050304,12139.377449
3666.532916,-3370.820191,-3182.885551,12213.398043
3666.533231,-2528.115143,-1998.556043,11473.192101
3666.533545,-842.705048,-592.164754,10214.842000
3666.533859,612.876398,592.164754,9548.656652
3666.534174,2221.676944,1924.535449,8734.430116
3666.534488,3447.429741,3108.864956,7698.141797
3666.534802,3677.258390,3182.885551,6957.935855
3666.535117,4136.915689,2960.823768,7105.977043
3666.535431,3677.258390,2294.638420,6587.832884
3666.535746,2451.505594,1110.308913,7994.224174
3666.536060,536.266849,-592.164754,9104.533087
3666.536374,-1302.362347,-1924.535449,10510.924376
3666.536689,-2757.943793,-2960.823768,11399.171507
3666.537003,-3524.039291,-3478.967927,11843.295072
3666.537317,-3830.477490,-3627.009116,11991.336260
3666.537632,-2911.162892,-2960.823768,12065.356855
3666.537946,-2451.505594,-2146.597232,11621.233289
3666.538261,-1149.143247,-1036.288319,10658.965565
3666.538575,689.485948,592.164754,9548.656652
3666.538889,2068.457845,1554.432478,8586.388927
3666.539204,2757.943793,2442.679609,8216.285956
3666.539518,3447.429741,3108.864956,7402.059420
3666.539833,3907.087040,3330.926739,7105.977043
3666.540147,2911.162892,2442.679609,7179.997637
3666.540461,2145.067394,1850.514855,7846.182985
3666.540776,689.485948,-74.020594,8290.306550
3666.541090,-1149.143247,-1554.432478,9770.718434
3666.541404,-2528.115143,-2812.782580,10955.047942
3666.541719,-3753.867940,-3478.967927,11843.295072
3666.542033,-3294.210641,-4071.132681,12287.418637
3666.542348,-3600.648841,-3552.988522,11917.315666
3666.542662,-2757.943793,-1998.556043,11029.068536
3666.542976,-995.924147,-222.061783,10066.800811
3666.543291,842.705048,814.226536,9474.636058
3666.543605,2451.505594,1924.535449,8290.306550
3666.543919,3294.210641,2886.803174,7328.038826
3666.544234,3983.696590,3330.926739,6957.935855
3666.544548,3983.696590,3478.967927,6735.874072
3666.544863,3600.648841,2516.700203,7550.100608
3666.545177,2145.067394,1850.514855,8660.409521
3666.545491,1302.362347,-0.000000,9030.512492
3666.545806,-995.924147,-1332.370696,10214.842000
3666.546120,-2757.943793,-2294.638420,11029.068536
3666.546434,-3294.210641,-2812.782580,11843.295072
3666.546749,-3830.477490,-3034.844362,12361.439231
3666.547063,-3217.601092,-2516.700203,12509.480420
3666.547378,-2451.505594,-1480.411884,11695.253884
3666.547692,-842.705048,-0.000000,10510.924376
3666.548006,612.876398,1332.370696,9622.677246
3666.548321,2221.676944,2738.761985,8808.450710
3666.548635,3600.648841,3478.967927,8216.285956
3666.548950,3830.477490,4071.132681,7105.977043
3666.549264,4213.525239,4071.132681,7254.018232
3666.549578,3217.601092,3108.864956,7476.080014
3666.549893,1762.019645,1702.473667,8068.244768
3666.550207,383.047749,592.164754,9326.594869
3666.550521,-1455.581446,-666.185348,10362.883188
3666.550836,-2451.505594,-2072.576638,11029.068536
3666.551150,-3830.477490,-2664.741391,12139.377449
3666.551464,-3983.696590,-3034.844362,12139.377449
3666.551779,-3677.258390,-2368.659014,12731.542202
3666.552093,-2451.505594,-1332.370696,11621.233289
3666.552407,-842.705048,592.164754,10658.965565
3666.552721,919.314598,1702.473667,9474.636058
3666.553036,2681.334243,3034.844362,8364.327145
3666.553350,3600.648841,3849.070898,7402.059420
3666.553664,4290.134789,4219.173869,6883.915261
3666.553979,4060.306139,3627.009116,7105.977043
3666.554293,3524.039291,2812.782580,7402.059420
3666.554607,1762.019645,1258.350101,8142.265362
3666.554922,306.438199,148.041188,9622.677246
3666.555236,-1302.362347,-1184.329507,10362.883188
3666.555550,-2987.772442,-2738.761985,11251.130318
3666.555865,-3524.039291,-3034.844362,12287.418637
3666.556179,-3294.210641,-3627.009116,12287.418637
3666.556493,-3217.601092,-2738.761985,12065.356855
3666.556808,-2451.505594,-1184.329507,11547.212695
3666.557122,-612.876398,-0.000000,10214.842000
3666.557436,1072.533697,1110.308913,9474.636058
3666.557751,2374.896044,2368.659014,8808.450710
3666.558065,3600.648841,3108.864956,7402.059420
3666.558379,3830.477490,3627.009116,7031.956449
3666.558694,3983.696590,3108.864956,7402.059420
3666.559008,2987.772442,2590.720797,7772.162391
3666.559322,1991.848295,1258.350101,7846.182985
3666.559637,229.828649,-444.123565,9030.512492
3666.559951,-1455.581446,-1702.473667,10510.924376
3666.560265,-2987.772442,-2738.761985,11177.109724
3666.560579,-3830.477490,-3330.926739,11843.295072
3666.560894,-3907.087040,-3701.029710,12287.418637
3666.561208,-3370.820191,-3330.926739,11843.295072
3666.561522,-2298.286494,-1998.556043,11325.150913
3666.561837,-842.705048,-518.144159,10288.862594
3666.562151,919.314598,814.226536,9474.636058
3666.562465,2145.067394,1480.411884,8216.285956
3666.562780,3600.648841,2738.761985,7624.121203
3666.563094,4060.306139,3330.926739,6809.894666
3666.563408,4136.915689,2960.823768,6957.935855
3666.563723,4060.306139,2294.638420,6735.874072
3666.564037,2604.724693,962.267725,7328.038826
3666.564351,919.314598,-296.082377,9030.512492
3666.564666,-1302.362347,-1924.535449,10140.821405
3666.564980,-2757.943793,-2960.823768,10955.047942
3666.565294,-3600.648841,-3775.050304,11843.295072
3666.565609,-3753.867940,-3627.009116,12361.439231
3666.565923,-3064.381992,-3404.947333,11991.336260
3666.566237,-2298.286494,-1924.535449,11695.253884
3666.566552,-612.876398,-148.041188,10658.965565
3666.566866,1455.581446,740.205942,9400.615463
3666.567180,2298.286494,2368.659014,8512.368333
3666.567495,3524.039291,3330.926739,7698.141797
3666.567809,4290.134789,3552.988522,6883.915261
3666.568123,3830.477490,3478.967927,7105.977043
3666.568437,3600.648841,2516.700203,7179.997637
3666.568752,1532.190996,1258.350101,8290.306550
3666.569066,153.219100,-0.000000,9030.512492
3666.569380,-1378.971896,-1628.453072,10362.883188
3666.569695,-2987.772442,-2738.761985,11547.212695
3666.570009,-3064.381992,-3330.926739,12361.439231
3666.570323,-4136.915689,-3627.009116,12361.439231
3666.570638,-3677.258390,-2812.782580,12657.521608
3666.570952,-2604.724693,-1702.473667,11917.315666
3666.571266,-766.095498,-0.000000,10732.986159
3666.571581,1149.143247,1332.370696,9400.615463
3666.571895,2221.676944,2664.741391,8512.368333
3666.572209,3370.820191,3775.050304,7550.100608
3666.572524,4136.915689,4219.173869,6957.935855
3666.572838,4136.915689,3849.070898,7105.977043
3666.573152,2987.772442,2812.782580,7328.038826
3666.573467,1915.238745,1628.453072,7920.203579
3666.573781,0.000000,74.020594,8956.491898
3666.574095,-1302.362347,-1110.308913,10140.821405
3666.574410,-2681.334243,-2368.659014,11473.192101
3666.574724,-3600.648841,-3108.864956,12213.398043
3666.575038,-3830.477490,-3330.926739,12435.459826
3666.575353,-3370.820191,-2738.761985,12361.439231
3666.575667,-2451.505594,-1702.473667,11325.150913
3666.575981,-536.266849,-74.020594,10881.027347
3666.576295,995.924147,1554.432478,9326.594869
3666.576610,2681.334243,3108.864956,8142.265362
3666.576924,3524.039291,3701.029710,7328.038826
3666.577238,4213.525239,4071.132681,6735.874072
3666.577553,3907.087040,3701.029710,7105.977043
3666.577867,3064.381992,2886.803174,7031.956449
3666.578181,1532.190996,1850.514855,8586.388927
3666.578496,76.609550,296.082377,9326.594869
3666.578810,-1762.019645,-1332.370696,10658.965565
3666.579124,-3294.210641,-2516.700203,11473.192101
3666.579439,-4213.525239,-3108.864956,12139.377449
3666.579753,-4060.306139,-3034.844362,12805.562797
3666.580067,-3677.258390,-2664.741391,12435.459826
3666.580382,-2757.943793,-1332.370696,11695.253884
3666.580696,-1072.533697,-370.102971,11029.068536
3666.581010,842.705048,1406.391290,9696.697840
3666.581325,2451.505594,2442.679609,8586.388927
3666.581639,3677.258390,3330.926739,7624.121203
3666.581953,4290.134789,3404.947333,7031.956449
3666.582268,4213.525239,3330.926739,7031.956449
3666.582582,3830.477490,2590.720797,7105.977043
3666.582896,2451.505594,1110.308913,7402.059420
3666.583211,842.705048,-370.102971,8808.450710
3666.583525,-1455.581446,-2072.576638,10732.986159
3666.583839,-2681.334243,-2738.761985,11103.089130
3666.584154,-3370.820191,-3478.967927,11769.274478
3666.584468,-3217.601092,-3478.967927,11991.336260
3666.584782,-2987.772442,-3256.906145,11843.295072
3666.585096,-2145.067394,-2072.576638,11769.274478
3666.585411,-306.438199,-370.102971,10584.944971
3666.585725,1302.362347,888.247130,9548.656652
3666.586039,2757.943793,2146.597232,7994.224174
3666.586354,3524.039291,2960.823768,7476.080014
3666.586668,3983.696590,3330.926739,7254.018232
3666.586982,3830.477490,2886.803174,6883.915261
3666.587297,3140.991542,2590.720797,7031.956449
3666.587611,2145.067394,1480.411884,7920.203579
3666.587925,842.705048,-222.061783,8882.471304
3666.588240,-1378.971896,-1406.391290,9992.780217
3666.588554,-2528.115143,-2590.720797,11029.068536
3666.588868,-3907.087040,-3701.029710,11843.295072
3666.589183,-4060.306139,-3849.070898,12879.583391
3666.589497,-3600.648841,-3627.009116,12731.542202
3666.589811,-2681.334243,-2146.597232,11547.212695
3666.590126,-1378.971896,-666.185348,10362.883188
3666.590440,612.876398,592.164754,9622.677246
3666.590754,2451.505594,1998.556043,8734.430116
3666.591069,2987.772442,2960.823768,7698.141797
3666.591383,3753.867940,3552.988522,6883.915261
3666.591697,3600.648841,3478.967927,6883.915261
3666.592012,3064.381992,2516.700203,7476.080014
3666.592326,1991.848295,1258.350101,8142.265362
3666.592640,76.609550,-296.082377,9104.533087
3666.592954,-1608.800546,-1850.514855,10214.842000
3666.593269,-3217.601092,-2664.741391,11325.150913
3666.593583,-4060.306139,-3330.926739,11843.295072
3666.593897,-4136.915689,-3627.009116,12509.480420
3666.594212,-3447.429741,-3108.864956,12509.480420
3666.594526,-2987.772442,-1776.494261,11251.130318
3666.594840,-1225.752797,-148.041188,10436.903782
3666.595155,612.876398,1332.370696,9622.677246
3666.595469,2221.676944,2368.659014,8216.285956
3666.595783,3217.601092,3256.906145,7698.141797
3666.596098,4213.525239,3775.050304,6809.894666
3666.596412,4136.915689,3330.926739,7179.997637
3666.596726,3217.601092,2516.700203,7179.997637
3666.597041,1915.238745,1776.494261,7550.100608
3666.597355,306.438199,-0.000000,8808.450710
3666.597669,-1532.190996,-1110.308913,10066.800811
3666.597984,-2757.943793,-2368.659014,11103.089130
3666.598298,-3677.258390,-3108.864956,12065.356855
3666.598612,-3524.039291,-3627.009116,12509.480420
3666.598927,-2911.162892,-2442.679609,12731.542202
3666.599241,-2451.505594,-1036.288319,11621.233289
3666.599555,-459.657299,444.123565,10584.944971
3666.599870,1225.752797,1702.473667,9696.697840
3666.600184,3064.381992,2812.782580,9030.512492
3666.600498,4213.525239,3849.070898,7328.038826
3666.600812,4596.572988,4145.153275,6957.935855
3666.601127,4519.963438,3627.009116,7179.997637
3666.601441,3677.258390,2738.761985,7772.162391
3666.601755,2451.505594,1258.350101,8216.285956
3666.602070,536.266849,-0.000000,9474.636058
3666.602384,-995.924147,-1184.329507,10214.842000
3666.602698,-2528.115143,-2368.659014,11325.150913
3666.603013,-3447.429741,-2886.803174,12065.356855
3666.603327,-3983.696590,-3182.885551,12435.459826
3666.603641,-3140.991542,-2590.720797,12065.356855
3666.603956,-1991.848295,-1332.370696,11547.212695
3666.604270,-383.047749,222.061783,10214.842000
3666.604584,1225.752797,1406.391290,9474.636058
3666.604899,2834.553343,2738.761985,8734.430116
3666.605213,3830.477490,3330.926739,7476.080014
3666.605527,4136.915689,3701.029710,7179.997637
3666.605842,3830.477490,3330.926739,7328.038826
3666.606156,2911.162892,2442.679609,7476.080014
3666.606470,1455.581446,962.267725,8290.306550
3666.606785,0.000000,-592.164754,9178.553681
3666.607099,-2068.457845,-2220.617826,10584.944971
3666.607413,-3370.820191,-2960.823768,11177.109724
3666.607728,-4060.306139,-3256.906145,11843.295072
3666.608042,-4519.963438,-3849.070898,11917.315666
3666.608356,-3830.477490,-2738.761985,11991.336260
3666.608670,-2451.505594,-1480.411884,11177.109724
3666.608985,-1072.533697,-0.000000,10214.842000
3666.609299,1149.143247,1184.329507,9178.553681
3666.609613,2451.505594,2664.741391,8364.327145
3666.609928,3447.429741,3330.926739,7402.059420
3666.610242,3753.867940,3552.988522,6957.935855
3666.610556,3907.087040,3330.926739,7105.977043
3666.610871,2987.772442,2516.700203,7402.059420
3666.611185,1838.629195,1332.370696,8290.306550
3666.611499,0.000000,-666.185348,9622.677246
3666.611814,-1915.238745,-1924.535449,10362.883188
3666.612128,-2987.772442,-2590.720797,11177.109724
3666.612442,-3907.087040,-3404.947333,12213.398043
3666.612757,-3907.087040,-3404.947333,12139.377449
3666.613071,-3064.381992,-2442.679609,11917.315666
3666.613385,-1838.629195,-1406.391290,10881.027347
3666.613700,76.609550,-0.000000,10362.883188
3666.614014,1608.800546,1110.308913,9104.533087
3666.614328,2757.943793,2442.679609,8364.327145
3666.614643,3983.696590,3182.885551,7476.080014
3666.614957,4136.915689,3330.926739,6587.832884
3666.615271,4136.915689,3256.906145,7105.977043
3666.615586,3217.601092,2146.597232,7328.038826
3666.615900,1378.971896,740.205942,8216.285956
3666.616214,0.000000,-296.082377,9696.697840
3666.616528,-1838.629195,-1776.494261,10436.903782
3666.616843,-3217.601092,-2590.720797,11325.150913
3666.617157,-3677.258390,-3552.988522,12361.439231
3666.617471,-3677.258390,-3775.050304,12435.459826
3666.617786,-3447.429741,-3182.885551,11843.295072
3666.618100,-2068.457845,-1702.473667,11325.150913
3666.618414,-612.876398,-0.000000,10362.883188
3666.618729,1225.752797,1554.432478,9252.574275
3666.619043,2681.334243,2738.761985,8142.265362
3666.619357,3830.477490,3404.947333,7624.121203
3666.619672,4673.182538,3701.029710,6883.915261
3666.619986,3983.696590,3478.967927,7105.977043
3666.620300,2834.553343,2368.659014,7254.018232
3666.620615,1991.848295,1406.391290,8364.327145
3666.620929,76.609550,-296.082377,9474.636058
3666.621243,-1378.971896,-1480.411884,10510.924376
3666.621558,-2987.772442,-2368.659014,11843.295072
3666.621872,-3907.087040,-2812.782580,12139.377449
3666.622186,-3753.867940,-2886.803174,12509.480420
3666.622501,-3064.381992,-2072.576638,11843.295072
3666.622815,-1762.019645,-740.205942,10955.047942
3666.623129,-306.438199,-0.000000,10288.862594
3666.623444,1378.971896,1554.432478,9104.533087
3666.623758,2604.724693,2886.803174,8068.244768
3666.624072,4060.306139,3923.091493,7105.977043
3666.624387,4136.915689,4071.132681,7031.956449
3666.624701,3447.429741,3552.988522,7105.977043
3666.625015,2528.115143,2590.720797,7402.059420
3666.625329,1225.752797,1332.370696,8660.409521
3666.625644,-689.485948,-296.082377,9400.615463
3666.625958,-2145.067394,-1628.453072,10881.027347
3666.626272,-3600.648841,-2812.782580,11843.295072
3666.626587,-4366.744339,-3182.885551,12657.521608
3666.626901,-4290.134789,-2960.823768,12361.439231
3666.627215,-3600.648841,-2368.659014,12213.398043
3666.627530,-2145.067394,-740.205942,11621.233289
3666.627844,-612.876398,518.144159,10732.986159
3666.628158,1149.143247,1628.453072,9474.636058
3666.628473,2681.334243,2442.679609,7920.203579
3666.628787,3753.867940,3330.926739,7105.977043
3666.629101,3983.696590,3330.926739,7550.100608
3666.629416,3524.039291,2960.823768,6809.894666
3666.629730,2681.334243,1998.556043,7624.121203
3666.630044,1455.581446,888.247130,8068.244768
3666.630359,-229.828649,-888.247130,9252.574275
3666.630673,-1685.410096,-2072.576638,10510.924376
3666.630987,-3140.991542,-2812.782580,11547.212695
3666.631302,-3907.087040,-3404.947333,12139.377449
3666.631616,-3447.429741,-3849.070898,12139.377449
3666.631930,-2757.943793,-2516.700203,11843.295072
3666.632245,-1378.971896,-1258.350101,10955.047942
3666.632559,76.609550,-0.000000,9992.780217
3666.632873,1685.410096,1480.411884,8808.450710
3666.633187,3294.210641,2590.720797,8216.285956
3666.633502,3907.087040,3256.906145,7402.059420
3666.633816,4519.963438,3775.050304,7031.956449
3666.634130,3983.696590,3034.844362,7105.977043
3666.634445,2987.772442,2294.638420,7254.018232
3666.634759,1149.143247,814.226536,7920.203579
3666.635073,-536.266849,-1184.329507,9770.718434
3666.635388,-1915.238745,-2294.638420,10436.903782
3666.635702,-3294.210641,-3182.885551,11251.130318
3666.636016,-3983.696590,-4145.153275,11917.315666
3666.636331,-3677.258390,-3627.009116,12657.521608
3666.636645,-2604.724693,-2812.782580,12287.418637
3666.636959,-1838.629195,-1258.350101,11177.109724
3666.637274,-153.219100,296.082377,9622.677246
3666.637588,1685.410096,1554.432478,8956.491898
3666.637902,2987.772442,2590.720797,8142.265362
3666.638217,3753.867940,3404.947333,7328.038826
3666.638531,4290.134789,3330.926739,7031.956449
3666.638845,3907.087040,2886.803174,7105.977043
3666.639160,2757.943793,1776.494261,7179.997637
3666.639474,1991.848295,740.205942,7994.224174
3666.639788,0.000000,-888.247130,9992.780217
3666.640103,-2298.286494,-2368.659014,10955.047942
3666.640417,-3600.648841,-3256.906145,11251.130318
3666.640731,-3983.696590,-3775.050304,11843.295072
3666.641045,-3753.867940,-3627.009116,12287.418637
3666.641360,-3140.991542,-2590.720797,12065.356855
3666.641674,-1838.629195,-1036.288319,11325.150913
3666.641988,-153.219100,-0.000000,9992.780217
3666.642303,1685.410096,1776.494261,9178.553681
3666.642617,2911.162892,2960.823768,7846.182985
3666.642931,3753.867940,3997.112087,7476.080014
3666.643246,4443.353888,4071.132681,6883.915261
3666.643560,3830.477490,3552.988522,6957.935855
3666.643874,2451.505594,2590.720797,7254.018232
3666.644189,1149.143247,1184.329507,8216.285956
3666.644503,-919.314598,-296.082377,9252.574275
3666.644817,-2451.505594,-1702.473667,10955.047942
3666.645132,-3830.477490,-2738.761985,11843.295072
3666.645446,-4290.134789,-3404.947333,12287.418637
3666.645760,-4136.915689,-2960.823768,12805.562797
3666.646075,-3524.039291,-2072.576638,12213.398043
3666.646389,-2068.457845,-370.102971,11251.130318
3666.646703,-536.266849,962.267725,10214.842000
3666.647018,1455.581446,2368.659014,9104.533087
3666.647332,3064.381992,3108.864956,8142.265362
3666.647646,4519.963438,3997.112087,7105.977043
3666.647961,4213.525239,4145.153275,6513.812290
3666.648275,3983.696590,3478.967927,6883.915261
3666.648589,3294.210641,2368.659014,7994.224174
3666.648903,1378.971896,1110.308913,8290.306550
3666.649218,-383.047749,-592.164754,9474.636058
3666.649532,-1685.410096,-2072.576638,10658.965565
3666.649846,-3140.991542,-3034.844362,11621.233289
3666.650161,-3753.867940,-3404.947333,12435.459826
3666.650488,-3600.648841,-3330.926739,12583.501014
3666.650802,-2681.334243,-2368.659014,11843.295072
3666.651117,-1455.581446,-1110.308913,11103.089130
3666.651431,229.828649,370.102971,10066.800811
3666.651745,2298.286494,1480.411884,9104.533087
3666.652060,3370.820191,2812.782580,8216.285956
3666.652374,4060.306139,3478.967927,7328.038826
3666.652689,4673.182538,3552.988522,6957.935855
3666.653003,4060.306139,3108.864956,7328.038826
3666.653318,2757.943793,2072.576638,7698.141797
3666.653632,1532.190996,518.144159,8734.430116
3666.653947,0.000000,-888.247130,9918.759623
3666.654261,-2221.676944,-2368.659014,10881.027347
3666.654576,-4060.306139,-3182.885551,11621.233289
3666.654890,-4213.525239,-3849.070898,12435.459826
3666.655205,-3983.696590,-3256.906145,12361.439231
3666.655519,-3140.991542,-2294.638420,11843.295072
3666.655834,-2145.067394,-1184.329507,11103.089130
3666.656148,-229.828649,444.123565,9770.718434
3666.656462,1991.848295,1776.494261,9178.553681
3666.656777,3064.381992,2960.823768,7920.203579
3666.657091,4060.306139,3256.906145,7179.997637
3666.657406,4060.306139,3627.009116,6957.935855
3666.657720,3983.696590,2960.823768,6883.915261
3666.658035,2987.772442,1702.473667,7105.977043
3666.658349,1225.752797,814.226536,8142.265362
3666.658664,-383.047749,-888.247130,9474.636058
3666.658978,-2374.896044,-2294.638420,10288.862594
3666.659293,-3140.991542,-3034.844362,11177.109724
3666.659607,-4213.525239,-3775.050304,11917.315666
3666.659922,-3983.696590,-3775.050304,12065.356855
3666.660236,-3064.381992,-2516.700203,11991.336260
3666.660551,-1762.019645,-1258.350101,11103.089130
3666.660865,383.047749,444.123565,9696.697840
3666.661179,1685.410096,1850.514855,8956.491898
3666.661494,2757.943793,2738.761985,8068.244768
3666.661808,4060.306139,3404.947333,7105.977043
3666.662123,4213.525239,3701.029710,6735.874072
3666.662437,3447.429741,3108.864956,7031.956449
3666.662752,2604.724693,1924.535449,7476.080014
3666.663066,995.924147,666.185348,8068.244768
3666.663381,-919.314598,-888.247130,9548.656652
3666.663695,-2374.896044,-2590.720797,11325.150913
3666.664010,-3600.648841,-3256.906145,11695.253884
3666.664324,-4366.744339,-3775.050304,12435.459826
3666.664639,-3983.696590,-3478.967927,13175.665768
3666.664953,-3600.648841,-2368.659014,12213.398043
3666.665268,-1762.019645,-444.123565,11103.089130
3666.665582,-383.047749,444.123565,10288.862594
3666.665896,1685.410096,1998.556043,9474.636058
3666.666211,3064.381992,3627.009116,8660.409521
3666.666525,4060.306139,4219.173869,7031.956449
3666.666840,4673.182538,4219.173869,7105.977043
3666.667154,4290.134789,3775.050304,7550.100608
3666.667469,2911.162892,2516.700203,7772.162391
3666.667783,995.924147,1184.329507,8808.450710
3666.668098,-229.828649,-666.185348,9918.759623
3666.668412,-1991.848295,-1850.514855,10807.006753
3666.668727,-3524.039291,-2738.761985,11473.192101
3666.669041,-4136.915689,-3256.906145,12361.439231
3666.669356,-3830.477490,-3108.864956,12731.542202
3666.669670,-3140.991542,-2220.617826,11769.274478
3666.669985,-1762.019645,-666.185348,10881.027347
3666.670299,0.000000,518.144159,9992.780217
3666.670613,1991.848295,2146.597232,9178.553681
3666.670928,3677.258390,3404.947333,8068.244768
3666.671242,5132.839837,4145.153275,7179.997637
3666.671557,4903.011187,4219.173869,6883.915261
3666.671871,4136.915689,3330.926739,6809.894666
3666.672186,2834.553343,2516.700203,7624.121203
3666.672500,1225.752797,888.247130,8512.368333
3666.672815,-383.047749,-740.205942,9844.739029
3666.673129,-2068.457845,-2220.617826,10881.027347
3666.673444,-3600.648841,-3330.926739,11917.315666
3666.673758,-4136.915689,-3552.988522,12509.480420
3666.674073,-3753.867940,-3330.926739,12805.562797
3666.674387,-2681.334243,-2294.638420,12065.356855
3666.674702,-1608.800546,-740.205942,11177.109724
3666.675016,0.000000,592.164754,9844.739029
3666.675330,2145.067394,2072.576638,8956.491898
3666.675645,3370.820191,2886.803174,7624.121203
3666.675959,4290.134789,3552.988522,7031.956449
3666.676274,4136.915689,3552.988522,6883.915261
3666.676588,3677.258390,2812.782580,7105.977043
3666.676903,2221.676944,1776.494261,8068.244768
3666.677217,1072.533697,518.144159,8216.285956
3666.677532,-995.924147,-1628.453072,9548.656652
3666.677846,-2298.286494,-2368.659014,11103.089130
3666.678161,-4136.915689,-3330.926739,11695.253884
3666.678475,-4366.744339,-3627.009116,12213.398043
3666.678790,-3524.039291,-3627.009116,12139.377449
3666.679104,-2987.772442,-2738.761985,11843.295072
3666.679419,-1991.848295,-1110.308913,10658.965565
3666.679733,0.000000,518.144159,9548.656652
3666.680047,1685.410096,1850.514855,8660.409521
3666.680362,3140.991542,2738.761985,7550.100608
3666.680676,3983.696590,3256.906145,7031.956449
3666.680991,4366.744339,3775.050304,6587.832884
3666.681305,3753.867940,2886.803174,6809.894666
3666.681620,2681.334243,2220.617826,7328.038826
3666.681934,1225.752797,666.185348,8660.409521
3666.682249,-536.266849,-1110.308913,9548.656652
3666.682563,-2374.896044,-2368.659014,10732.986159
3666.682878,-3907.087040,-3256.906145,11695.253884
3666.683192,-4443.353888,-3923.091493,12361.439231
3666.683507,-3983.696590,-3627.009116,12509.480420
3666.683821,-3217.601092,-2294.638420,12213.398043
3666.684136,-1915.238745,-888.247130,11029.068536
3666.684450,76.609550,740.205942,9548.656652
3666.684764,1838.629195,2220.617826,8882.471304
3666.685079,3217.601092,2886.803174,8290.306550
3666.685393,4290.134789,3997.112087,7476.080014
3666.685708,4749.792088,3923.091493,7105.977043
3666.686022,3983.696590,3182.885551,7105.977043
3666.686337,3370.820191,2220.617826,7846.182985
3666.686651,1149.143247,518.144159,9104.533087
3666.686966,0.000000,-962.267725,9844.739029
3666.687280,-2221.676944,-2368.659014,10881.027347
3666.687595,-3600.648841,-3404.947333,11991.336260
3666.687909,-4213.525239,-3627.009116,12435.459826
3666.688224,-4290.134789,-3108.864956,12287.418637
3666.688538,-3140.991542,-2294.638420,12065.356855
3666.688853,-1838.629195,-888.247130,11325.150913
3666.689167,0.000000,222.061783,10362.883188
3666.689481,1532.190996,1110.308913,9474.636058
3666.689796,3064.381992,2738.761985,8068.244768
3666.690110,3907.087040,3923.091493,7328.038826
3666.690425,4673.182538,3997.112087,6735.874072
3666.690739,4366.744339,3404.947333,6735.874072
3666.691054,3294.210641,2220.617826,7328.038826
3666.691368,1378.971896,1036.288319,8216.285956
3666.691683,-459.657299,-740.205942,9474.636058
3666.691997,-1991.848295,-2368.659014,10658.965565
3666.692312,-3600.648841,-3330.926739,11621.233289
3666.692626,-4060.306139,-3775.050304,12583.501014
3666.692941,-4060.306139,-3404.947333,12435.459826
3666.693255,-3294.210641,-2368.659014,11843.295072
3666.693570,-1915.238745,-888.247130,10881.027347
3666.693884,-306.438199,518.144159,9770.718434
3666.694198,1685.410096,1702.473667,8882.471304
3666.694513,2987.772442,3256.906145,7179.997637
3666.694827,4213.525239,4071.132681,7254.018232
3666.695142,4596.572988,3923.091493,7105.977043
3666.695456,4443.353888,3182.885551,6883.915261
3666.695771,3064.381992,2072.576638,7105.977043
3666.696085,995.924147,1184.329507,8512.368333
3666.696400,-689.485948,-518.144159,9918.759623
3666.696714,-2221.676944,-2146.597232,11029.068536
3666.697029,-3830.477490,-2886.803174,11769.274478
3666.697343,-4749.792088,-3478.967927,12139.377449
3666.697658,-4519.963438,-3330.926739,12287.418637
3666.697972,-3370.820191,-2590.720797,12065.356855
3666.698287,-2298.286494,-1258.350101,11621.233289
3666.698601,-459.657299,444.123565,10362.883188
3666.698915,1302.362347,1998.556043,9030.512492
3666.699230,2911.162892,2886.803174,7994.224174
3666.699544,3907.087040,3849.070898,7698.141797
3666.699859,3907.087040,3849.070898,6883.915261
3666.700173,3524.039291,3256.906145,7031.956449
3666.700488,2298.286494,2368.659014,7846.182985
3666.700802,995.924147,592.164754,8142.265362
3666.701117,-689.485948,-962.267725,9770.718434
3666.701431,-2451.505594,-2664.741391,11103.089130
3666.701746,-4060.306139,-3256.906145,11695.253884
3666.702060,-4673.182538,-3552.988522,12287.418637
3666.702375,-4136.915689,-3404.947333,12509.480420
3666.702689,-2987.772442,-2368.659014,12213.398043
3666.703003,-1838.629195,-962.267725,11251.130318
3666.703318,229.828649,518.144159,10140.821405
3666.703632,1915.238745,1850.514855,8808.450710
3666.703947,3753.867940,2886.803174,7550.100608
3666.704261,4596.572988,3775.050304,6809.894666
3666.704576,4903.011187,3330.926739,6735.874072
3666.704890,4136.915689,3182.885551,7179.997637
3666.705205,2911.162892,2072.576638,7328.038826
3666.705519,1455.581446,-0.000000,8142.265362
3666.705834,0.000000,-962.267725,9622.677246
3666.706148,-2298.286494,-2368.659014,11029.068536
3666.706463,-3524.039291,-3108.864956,11399.171507
3666.706777,-3830.477490,-3552.988522,12065.356855
3666.707092,-2911.162892,-3627.009116,12731.542202
3666.707406,-2528.115143,-2738.761985,12435.459826
3666.707720,-1149.143247,-1110.308913,11103.089130
3666.708035,612.876398,592.164754,9918.759623
3666.708349,2681.334243,2294.638420,9030.512492
3666.708664,3600.648841,3404.947333,7624.121203
3666.708978,4443.353888,3701.029710,7031.956449
3666.709293,4366.744339,4071.132681,6809.894666
3666.709607,3983.696590,2960.823768,7031.956449
3666.709922,2604.724693,1554.432478,7328.038826
3666.710236,995.924147,148.041188,8734.430116
3666.710551,-1149.143247,-1554.432478,9548.656652
3666.710865,-2528.115143,-2590.720797,10955.047942
3666.711180,-3753.867940,-3256.906145,11399.171507
3666.711494,-4060.306139,-3330.926739,12213.398043
3666.711809,-3753.867940,-2960.823768,12287.418637
3666.712123,-2681.334243,-2146.597232,12065.356855
3666.712437,-1991.848295,-370.102971,10288.862594
3666.712752,0.000000,962.267725,9548.656652
3666.713066,1608.800546,2220.617826,9178.553681
3666.713381,3217.601092,3108.864956,8290.306550
3666.713695,4060.306139,3330.926739,7476.080014
3666.714010,3907.087040,3404.947333,6883.915261
3666.714324,3370.820191,2960.823768,7179.997637
3666.714639,2145.067394,2220.617826,7846.182985
3666.714953,612.876398,370.102971,8512.368333
3666.715268,-1072.533697,-1332.370696,9770.718434
3666.715582,-2681.334243,-2442.679609,10807.006753
3666.715897,-3830.477490,-3108.864956,11695.253884
3666.716211,-4596.572988,-3404.947333,12139.377449
3666.716526,-3830.477490,-2664.741391,12509.480420
3666.716840,-3140.991542,-1924.535449,11991.336260
3666.717154,-1455.581446,-74.020594,11103.089130
3666.717469,229.828649,1332.370696,9696.697840
3666.717783,1991.848295,2738.761985,8956.491898
3666.718098,3677.258390,4219.173869,7846.182985
3666.718412,4213.525239,4663.297435,7105.977043
3666.718727,4290.134789,4219.173869,7031.956449
3666.719041,3294.210641,2886.803174,7476.080014
3666.719356,2221.676944,1924.535449,8068.244768
3666.719670,76.609550,444.123565,9474.636058
3666.719985,-1455.581446,-592.164754,10362.883188
3666.720299,-2834.553343,-2072.576638,11325.150913
3666.720614,-4136.915689,-2960.823768,11917.315666
3666.720928,-4366.744339,-3182.885551,12731.542202
3666.721243,-3447.429741,-2516.700203,12583.501014
3666.721557,-2604.724693,-1776.494261,11769.274478
3666.721871,-995.924147,-296.082377,10807.006753
3666.722186,995.924147,1184.329507,9474.636058
3666.722500,2528.115143,2220.617826,8512.368333
3666.722815,3907.087040,3034.844362,7624.121203
3666.723129,4519.963438,3627.009116,7031.956449
3666.723444,4443.353888,3627.009116,6957.935855
3666.723758,3907.087040,2960.823768,7105.977043
3666.724073,2451.505594,1406.391290,7772.162391
3666.724387,1072.533697,-0.000000,9252.574275
3666.724702,-612.876398,-1924.535449,9696.697840
3666.725016,-2451.505594,-3256.906145,10955.047942
3666.725331,-3524.039291,-3627.009116,11917.315666
3666.725645,-3753.867940,-3701.029710,12435.459826
3666.725960,-3294.210641,-3330.926739,11843.295072
3666.726274,-1991.848295,-2146.597232,11769.274478
3666.726588,-766.095498,-518.144159,10658.965565
3666.726903,612.876398,592.164754,9474.636058
3666.727217,2757.943793,2294.638420,8586.388927
3666.727532,3677.258390,3256.906145,7772.162391
3666.727846,4596.572988,3552.988522,7476.080014
3666.728161,4366.744339,3256.906145,6809.894666
3666.728475,3600.648841,2516.700203,6809.894666
3666.728790,2451.505594,1110.308913,7846.182985
3666.729104,766.095498,-148.041188,8882.471304
3666.729419,-1378.971896,-2072.576638,10066.800811
3666.729733,-2911.162892,-2812.782580,11399.171507
3666.730048,-4136.915689,-3478.967927,11547.212695
3666.730362,-4366.744339,-3775.050304,11843.295072
3666.730677,-4213.525239,-3404.947333,12213.398043
3666.730991,-2757.943793,-2146.597232,12065.356855
3666.731305,-1608.800546,-666.185348,10658.965565
3666.731620,153.219100,962.267725,9622.677246
3666.731934,1991.848295,2072.576638,9030.512492
3666.732249,3294.210641,3182.885551,7476.080014
3666.732563,4136.915689,3701.029710,7031.956449
3666.732878,4136.915689,3627.009116,6661.853478
3666.733192,4136.915689,2886.803174,7476.080014
3666.733507,2604.724693,1850.514855,7920.203579
3666.733821,459.657299,-0.000000,8808.450710
3666.734136,-1455.581446,-1406.391290,9918.759623
3666.734450,-2834.553343,-2442.679609,10881.027347
3666.734765,-3830.477490,-3404.947333,11621.233289
3666.735079,-4290.134789,-3997.112087,12287.418637
3666.735394,-3830.477490,-3478.967927,12509.480420
3666.735708,-2911.162892,-2072.576638,11325.150913
3666.736022,-1532.190996,-370.102971,10140.821405
3666.736337,536.266849,1110.308913,9622.677246
3666.736651,2068.457845,2368.659014,8956.491898
3666.736966,3447.429741,3627.009116,7550.100608
3666.737280,3983.696590,3923.091493,7105.977043
3666.737595,3983.696590,3923.091493,7328.038826
3666.737909,3600.648841,2960.823768,7698.141797
3666.738224,2221.676944,1924.535449,8142.265362
3666.738538,153.219100,370.102971,9178.553681
3666.738853,-995.924147,-814.226536,10140.821405
3666.739167,-2681.334243,-1850.514855,10955.047942
3666.739482,-4060.306139,-2516.700203,12435.459826
3666.739796,-3983.696590,-3108.864956,12583.501014
3666.740111,-3524.039291,-2812.782580,12287.418637
3666.740425,-2451.505594,-1776.494261,11695.253884
3666.740739,-995.924147,-444.123565,10955.047942
3666.741054,995.924147,1110.308913,9918.759623
3666.741368,2528.115143,2738.761985,8734.430116
3666.741683,3753.867940,3478.967927,7772.162391
3666.741997,4673.182538,4071.132681,6883.915261
3666.742312,4596.572988,3701.029710,7179.997637
3666.742626,3753.867940,2960.823768,7105.977043
3666.742941,2221.676944,1480.411884,8216.285956
3666.743255,612.876398,222.061783,8734.430116
3666.743570,-1072.533697,-1406.391290,9844.739029
3666.743884,-2528.115143,-2664.741391,11325.150913
3666.744199,-3677.258390,-3182.885551,11917.315666
3666.744513,-4290.134789,-3404.947333,11917.315666
3666.744828,-3600.648841,-2886.803174,12361.439231
3666.745142,-2604.724693,-2220.617826,11843.295072
3666.745456,-995.924147,-444.123565,10732.986159
3666.745771,689.485948,888.247130,9696.697840
3666.746085,2221.676944,2368.659014,8512.368333
3666.746400,3447.429741,3330.926739,7254.018232
3666.746714,4519.963438,3849.070898,6809.894666
3666.747029,4749.792088,3330.926739,6883.915261
3666.747343,3677.258390,2664.741391,7179.997637
3666.747658,2145.067394,1628.453072,7550.100608
3666.747972,383.047749,-0.000000,8512.368333
3666.748287,-1072.533697,-1776.494261,10288.862594
3666.748601,-2681.334243,-3182.885551,11103.089130
3666.748916,-4136.915689,-3552.988522,11843.295072
3666.749230,-4366.744339,-3997.112087,12509.480420
3666.749545,-3753.867940,-3034.844362,12509.480420
3666.749859,-2298.286494,-1924.535449,11695.253884
3666.750173,-1149.143247,-370.102971,10436.903782
3666.750488,766.095498,1036.288319,9696.697840
3666.750802,2451.505594,2220.617826,9030.512492
3666.751117,3753.867940,3256.906145,7550.100608
3666.751431,4673.182538,3627.009116,6957.935855
3666.751746,4136.915689,3849.070898,7031.956449
3666.752060,3600.648841,2960.823768,7476.080014
3666.752375,2145.067394,1628.453072,8142.265362
3666.752689,306.438199,-74.020594,8660.409521
3666.753004,-995.924147,-1850.514855,9992.780217
3666.753318,-3140.991542,-2960.823768,11325.150913
3666.753633,-4213.525239,-3849.070898,12287.418637
3666.753947,-4366.744339,-4219.173869,12435.459826
3666.754262,-4136.915689,-3849.070898,12805.562797
3666.754576,-2681.334243,-2664.741391,11991.336260
3666.754890,-1225.752797,-370.102971,10807.006753
3666.755205,612.876398,1702.473667,8808.450710
3666.755519,2298.286494,2442.679609,7772.162391
3666.755834,3753.867940,3256.906145,7550.100608
3666.756148,4366.744339,3330.926739,6661.853478
3666.756463,4213.525239,3404.947333,6661.853478
3666.756777,3524.039291,2442.679609,7105.977043
3666.757092,2145.067394,1628.453072,7994.224174
3666.757406,612.876398,-0.000000,8882.471304
3666.757721,-1455.581446,-1480.411884,10066.800811
3666.758035,-3217.601092,-3108.864956,11399.171507
3666.758350,-4290.134789,-3404.947333,11695.253884
3666.758664,-4060.306139,-3478.967927,12287.418637
3666.758979,-3600.648841,-2886.803174,12361.439231
3666.759293,-2221.676944,-1776.494261,12065.356855
3666.759607,-919.314598,-148.041188,10584.944971
3666.759922,842.705048,1036.288319,9474.636058
3666.760236,2451.505594,2516.700203,8512.368333
3666.760551,3907.087040,3775.050304,7476.080014
3666.760865,4749.792088,4293.194464,6883.915261
3666.761180,4749.792088,4071.132681,7031.956449
3666.761494,3830.477490,2960.823768,7105.977043
3666.761809,2451.505594,1702.473667,7846.182985
3666.762123,459.657299,222.061783,8956.491898
3666.762438,-689.485948,-1258.350101,10066.800811
3666.762752,-2681.334243,-2442.679609,11473.192101
3666.763067,-4060.306139,-3478.967927,11917.315666
3666.763381,-4519.963438,-3404.947333,12435.459826
3666.763695,-3524.039291,-2738.761985,12583.501014
3666.764010,-2757.943793,-1332.370696,11917.315666
3666.764324,-1149.143247,-0.000000,11103.089130
3666.764639,459.657299,1332.370696,9918.759623
3666.764953,2374.896044,2738.761985,8512.368333
3666.765268,3600.648841,3775.050304,7105.977043
3666.765582,4443.353888,4071.132681,6809.894666
3666.765897,4673.182538,3923.091493,7179.997637
3666.766211,3907.087040,2960.823768,7105.977043
3666.766526,2068.457845,1776.494261,7698.141797
3666.766840,383.047749,-0.000000,9178.553681
3666.767155,-1302.362347,-1110.308913,10066.800811
3666.767469,-3140.991542,-2738.761985,11103.089130
3666.767784,-3830.477490,-3552.988522,12213.398043
3666.768098,-4136.915689,-3552.988522,12583.501014
3666.768412,-3753.867940,-3256.906145,12213.398043
3666.768727,-2681.334243,-1776.494261,11843.295072
3666.769041,-919.314598,-148.041188,10807.006753
3666.769356,689.485948,1406.391290,9400.615463
3666.769670,2604.724693,2516.700203,8660.409521
3666.769985,4060.306139,3701.029710,7920.203579
3666.770299,4673.182538,4219.173869,6883.915261
3666.770614,4213.525239,3923.091493,6809.894666
3666.770928,3600.648841,2812.782580,7031.956449
3666.771243,2374.896044,1480.411884,8290.306550
3666.771557,306.438199,-148.041188,8956.491898
3666.771872,-919.314598,-1998.556043,10436.903782
3666.772186,-2987.772442,-2960.823768,11621.233289
3666.772500,-3830.477490,-3552.988522,12287.418637
3666.772815,-3753.867940,-3404.947333,12213.398043
3666.773129,-3600.648841,-2886.803174,12213.398043
3666.773444,-2374.896044,-1554.432478,11473.192101
3666.773758,-766.095498,-74.020594,10362.883188
3666.774073,1072.533697,1332.370696,9178.553681
3666.774387,2681.334243,2516.700203,8660.409521
3666.774702,3830.477490,3108.864956,7624.121203
3666.775016,3524.039291,3182.885551,7105.977043
3666.775331,3677.258390,2960.823768,7105.977043
3666.775645,2911.162892,2294.638420,7402.059420
3666.775960,1762.019645,1332.370696,7772.162391
3666.776274,0.000000,-0.000000,8956.491898
3666.776589,-1608.800546,-1924.535449,10732.986159
3666.776903,-3140.991542,-3108.864956,11103.089130
3666.777217,-4290.134789,-3701.029710,11473.192101
3666.777532,-4366.744339,-3849.070898,12287.418637
3666.777846,-3600.648841,-3256.906145,12287.418637
3666.778161,-2681.334243,-1924.535449,11843.295072
3666.778475,-919.314598,-296.082377,10658.965565
3666.778790,919.314598,888.247130,9770.718434
3666.779104,2834.553343,2146.597232,8364.327145
3666.779419,4060.306139,2738.761985,7254.018232
3666.779733,4366.744339,3627.009116,7105.977043
3666.780048,4290.134789,3478.967927,6809.894666
3666.780362,3830.477490,2442.679609,6883.915261
3666.780677,2604.724693,1258.350101,7772.162391
3666.780991,1225.752797,-222.061783,8586.388927
3666.781305,-1072.533697,-1480.411884,9918.759623
3666.781620,-2604.724693,-2220.617826,10807.006753
3666.781934,-3830.477490,-3108.864956,11991.336260
3666.782249,-4290.134789,-3552.988522,12657.521608
3666.782563,-3447.429741,-3701.029710,12805.562797
3666.782878,-2681.334243,-1702.473667,11843.295072
3666.783192,-1072.533697,-296.082377,10955.047942
3666.783507,689.485948,1258.350101,9474.636058
3666.783821,2451.505594,2664.741391,9030.512492
3666.784136,3983.696590,3627.009116,7772.162391
3666.784450,4060.306139,4367.215058,6957.935855
3666.784765,4060.306139,3923.091493,6809.894666
3666.785079,3447.429741,2664.741391,7476.080014
3666.785394,1991.848295,1406.391290,8216.285956
3666.785708,306.438199,-0.000000,9104.533087
3666.786022,-1762.019645,-1480.411884,9992.780217
3666.786337,-3140.991542,-3034.844362,11325.150913
3666.786651,-4213.525239,-3552.988522,11769.274478
3666.786966,-4366.744339,-3404.947333,12361.439231
3666.787280,-4060.306139,-2516.700203,12731.542202
3666.787595,-2987.772442,-1628.453072,12065.356855
3666.787909,-1378.971896,-0.000000,10807.006753
3666.788224,383.047749,1480.411884,9918.759623
3666.788538,2374.896044,2590.720797,8956.491898
3666.788853,3677.258390,3182.885551,7698.141797
3666.789167,4596.572988,4145.153275,7105.977043
3666.789482,4519.963438,3701.029710,7179.997637
3666.789796,3753.867940,2886.803174,7179.997637
3666.790110,2604.724693,1258.350101,7624.121203
3666.790425,229.828649,370.102971,9030.512492
3666.790739,-1225.752797,-1184.329507,9992.780217
3666.791054,-2757.943793,-2664.741391,10881.027347
3666.791368,-3907.087040,-3478.967927,11695.253884
3666.791683,-3983.696590,-3627.009116,11991.336260
3666.791997,-3524.039291,-3182.885551,12139.377449
3666.792312,-2528.115143,-1776.494261,11547.212695
3666.792626,-1072.533697,-0.000000,10807.006753
3666.792941,766.095498,1110.308913,9696.697840
3666.793255,2911.162892,2516.700203,8882.471304
3666.793570,4136.915689,3404.947333,7846.182985
3666.793884,4366.744339,3775.050304,7105.977043
3666.794199,3907.087040,3627.009116,7031.956449
3666.794513,3600.648841,3182.885551,7105.977043
3666.794827,2374.896044,1850.514855,8290.306550
3666.795142,383.047749,222.061783,9400.615463
3666.795456,-1302.362347,-1036.288319,9474.636058
3666.795771,-2911.162892,-2664.741391,10881.027347
3666.796085,-4443.353888,-3404.947333,11991.336260
3666.796400,-4749.792088,-3552.988522,12657.521608
3666.796714,-3830.477490,-3627.009116,12065.356855
3666.797029,-2911.162892,-2294.638420,11843.295072
3666.797343,-1302.362347,-444.123565,10807.006753
3666.797658,689.485948,1184.329507,9844.739029
3666.797972,2604.724693,2368.659014,8660.409521
3666.798287,3370.820191,3108.864956,7846.182985
3666.798601,4060.306139,3849.070898,7105.977043
3666.798916,4443.353888,3923.091493,6883.915261
3666.799230,3907.087040,2738.761985,7031.956449
3666.799544,2757.943793,1628.453072,7550.100608
3666.799859,1149.143247,-0.000000,8512.368333
3666.800173,-612.876398,-1406.391290,9474.636058
3666.800488,-2374.896044,-2516.700203,11029.068536
3666.800802,-3753.867940,-3478.967927,11769.274478
3666.801117,-4060.306139,-3997.112087,12213.398043
3666.801431,-3447.429741,-3701.029710,12435.459826
3666.801746,-2374.896044,-2072.576638,11843.295072
3666.802060,-1149.143247,-666.185348,10584.944971
3666.802375,919.314598,888.247130,9474.636058
3666.802689,3064.381992,2516.700203,8660.409521
3666.803004,3753.867940,3627.009116,7254.018232
3666.803318,4290.134789,3923.091493,7031.956449
3666.803632,4519.963438,3552.988522,6513.812290
3666.803947,3753.867940,2738.761985,7328.038826
3666.804261,2221.676944,1554.432478,8142.265362
3666.804576,229.828649,222.061783,8882.471304
3666.804890,-1838.629195,-1332.370696,10510.924376
3666.805205,-3447.429741,-2590.720797,11547.212695
3666.805519,-4443.353888,-3923.091493,11917.315666
3666.805834,-4673.182538,-4071.132681,12879.583391
3666.806148,-4366.744339,-3256.906145,12731.542202
3666.806463,-3294.210641,-1702.473667,11695.253884
3666.806777,-1455.581446,-222.061783,11103.089130
3666.807092,689.485948,1110.308913,9918.759623
3666.807406,2451.505594,2368.659014,8660.409521
3666.807721,3600.648841,3404.947333,7254.018232
3666.808035,4596.572988,3923.091493,6883.915261
3666.808349,4903.011187,3997.112087,6661.853478
3666.808664,4136.915689,3034.844362,6513.812290
3666.808978,2145.067394,1184.329507,7624.121203
3666.809293,76.609550,-0.000000,8660.409521
3666.809607,-1378.971896,-1554.432478,9548.656652
3666.809922,-2834.553343,-2886.803174,10881.027347
3666.810236,-3907.087040,-3627.009116,11991.336260
3666.810551,-4290.134789,-3701.029710,12731.542202
3666.810865,-4136.915689,-3478.967927,12213.398043
3666.811180,-3064.381992,-2072.576638,11991.336260
3666.811494,-1302.362347,-148.041188,11177.109724
3666.811809,536.266849,1406.391290,9844.739029
3666.812123,2528.115143,2738.761985,8660.409521
3666.812437,3830.477490,3775.050304,7994.224174
3666.812752,4366.744339,4367.215058,7031.956449
3666.813066,4596.572988,3923.091493,6883.915261
3666.813381,3524.039291,2960.823768,7105.977043
3666.813695,2298.286494,1776.494261,7994.224174
3666.814010,306.438199,148.041188,8882.471304
3666.814324,-1302.362347,-1554.432478,10066.800811
3666.814639,-3370.820191,-3034.844362,11991.336260
3666.814953,-4290.134789,-3775.050304,12139.377449
3666.815268,-4749.792088,-3849.070898,12509.480420
3666.815582,-4443.353888,-3478.967927,12435.459826
3666.815897,-2834.553343,-2146.597232,11843.295072
3666.816211,-1302.362347,-444.123565,10881.027347
3666.816526,766.095498,1406.391290,9474.636058
3666.816840,2604.724693,2960.823768,8882.471304
3666.817154,4290.134789,3849.070898,7179.997637
3666.817469,4826.401637,4219.173869,6661.853478
3666.817783,4673.182538,4145.153275,6735.874072
3666.818098,3677.258390,3182.885551,7105.977043
3666.818412,2374.896044,1776.494261,7846.182985
3666.818727,612.876398,-0.000000,8586.388927
3666.819041,-995.924147,-1702.473667,10584.944971
3666.819356,-2834.553343,-2960.823768,11473.192101
3666.819670,-4060.306139,-3923.091493,12065.356855
3666.819985,-4290.134789,-4071.132681,12657.521608
3666.820299,-3907.087040,-3552.988522,12139.377449
3666.820614,-2681.334243,-2072.576638,11547.212695
3666.820928,-1072.533697,-222.061783,10510.924376
3666.821242,766.095498,1110.308913,9326.594869
3666.821557,3064.381992,2590.720797,7994.224174
3666.821871,4060.306139,3256.906145,7179.997637
3666.822186,5132.839837,3849.070898,7031.956449
3666.822500,4290.134789,3701.029710,6735.874072
3666.822815,3217.601092,2664.741391,7179.997637
3666.823129,2221.676944,1628.453072,7920.203579
3666.823444,1072.533697,148.041188,8808.450710
3666.823758,-1762.019645,-1924.535449,10066.800811
3666.824073,-3294.210641,-2812.782580,11399.171507
3666.824387,-4519.963438,-3627.009116,12065.356855
3666.824702,-4749.792088,-3701.029710,12287.418637
3666.825016,-4060.306139,-3701.029710,12879.583391
3666.825331,-2987.772442,-2146.597232,11917.315666
3666.825645,-1608.800546,-370.102971,10732.986159
3666.825959,536.266849,1406.391290,9770.718434
3666.826274,2528.115143,2664.741391,8734.430116
3666.826588,4519.963438,3923.091493,7550.100608
3666.826903,4749.792088,4145.153275,6661.853478
3666.827217,4596.572988,3849.070898,6513.812290
3666.827532,4136.915689,3182.885551,7105.977043
3666.827846,2528.115143,1332.370696,7698.141797
3666.828161,689.485948,222.061783,8882.471304
3666.828475,-1685.410096,-1702.473667,10214.842000
3666.828790,-3370.820191,-3256.906145,11103.089130
3666.829104,-4060.306139,-3849.070898,12213.398043
3666.829419,-4443.353888,-3923.091493,12435.459826
3666.829733,-3983.696590,-3478.967927,12731.542202
3666.830047,-3217.601092,-1850.514855,11843.295072
3666.830362,-1378.971896,-222.061783,10510.924376
3666.830676,689.485948,962.267725,9474.636058
3666.830991,2834.553343,2368.659014,8734.430116
3666.831305,3907.087040,3330.926739,7254.018232
3666.831620,4826.401637,3997.112087,6883.915261
3666.831934,4826.401637,3849.070898,6809.894666
3666.832249,3753.867940,3256.906145,7179.997637
3666.832563,2987.772442,1480.411884,8364.327145
3666.832878,306.438199,-0.000000,8882.471304
3666.833192,-1608.800546,-1332.370696,10214.842000
3666.833507,-3140.991542,-2960.823768,11103.089130
3666.833821,-4136.915689,-3701.029710,11843.295072
3666.834136,-4519.963438,-3775.050304,12287.418637
3666.834450,-3983.696590,-3108.864956,12509.480420
3666.834764,-2604.724693,-1628.453072,11843.295072
3666.835079,-1149.143247,-444.123565,11177.109724
3666.835393,842.705048,962.267725,9696.697840
3666.835708,2681.334243,2738.761985,8438.347739
3666.836022,3830.477490,3997.112087,7550.100608
3666.836337,4366.744339,4441.235652,7105.977043
3666.836651,4366.744339,3775.050304,7105.977043
3666.836966,4060.306139,2812.782580,7328.038826
3666.837280,2451.505594,1480.411884,8438.347739
3666.837595,306.438199,222.061783,9252.574275
3666.837909,-1225.752797,-1258.350101,10140.821405
3666.838224,-2834.553343,-2516.700203,11399.171507
3666.838538,-3830.477490,-3478.967927,11917.315666
3666.838853,-3983.696590,-3330.926739,12213.398043
3666.839167,-3753.867940,-2960.823768,12435.459826
3666.839481,-2528.115143,-1924.535449,11843.295072
3666.839796,-842.705048,-222.061783,10584.944971
3666.840110,689.485948,1184.329507,9548.656652
3666.840425,2757.943793,2146.597232,8586.388927
3666.840739,3753.867940,3108.864956,7624.121203
3666.841054,4366.744339,3775.050304,6809.894666
3666.841368,3830.477490,3552.988522,7105.977043
3666.841683,3217.601092,2738.761985,6883.915261
3666.841997,2068.457845,2220.617826,7846.182985
3666.842312,0.000000,-0.000000,8734.430116
3666.842626,-1302.362347,-1702.473667,9918.759623
3666.842941,-3217.601092,-2886.803174,11547.212695
3666.843255,-4366.744339,-3627.009116,12435.459826
3666.843569,-4596.572988,-3923.091493,13323.706956
3666.843884,-4060.306139,-3478.967927,12731.542202
3666.844198,-2987.772442,-2294.638420,11843.295072
3666.844513,-1149.143247,-148.041188,10362.883188
3666.844827,1072.533697,962.267725,9474.636058
3666.845142,2528.115143,2368.659014,8808.450710
3666.845456,4136.915689,3330.926739,7179.997637
3666.845771,4826.401637,3701.029710,6957.935855
3666.846085,4673.182538,3701.029710,6587.832884
3666.846400,3907.087040,3034.844362,6957.935855
3666.846714,2528.115143,1406.391290,7772.162391
3666.847029,536.266849,-222.061783,9030.512492
3666.847343,-995.924147,-1702.473667,10140.821405
3666.847658,-3064.381992,-2812.782580,11473.192101
3666.847972,-4060.306139,-3256.906145,11991.336260
3666.848286,-3447.429741,-3775.050304,12361.439231
3666.848601,-3524.039291,-2812.782580,12583.501014
3666.848915,-2528.115143,-1554.432478,11621.233289
3666.849230,-1072.533697,-222.061783,10881.027347
3666.849544,842.705048,1554.432478,9696.697840
3666.849859,2298.286494,2590.720797,8586.388927
3666.850173,3983.696590,3552.988522,7550.100608
3666.850488,4136.915689,3552.988522,7179.997637
3666.850802,3830.477490,3627.009116,6809.894666
3666.851117,3524.039291,2590.720797,7179.997637
3666.851431,1838.629195,1406.391290,8142.265362
3666.851746,229.828649,-0.000000,9030.512492
3666.852060,-1378.971896,-1480.411884,9844.739029
3666.852374,-2757.943793,-2886.803174,10955.047942
3666.852689,-4213.525239,-3404.947333,11621.233289
3666.853003,-4060.306139,-3552.988522,12139.377449
3666.853318,-3294.210641,-3182.885551,11991.336260
3666.853632,-2451.505594,-1702.473667,11547.212695
3666.853947,-995.924147,-370.102971,10510.924376
3666.854261,842.705048,740.205942,9474.636058
3666.854576,2451.505594,2220.617826,8512.368333
3666.854890,3830.477490,3627.009116,7624.121203
3666.855205,4290.134789,3849.070898,7105.977043
3666.855519,4136.915689,3775.050304,6735.874072
3666.855834,3447.429741,2590.720797,7624.121203
3666.856148,2145.067394,1110.308913,8216.285956
3666.856462,306.438199,-0.000000,8956.491898
3666.856777,-1532.190996,-1332.370696,10214.842000
3666.857091,-2987.772442,-2442.679609,11547.212695
3666.857406,-4060.306139,-3478.967927,12139.377449
3666.857720,-3907.087040,-3330.926739,12509.480420
3666.858035,-3677.258390,-2738.761985,12361.439231
3666.858349,-2451.505594,-1406.391290,11547.212695
3666.858664,-766.095498,-0.000000,10436.903782
3666.858978,612.876398,1332.370696,9326.594869
3666.859293,2298.286494,2886.803174,8734.430116
3666.859607,3524.039291,3404.947333,7254.018232
3666.859922,4290.134789,3701.029710,6735.874072
3666.860236,3830.477490,3404.947333,7105.977043
3666.860550,3140.991542,2886.803174,7476.080014
3666.860865,1608.800546,1850.514855,7846.182985
3666.861179,0.000000,-0.000000,8882.471304
3666.861494,-1378.971896,-1332.370696,10140.821405
3666.861808,-2987.772442,-2738.761985,11103.089130
3666.862123,-4366.744339,-3256.906145,12139.377449
3666.862437,-4519.963438,-3552.988522,12361.439231
3666.862752,-3907.087040,-3034.844362,11917.315666
3666.863066,-2451.505594,-1628.453072,11621.233289
3666.863381,-995.924147,-0.000000,10288.862594
3666.863695,919.314598,1554.432478,9622.677246
3666.864010,2451.505594,2442.679609,8586.388927
3666.864324,3753.867940,3256.906145,7624.121203
3666.864639,4596.572988,4071.132681,7105.977043
3666.864953,3983.696590,3182.885551,6513.812290
3666.865267,3064.381992,2294.638420,7550.100608
3666.865582,1838.629195,888.247130,8512.368333
3666.865896,229.828649,-444.123565,9252.574275
3666.866211,-995.924147,-1998.556043,10436.903782
3666.866525,-3217.601092,-3034.844362,11547.212695
3666.866840,-3753.867940,-3404.947333,11991.336260
3666.867154,-3753.867940,-3404.947333,11843.295072
3666.867469,-3217.601092,-2738.761985,11991.336260
3666.867783,-2145.067394,-1406.391290,11843.295072
3666.868098,-689.485948,-0.000000,10510.924376
3666.868412,1302.362347,1332.370696,9326.594869
3666.868727,2757.943793,2590.720797,8586.388927
3666.869041,3753.867940,3256.906145,7624.121203
3666.869355,4443.353888,3256.906145,7105.977043
3666.869670,3907.087040,3182.885551,7105.977043
3666.869984,3217.601092,2368.659014,7846.182985
3666.870299,1762.019645,1332.370696,8290.306550
3666.870613,153.219100,-296.082377,9178.553681
3666.870928,-1532.190996,-1850.514855,10658.965565
3666.871242,-2911.162892,-2812.782580,11621.233289
3666.871557,-3983.696590,-3404.947333,12213.398043
3666.871871,-3983.696590,-3627.009116,12139.377449
3666.872186,-2834.553343,-2886.803174,12361.439231
3666.872500,-1991.848295,-1332.370696,11251.130318
3666.872815,-229.828649,-0.000000,10288.862594
3666.873129,995.924147,1332.370696,9400.615463
3666.873443,2451.505594,2368.659014,8290.306550
3666.873758,3907.087040,3256.906145,7550.100608
3666.874072,3907.087040,3404.947333,6809.894666
3666.874387,3830.477490,2812.782580,7179.997637
3666.874701,3140.991542,1924.535449,7476.080014
3666.875016,1762.019645,740.205942,7772.162391
3666.875330,153.219100,-1036.288319,9548.656652
3666.875645,-1991.848295,-2368.659014,10066.800811
3666.875959,-3140.991542,-3034.844362,11177.109724
3666.876274,-4136.915689,-3478.967927,12065.356855
3666.876588,-4136.915689,-3552.988522,11843.295072
3666.876903,-3217.601092,-2590.720797,11843.295072
3666.877217,-2221.676944,-1480.411884,11251.130318
3666.877531,-536.266849,-0.000000,10214.842000
3666.877846,1225.752797,1332.370696,9178.553681
3666.878160,2834.553343,2368.659014,7846.182985
3666.878475,3753.867940,3256.906145,7698.141797
3666.878789,4596.572988,3552.988522,7254.018232
3666.879104,4290.134789,3478.967927,7031.956449
3666.879418,2911.162892,2368.659014,7402.059420
3666.879733,1532.190996,1110.308913,8290.306550
3666.880047,-229.828649,-0.000000,9548.656652
3666.880362,-2068.457845,-1480.411884,10140.821405
3666.880676,-3140.991542,-2664.741391,11473.192101
3666.880991,-3983.696590,-3108.864956,11991.336260
3666.881305,-4060.306139,-3256.906145,12139.377449
3666.881619,-3907.087040,-2590.720797,12509.480420
3666.881934,-2298.286494,-888.247130,11769.274478
3666.882248,-459.657299,666.185348,10732.986159
3666.882563,919.314598,2146.597232,9548.656652
3666.882877,2528.115143,3034.844362,8290.306550
3666.883192,3447.429741,3627.009116,7772.162391
3666.883506,4136.915689,3775.050304,7105.977043
3666.883821,4136.915689,3627.009116,7105.977043
3666.884135,2987.772442,2368.659014,7698.141797
3666.884450,1608.800546,1258.350101,8364.327145
3666.884764,-383.047749,-148.041188,9252.574275
3666.885079,-1762.019645,-1776.494261,10584.944971
3666.885393,-3294.210641,-2960.823768,11769.274478
3666.885707,-3753.867940,-3256.906145,12361.439231
3666.886022,-3907.087040,-3404.947333,12805.562797
3666.886336,-2834.553343,-2738.761985,12287.418637
3666.886651,-1838.629195,-1406.391290,11177.109724
3666.886965,0.000000,222.061783,10214.842000
3666.887280,1762.019645,1776.494261,9178.553681
3666.887594,3217.601092,3108.864956,8290.306550
3666.887909,4060.306139,4293.194464,7698.141797
3666.888223,4903.011187,4293.194464,7105.977043
3666.888538,4213.525239,3330.926739,6883.915261
3666.888852,3294.210641,2368.659014,7179.997637
3666.889167,1608.800546,592.164754,8586.388927
3666.889481,-306.438199,-962.267725,9622.677246
3666.889795,-1915.238745,-2442.679609,10955.047942
3666.890110,-3294.210641,-3182.885551,11621.233289
3666.890424,-4366.744339,-3701.029710,11991.336260
3666.890739,-4136.915689,-3404.947333,12657.521608
3666.891053,-3217.601092,-2960.823768,12213.398043
3666.891368,-2221.676944,-1406.391290,11547.212695
3666.891682,-383.047749,444.123565,10288.862594
3666.891997,1685.410096,1850.514855,9178.553681
3666.892311,3370.820191,2812.782580,8068.244768
3666.892626,4060.306139,3404.947333,7402.059420
3666.892940,4290.134789,3775.050304,6809.894666
3666.893255,3830.477490,3330.926739,6809.894666
3666.893569,2911.162892,2146.597232,7254.018232
3666.893883,2145.067394,592.164754,8290.306550
3666.894198,-153.219100,-814.226536,9400.615463
3666.894512,-2068.457845,-2516.700203,10362.883188
3666.894827,-3677.258390,-3108.864956,11399.171507
3666.895141,-4366.744339,-3627.009116,12139.377449
3666.895456,-4366.744339,-3552.988522,12065.356855
3666.895770,-3217.601092,-2738.761985,11991.336260
3666.896085,-2145.067394,-1184.329507,11251.130318
3666.896399,-689.485948,592.164754,10214.842000
3666.896714,1378.971896,1332.370696,9104.533087
3666.897028,3064.381992,2516.700203,8216.285956
3666.897343,4060.306139,3552.988522,7105.977043
3666.897657,4443.353888,3923.091493,6587.832884
3666.897972,3983.696590,3627.009116,6809.894666
3666.898286,2987.772442,2294.638420,7254.018232
3666.898600,1378.971896,1036.288319,8142.265362
3666.898915,-229.828649,-592.164754,9030.512492
3666.899229,-1915.238745,-1850.514855,10436.903782
3666.899544,-3447.429741,-2812.782580,11695.253884
3666.899858,-4290.134789,-3775.050304,12213.398043
3666.900173,-4290.134789,-3627.009116,12731.542202
3666.900487,-3677.258390,-2590.720797,12731.542202
3666.900802,-2451.505594,-814.226536,11695.253884
3666.901116,-383.047749,814.226536,10362.883188
3666.901431,1532.190996,1924.535449,9400.615463
3666.901745,3064.381992,3330.926739,8734.430116
3666.902060,4136.915689,3923.091493,7624.121203
3666.902374,4519.963438,4219.173869,7105.977043
3666.902688,4136.915689,3478.967927,7031.956449
3666.903003,3140.991542,2516.700203,7698.141797
3666.903317,1838.629195,1332.370696,8364.327145
3666.903632,-229.828649,-0.000000,9326.594869
3666.903946,-1991.848295,-1554.432478,10214.842000
3666.904261,-3447.429741,-3034.844362,11473.192101
3666.904575,-4366.744339,-3701.029710,12287.418637
3666.904890,-3983.696590,-3404.947333,12879.583391
3666.905204,-3600.648841,-2516.700203,12213.398043
3666.905519,-2451.505594,-1702.473667,11251.130318
3666.905833,-306.438199,370.102971,10584.944971
3666.906148,1378.971896,1850.514855,9474.636058
3666.906462,3447.429741,3256.906145,8142.265362
3666.906776,4443.353888,3997.112087,7105.977043
3666.907091,5362.668486,4145.153275,6513.812290
3666.907405,4826.401637,3552.988522,6661.853478
3666.907720,3294.210641,2664.741391,7328.038826
3666.908034,1608.800546,1406.391290,8216.285956
3666.908349,0.000000,-222.061783,9030.512492
3666.908663,-1991.848295,-1998.556043,10436.903782
3666.908978,-3447.429741,-3330.926739,11473.192101
3666.909292,-4366.744339,-3552.988522,12065.356855
3666.909607,-4443.353888,-3775.050304,12731.542202
3666.909921,-3217.601092,-3256.906145,12731.542202
3666.910236,-1991.848295,-1924.535449,11991.336260
3666.910550,-612.876398,-148.041188,10214.842000
3666.910864,1072.533697,1850.514855,9178.553681
3666.911179,3217.601092,2738.761985,8142.265362
3666.911493,4366.744339,3627.009116,7105.977043
3666.911808,4903.011187,3923.091493,6291.750507
3666.912122,4213.525239,3849.070898,6883.915261
3666.912437,3064.381992,2442.679609,7328.038826
3666.912751,1378.971896,1184.329507,8216.285956
3666.913066,0.000000,-666.185348,9400.615463
3666.913380,-2221.676944,-2442.679609,11177.109724
3666.913695,-3983.696590,-3923.091493,11399.171507
3666.914009,-4749.792088,-4145.153275,12213.398043
3666.914324,-4749.792088,-3775.050304,12509.480420
3666.914638,-3677.258390,-3330.926739,12213.398043
3666.914952,-1915.238745,-1998.556043,11325.150913
3666.915267,-766.095498,-74.020594,9992.780217
3666.915581,1378.971896,1332.370696,9474.636058
3666.915896,2987.772442,2738.761985,8142.265362
3666.916210,4443.353888,3775.050304,7105.977043
3666.916525,5362.668486,4367.215058,6883.915261
3666.916839,4519.963438,3701.029710,6809.894666
3666.917154,3677.258390,2738.761985,7254.018232
3666.917468,2145.067394,1036.288319,7846.182985
3666.917783,1225.752797,-518.144159,8956.491898
3666.918097,-1532.190996,-2220.617826,10436.903782
3666.918412,-3600.648841,-3108.864956,11177.109724
3666.918726,-4290.134789,-3775.050304,12139.377449
3666.919040,-4443.353888,-4441.235652,12509.480420
3666.919355,-3830.477490,-3701.029710,12287.418637
3666.919669,-2374.896044,-2220.617826,11695.253884
3666.919984,-612.876398,-0.000000,10510.924376
3666.920298,1532.190996,1776.494261,9400.615463
3666.920613,3217.601092,3404.947333,8290.306550
3666.920927,4366.744339,4145.153275,7550.100608
3666.921242,4903.011187,4367.215058,6735.874072
3666.921556,4596.572988,3997.112087,6587.832884
3666.921871,3753.867940,2738.761985,7179.997637
3666.922185,2298.286494,1036.288319,8068.244768
3666.922500,0.000000,-814.226536,9548.656652
3666.922814,-2145.067394,-2220.617826,10732.986159
3666.923128,-3677.258390,-3701.029710,11621.233289
3666.923443,-4903.011187,-3849.070898,12065.356855
3666.923757,-4443.353888,-3849.070898,12953.603985
3666.924072,-3140.991542,-3034.844362,12509.480420
3666.924386,-2451.505594,-1702.473667,11621.233289
3666.924701,-536.266849,148.041188,10510.924376
3666.925015,1302.362347,1702.473667,9178.553681
3666.925330,3064.381992,2886.803174,8438.347739
3666.925644,4366.744339,3923.091493,7550.100608
3666.925959,4749.792088,4293.194464,6809.894666
3666.926273,4519.963438,3627.009116,7031.956449
3666.926588,3447.429741,2812.782580,7179.997637
3666.926902,1685.410096,1406.391290,7920.203579
3666.927217,-229.828649,-296.082377,9326.594869
3666.927531,-2374.896044,-1924.535449,10288.862594
3666.927845,-3907.087040,-2886.803174,11621.233289
3666.928160,-4749.792088,-4071.132681,12139.377449
3666.928474,-4979.620737,-3849.070898,12805.562797
3666.928789,-3983.696590,-3404.947333,12361.439231
3666.929103,-2681.334243,-1406.391290,11473.192101
3666.929418,-842.705048,222.061783,10658.965565
3666.929732,842.705048,1924.535449,9548.656652
3666.930047,2757.943793,3034.844362,7994.224174
3666.930361,4213.525239,3775.050304,7105.977043
3666.930676,4596.572988,4219.173869,6735.874072
3666.930990,4749.792088,3997.112087,6809.894666
3666.931305,3447.429741,2516.700203,6957.935855
3666.931619,2374.896044,1184.329507,8142.265362
3666.931933,229.828649,-0.000000,9474.636058
3666.932248,-1608.800546,-1776.494261,9844.739029
3666.932562,-3217.601092,-3108.864956,11325.150913
3666.932877,-4443.353888,-3701.029710,12213.398043
3666.933191,-4443.353888,-3701.029710,12657.521608
3666.933506,-3447.429741,-2812.782580,12583.501014
3666.933820,-2068.457845,-1480.411884,11547.212695
3666.934135,-383.047749,370.102971,10362.883188
3666.934449,1838.629195,1850.514855,9474.636058
3666.934764,3064.381992,3330.926739,8364.327145
3666.935078,4979.620737,3923.091493,7402.059420
3666.935393,5056.230287,4441.235652,6809.894666
3666.935707,4596.572988,3701.029710,6735.874072
3666.936021,3294.210641,2886.803174,7105.977043
3666.936336,1685.410096,1480.411884,8142.265362
3666.936650,-229.828649,-518.144159,9400.615463
3666.936965,-2221.676944,-2590.720797,10732.986159
3666.937279,-3524.039291,-3775.050304,11917.315666
3666.937594,-4749.792088,-4219.173869,12361.439231
3666.937908,-4596.572988,-3923.091493,12657.521608
3666.938223,-4060.306139,-3330.926739,12435.459826
3666.938537,-2528.115143,-1406.391290,11325.150913
3666.938852,-536.266849,222.061783,10510.924376
3666.939166,1532.190996,1850.514855,9252.574275
3666.939481,3217.601092,2664.741391,8586.388927
3666.939795,4673.182538,3701.029710,7179.997637
3666.940109,4826.401637,3627.009116,6661.853478
3666.940424,4443.353888,3404.947333,6883.915261
3666.940738,3140.991542,2442.679609,7179.997637
3666.941053,1762.019645,1554.432478,7920.203579
3666.941367,-306.438199,-444.123565,9178.553681
3666.941682,-1685.410096,-2294.638420,10214.842000
3666.941996,-3064.381992,-3108.864956,11547.212695
3666.942311,-4366.744339,-3923.091493,12139.377449
3666.942625,-4213.525239,-3997.112087,12583.501014
3666.942940,-3370.820191,-3330.926739,12361.439231
3666.943254,-2221.676944,-1480.411884,11473.192101
3666.943569,-536.266849,148.041188,10140.821405
3666.943883,2221.676944,1850.514855,8956.491898
3666.944197,3447.429741,3034.844362,7846.182985
3666.944512,4443.353888,4441.235652,6735.874072
3666.944826,4826.401637,4515.256246,6809.894666
3666.945141,4136.915689,3775.050304,7105.977043
3666.945455,2911.162892,2664.741391,7031.956449
3666.945770,1838.629195,962.267725,8068.244768
3666.946084,-153.219100,-370.102971,9474.636058
3666.946399,-2298.286494,-1776.494261,10436.903782
3666.946713,-4060.306139,-2886.803174,11769.274478
3666.947028,-4443.353888,-3701.029710,12065.356855
3666.947342,-4596.572988,-3923.091493,12583.501014
3666.947657,-4136.915689,-3034.844362,12361.439231
3666.947971,-2604.724693,-1406.391290,11769.274478
3666.948285,-689.485948,370.102971,10510.924376
3666.948600,995.924147,2072.576638,8956.491898
3666.948914,2681.334243,3478.967927,8216.285956
3666.949229,4060.306139,3923.091493,7550.100608
3666.949543,4903.011187,4071.132681,7105.977043
3666.949858,4979.620737,4071.132681,6513.812290
3666.950172,3677.258390,2960.823768,7328.038826
3666.950487,2068.457845,1554.432478,8586.388927
3666.950801,0.000000,-222.061783,9104.533087
3666.951116,-1685.410096,-1776.494261,10732.986159
3666.951430,-3370.820191,-3330.926739,11991.336260
3666.951745,-4060.306139,-3701.029710,12435.459826
3666.952059,-3983.696590,-3256.906145,12879.583391
3666.952373,-3294.210641,-2812.782580,12583.501014
3666.952688,-1762.019645,-962.267725,11621.233289
3666.953002,0.000000,222.061783,10214.842000
3666.953317,1762.019645,1998.556043,9178.553681
3666.953631,3524.039291,3552.988522,8068.244768
3666.953946,4826.401637,4219.173869,7254.018232
3666.954260,4903.011187,3849.070898,6291.750507
3666.954575,4060.306139,3552.988522,6809.894666
3666.954889,3447.429741,2294.638420,7772.162391
3666.955204,1302.362347,1184.329507,8734.430116
3666.955518,-612.876398,-296.082377,9400.615463
3666.955833,-2221.676944,-2516.700203,11547.212695
3666.956147,-3600.648841,-3404.947333,11547.212695
3666.956462,-4673.182538,-3701.029710,11917.315666
3666.956776,-4519.963438,-3627.009116,12657.521608
3666.957091,-3753.867940,-2812.782580,12213.398043
3666.957405,-2068.457845,-1628.453072,11991.336260
3666.957720,-76.609550,444.123565,10140.821405
3666.958034,1532.190996,1628.453072,8808.450710
3666.958349,3447.429741,2812.782580,7698.141797
3666.958663,4290.134789,3478.967927,7105.977043
3666.958977,4903.011187,3775.050304,6957.935855
3666.959292,4366.744339,3182.885551,6735.874072
3666.959606,2987.772442,1998.556043,7179.997637
3666.959921,1378.971896,814.226536,7920.203579
3666.960235,-306.438199,-740.205942,9326.594869
3666.960550,-1685.410096,-2516.700203,10140.821405
3666.960864,-3370.820191,-3330.926739,11103.089130
3666.961179,-4136.915689,-4293.194464,12139.377449
3666.961493,-4443.353888,-3775.050304,12287.418637
3666.961808,-3524.039291,-3108.864956,12213.398043
3666.962122,-2374.896044,-1554.432478,11473.192101
3666.962437,0.000000,-0.000000,10362.883188
3666.962751,1532.190996,1184.329507,9030.512492
3666.963066,3064.381992,2590.720797,8068.244768
3666.963380,4213.525239,3627.009116,7550.100608
3666.963695,4443.353888,3478.967927,6735.874072
3666.964009,3830.477490,3108.864956,6809.894666
3666.964324,2987.772442,2442.679609,7328.038826
3666.964638,1608.800546,888.247130,8290.306550
3666.964952,153.219100,-666.185348,9326.594869
3666.965267,-1762.019645,-2146.597232,10436.903782
3666.965581,-3677.258390,-3404.947333,11325.150913
3666.965896,-4366.744339,-3627.009116,12139.377449
3666.966210,-4596.572988,-3775.050304,12509.480420
3666.966525,-3600.648841,-2812.782580,12509.480420
3666.966839,-2528.115143,-1628.453072,11399.171507
3666.967154,-995.924147,444.123565,10066.800811
3666.967468,1302.362347,1850.514855,9474.636058
3666.967783,2681.334243,3034.844362,8216.285956
3666.968097,3753.867940,3552.988522,7550.100608
3666.968412,4290.134789,3701.029710,6957.935855
3666.968726,3983.696590,3478.967927,7105.977043
3666.969041,3140.991542,2368.659014,7402.059420
3666.969355,1838.629195,1184.329507,7994.224174
3666.969670,0.000000,-296.082377,9770.718434
3666.969984,-1915.238745,-1702.473667,10584.944971
3666.970299,-3447.429741,-2960.823768,11473.192101
3666.970613,-4060.306139,-3256.906145,12065.356855
3666.970928,-3830.477490,-3478.967927,12287.418637
3666.971242,-2987.772442,-2368.659014,12361.439231
3666.971556,-2374.896044,-1258.350101,11621.233289
3666.971871,-153.219100,296.082377,10214.842000
3666.972185,1608.800546,1702.473667,9104.533087
3666.972500,2987.772442,3108.864956,8216.285956
3666.972814,4519.963438,3552.988522,7179.997637
3666.973129,4519.963438,3923.091493,7105.977043
3666.973443,4519.963438,3552.988522,6735.874072
3666.973758,3217.601092,2590.720797,7476.080014
3666.974072,1532.190996,1258.350101,8364.327145
3666.974387,-153.219100,-74.020594,9548.656652
3666.974701,-1915.238745,-2146.597232,10584.944971
3666.975016,-3294.210641,-2516.700203,11547.212695
3666.975330,-4366.744339,-3182.885551,12879.583391
3666.975645,-4213.525239,-3404.947333,12731.542202
3666.975959,-3600.648841,-2664.741391,12287.418637
3666.976274,-2068.457845,-1406.391290,11991.336260
3666.976588,-306.438199,592.164754,10658.965565
3666.976903,1225.752797,1776.494261,9474.636058
3666.977217,3064.381992,2590.720797,8438.347739
3666.977532,4290.134789,3701.029710,7402.059420
3666.977846,4749.792088,4071.132681,6439.791695
3666.978160,4443.353888,3775.050304,6513.812290
3666.978475,3140.991542,2516.700203,7328.038826
3666.978789,1608.800546,1110.308913,8068.244768
3666.979104,-306.438199,-518.144159,9104.533087
3666.979418,-1762.019645,-2442.679609,9696.697840
3666.979733,-3217.601092,-3108.864956,11251.130318
3666.980047,-4366.744339,-3775.050304,11917.315666
3666.980362,-4290.134789,-3552.988522,12361.439231
3666.980676,-3447.429741,-2738.761985,12361.439231
3666.980991,-2298.286494,-1406.391290,11325.150913
3666.981305,-536.266849,370.102971,10066.800811
3666.981620,1455.581446,1850.514855,9326.594869
3666.981934,3217.601092,3256.906145,8068.244768
3666.982249,4290.134789,3775.050304,7254.018232
3666.982563,4136.915689,3701.029710,6661.853478
3666.982878,4290.134789,3330.926739,6957.935855
3666.983192,2834.553343,2220.617826,7254.018232
3666.983507,1455.581446,740.205942,8142.265362
3666.983821,-459.657299,-666.185348,9252.574275
3666.984135,-2068.457845,-1924.535449,10510.924376
3666.984450,-3753.867940,-2886.803174,11399.171507
3666.984764,-4443.353888,-3775.050304,12213.398043
3666.985079,-4749.792088,-3923.091493,12583.501014
3666.985393,-3370.820191,-3034.844362,12287.418637
3666.985708,-2298.286494,-1406.391290,11473.192101
3666.986022,-842.705048,-0.000000,10510.924376
3666.986337,1302.362347,1406.391290,9548.656652
3666.986651,2604.724693,2664.741391,8216.285956
3666.986966,4290.134789,3552.988522,7105.977043
3666.987280,4366.744339,3923.091493,7105.977043
3666.987595,3907.087040,3552.988522,7254.018232
3666.987909,3064.381992,2220.617826,7772.162391
3666.988224,1608.800546,888.247130,8438.347739
3666.988538,0.000000,-962.267725,9178.553681
3666.988853,-1838.629195,-2294.638420,10288.862594
3666.989167,-3064.381992,-2886.803174,11399.171507
3666.989482,-3983.696590,-3627.009116,12139.377449
3666.989796,-3677.258390,-3701.029710,12139.377449
3666.990111,-2681.334243,-2812.782580,11695.253884
