#time,accel_x,accel_y,accel_z
4113.322888,-536.266849,1480.411884,8734.430116
4113.323203,-306.438199,1554.432478,8586.388927
4113.323518,-306.438199,1184.329507,8882.471304
4113.323834,-842.705048,518.144159,9104.533087
4113.324149,-919.314598,222.061783,9326.594869
4113.324465,-1149.143247,-444.123565,9918.759623
4113.324780,-1149.143247,-962.267725,9992.780217
4113.325095,-1532.190996,-1258.350101,10214.842000
4113.325411,-842.705048,-888.247130,9770.718434
4113.325726,-459.657299,-666.185348,9104.533087
4113.326042,0.000000,-0.000000,9030.512492
4113.326357,306.438199,-0.000000,8660.409521
4113.326672,76.609550,444.123565,8438.347739
4113.326988,383.047749,-0.000000,8216.285956
4113.327303,306.438199,-222.061783,8290.306550
4113.327619,153.219100,-444.123565,8956.491898
4113.327934,-153.219100,-814.226536,9030.512492
4113.328249,0.000000,-1702.473667,9326.594869
4113.328565,0.000000,-1998.556043,9252.574275
4113.328880,0.000000,-1702.473667,9326.594869
4113.329196,-383.047749,-1702.473667,8734.430116
4113.329511,-612.876398,-1702.473667,8808.450710
4113.329826,-76.609550,-740.205942,8882.471304
4113.330142,-383.047749,-666.185348,8068.244768
4113.330457,-766.095498,-370.102971,8364.327145
4113.330773,-612.876398,-592.164754,9030.512492
4113.331088,-459.657299,-1332.370696,9326.594869
4113.331403,-459.657299,-666.185348,9622.677246
4113.331719,-459.657299,-888.247130,9770.718434
4113.332034,-306.438199,-740.205942,9992.780217
4113.332350,0.000000,-1036.288319,9548.656652
4113.332665,0.000000,-888.247130,9622.677246
4113.332980,-459.657299,-370.102971,9400.615463
4113.333296,-536.266849,-0.000000,9104.533087
4113.333611,0.000000,-0.000000,9474.636058
4113.333927,-229.828649,-0.000000,9178.553681
4113.334242,-766.095498,-222.061783,9400.615463
4113.334557,-536.266849,-148.041188,9770.718434
4113.334873,-459.657299,-0.000000,9696.697840
4113.335188,459.657299,-0.000000,10140.821405
4113.335504,536.266849,-0.000000,10066.800811
4113.335819,995.924147,592.164754,9622.677246
4113.336134,1302.362347,740.205942,9252.574275
4113.336450,1532.190996,1406.391290,9104.533087
4113.336765,1455.581446,1998.556043,9104.533087
4113.337081,1302.362347,1850.514855,9178.553681
4113.337396,689.485948,1850.514855,9474.636058
4113.337711,229.828649,1406.391290,9918.759623
4113.338027,153.219100,962.267725,10140.821405
4113.338342,229.828649,814.226536,10214.842000
4113.338658,-229.828649,370.102971,9918.759623
4113.338973,-306.438199,1110.308913,9992.780217
4113.339288,-229.828649,1036.288319,10066.800811
4113.339604,0.000000,1184.329507,10066.800811
4113.339919,76.609550,1554.432478,9992.780217
4113.340234,-153.219100,1554.432478,9992.780217
4113.340550,-306.438199,1850.514855,9992.780217
4113.340865,-229.828649,1924.535449,9770.718434
4113.341181,0.000000,1480.411884,9992.780217
4113.341496,153.219100,740.205942,10288.862594
4113.341811,76.609550,1110.308913,10066.800811
4113.342127,306.438199,1184.329507,9918.759623
4113.342442,306.438199,962.267725,10066.800811
4113.342758,612.876398,1110.308913,9770.718434
4113.343073,612.876398,444.123565,9622.677246
4113.343388,229.828649,-0.000000,9918.759623
4113.343704,76.609550,518.144159,9992.780217
4113.344019,383.047749,370.102971,9770.718434
4113.344335,383.047749,148.041188,9622.677246
4113.344650,459.657299,-0.000000,9696.697840
4113.344965,536.266849,-0.000000,9918.759623
4113.345281,306.438199,-0.000000,9474.636058
4113.345596,766.095498,-0.000000,9548.656652
4113.345912,842.705048,-74.020594,9474.636058
4113.346227,995.924147,-0.000000,9400.615463
4113.346542,919.314598,296.082377,9548.656652
4113.346858,689.485948,-0.000000,9770.718434
4113.347173,842.705048,-74.020594,9474.636058
4113.347489,536.266849,-74.020594,9696.697840
4113.347804,229.828649,-0.000000,9622.677246
4113.348119,0.000000,-518.144159,9696.697840
4113.348435,-383.047749,-740.205942,9474.636058
4113.348750,-229.828649,-1036.288319,9474.636058
4113.349066,-153.219100,-1184.329507,9622.677246
4113.349381,-153.219100,-814.226536,9696.697840
4113.349696,-153.219100,-888.247130,9178.553681
4113.350012,-306.438199,-1036.288319,9252.574275
4113.350327,76.609550,-888.247130,9474.636058
4113.350643,153.219100,-962.267725,9326.594869
4113.350958,0.000000,-592.164754,8956.491898
4113.351273,0.000000,-444.123565,9400.615463
4113.351589,76.609550,-592.164754,8882.471304
4113.351904,0.000000,-666.185348,9178.553681
4113.352220,76.609550,-518.144159,9030.512492
4113.352535,76.609550,-666.185348,9104.533087
4113.352850,229.828649,-666.185348,9326.594869
4113.353166,76.609550,-666.185348,9474.636058
4113.353481,0.000000,-666.185348,9178.553681
4113.353797,0.000000,-888.247130,9326.594869
4113.354112,0.000000,-740.205942,9548.656652
4113.354427,-536.266849,-740.205942,9548.656652
4113.354743,-306.438199,-592.164754,9474.636058
4113.355058,-229.828649,-222.061783,9548.656652
4113.355374,-153.219100,-444.123565,9474.636058
4113.355689,229.828649,-0.000000,9992.780217
4113.356004,153.219100,-296.082377,9474.636058
4113.356320,0.000000,148.041188,9400.615463
4113.356635,459.657299,296.082377,9474.636058
4113.356951,536.266849,-0.000000,9622.677246
4113.357266,459.657299,296.082377,9918.759623
4113.357581,153.219100,370.102971,9844.739029
4113.357897,306.438199,296.082377,9548.656652
4113.358212,383.047749,444.123565,9770.718434
4113.358527,306.438199,666.185348,9474.636058
4113.358843,229.828649,518.144159,9918.759623
4113.359158,-229.828649,444.123565,9992.780217
4113.359474,76.609550,296.082377,9622.677246
4113.359789,0.000000,666.185348,9992.780217
4113.360104,306.438199,666.185348,9918.759623
4113.360420,0.000000,814.226536,10214.842000
4113.360735,0.000000,888.247130,10066.800811
4113.361051,0.000000,1036.288319,9918.759623
4113.361366,0.000000,740.205942,10066.800811
4113.361681,612.876398,1110.308913,9844.739029
4113.361997,0.000000,962.267725,9696.697840
4113.362312,0.000000,1036.288319,9770.718434
4113.362628,0.000000,1184.329507,9696.697840
4113.362943,153.219100,888.247130,9770.718434
4113.363258,76.609550,592.164754,9918.759623
4113.363574,76.609550,888.247130,9918.759623
4113.363889,153.219100,1036.288319,9844.739029
4113.364205,0.000000,962.267725,9696.697840
4113.364520,612.876398,814.226536,9844.739029
4113.364835,0.000000,666.185348,9992.780217
4113.365151,-153.219100,370.102971,9548.656652
4113.365466,-383.047749,222.061783,9474.636058
4113.365782,0.000000,444.123565,9474.636058
4113.366097,0.000000,370.102971,9548.656652
4113.366406,76.609550,370.102971,9770.718434
4113.366722,0.000000,370.102971,9400.615463
4113.367037,153.219100,518.144159,9178.553681
4113.367352,306.438199,518.144159,9474.636058
4113.367667,383.047749,296.082377,9474.636058
4113.367982,306.438199,-222.061783,9474.636058
4113.368298,0.000000,148.041188,9474.636058
4113.368613,-229.828649,-0.000000,9474.636058
4113.368928,0.000000,-0.000000,9326.594869
4113.369243,383.047749,-74.020594,9326.594869
4113.369559,0.000000,-148.041188,9696.697840
4113.369874,153.219100,-444.123565,9548.656652
4113.370189,229.828649,-370.102971,9474.636058
4113.370504,229.828649,-222.061783,9474.636058
4113.370820,306.438199,-222.061783,9326.594869
4113.371135,0.000000,-0.000000,9548.656652
4113.371450,76.609550,-444.123565,9326.594869
4113.371765,153.219100,-148.041188,9400.615463
4113.372081,76.609550,-740.205942,9252.574275
4113.372396,76.609550,-666.185348,9400.615463
4113.372711,0.000000,-222.061783,9326.594869
4113.373026,0.000000,-444.123565,8956.491898
4113.373341,76.609550,-444.123565,8956.491898
4113.373657,306.438199,-370.102971,9178.553681
4113.373972,995.924147,-518.144159,9252.574275
4113.374287,0.000000,-444.123565,9326.594869
4113.374602,0.000000,-444.123565,9252.574275
4113.374918,76.609550,-296.082377,9252.574275
4113.375233,153.219100,-370.102971,9178.553681
4113.375548,0.000000,-666.185348,9178.553681
4113.375863,0.000000,-148.041188,9474.636058
4113.376179,0.000000,-222.061783,9326.594869
4113.376494,0.000000,-148.041188,9400.615463
4113.376809,306.438199,-222.061783,9474.636058
4113.377124,0.000000,-222.061783,9622.677246
4113.377440,0.000000,-0.000000,9474.636058
4113.377755,76.609550,-0.000000,9178.553681
4113.378070,0.000000,-0.000000,9326.594869
4113.378385,306.438199,-0.000000,9474.636058
4113.378700,0.000000,148.041188,9622.677246
4113.379016,76.609550,296.082377,9474.636058
4113.379331,0.000000,-0.000000,9622.677246
4113.379646,153.219100,444.123565,9770.718434
4113.379961,536.266849,222.061783,9400.615463
4113.380277,459.657299,370.102971,9844.739029
4113.380592,0.000000,518.144159,9992.780217
4113.380907,76.609550,370.102971,9844.739029
4113.381222,76.609550,444.123565,10066.800811
4113.381538,383.047749,370.102971,10066.800811
4113.381853,0.000000,444.123565,9844.739029
4113.382168,-153.219100,740.205942,9844.739029
4113.382483,229.828649,666.185348,9696.697840
4113.382799,229.828649,444.123565,9992.780217
4113.383114,306.438199,444.123565,9844.739029
4113.383429,0.000000,666.185348,9770.718434
4113.383744,0.000000,666.185348,9992.780217
4113.384059,306.438199,666.185348,10066.800811
4113.384375,229.828649,740.205942,10066.800811
4113.384690,229.828649,370.102971,9918.759623
4113.385005,76.609550,814.226536,9918.759623
4113.385320,153.219100,888.247130,9770.718434
4113.385636,536.266849,740.205942,9844.739029
4113.385951,383.047749,296.082377,9918.759623
4113.386266,153.219100,444.123565,10066.800811
4113.386581,229.828649,592.164754,9770.718434
4113.386897,0.000000,740.205942,9696.697840
4113.387212,459.657299,666.185348,9844.739029
4113.387527,153.219100,222.061783,9918.759623
4113.387842,76.609550,296.082377,9696.697840
4113.388158,306.438199,370.102971,9770.718434
4113.388473,76.609550,444.123565,9474.636058
4113.388788,76.609550,222.061783,9474.636058
4113.389103,76.609550,-0.000000,10066.800811
4113.389418,-306.438199,518.144159,9326.594869
4113.389734,0.000000,296.082377,9400.615463
4113.390049,0.000000,222.061783,9474.636058
4113.390364,153.219100,-0.000000,9400.615463
4113.390679,0.000000,222.061783,9252.574275
4113.390995,-229.828649,296.082377,9326.594869
4113.391310,0.000000,-0.000000,9696.697840
4113.391625,0.000000,-0.000000,9474.636058
4113.391940,612.876398,-74.020594,9696.697840
4113.392256,0.000000,-0.000000,9474.636058
4113.392571,-229.828649,-0.000000,9474.636058
4113.392886,-153.219100,-0.000000,9474.636058
4113.393201,229.828649,-148.041188,9474.636058
4113.393517,0.000000,-444.123565,9696.697840
4113.393832,-306.438199,-592.164754,9400.615463
4113.394147,0.000000,-222.061783,9400.615463
4113.394462,76.609550,-296.082377,9548.656652
4113.394777,153.219100,-296.082377,9400.615463
4113.395093,842.705048,-74.020594,9474.636058
4113.395408,0.000000,-518.144159,9326.594869
4113.395723,0.000000,-222.061783,9474.636058
4113.396038,306.438199,-370.102971,9400.615463
4113.396354,383.047749,-370.102971,9400.615463
4113.396669,76.609550,-444.123565,9622.677246
4113.396984,76.609550,-666.185348,9326.594869
4113.397299,0.000000,-222.061783,9326.594869
4113.397615,153.219100,-444.123565,9474.636058
4113.397930,76.609550,-222.061783,9400.615463
4113.398245,383.047749,-296.082377,9252.574275
4113.398560,459.657299,-0.000000,9474.636058
4113.398876,0.000000,-518.144159,9400.615463
4113.399191,0.000000,-296.082377,9474.636058
4113.399506,229.828649,-74.020594,9178.553681
4113.399821,459.657299,-222.061783,9474.636058
4113.400136,0.000000,-0.000000,9548.656652
4113.400452,0.000000,148.041188,9474.636058
4113.400767,0.000000,-0.000000,9474.636058
4113.401082,76.609550,-0.000000,9548.656652
4113.401397,76.609550,222.061783,9548.656652
4113.401713,0.000000,592.164754,9474.636058
4113.402028,0.000000,444.123565,9474.636058
4113.402343,0.000000,222.061783,9844.739029
4113.402658,0.000000,-0.000000,9770.718434
4113.402974,153.219100,296.082377,9548.656652
4113.403289,-229.828649,-0.000000,9622.677246
4113.403604,0.000000,518.144159,9696.697840
4113.403919,-153.219100,222.061783,9696.697840
4113.404235,0.000000,-296.082377,9770.718434
4113.404550,-229.828649,370.102971,9696.697840
4113.404865,76.609550,370.102971,9548.656652
4113.405180,0.000000,444.123565,10066.800811
4113.405495,0.000000,370.102971,9770.718434
4113.405811,536.266849,74.020594,9696.697840
4113.406126,153.219100,518.144159,9696.697840
4113.406441,306.438199,518.144159,9696.697840
4113.406756,229.828649,370.102971,9548.656652
4113.407072,76.609550,518.144159,9918.759623
4113.407387,459.657299,222.061783,10066.800811
4113.407702,383.047749,296.082377,9696.697840
4113.408017,306.438199,444.123565,9992.780217
4113.408333,76.609550,370.102971,9770.718434
4113.408648,536.266849,222.061783,9622.677246
4113.408963,536.266849,740.205942,9622.677246
4113.409278,153.219100,666.185348,9770.718434
4113.409594,76.609550,-0.000000,10288.862594
4113.409909,153.219100,370.102971,9622.677246
4113.410224,153.219100,740.205942,9474.636058
4113.410539,0.000000,296.082377,9992.780217
4113.410854,76.609550,518.144159,9770.718434
4113.411170,76.609550,296.082377,9696.697840
4113.411485,0.000000,296.082377,9696.697840
4113.411800,229.828649,-0.000000,9844.739029
4113.412115,536.266849,-0.000000,9548.656652
4113.412431,76.609550,518.144159,9400.615463
4113.412746,-153.219100,370.102971,9770.718434
4113.413061,-153.219100,-0.000000,9622.677246
4113.413376,153.219100,370.102971,9548.656652
4113.413692,-229.828649,-0.000000,9474.636058
4113.414007,-306.438199,-0.000000,9622.677246
4113.414322,0.000000,-0.000000,9400.615463
4113.414637,0.000000,-0.000000,9326.594869
4113.414953,0.000000,370.102971,9844.739029
4113.415268,383.047749,-0.000000,9030.512492
4113.415583,383.047749,-0.000000,9400.615463
4113.415898,153.219100,-296.082377,9400.615463
4113.416213,0.000000,-74.020594,9252.574275
4113.416529,76.609550,-296.082377,9252.574275
4113.416844,153.219100,-296.082377,9326.594869
4113.417159,76.609550,-0.000000,9474.636058
4113.417474,0.000000,-74.020594,9474.636058
4113.417790,0.000000,-0.000000,9326.594869
4113.418105,229.828649,-222.061783,9326.594869
4113.418420,383.047749,-0.000000,9400.615463
4113.418735,0.000000,-222.061783,9400.615463
4113.419051,0.000000,-222.061783,9474.636058
4113.419366,229.828649,-0.000000,9474.636058
4113.419681,153.219100,-0.000000,9696.697840
4113.419996,76.609550,-0.000000,9474.636058
4113.420312,229.828649,-74.020594,9918.759623
4113.420627,76.609550,-0.000000,9400.615463
4113.420942,153.219100,-74.020594,9030.512492
4113.421257,153.219100,-74.020594,9622.677246
4113.421572,0.000000,296.082377,9770.718434
4113.421888,0.000000,-74.020594,9992.780217
4113.422203,0.000000,-0.000000,9474.636058
4113.422518,153.219100,-0.000000,9400.615463
4113.422833,0.000000,-0.000000,9474.636058
4113.423149,229.828649,370.102971,9400.615463
4113.423464,0.000000,296.082377,9992.780217
4113.423779,153.219100,222.061783,9548.656652
4113.424094,229.828649,444.123565,9622.677246
4113.424410,0.000000,-0.000000,9474.636058
4113.424725,76.609550,-0.000000,9622.677246
4113.425040,229.828649,370.102971,9474.636058
4113.425355,0.000000,-0.000000,9474.636058
4113.425671,306.438199,222.061783,9474.636058
4113.425986,76.609550,222.061783,9474.636058
4113.426301,-306.438199,370.102971,9548.656652
4113.426616,0.000000,370.102971,9696.697840
4113.426931,229.828649,296.082377,9474.636058
4113.427247,153.219100,370.102971,9622.677246
4113.427562,153.219100,148.041188,9474.636058
4113.427877,0.000000,370.102971,9548.656652
4113.428192,0.000000,518.144159,9696.697840
4113.428508,76.609550,518.144159,9474.636058
4113.428823,383.047749,370.102971,9918.759623
4113.429138,76.609550,518.144159,9696.697840
4113.429453,0.000000,518.144159,9474.636058
4113.429769,0.000000,592.164754,9548.656652
4113.430084,306.438199,370.102971,9844.739029
4113.430399,306.438199,444.123565,9918.759623
4113.430714,0.000000,592.164754,9992.780217
4113.431030,76.609550,296.082377,10140.821405
4113.431345,306.438199,518.144159,9844.739029
4113.431660,229.828649,370.102971,9474.636058
4113.431975,76.609550,518.144159,9918.759623
4113.432290,76.609550,444.123565,10066.800811
4113.432606,229.828649,518.144159,9992.780217
4113.432921,76.609550,444.123565,9622.677246
4113.433236,0.000000,148.041188,9770.718434
4113.433551,76.609550,222.061783,9548.656652
4113.433867,306.438199,370.102971,9548.656652
4113.434182,0.000000,148.041188,9992.780217
4113.434497,0.000000,222.061783,9622.677246
4113.434812,-153.219100,-0.000000,9474.636058
4113.435128,0.000000,296.082377,9474.636058
4113.435443,-153.219100,296.082377,9548.656652
4113.435758,76.609550,222.061783,9474.636058
4113.436073,153.219100,-0.000000,9770.718434
4113.436389,0.000000,296.082377,9548.656652
4113.436704,0.000000,-0.000000,9178.553681
4113.437019,-153.219100,-0.000000,9548.656652
4113.437334,153.219100,148.041188,9474.636058
4113.437649,459.657299,222.061783,9474.636058
4113.437965,689.485948,-0.000000,9474.636058
4113.438280,0.000000,-0.000000,9400.615463
4113.438595,306.438199,-0.000000,9474.636058
4113.438910,153.219100,-0.000000,9252.574275
4113.439226,306.438199,-296.082377,9474.636058
4113.439541,383.047749,-0.000000,9696.697840
4113.439856,0.000000,-148.041188,9252.574275
4113.440171,0.000000,-148.041188,9400.615463
4113.440487,459.657299,-148.041188,9400.615463
4113.440802,229.828649,-0.000000,9548.656652
4113.441117,383.047749,-222.061783,9622.677246
4113.441432,229.828649,-74.020594,9696.697840
4113.441748,76.609550,-74.020594,9844.739029
4113.442063,153.219100,-148.041188,9326.594869
4113.442378,306.438199,-370.102971,9252.574275
4113.442693,383.047749,-0.000000,9696.697840
4113.443008,153.219100,-74.020594,9548.656652
4113.443324,0.000000,-0.000000,9696.697840
4113.443639,0.000000,-0.000000,9622.677246
4113.443954,0.000000,-370.102971,9622.677246
4113.444269,76.609550,-0.000000,9474.636058
4113.444585,0.000000,296.082377,9474.636058
4113.444900,0.000000,-0.000000,9622.677246
4113.445215,76.609550,-74.020594,9474.636058
4113.445530,306.438199,-0.000000,9622.677246
4113.445846,0.000000,74.020594,9548.656652
4113.446161,-229.828649,-0.000000,9548.656652
4113.446476,0.000000,-0.000000,9474.636058
4113.446791,229.828649,-0.000000,9326.594869
4113.447106,306.438199,-0.000000,9400.615463
4113.447422,0.000000,-74.020594,9474.636058
4113.447737,76.609550,-0.000000,9474.636058
4113.448052,0.000000,-0.000000,9622.677246
4113.448367,612.876398,-0.000000,9696.697840
4113.448683,76.609550,-0.000000,9622.677246
4113.448998,0.000000,444.123565,9474.636058
4113.449313,229.828649,370.102971,9696.697840
4113.449628,76.609550,-0.000000,9548.656652
4113.449944,536.266849,148.041188,9400.615463
4113.450259,0.000000,222.061783,9696.697840
4113.450574,0.000000,-0.000000,9474.636058
4113.450889,0.000000,222.061783,9696.697840
4113.451205,76.609550,296.082377,9696.697840
4113.451520,0.000000,296.082377,9770.718434
4113.451835,153.219100,370.102971,9548.656652
4113.452150,0.000000,666.185348,9918.759623
4113.452465,76.609550,444.123565,10066.800811
4113.452781,153.219100,518.144159,9622.677246
4113.453096,459.657299,-148.041188,9548.656652
4113.453411,536.266849,296.082377,9770.718434
4113.453726,76.609550,370.102971,9918.759623
4113.454042,229.828649,222.061783,9918.759623
4113.454357,229.828649,296.082377,9696.697840
4113.454672,76.609550,-0.000000,9844.739029
4113.454987,229.828649,222.061783,9696.697840
4113.455303,0.000000,592.164754,9696.697840
4113.455618,76.609550,592.164754,9844.739029
4113.455933,0.000000,296.082377,9474.636058
4113.456248,229.828649,296.082377,9474.636058
4113.456564,-459.657299,-0.000000,9696.697840
4113.456879,0.000000,518.144159,9770.718434
4113.457194,0.000000,370.102971,9474.636058
4113.457509,76.609550,148.041188,9548.656652
4113.457824,153.219100,296.082377,9622.677246
4113.458140,0.000000,148.041188,9326.594869
4113.458455,0.000000,-74.020594,9474.636058
4113.458770,0.000000,-0.000000,9474.636058
4113.459085,76.609550,-0.000000,9548.656652
4113.459401,383.047749,-148.041188,9326.594869
4113.459716,76.609550,370.102971,9178.553681
4113.460031,76.609550,-0.000000,9474.636058
4113.460346,306.438199,-0.000000,9400.615463
4113.460662,383.047749,-0.000000,9252.574275
4113.460977,229.828649,-0.000000,9548.656652
4113.461292,153.219100,-0.000000,9326.594869
4113.461607,0.000000,-0.000000,9474.636058
4113.461923,0.000000,-74.020594,9474.636058
4113.462238,229.828649,-74.020594,9474.636058
4113.462553,-229.828649,-222.061783,9548.656652
4113.462868,229.828649,-0.000000,9474.636058
4113.463183,153.219100,-0.000000,9548.656652
4113.463499,153.219100,-148.041188,9400.615463
4113.463814,153.219100,-0.000000,9178.553681
4113.464129,383.047749,-0.000000,9918.759623
4113.464444,229.828649,296.082377,9918.759623
4113.464760,0.000000,-0.000000,9474.636058
4113.465075,0.000000,-0.000000,9622.677246
4113.465390,76.609550,-296.082377,9770.718434
4113.465705,-229.828649,-0.000000,9844.739029
4113.466021,229.828649,-0.000000,9622.677246
4113.466336,0.000000,370.102971,9548.656652
4113.466651,0.000000,-0.000000,9696.697840
4113.466966,0.000000,296.082377,9548.656652
4113.467282,0.000000,-0.000000,9622.677246
4113.467597,153.219100,-0.000000,9696.697840
4113.467912,153.219100,222.061783,9474.636058
4113.468228,0.000000,-0.000000,9474.636058
4113.468543,0.000000,222.061783,9474.636058
4113.468858,0.000000,148.041188,9696.697840
4113.469174,-383.047749,-0.000000,9770.718434
4113.469489,0.000000,-0.000000,9474.636058
4113.469804,229.828649,370.102971,9548.656652
4113.470120,76.609550,-74.020594,9474.636058
4113.470435,0.000000,-0.000000,9622.677246
4113.470750,76.609550,370.102971,9622.677246
4113.471066,76.609550,-0.000000,9474.636058
4113.471381,153.219100,-0.000000,9474.636058
4113.471696,0.000000,148.041188,9474.636058
4113.472012,76.609550,296.082377,9400.615463
4113.472327,0.000000,74.020594,9696.697840
4113.472642,-153.219100,444.123565,9548.656652
4113.472958,-383.047749,444.123565,9696.697840
4113.473273,76.609550,296.082377,9992.780217
4113.473588,-459.657299,666.185348,10066.800811
4113.473904,-229.828649,592.164754,10066.800811
4113.474219,-383.047749,370.102971,9696.697840
4113.474534,-459.657299,444.123565,9770.718434
4113.474850,0.000000,592.164754,9992.780217
4113.475165,-153.219100,814.226536,9844.739029
4113.475480,-459.657299,1110.308913,9622.677246
4113.475796,-689.485948,1258.350101,9474.636058
4113.476111,-689.485948,1406.391290,9474.636058
4113.476426,-1378.971896,1110.308913,9548.656652
4113.476742,-1608.800546,1480.411884,9252.574275
4113.477057,-1915.238745,1406.391290,9252.574275
4113.477372,-2298.286494,1332.370696,9326.594869
4113.477688,-2374.896044,1480.411884,9696.697840
4113.478003,-2451.505594,1332.370696,9844.739029
4113.478318,-2298.286494,1406.391290,9548.656652
4113.478634,-2834.553343,1554.432478,9474.636058
4113.478949,-2604.724693,1998.556043,9326.594869
4113.479264,-2681.334243,2072.576638,9400.615463
4113.479580,-2528.115143,2220.617826,9326.594869
4113.479895,-2451.505594,2294.638420,9104.533087
4113.480210,-2451.505594,2960.823768,9178.553681
4113.480526,-2451.505594,3182.885551,9104.533087
4113.480841,-2451.505594,3034.844362,9252.574275
4113.481156,-2298.286494,2886.803174,9696.697840
4113.481472,-2374.896044,2960.823768,9622.677246
4113.481787,-2451.505594,2442.679609,10140.821405
4113.482102,-2451.505594,2590.720797,10584.944971
4113.482418,-2451.505594,2664.741391,10362.883188
4113.482733,-1838.629195,2368.659014,9992.780217
4113.483048,-1838.629195,2812.782580,9622.677246
4113.483364,-1149.143247,3108.864956,9326.594869
4113.483679,-995.924147,3701.029710,8956.491898
4113.483994,-689.485948,3997.112087,8586.388927
4113.484310,-1225.752797,4293.194464,8734.430116
4113.484625,-1608.800546,4145.153275,8808.450710
4113.484940,-2221.676944,3404.947333,9400.615463
4113.485256,-2528.115143,2590.720797,9548.656652
4113.485571,-2987.772442,2368.659014,10807.006753
4113.485886,-3294.210641,2294.638420,11399.171507
4113.486202,-2987.772442,1924.535449,11399.171507
4113.486517,-3140.991542,2738.761985,11621.233289
4113.486832,-2604.724693,3256.906145,11029.068536
4113.487148,-2298.286494,3701.029710,10214.842000
4113.487463,-1915.238745,4737.318029,9548.656652
4113.487778,-1149.143247,4441.235652,8882.471304
4113.488094,-1608.800546,4515.256246,8734.430116
4113.488409,-1302.362347,4441.235652,8808.450710
4113.488724,-2451.505594,3552.988522,9252.574275
4113.489040,-2374.896044,2738.761985,10140.821405
4113.489355,-2528.115143,1998.556043,10658.965565
4113.489670,-2528.115143,1702.473667,10732.986159
4113.489986,-2451.505594,1184.329507,11029.068536
4113.490301,-2145.067394,1480.411884,11251.130318
4113.490616,-1532.190996,1332.370696,10510.924376
4113.490932,-842.705048,1850.514855,9696.697840
4113.491247,0.000000,2442.679609,8956.491898
4113.491562,689.485948,2960.823768,8142.265362
4113.491878,612.876398,3627.009116,7624.121203
4113.492193,766.095498,3330.926739,7328.038826
4113.492508,-612.876398,3552.988522,7476.080014
4113.492824,-1455.581446,3182.885551,8216.285956
4113.493139,-2451.505594,2368.659014,8660.409521
4113.493454,-3370.820191,1110.308913,9696.697840
4113.493770,-3753.867940,-0.000000,11029.068536
4113.494085,-4519.963438,-74.020594,10881.027347
4113.494400,-4826.401637,-296.082377,11029.068536
4113.494716,-4136.915689,222.061783,11695.253884
4113.495031,-3217.601092,740.205942,11325.150913
4113.495346,-2528.115143,1628.453072,10214.842000
4113.495662,-689.485948,1924.535449,9696.697840
4113.495977,306.438199,3034.844362,8956.491898
4113.496292,612.876398,3552.988522,8808.450710
4113.496608,995.924147,3775.050304,8586.388927
4113.496923,383.047749,2886.803174,8364.327145
4113.497238,-383.047749,2590.720797,7994.224174
4113.497554,-1225.752797,1924.535449,8068.244768
4113.497869,-2834.553343,740.205942,7846.182985
4113.498184,-3907.087040,666.185348,9474.636058
4113.498500,-4979.620737,-0.000000,9474.636058
4113.498815,-5515.887586,-1554.432478,11473.192101
4113.499130,-5439.278036,-1110.308913,10955.047942
4113.499446,-5592.497135,-1332.370696,11399.171507
4113.499761,-3983.696590,-592.164754,11843.295072
4113.500076,-2604.724693,-666.185348,12213.398043
4113.500392,-919.314598,1258.350101,10658.965565
4113.500707,1455.581446,2738.761985,9622.677246
4113.501022,2298.286494,4885.359217,7920.203579
4113.501338,2451.505594,6069.688724,7550.100608
4113.501653,2298.286494,6661.853478,5847.626942
4113.501968,1072.533697,5995.668130,5551.544565
4113.502284,-919.314598,4737.318029,6143.709319
4113.502599,-3140.991542,2664.741391,8438.347739
4113.502914,-5286.058936,-1184.329507,11251.130318
4113.503230,-6665.030833,-3256.906145,12361.439231
4113.503545,-7660.954980,-4219.173869,13545.768739
4113.503860,-7124.688131,-3997.112087,14656.077652
4113.504176,-4903.011187,-3330.926739,14063.912898
4113.504491,-2528.115143,-296.082377,11843.295072
4113.504806,383.047749,3108.864956,8438.347739
4113.505122,2298.286494,6069.688724,6735.874072
4113.505437,3830.477490,8808.450710,5033.400406
4113.505752,4290.134789,10066.800811,4515.256246
4113.506068,2911.162892,9104.533087,4219.173869
4113.506383,1225.752797,6365.771101,6957.935855
4113.506698,0.000000,3552.988522,10362.883188
4113.507014,-2221.676944,-962.267725,12657.521608
4113.507329,-3524.039291,-3478.967927,15396.283594
4113.507644,-4290.134789,-4737.318029,15988.448347
4113.507960,-4290.134789,-4441.235652,14211.954086
4113.508275,-3140.991542,-2368.659014,11991.336260
4113.508590,-1915.238745,-0.000000,11325.150913
4113.508906,153.219100,2664.741391,7994.224174
4113.509221,1532.190996,5255.462188,5107.421000
4113.509536,2374.896044,6661.853478,4737.318029
4113.509852,2451.505594,6735.874072,5625.565159
4113.510167,2374.896044,4441.235652,6883.915261
4113.510482,766.095498,1850.514855,8956.491898
4113.510798,153.219100,-370.102971,10807.006753
4113.511113,536.266849,-1184.329507,11991.336260
4113.511428,383.047749,-1924.535449,12065.356855
4113.511744,0.000000,-2146.597232,11695.253884
4113.512059,-689.485948,-666.185348,11325.150913
4113.512374,-689.485948,962.267725,9992.780217
4113.512690,-842.705048,2072.576638,8364.327145
4113.513005,-459.657299,2146.597232,8364.327145
4113.513320,-919.314598,1702.473667,8734.430116
4113.513636,-1378.971896,444.123565,8512.368333
4113.513951,-1072.533697,-592.164754,9548.656652
4113.514266,-459.657299,-148.041188,9622.677246
4113.514582,0.000000,-0.000000,10140.821405
4113.514897,536.266849,-0.000000,11029.068536
4113.515212,995.924147,296.082377,10807.006753
4113.515528,1225.752797,518.144159,10807.006753
4113.515843,1455.581446,666.185348,10214.842000
4113.516158,995.924147,-0.000000,9622.677246
4113.516474,153.219100,-222.061783,8956.491898
4113.516789,76.609550,-0.000000,7698.141797
4113.517104,76.609550,-0.000000,7105.977043
4113.517420,-229.828649,592.164754,7179.997637
4113.517735,-919.314598,666.185348,7624.121203
4113.518050,-1915.238745,-0.000000,9178.553681
4113.518366,-2221.676944,-666.185348,10658.965565
4113.518681,-2145.067394,-1776.494261,11325.150913
4113.518996,-2068.457845,-2960.823768,12361.439231
4113.519312,-1149.143247,-3404.947333,13027.624579
4113.519627,0.000000,-2590.720797,12435.459826
4113.519942,1302.362347,-1184.329507,10214.842000
4113.520258,2451.505594,592.164754,8734.430116
4113.520573,2451.505594,3182.885551,6809.894666
4113.520888,2451.505594,4071.132681,6735.874072
4113.521204,2451.505594,3108.864956,6291.750507
4113.521519,995.924147,1554.432478,7105.977043
4113.521834,0.000000,-814.226536,8734.430116
4113.522150,-1378.971896,-3627.009116,10436.903782
4113.522465,-2068.457845,-4959.379811,11473.192101
4113.522780,-1762.019645,-5329.482782,12805.562797
4113.523096,-1302.362347,-3997.112087,11769.274478
4113.523411,-612.876398,-2812.782580,11325.150913
4113.523726,459.657299,-444.123565,10510.924376
4113.524042,1455.581446,-0.000000,9474.636058
4113.524357,1838.629195,2220.617826,8216.285956
4113.524672,1915.238745,2442.679609,7550.100608
4113.524988,1685.410096,1924.535449,7328.038826
4113.525303,1685.410096,296.082377,7550.100608
4113.525618,2451.505594,-740.205942,8068.244768
4113.525933,1838.629195,-444.123565,8956.491898
4113.526249,1149.143247,-444.123565,9400.615463
4113.526564,76.609550,-1036.288319,10807.006753
4113.526879,-612.876398,-1258.350101,11399.171507
4113.527195,-919.314598,-1184.329507,11843.295072
4113.527510,-1378.971896,-1924.535449,11621.233289
4113.527825,-1302.362347,-2664.741391,10955.047942
4113.528141,-689.485948,-2220.617826,9992.780217
4113.528456,0.000000,-740.205942,8290.306550
4113.528771,689.485948,740.205942,7031.956449
4113.529087,919.314598,2738.761985,6661.853478
4113.529402,1302.362347,3849.070898,7179.997637
4113.529717,1455.581446,3330.926739,8438.347739
4113.530033,919.314598,1628.453072,9918.759623
4113.530348,306.438199,-222.061783,11325.150913
4113.530663,-229.828649,-1480.411884,11991.336260
4113.530979,-612.876398,-2516.700203,11917.315666
4113.531294,0.000000,-1702.473667,11473.192101
4113.531609,76.609550,-74.020594,10214.842000
4113.531925,-153.219100,1850.514855,8586.388927
4113.532240,0.000000,3256.906145,7476.080014
4113.532555,153.219100,3478.967927,7254.018232
4113.532871,0.000000,3108.864956,7550.100608
4113.533186,-995.924147,1110.308913,9326.594869
4113.533501,-1532.190996,-666.185348,10436.903782
4113.533817,-1072.533697,-1702.473667,11103.089130
4113.534132,0.000000,-1702.473667,11991.336260
4113.534447,76.609550,148.041188,10140.821405
4113.534763,1149.143247,814.226536,10362.883188
4113.535078,1838.629195,3034.844362,9622.677246
4113.535393,919.314598,3849.070898,8882.471304
4113.535709,612.876398,3775.050304,8364.327145
4113.536024,0.000000,2590.720797,8660.409521
4113.536339,-766.095498,888.247130,9474.636058
4113.536655,-995.924147,-518.144159,9622.677246
4113.536970,-459.657299,-592.164754,10066.800811
4113.537285,-459.657299,-148.041188,9992.780217
4113.537601,-383.047749,296.082377,10510.924376
4113.537916,-995.924147,740.205942,10807.006753
4113.538231,-842.705048,666.185348,10955.047942
4113.538547,-383.047749,444.123565,11177.109724
4113.538862,76.609550,-0.000000,10658.965565
4113.539177,-76.609550,-518.144159,10362.883188
4113.539493,689.485948,-0.000000,9252.574275
4113.539808,1302.362347,518.144159,8734.430116
4113.540123,1685.410096,1628.453072,7624.121203
4113.540439,1455.581446,2738.761985,7476.080014
4113.540754,995.924147,2516.700203,8068.244768
4113.541069,0.000000,1406.391290,9474.636058
4113.541385,-1225.752797,296.082377,10288.862594
4113.541700,-2145.067394,-1998.556043,11769.274478
4113.542015,-2451.505594,-3330.926739,12139.377449
4113.542331,-1532.190996,-4219.173869,12509.480420
4113.542646,-919.314598,-2442.679609,10881.027347
4113.542961,0.000000,-962.267725,9474.636058
4113.543277,459.657299,1332.370696,7624.121203
4113.543592,995.924147,3108.864956,7179.997637
4113.543907,1455.581446,3034.844362,7328.038826
4113.544223,1149.143247,2368.659014,7846.182985
4113.544538,229.828649,1036.288319,8142.265362
4113.544853,-536.266849,-1184.329507,9326.594869
4113.545169,-536.266849,-2664.741391,9992.780217
4113.545484,-306.438199,-2368.659014,10436.903782
4113.545799,0.000000,-1332.370696,10066.800811
4113.546115,0.000000,-888.247130,9696.697840
4113.546430,-383.047749,296.082377,9474.636058
4113.546745,76.609550,444.123565,9326.594869
4113.547061,-383.047749,-0.000000,9400.615463
4113.547376,-536.266849,-370.102971,9548.656652
4113.547691,-766.095498,-962.267725,9474.636058
4113.548007,383.047749,-1554.432478,8882.471304
4113.548322,995.924147,-814.226536,8660.409521
4113.548637,1302.362347,370.102971,8290.306550
4113.548953,1532.190996,1332.370696,8290.306550
4113.549268,1302.362347,1258.350101,9252.574275
4113.549583,1302.362347,962.267725,9696.697840
4113.549899,306.438199,-0.000000,10510.924376
4113.550214,0.000000,-1702.473667,10955.047942
4113.550529,-536.266849,-2442.679609,11103.089130
4113.550845,0.000000,-2368.659014,10510.924376
4113.551160,306.438199,-1924.535449,9474.636058
4113.551475,459.657299,-222.061783,8808.450710
4113.551791,306.438199,1702.473667,8216.285956
4113.552106,306.438199,2146.597232,8290.306550
4113.552421,842.705048,1258.350101,9252.574275
4113.552737,229.828649,370.102971,9992.780217
4113.553052,-459.657299,-1258.350101,10955.047942
4113.553367,-842.705048,-2368.659014,11399.171507
4113.553683,-306.438199,-2442.679609,11251.130318
4113.553998,-229.828649,-1628.453072,10510.924376
4113.554313,612.876398,-74.020594,9400.615463
4113.554629,919.314598,2072.576638,8660.409521
4113.554944,383.047749,2368.659014,8512.368333
4113.555259,229.828649,2590.720797,8290.306550
4113.555575,-229.828649,1924.535449,8882.471304
4113.555890,-536.266849,296.082377,9770.718434
4113.556205,-1225.752797,-1554.432478,10584.944971
4113.556521,-1072.533697,-1776.494261,10881.027347
4113.556836,0.000000,-1258.350101,10140.821405
4113.557151,689.485948,-148.041188,9918.759623
4113.557467,689.485948,1110.308913,9474.636058
4113.557782,689.485948,2294.638420,9474.636058
4113.558097,689.485948,2516.700203,9030.512492
4113.558413,612.876398,2146.597232,8956.491898
4113.558728,306.438199,1036.288319,9400.615463
4113.559043,459.657299,-0.000000,9548.656652
4113.559359,459.657299,296.082377,9178.553681
4113.559674,612.876398,888.247130,8586.388927
4113.559989,689.485948,1258.350101,8882.471304
4113.560305,153.219100,1850.514855,9400.615463
4113.560620,76.609550,1332.370696,9918.759623
4113.560935,-306.438199,1184.329507,10066.800811
4113.561251,-766.095498,518.144159,10955.047942
4113.561566,-995.924147,-148.041188,11103.089130
4113.561881,-1302.362347,-1110.308913,11029.068536
4113.562197,-229.828649,-962.267725,10732.986159
4113.562512,536.266849,444.123565,9326.594869
4113.562827,1302.362347,1924.535449,8142.265362
4113.563143,1532.190996,2812.782580,8068.244768
4113.563458,1149.143247,2960.823768,8808.450710
4113.563773,689.485948,1924.535449,9326.594869
4113.564089,-153.219100,1332.370696,9844.739029
4113.564404,-766.095498,-814.226536,10881.027347
4113.564719,-766.095498,-2368.659014,11325.150913
4113.565035,0.000000,-2516.700203,11695.253884
4113.565350,76.609550,-1776.494261,10807.006753
4113.565666,459.657299,-444.123565,9844.739029
4113.565981,383.047749,1406.391290,9104.533087
4113.566296,689.485948,1924.535449,8734.430116
4113.566612,919.314598,1998.556043,8882.471304
4113.566927,919.314598,1036.288319,9400.615463
4113.567242,766.095498,-148.041188,9844.739029
4113.567558,153.219100,-1184.329507,9770.718434
4113.567873,229.828649,-1258.350101,9696.697840
4113.568189,766.095498,-1258.350101,9474.636058
4113.568504,766.095498,-222.061783,9400.615463
4113.568819,612.876398,666.185348,9548.656652
4113.569135,306.438199,962.267725,9548.656652
4113.569450,229.828649,518.144159,9326.594869
4113.569765,-76.609550,-0.000000,9622.677246
4113.570081,-1072.533697,-740.205942,10140.821405
4113.570396,-919.314598,-1850.514855,9696.697840
4113.570711,-306.438199,-1628.453072,9918.759623
4113.571027,76.609550,-740.205942,9326.594869
4113.571342,153.219100,74.020594,8808.450710
4113.571658,306.438199,1554.432478,8364.327145
4113.571973,0.000000,1258.350101,8956.491898
4113.572288,-306.438199,962.267725,9474.636058
4113.572604,-766.095498,-222.061783,9844.739029
4113.572919,-689.485948,-1850.514855,10732.986159
4113.573234,-1302.362347,-2220.617826,10881.027347
4113.573550,-689.485948,-1850.514855,9770.718434
4113.573865,0.000000,-1110.308913,9400.615463
4113.574181,229.828649,222.061783,8734.430116
4113.574496,76.609550,962.267725,8438.347739
4113.574811,0.000000,1332.370696,8586.388927
4113.575127,153.219100,962.267725,8808.450710
4113.575442,-459.657299,-74.020594,9030.512492
4113.575757,-1149.143247,-1554.432478,9918.759623
4113.576073,-995.924147,-2442.679609,10732.986159
4113.576388,-383.047749,-2516.700203,10288.862594
4113.576704,0.000000,-1406.391290,10066.800811
4113.577019,689.485948,-0.000000,9030.512492
4113.577334,766.095498,1184.329507,8660.409521
4113.577650,1072.533697,1702.473667,9178.553681
4113.577965,689.485948,1554.432478,9252.574275
4113.578280,306.438199,592.164754,9252.574275
4113.578596,0.000000,-518.144159,9770.718434
4113.578911,0.000000,-1628.453072,10288.862594
4113.579227,0.000000,-1850.514855,9918.759623
4113.579542,536.266849,-666.185348,9696.697840
4113.579857,1225.752797,296.082377,9400.615463
4113.580173,1072.533697,1554.432478,9178.553681
4113.580488,842.705048,1184.329507,9770.718434
4113.580803,919.314598,1924.535449,9548.656652
4113.581119,536.266849,1184.329507,9548.656652
4113.581434,689.485948,-0.000000,10214.842000
4113.581750,459.657299,-888.247130,10066.800811
4113.582065,1072.533697,-444.123565,9844.739029
4113.582380,919.314598,296.082377,9400.615463
4113.582696,995.924147,1480.411884,8808.450710
4113.583011,612.876398,2294.638420,9030.512492
4113.583326,536.266849,2220.617826,9474.636058
4113.583642,76.609550,1258.350101,10436.903782
4113.583957,-459.657299,666.185348,10066.800811
4113.584273,-842.705048,-370.102971,10807.006753
4113.584588,-612.876398,-1406.391290,10955.047942
4113.584903,-306.438199,-1036.288319,10362.883188
4113.585219,612.876398,296.082377,10140.821405
4113.585534,995.924147,1702.473667,9030.512492
4113.585849,536.266849,2368.659014,8512.368333
4113.586165,536.266849,2442.679609,8956.491898
4113.586480,919.314598,1702.473667,9178.553681
4113.586796,-459.657299,592.164754,10066.800811
4113.587111,-995.924147,-740.205942,10732.986159
4113.587426,-1225.752797,-1702.473667,10881.027347
4113.587742,-766.095498,-1332.370696,10362.883188
4113.588057,-459.657299,-888.247130,10214.842000
4113.588372,-229.828649,370.102971,9622.677246
4113.588688,0.000000,1258.350101,9474.636058
4113.589003,0.000000,1776.494261,9326.594869
4113.589319,0.000000,1628.453072,9178.553681
4113.589634,-229.828649,740.205942,9474.636058
4113.589949,-919.314598,-0.000000,9918.759623
4113.590265,-995.924147,-962.267725,9992.780217
4113.590580,-229.828649,-1036.288319,9918.759623
4113.590895,689.485948,-370.102971,9474.636058
4113.591211,536.266849,-0.000000,9104.533087
4113.591526,383.047749,1702.473667,8586.388927
4113.591842,229.828649,1702.473667,8956.491898
4113.592157,0.000000,1406.391290,9474.636058
4113.592472,-229.828649,296.082377,9548.656652
4113.592788,-766.095498,-1036.288319,9992.780217
4113.593103,-459.657299,-2072.576638,9992.780217
4113.593418,0.000000,-1554.432478,9400.615463
4113.593734,383.047749,-296.082377,9104.533087
4113.594049,689.485948,518.144159,8808.450710
4113.594365,689.485948,1332.370696,8586.388927
4113.594680,995.924147,1702.473667,9030.512492
4113.594995,536.266849,1110.308913,9474.636058
4113.595311,153.219100,296.082377,9770.718434
4113.595626,-153.219100,-814.226536,10658.965565
4113.595941,-306.438199,-1924.535449,10436.903782
4113.596257,0.000000,-1702.473667,9844.739029
4113.596572,459.657299,-1110.308913,9548.656652
4113.596887,995.924147,-740.205942,9474.636058
4113.597203,995.924147,962.267725,9178.553681
4113.597518,459.657299,1332.370696,8956.491898
4113.597834,153.219100,1258.350101,9030.512492
4113.598149,0.000000,-0.000000,9326.594869
4113.598464,0.000000,-1184.329507,10140.821405
4113.598780,229.828649,-2442.679609,9696.697840
4113.599095,612.876398,-1776.494261,9770.718434
4113.599410,229.828649,-888.247130,9548.656652
4113.599726,536.266849,518.144159,8956.491898
4113.600041,229.828649,1110.308913,9030.512492
4113.600357,229.828649,1184.329507,9622.677246
4113.600672,306.438199,962.267725,9918.759623
4113.600987,-383.047749,-0.000000,10066.800811
4113.601303,-612.876398,-814.226536,10436.903782
4113.601618,-612.876398,-1924.535449,10807.006753
4113.601933,0.000000,-1258.350101,10214.842000
4113.602249,306.438199,-222.061783,9474.636058
4113.602564,612.876398,1036.288319,8808.450710
4113.602880,919.314598,1554.432478,9548.656652
4113.603195,612.876398,1850.514855,9400.615463
4113.603510,153.219100,1554.432478,9400.615463
4113.603826,-306.438199,518.144159,10066.800811
4113.604141,-766.095498,-740.205942,9918.759623
4113.604456,-612.876398,-1184.329507,10436.903782
4113.604772,0.000000,-1036.288319,9992.780217
4113.605087,383.047749,-444.123565,9548.656652
4113.605403,536.266849,888.247130,9030.512492
4113.605718,842.705048,1850.514855,8734.430116
4113.606033,536.266849,2146.597232,9326.594869
4113.606349,-306.438199,1332.370696,9548.656652
4113.606664,-153.219100,592.164754,9992.780217
4113.606979,-766.095498,-518.144159,10288.862594
4113.607295,-536.266849,-1258.350101,10214.842000
4113.607610,306.438199,-1406.391290,9992.780217
4113.607926,1378.971896,-666.185348,9474.636058
4113.608241,1072.533697,1110.308913,9030.512492
4113.608556,842.705048,1554.432478,8512.368333
4113.608872,1072.533697,2072.576638,9252.574275
4113.609187,459.657299,1554.432478,9252.574275
4113.609502,0.000000,-0.000000,9474.636058
4113.609818,0.000000,-740.205942,10140.821405
4113.610133,-536.266849,-1628.453072,10214.842000
4113.610449,229.828649,-1184.329507,10214.842000
4113.610764,459.657299,-444.123565,10140.821405
4113.611079,153.219100,148.041188,10066.800811
4113.611395,536.266849,1480.411884,9474.636058
4113.611710,383.047749,1480.411884,9474.636058
4113.612025,229.828649,1480.411884,9918.759623
4113.612341,76.609550,222.061783,10436.903782
4113.612656,0.000000,-666.185348,10658.965565
4113.612972,-306.438199,-1184.329507,10140.821405
4113.613287,306.438199,-370.102971,9474.636058
4113.613602,766.095498,-0.000000,9474.636058
4113.613918,842.705048,1036.288319,8734.430116
4113.614233,229.828649,1628.453072,9178.553681
4113.614548,153.219100,1258.350101,9400.615463
4113.614864,-459.657299,1110.308913,9326.594869
4113.615179,-995.924147,-0.000000,9696.697840
4113.615495,-995.924147,-1184.329507,10658.965565
4113.615810,-1072.533697,-1776.494261,10436.903782
4113.616125,-536.266849,-1258.350101,9844.739029
4113.616441,76.609550,-148.041188,9178.553681
4113.616756,229.828649,1332.370696,8808.450710
4113.617071,536.266849,2368.659014,8364.327145
4113.617387,383.047749,2146.597232,9252.574275
4113.617702,306.438199,1702.473667,9178.553681
4113.618018,-536.266849,296.082377,9844.739029
4113.618333,-689.485948,-740.205942,10140.821405
4113.618648,-1225.752797,-1184.329507,10214.842000
4113.618964,-306.438199,-1184.329507,9992.780217
4113.619279,229.828649,-444.123565,9474.636058
4113.619594,383.047749,296.082377,9474.636058
4113.619910,383.047749,1184.329507,8882.471304
4113.620225,459.657299,1110.308913,9104.533087
4113.620541,229.828649,1184.329507,9030.512492
4113.620856,-306.438199,-0.000000,9696.697840
4113.621171,0.000000,-666.185348,9770.718434
4113.621487,-229.828649,-1850.514855,9548.656652
4113.621802,536.266849,-2146.597232,9622.677246
4113.622117,919.314598,-444.123565,9622.677246
4113.622433,766.095498,740.205942,9104.533087
4113.622748,995.924147,1184.329507,9400.615463
4113.623063,1072.533697,1332.370696,9548.656652
4113.623379,536.266849,962.267725,9696.697840
4113.623694,0.000000,74.020594,10214.842000
4113.624010,-459.657299,-888.247130,10288.862594
4113.624325,0.000000,-1332.370696,10584.944971
4113.624640,229.828649,-1554.432478,9548.656652
4113.624956,995.924147,-444.123565,9548.656652
4113.625271,306.438199,592.164754,9178.553681
4113.625586,383.047749,1332.370696,9252.574275
4113.625902,153.219100,1332.370696,9474.636058
4113.626217,76.609550,814.226536,9548.656652
4113.626533,-383.047749,-148.041188,10436.903782
4113.626848,-689.485948,-1406.391290,10214.842000
4113.627163,-766.095498,-1480.411884,10214.842000
4113.627479,0.000000,-1258.350101,9548.656652
4113.627794,306.438199,-74.020594,9474.636058
4113.628109,459.657299,962.267725,8808.450710
4113.628425,306.438199,1702.473667,8512.368333
4113.628740,383.047749,1628.453072,9030.512492
4113.629056,-306.438199,814.226536,9178.553681
4113.629371,-689.485948,-74.020594,10066.800811
4113.629686,-1225.752797,-1036.288319,9696.697840
4113.630002,-1302.362347,-1554.432478,9696.697840
4113.630317,-536.266849,-814.226536,9918.759623
4113.630632,0.000000,-518.144159,9400.615463
4113.630948,153.219100,666.185348,8734.430116
4113.631263,-306.438199,1702.473667,9252.574275
4113.631579,153.219100,1924.535449,9400.615463
4113.631894,0.000000,1554.432478,9400.615463
4113.632209,-459.657299,296.082377,9400.615463
4113.632525,-612.876398,-888.247130,10140.821405
4113.632840,-536.266849,-1406.391290,10510.924376
4113.633155,76.609550,-740.205942,9844.739029
4113.633471,536.266849,-0.000000,9474.636058
4113.633786,536.266849,1258.350101,9474.636058
4113.634102,612.876398,1924.535449,9400.615463
4113.634417,689.485948,1924.535449,9252.574275
4113.634732,0.000000,1332.370696,9548.656652
4113.635048,0.000000,222.061783,10214.842000
4113.635363,-229.828649,-666.185348,10140.821405
4113.635678,0.000000,-1776.494261,10658.965565
4113.635994,153.219100,-370.102971,9992.780217
4113.636309,766.095498,222.061783,9548.656652
4113.636625,1072.533697,1258.350101,9178.553681
4113.636940,919.314598,1850.514855,9326.594869
4113.637255,995.924147,1554.432478,9770.718434
4113.637571,612.876398,1406.391290,9622.677246
4113.637886,229.828649,444.123565,9844.739029
4113.638201,229.828649,-740.205942,10288.862594
4113.638517,306.438199,-1702.473667,9696.697840
4113.638832,459.657299,-962.267725,9992.780217
4113.639148,689.485948,-222.061783,9474.636058
4113.639463,919.314598,962.267725,8364.327145
4113.639778,766.095498,1480.411884,8808.450710
4113.640094,383.047749,1554.432478,9474.636058
4113.640409,-306.438199,1036.288319,9548.656652
4113.640724,0.000000,-518.144159,9696.697840
4113.641040,-612.876398,-962.267725,10214.842000
4113.641355,-459.657299,-1628.453072,10214.842000
4113.641671,76.609550,-1480.411884,9622.677246
4113.641986,612.876398,-0.000000,9474.636058
4113.642301,766.095498,1480.411884,9400.615463
4113.642617,995.924147,2072.576638,8956.491898
4113.642932,842.705048,1628.453072,8956.491898
4113.643247,229.828649,888.247130,9474.636058
4113.643563,-306.438199,-222.061783,9844.739029
4113.643878,-306.438199,-1702.473667,9992.780217
4113.644194,-536.266849,-1554.432478,10066.800811
4113.644509,76.609550,-1184.329507,9622.677246
4113.644824,383.047749,-296.082377,9474.636058
4113.645140,229.828649,888.247130,8586.388927
4113.645455,229.828649,1036.288319,8808.450710
4113.645770,0.000000,1480.411884,9400.615463
4113.646086,-306.438199,888.247130,9622.677246
4113.646401,-766.095498,-0.000000,9992.780217
4113.646717,-842.705048,-1036.288319,10732.986159
4113.647032,-612.876398,-1184.329507,10436.903782
4113.647347,76.609550,-740.205942,9992.780217
4113.647663,383.047749,444.123565,9474.636058
4113.647978,153.219100,1554.432478,9178.553681
4113.648293,76.609550,1702.473667,9326.594869
4113.648609,306.438199,1480.411884,9992.780217
4113.648924,0.000000,962.267725,9548.656652
4113.649239,-459.657299,-222.061783,9992.780217
4113.649555,-842.705048,-1332.370696,10214.842000
4113.649870,-1072.533697,-2220.617826,10658.965565
4113.650186,0.000000,-1406.391290,9400.615463
4113.650501,612.876398,-518.144159,9178.553681
4113.650816,766.095498,1332.370696,8734.430116
4113.651132,536.266849,1554.432478,9104.533087
4113.651447,766.095498,1480.411884,8956.491898
4113.651762,153.219100,592.164754,9252.574275
4113.652078,-306.438199,-518.144159,10140.821405
4113.652393,-229.828649,-1036.288319,10214.842000
4113.652709,0.000000,-1554.432478,9696.697840
4113.653024,459.657299,-1184.329507,9326.594869
4113.653339,995.924147,222.061783,9252.574275
4113.653655,1149.143247,592.164754,8956.491898
4113.653970,536.266849,1406.391290,9474.636058
4113.654285,612.876398,1406.391290,9400.615463
4113.654601,0.000000,518.144159,9474.636058
4113.654916,-76.609550,-518.144159,10140.821405
4113.655232,-153.219100,-1406.391290,10140.821405
4113.655547,0.000000,-1554.432478,10140.821405
4113.655862,153.219100,-1110.308913,9400.615463
4113.656178,459.657299,-0.000000,9474.636058
4113.656493,689.485948,1702.473667,8512.368333
4113.656808,689.485948,1480.411884,8956.491898
4113.657124,459.657299,1406.391290,9474.636058
4113.657439,459.657299,592.164754,9844.739029
4113.657755,0.000000,-0.000000,10362.883188
4113.658070,-689.485948,-1184.329507,10362.883188
4113.658385,-459.657299,-814.226536,10510.924376
4113.658701,76.609550,-814.226536,9992.780217
4113.659016,76.609550,444.123565,9252.574275
4113.659331,536.266849,1406.391290,8956.491898
4113.659647,612.876398,2220.617826,9326.594869
4113.659962,0.000000,1776.494261,9252.574275
4113.660278,-153.219100,1332.370696,9622.677246
4113.660593,-612.876398,222.061783,10066.800811
4113.660908,-995.924147,-814.226536,10066.800811
4113.661224,0.000000,-1332.370696,9770.718434
4113.661539,919.314598,-740.205942,9474.636058
4113.661854,1225.752797,592.164754,9030.512492
4113.662170,1378.971896,1776.494261,8142.265362
4113.662485,1149.143247,2146.597232,8882.471304
4113.662801,766.095498,1628.453072,9104.533087
4113.663116,153.219100,370.102971,9030.512492
4113.663431,-76.609550,-814.226536,10288.862594
4113.663747,-1149.143247,-1554.432478,9770.718434
4113.664062,-689.485948,-1554.432478,9548.656652
4113.664377,229.828649,-1332.370696,9844.739029
4113.664693,459.657299,-444.123565,9770.718434
4113.665008,459.657299,1184.329507,9326.594869
4113.665324,76.609550,1554.432478,9474.636058
4113.665639,766.095498,1702.473667,9696.697840
4113.665954,306.438199,1332.370696,10140.821405
4113.666270,0.000000,296.082377,10584.944971
4113.666585,-383.047749,-814.226536,10214.842000
4113.666900,229.828649,-740.205942,10140.821405
4113.667215,766.095498,-74.020594,9622.677246
4113.667531,919.314598,518.144159,8882.471304
4113.667846,842.705048,1332.370696,9252.574275
4113.668161,76.609550,1406.391290,9548.656652
4113.668477,-153.219100,888.247130,9622.677246
4113.668792,-383.047749,-0.000000,10066.800811
4113.669107,-842.705048,-666.185348,10436.903782
4113.669423,-842.705048,-1480.411884,10362.883188
4113.669738,-1149.143247,-1924.535449,10066.800811
4113.670053,-306.438199,-1258.350101,9696.697840
4113.670368,306.438199,-0.000000,9252.574275
4113.670684,306.438199,1036.288319,9030.512492
4113.670999,306.438199,1628.453072,9178.553681
4113.671314,306.438199,2072.576638,9326.594869
4113.671630,-383.047749,962.267725,9474.636058
4113.671945,-383.047749,-370.102971,10288.862594
4113.672260,-383.047749,-1554.432478,10214.842000
4113.672576,0.000000,-1406.391290,10066.800811
4113.672891,0.000000,-1036.288319,9474.636058
4113.673206,459.657299,-148.041188,9252.574275
4113.673522,153.219100,888.247130,8808.450710
4113.673837,-306.438199,1332.370696,8882.471304
4113.674152,-229.828649,888.247130,9326.594869
4113.674467,-459.657299,148.041188,9622.677246
4113.674783,-612.876398,-740.205942,9844.739029
4113.675098,-229.828649,-1850.514855,9844.739029
4113.675413,0.000000,-1924.535449,9474.636058
4113.675729,612.876398,-1110.308913,9326.594869
4113.676044,995.924147,-0.000000,8956.491898
4113.676359,766.095498,962.267725,8808.450710
4113.676675,1072.533697,1554.432478,9030.512492
4113.676990,919.314598,1406.391290,9252.574275
4113.677305,383.047749,666.185348,9844.739029
4113.677621,0.000000,-222.061783,9770.718434
4113.677936,-306.438199,-1110.308913,10066.800811
4113.678251,0.000000,-1406.391290,9918.759623
4113.678566,612.876398,-814.226536,10066.800811
4113.678882,689.485948,222.061783,9696.697840
4113.679197,536.266849,1110.308913,9030.512492
4113.679512,689.485948,1258.350101,9104.533087
4113.679828,689.485948,1406.391290,9548.656652
4113.680143,536.266849,814.226536,9844.739029
4113.680458,0.000000,-370.102971,9918.759623
4113.680774,-229.828649,-1184.329507,10510.924376
4113.681089,612.876398,-962.267725,9696.697840
4113.681404,919.314598,-814.226536,9474.636058
4113.681719,995.924147,370.102971,8734.430116
4113.682035,306.438199,1184.329507,9178.553681
4113.682350,306.438199,1332.370696,9326.594869
4113.682665,153.219100,888.247130,9622.677246
4113.682981,-306.438199,666.185348,9770.718434
4113.683296,-766.095498,-296.082377,10066.800811
4113.683611,-842.705048,-1258.350101,9548.656652
4113.683927,-689.485948,-1406.391290,9992.780217
4113.684242,0.000000,-592.164754,9770.718434
4113.684557,229.828649,444.123565,9178.553681
4113.684873,153.219100,1702.473667,8734.430116
4113.685188,0.000000,2072.576638,9474.636058
4113.685503,0.000000,1628.453072,9474.636058
4113.685818,-306.438199,666.185348,9770.718434
4113.686134,-842.705048,-370.102971,10066.800811
4113.686449,-1302.362347,-1184.329507,10362.883188
4113.686764,-766.095498,-1110.308913,9622.677246
4113.687080,0.000000,-962.267725,9474.636058
4113.687395,229.828649,296.082377,8882.471304
4113.687710,76.609550,1258.350101,8882.471304
4113.688026,-76.609550,1776.494261,9696.697840
4113.688341,-229.828649,1406.391290,9548.656652
4113.688656,-536.266849,1036.288319,9548.656652
4113.688971,-612.876398,-0.000000,10140.821405
4113.689287,-995.924147,-1184.329507,10436.903782
4113.689602,-383.047749,-1480.411884,10510.924376
4113.689917,459.657299,-740.205942,9918.759623
4113.690233,689.485948,444.123565,9474.636058
4113.690548,306.438199,1628.453072,9030.512492
4113.690863,306.438199,2442.679609,9252.574275
4113.691179,153.219100,1776.494261,9622.677246
4113.691494,306.438199,592.164754,9770.718434
4113.691809,0.000000,-370.102971,10288.862594
4113.692125,-536.266849,-1332.370696,10214.842000
4113.692440,-229.828649,-1332.370696,9992.780217
4113.692755,383.047749,-444.123565,9474.636058
4113.693070,536.266849,370.102971,8956.491898
4113.693386,689.485948,962.267725,9104.533087
4113.693701,766.095498,1628.453072,9326.594869
4113.694016,689.485948,1554.432478,9030.512492
4113.694332,153.219100,518.144159,9252.574275
4113.694647,153.219100,-74.020594,9548.656652
4113.694962,229.828649,-1036.288319,10066.800811
4113.695278,306.438199,-1184.329507,9474.636058
4113.695593,919.314598,-296.082377,9770.718434
4113.695908,919.314598,370.102971,9474.636058
4113.696224,612.876398,1184.329507,8956.491898
4113.696539,766.095498,1776.494261,9474.636058
4113.696854,229.828649,1036.288319,9548.656652
4113.697169,0.000000,518.144159,9770.718434
4113.697485,0.000000,-888.247130,9918.759623
4113.697800,-383.047749,-1702.473667,10066.800811
4113.698115,76.609550,-1554.432478,9622.677246
4113.698431,689.485948,-888.247130,9696.697840
4113.698746,1225.752797,222.061783,9326.594869
4113.699061,919.314598,1036.288319,8956.491898
4113.699377,1149.143247,1628.453072,9030.512492
4113.699692,536.266849,1036.288319,9474.636058
4113.700007,-229.828649,444.123565,9696.697840
4113.700322,-306.438199,-666.185348,10436.903782
4113.700638,0.000000,-1480.411884,10436.903782
4113.700953,-229.828649,-1628.453072,9844.739029
4113.701268,153.219100,-962.267725,10140.821405
4113.701584,459.657299,370.102971,9178.553681
4113.701899,76.609550,1332.370696,9474.636058
4113.702214,383.047749,1480.411884,9622.677246
4113.702530,-306.438199,1184.329507,9770.718434
4113.702845,-459.657299,148.041188,9844.739029
4113.703160,-383.047749,-888.247130,10288.862594
4113.703476,-536.266849,-1628.453072,10066.800811
4113.703791,-229.828649,-1702.473667,9474.636058
4113.704106,689.485948,-740.205942,9326.594869
4113.704421,383.047749,444.123565,8808.450710
4113.704737,306.438199,1184.329507,8660.409521
4113.705052,76.609550,1406.391290,9252.574275
4113.705367,153.219100,1110.308913,9400.615463
4113.705683,0.000000,74.020594,9326.594869
4113.705998,-766.095498,-740.205942,9844.739029
4113.706313,-459.657299,-1702.473667,10066.800811
4113.706629,-153.219100,-1480.411884,9696.697840
4113.706944,459.657299,-518.144159,9622.677246
4113.707259,612.876398,592.164754,9252.574275
4113.707574,459.657299,1184.329507,8882.471304
4113.707890,536.266849,1998.556043,8882.471304
4113.708205,229.828649,888.247130,9178.553681
4113.708520,383.047749,-74.020594,9474.636058
4113.708836,0.000000,-518.144159,10066.800811
4113.709151,-536.266849,-1480.411884,10288.862594
4113.709466,0.000000,-1628.453072,9696.697840
4113.709782,536.266849,-148.041188,9474.636058
4113.710097,229.828649,296.082377,8660.409521
4113.710412,306.438199,1406.391290,8882.471304
4113.710728,76.609550,1776.494261,9622.677246
4113.711043,-383.047749,1406.391290,9548.656652
4113.711358,-306.438199,222.061783,10140.821405
4113.711673,-842.705048,-592.164754,10362.883188
4113.711989,-612.876398,-1480.411884,10510.924376
4113.712304,229.828649,-814.226536,9844.739029
4113.712619,459.657299,-0.000000,9696.697840
4113.712935,459.657299,1110.308913,9326.594869
4113.713250,383.047749,2294.638420,9030.512492
4113.713565,612.876398,2220.617826,9474.636058
4113.713881,76.609550,1850.514855,9474.636058
4113.714196,-612.876398,740.205942,9770.718434
4113.714511,-995.924147,-740.205942,10436.903782
4113.714827,-1378.971896,-1924.535449,10288.862594
4113.715142,-536.266849,-1184.329507,10362.883188
4113.715457,-306.438199,-0.000000,9770.718434
4113.715772,0.000000,1258.350101,9178.553681
4113.716088,306.438199,2220.617826,9178.553681
4113.716403,306.438199,2368.659014,9474.636058
4113.716718,0.000000,1776.494261,9622.677246
4113.717034,0.000000,888.247130,9992.780217
4113.717349,-229.828649,-0.000000,10732.986159
4113.717664,76.609550,-814.226536,10066.800811
4113.717980,612.876398,-444.123565,10362.883188
4113.718295,995.924147,-0.000000,9400.615463
4113.718610,766.095498,1110.308913,8882.471304
4113.718925,766.095498,2072.576638,9030.512492
4113.719241,689.485948,1998.556043,9030.512492
4113.719556,536.266849,1406.391290,9474.636058
4113.719871,0.000000,-0.000000,10288.862594
4113.720187,-612.876398,-1184.329507,10288.862594
4113.720502,-306.438199,-1184.329507,10214.842000
4113.720817,76.609550,-1332.370696,9992.780217
4113.721133,1072.533697,-592.164754,9622.677246
4113.721448,1378.971896,814.226536,9104.533087
4113.721763,1072.533697,1776.494261,9178.553681
4113.722079,1225.752797,1850.514855,9326.594869
4113.722394,689.485948,962.267725,9622.677246
4113.722709,612.876398,-0.000000,9844.739029
4113.723024,0.000000,-666.185348,10140.821405
4113.723340,-383.047749,-1554.432478,10436.903782
4113.723655,383.047749,-1332.370696,10066.800811
4113.723970,919.314598,-666.185348,9400.615463
4113.724286,612.876398,-0.000000,9104.533087
4113.724601,306.438199,814.226536,9030.512492
4113.724916,0.000000,592.164754,9622.677246
4113.725232,-383.047749,518.144159,9548.656652
4113.725547,-689.485948,-666.185348,9844.739029
4113.725862,-995.924147,-1406.391290,10066.800811
4113.726177,-689.485948,-1776.494261,9844.739029
4113.726493,0.000000,-1036.288319,9622.677246
4113.726808,689.485948,-74.020594,8808.450710
4113.727123,1455.581446,1110.308913,8364.327145
4113.727439,919.314598,1702.473667,8290.306550
4113.727754,383.047749,1776.494261,8734.430116
4113.728069,76.609550,1036.288319,9326.594869
4113.728385,-306.438199,-370.102971,9770.718434
4113.728700,-1072.533697,-1702.473667,9992.780217
4113.729015,-1072.533697,-2368.659014,9548.656652
4113.729331,-842.705048,-1776.494261,9844.739029
4113.729646,-306.438199,-1110.308913,9400.615463
4113.729961,-383.047749,370.102971,8438.347739
4113.730276,153.219100,962.267725,9474.636058
4113.730592,-306.438199,1924.535449,9178.553681
4113.730907,76.609550,518.144159,9548.656652
4113.731222,-153.219100,222.061783,9770.718434
4113.731538,-229.828649,-444.123565,9474.636058
4113.731853,0.000000,-962.267725,10140.821405
4113.732168,536.266849,-1036.288319,9918.759623
4113.732484,766.095498,-148.041188,9474.636058
4113.732799,536.266849,1110.308913,9326.594869
4113.733114,306.438199,1776.494261,9474.636058
4113.733430,153.219100,1406.391290,9696.697840
4113.733745,0.000000,962.267725,9770.718434
4113.734060,-229.828649,-740.205942,10658.965565
4113.734375,-995.924147,-1406.391290,10362.883188
4113.734691,-459.657299,-1776.494261,10362.883188
4113.735006,76.609550,-1184.329507,10066.800811
4113.735321,459.657299,-0.000000,9770.718434
4113.735637,919.314598,1110.308913,9474.636058
4113.735952,842.705048,1850.514855,8882.471304
4113.736267,1149.143247,1406.391290,9326.594869
4113.736583,689.485948,1332.370696,9548.656652
4113.736898,0.000000,740.205942,9696.697840
4113.737213,-229.828649,-74.020594,10510.924376
4113.737528,0.000000,-962.267725,10362.883188
4113.737844,612.876398,-666.185348,9474.636058
4113.738159,995.924147,148.041188,9178.553681
4113.738474,842.705048,1332.370696,8808.450710
4113.738790,459.657299,1776.494261,9178.553681
4113.739105,536.266849,1776.494261,9178.553681
4113.739420,153.219100,1332.370696,9548.656652
4113.739736,-383.047749,-0.000000,9992.780217
4113.740051,-306.438199,-814.226536,10436.903782
4113.740366,-229.828649,-1036.288319,9992.780217
4113.740682,689.485948,-592.164754,9474.636058
4113.740997,536.266849,518.144159,9474.636058
4113.741312,612.876398,1850.514855,8808.450710
4113.741627,459.657299,2220.617826,8882.471304
4113.741943,383.047749,1924.535449,8882.471304
4113.742258,0.000000,1258.350101,8882.471304
4113.742573,-536.266849,222.061783,9918.759623
4113.742889,-842.705048,-740.205942,10288.862594
4113.743204,-1072.533697,-1184.329507,10510.924376
4113.743519,-919.314598,-888.247130,10288.862594
4113.743835,0.000000,-0.000000,9696.697840
4113.744150,229.828649,1332.370696,9474.636058
4113.744465,0.000000,1924.535449,9474.636058
4113.744780,153.219100,1776.494261,9918.759623
4113.745096,0.000000,1628.453072,9252.574275
4113.745411,-536.266849,592.164754,10066.800811
4113.745726,-383.047749,-518.144159,10066.800811
4113.746042,-306.438199,-1110.308913,10066.800811
4113.746357,383.047749,-814.226536,9622.677246
4113.746672,459.657299,-444.123565,9178.553681
4113.746988,459.657299,296.082377,9104.533087
4113.747303,306.438199,1184.329507,9252.574275
4113.747618,0.000000,814.226536,9474.636058
4113.747934,-306.438199,444.123565,10140.821405
4113.748249,-612.876398,-444.123565,10214.842000
4113.748564,-536.266849,-1258.350101,10362.883188
4113.748879,-229.828649,-1406.391290,10288.862594
4113.749195,536.266849,-1554.432478,9770.718434
4113.749510,766.095498,-444.123565,8808.450710
4113.749825,1149.143247,666.185348,8734.430116
4113.750141,689.485948,1258.350101,9474.636058
4113.750456,995.924147,1406.391290,9474.636058
4113.750771,383.047749,1110.308913,9548.656652
4113.751087,229.828649,-296.082377,9770.718434
4113.751402,-153.219100,-1258.350101,10066.800811
4113.751717,229.828649,-1998.556043,9770.718434
4113.752033,612.876398,-1850.514855,9474.636058
4113.752348,612.876398,-814.226536,9474.636058
4113.752663,612.876398,444.123565,8364.327145
4113.752978,306.438199,1110.308913,8364.327145
4113.753294,383.047749,1258.350101,8808.450710
4113.753609,0.000000,740.205942,9252.574275
4113.753924,-306.438199,-518.144159,9474.636058
4113.754240,-229.828649,-1406.391290,9844.739029
4113.754555,0.000000,-1480.411884,9622.677246
4113.754870,229.828649,-1406.391290,9326.594869
4113.755186,459.657299,-0.000000,9474.636058
4113.755501,229.828649,740.205942,9178.553681
4113.755816,153.219100,1332.370696,9104.533087
4113.756131,0.000000,1258.350101,9622.677246
4113.756447,-229.828649,1036.288319,9770.718434
4113.756762,-689.485948,-222.061783,9992.780217
4113.757077,-383.047749,-1110.308913,10066.800811
4113.757393,-306.438199,-1776.494261,9548.656652
4113.757708,76.609550,-1258.350101,9548.656652
4113.758023,689.485948,-296.082377,9252.574275
4113.758339,612.876398,1036.288319,9030.512492
4113.758654,459.657299,1702.473667,8956.491898
4113.758969,1072.533697,1776.494261,9030.512492
4113.759285,0.000000,518.144159,9400.615463
4113.759600,-612.876398,-0.000000,10362.883188
4113.759915,-536.266849,-1036.288319,10658.965565
4113.760230,-383.047749,-1184.329507,9918.759623
4113.760546,229.828649,-666.185348,9696.697840
4113.760861,612.876398,444.123565,10140.821405
4113.761176,306.438199,1628.453072,9474.636058
4113.761492,306.438199,2294.638420,9474.636058
4113.761807,766.095498,1924.535449,10066.800811
4113.762122,0.000000,1628.453072,9696.697840
4113.762438,0.000000,518.144159,10436.903782
4113.762753,-229.828649,-222.061783,10436.903782
4113.763068,-306.438199,-888.247130,10732.986159
4113.763383,919.314598,-444.123565,9696.697840
4113.763699,995.924147,444.123565,8956.491898
4113.764014,689.485948,1628.453072,9178.553681
4113.764329,612.876398,1702.473667,9252.574275
4113.764645,383.047749,2146.597232,9474.636058
4113.764960,0.000000,962.267725,10140.821405
4113.765275,-689.485948,-444.123565,10140.821405
4113.765591,-536.266849,-666.185348,10955.047942
4113.765906,-612.876398,-962.267725,10436.903782
4113.766221,76.609550,-370.102971,10140.821405
4113.766537,536.266849,222.061783,9548.656652
4113.766852,383.047749,1702.473667,8808.450710
4113.767167,612.876398,1924.535449,9326.594869
4113.767482,153.219100,1184.329507,9252.574275
4113.767798,-383.047749,888.247130,9548.656652
4113.768113,-612.876398,-370.102971,9918.759623
4113.768428,-536.266849,-740.205942,10066.800811
4113.768744,-459.657299,-1702.473667,9622.677246
4113.769059,-383.047749,-1332.370696,9252.574275
4113.769374,153.219100,-370.102971,9178.553681
4113.769690,76.609550,592.164754,8808.450710
4113.770005,0.000000,1036.288319,8660.409521
4113.770320,0.000000,1258.350101,9104.533087
4113.770636,-459.657299,740.205942,9474.636058
4113.770951,-612.876398,-222.061783,9400.615463
4113.771266,-612.876398,-1332.370696,9548.656652
4113.771582,0.000000,-1628.453072,9918.759623
4113.771897,459.657299,-1110.308913,9400.615463
4113.772212,689.485948,296.082377,8956.491898
4113.772528,459.657299,1702.473667,8586.388927
4113.772843,459.657299,2220.617826,8882.471304
4113.773158,919.314598,1554.432478,9104.533087
4113.773474,0.000000,666.185348,9548.656652
4113.773789,-383.047749,-814.226536,10140.821405
4113.774104,-612.876398,-1628.453072,9918.759623
4113.774419,0.000000,-1850.514855,9400.615463
4113.774735,229.828649,-1258.350101,10066.800811
4113.775050,459.657299,-0.000000,9474.636058
4113.775365,383.047749,962.267725,8882.471304
4113.775681,306.438199,1480.411884,9326.594869
4113.775996,689.485948,1332.370696,9326.594869
4113.776311,0.000000,740.205942,9696.697840
4113.776627,0.000000,-74.020594,9992.780217
4113.776942,0.000000,-962.267725,10658.965565
4113.777257,76.609550,-1184.329507,9992.780217
4113.777573,842.705048,-888.247130,10066.800811
4113.777888,1225.752797,-74.020594,9474.636058
4113.778203,459.657299,1406.391290,9474.636058
4113.778519,459.657299,1332.370696,9622.677246
4113.778834,229.828649,962.267725,10214.842000
4113.779149,76.609550,370.102971,10584.944971
4113.779465,0.000000,-814.226536,10288.862594
4113.779780,0.000000,-1332.370696,10140.821405
4113.780095,0.000000,-1332.370696,10362.883188
4113.780411,536.266849,-666.185348,9622.677246
4113.780726,689.485948,-0.000000,9326.594869
4113.781041,1072.533697,1184.329507,9252.574275
4113.781357,383.047749,1258.350101,9400.615463
4113.781672,383.047749,1332.370696,9400.615463
4113.781987,0.000000,962.267725,9474.636058
4113.782303,-383.047749,-592.164754,10140.821405
4113.782618,-612.876398,-1554.432478,9992.780217
4113.782933,-536.266849,-1406.391290,9844.739029
4113.783249,153.219100,-1036.288319,9622.677246
4113.783564,306.438199,-0.000000,9178.553681
4113.783879,0.000000,1110.308913,9030.512492
4113.784195,0.000000,1480.411884,9474.636058
4113.784510,0.000000,1332.370696,9844.739029
4113.784825,0.000000,666.185348,9622.677246
4113.785141,-383.047749,-148.041188,9918.759623
4113.785456,153.219100,-592.164754,10214.842000
4113.785771,383.047749,-962.267725,9622.677246
4113.786087,995.924147,-370.102971,9474.636058
4113.786402,842.705048,444.123565,8734.430116
4113.786717,689.485948,1258.350101,8586.388927
4113.787033,995.924147,1480.411884,8882.471304
4113.787348,153.219100,1406.391290,9252.574275
4113.787663,-612.876398,666.185348,9474.636058
4113.787979,-995.924147,-518.144159,10066.800811
4113.788294,-766.095498,-1480.411884,10362.883188
4113.788609,-306.438199,-1702.473667,9770.718434
4113.788924,76.609550,-666.185348,9696.697840
4113.789240,536.266849,222.061783,9252.574275
4113.789555,306.438199,1480.411884,8956.491898
4113.789870,1608.800546,1258.350101,9622.677246
4113.790186,766.095498,1258.350101,9252.574275
4113.790501,383.047749,962.267725,9178.553681
4113.790816,153.219100,-148.041188,9992.780217
4113.791132,0.000000,-1184.329507,9770.718434
4113.791447,459.657299,-1554.432478,9474.636058
4113.791762,842.705048,-1036.288319,9622.677246
4113.792078,919.314598,-296.082377,8956.491898
4113.792393,612.876398,962.267725,8882.471304
4113.792708,306.438199,1406.391290,9178.553681
4113.793024,0.000000,888.247130,9918.759623
4113.793339,0.000000,-0.000000,9770.718434
4113.793654,-612.876398,-518.144159,10214.842000
4113.793970,-766.095498,-1554.432478,10214.842000
4113.794285,0.000000,-962.267725,9770.718434
4113.794600,612.876398,-370.102971,9770.718434
4113.794916,766.095498,888.247130,8882.471304
4113.795231,229.828649,1258.350101,9104.533087
4113.795546,306.438199,1924.535449,9178.553681
4113.795862,229.828649,1776.494261,9474.636058
4113.796177,-459.657299,1406.391290,9474.636058
4113.796492,-919.314598,-444.123565,10140.821405
4113.796808,-919.314598,-1480.411884,10584.944971
4113.797123,-306.438199,-1184.329507,9622.677246
4113.797438,76.609550,-740.205942,9696.697840
4113.797754,0.000000,444.123565,9178.553681
4113.798069,-536.266849,1850.514855,9104.533087
4113.798384,-459.657299,2146.597232,9400.615463
4113.798700,-383.047749,1850.514855,9178.553681
4113.799015,-536.266849,888.247130,9474.636058
4113.799330,-459.657299,-0.000000,10288.862594
4113.799646,-1072.533697,-1036.288319,10288.862594
4113.799961,-536.266849,-814.226536,9622.677246
4113.800276,76.609550,-148.041188,9770.718434
4113.800592,383.047749,888.247130,9326.594869
4113.800907,306.438199,1776.494261,8734.430116
4113.801222,229.828649,1850.514855,9030.512492
4113.801538,0.000000,1702.473667,9770.718434
4113.801853,-689.485948,888.247130,9474.636058
4113.802168,-1225.752797,-518.144159,10140.821405
4113.802484,-842.705048,-1702.473667,10288.862594
4113.802799,76.609550,-1776.494261,10362.883188
4113.803114,689.485948,-962.267725,9548.656652
4113.803429,919.314598,666.185348,9178.553681
4113.803745,612.876398,1258.350101,9252.574275
4113.804060,306.438199,1480.411884,9474.636058
4113.804375,689.485948,1480.411884,9104.533087
4113.804691,612.876398,1110.308913,9474.636058
4113.805006,612.876398,-148.041188,10436.903782
4113.805321,229.828649,-1184.329507,10214.842000
4113.805637,766.095498,-1036.288319,9844.739029
4113.805952,842.705048,-592.164754,10066.800811
4113.806267,766.095498,296.082377,9326.594869
4113.806583,1378.971896,962.267725,9104.533087
4113.806898,919.314598,1406.391290,9178.553681
4113.807213,383.047749,666.185348,10066.800811
4113.807529,153.219100,-74.020594,10140.821405
4113.807844,0.000000,-1184.329507,10362.883188
4113.808159,-306.438199,-1702.473667,9992.780217
4113.808475,689.485948,-1850.514855,9770.718434
4113.808790,1149.143247,-740.205942,9400.615463
4113.809105,1149.143247,222.061783,8808.450710
4113.809421,1225.752797,1554.432478,8660.409521
4113.809736,995.924147,1776.494261,9474.636058
4113.810051,306.438199,1184.329507,9326.594869
4113.810367,0.000000,-0.000000,9622.677246
4113.810682,-612.876398,-1036.288319,10510.924376
4113.810997,-536.266849,-2072.576638,9992.780217
4113.811313,229.828649,-1702.473667,10362.883188
4113.811628,306.438199,-1258.350101,9474.636058
4113.811943,0.000000,-0.000000,9030.512492
4113.812259,0.000000,962.267725,9030.512492
4113.812574,0.000000,1036.288319,9252.574275
4113.812889,383.047749,518.144159,9622.677246
4113.813205,-536.266849,-0.000000,9770.718434
4113.813520,-612.876398,-740.205942,9770.718434
4113.813835,-612.876398,-1554.432478,9622.677246
4113.814151,0.000000,-962.267725,9178.553681
4113.814466,612.876398,-666.185348,9548.656652
4113.814781,229.828649,-0.000000,8808.450710
4113.815097,0.000000,1184.329507,9030.512492
4113.815412,-153.219100,1258.350101,8956.491898
4113.815727,-383.047749,814.226536,9252.574275
4113.816043,-383.047749,296.082377,9696.697840
4113.816358,-1455.581446,-1184.329507,10288.862594
4113.816673,-842.705048,-1628.453072,10288.862594
4113.816989,-383.047749,-1332.370696,9548.656652
4113.817304,306.438199,-518.144159,9326.594869
4113.817619,995.924147,518.144159,8808.450710
4113.817934,153.219100,1702.473667,9030.512492
4113.818250,229.828649,2072.576638,9178.553681
4113.818565,0.000000,1110.308913,9622.677246
4113.818880,-229.828649,666.185348,10214.842000
4113.819196,-689.485948,-444.123565,10288.862594
4113.819511,-612.876398,-1332.370696,9918.759623
4113.819826,153.219100,-518.144159,10066.800811
4113.820142,383.047749,-74.020594,9548.656652
4113.820457,383.047749,740.205942,9104.533087
4113.820772,153.219100,1480.411884,9326.594869
4113.821088,153.219100,1702.473667,9548.656652
4113.821403,153.219100,1702.473667,9770.718434
4113.821718,0.000000,962.267725,9548.656652
4113.822034,0.000000,-666.185348,10214.842000
4113.822349,0.000000,-1332.370696,10362.883188
4113.822664,536.266849,-814.226536,9400.615463
4113.822980,842.705048,74.020594,9474.636058
4113.823295,995.924147,1110.308913,8956.491898
4113.823610,919.314598,2072.576638,8882.471304
4113.823926,919.314598,1776.494261,9252.574275
4113.824241,0.000000,1258.350101,9548.656652
4113.824556,-383.047749,444.123565,9992.780217
4113.824872,-459.657299,-518.144159,10288.862594
4113.825187,0.000000,-1110.308913,10362.883188
4113.825502,0.000000,-888.247130,10066.800811
4113.825818,306.438199,-148.041188,9770.718434
4113.826133,536.266849,888.247130,9252.574275
4113.826448,612.876398,1554.432478,9252.574275
4113.826764,1149.143247,1998.556043,9622.677246
4113.827079,153.219100,1184.329507,9770.718434
4113.827394,0.000000,666.185348,9992.780217
4113.827710,-612.876398,-444.123565,10362.883188
4113.828025,0.000000,-1110.308913,10066.800811
4113.828340,383.047749,-962.267725,10140.821405
4113.828656,383.047749,-148.041188,9400.615463
4113.828971,536.266849,1332.370696,9178.553681
4113.829286,229.828649,1702.473667,9104.533087
4113.829602,0.000000,1628.453072,9918.759623
4113.829917,-229.828649,962.267725,9474.636058
4113.830232,-612.876398,-0.000000,9844.739029
4113.830548,-1072.533697,-666.185348,10807.006753
4113.830863,-459.657299,-1406.391290,10140.821405
4113.831178,306.438199,-1110.308913,9696.697840
4113.831494,612.876398,-444.123565,9252.574275
4113.831809,383.047749,666.185348,9178.553681
4113.832124,229.828649,1480.411884,8956.491898
4113.832440,459.657299,1628.453072,9030.512492
4113.832755,306.438199,814.226536,9548.656652
4113.833070,0.000000,-222.061783,9474.636058
4113.833385,-536.266849,-1628.453072,9548.656652
4113.833701,-689.485948,-1628.453072,10140.821405
4113.834016,306.438199,-1628.453072,9844.739029
4113.834331,766.095498,-814.226536,9326.594869
4113.834647,1149.143247,148.041188,8882.471304
4113.834962,766.095498,962.267725,9252.574275
4113.835277,459.657299,1406.391290,9178.553681
4113.835593,383.047749,1332.370696,9400.615463
4113.835908,306.438199,-518.144159,9548.656652
4113.836223,0.000000,-1776.494261,9992.780217
4113.836539,0.000000,-1406.391290,9992.780217
4113.836854,0.000000,-1554.432478,9474.636058
4113.837169,689.485948,-592.164754,9400.615463
4113.837485,383.047749,814.226536,8882.471304
4113.837800,76.609550,1258.350101,9104.533087
4113.838115,-229.828649,1258.350101,9622.677246
4113.838431,0.000000,666.185348,9474.636058
4113.838746,-459.657299,-296.082377,9844.739029
4113.839061,-842.705048,-1110.308913,9844.739029
4113.839377,-766.095498,-1184.329507,10584.944971
4113.839692,0.000000,-592.164754,10066.800811
4113.840007,459.657299,-0.000000,9252.574275
4113.840323,689.485948,1036.288319,9252.574275
4113.840638,536.266849,1776.494261,8734.430116
4113.840953,76.609550,1406.391290,9326.594869
4113.841269,-76.609550,1628.453072,9770.718434
4113.841584,-612.876398,370.102971,10066.800811
4113.841899,-536.266849,-888.247130,9770.718434
4113.842215,-383.047749,-1406.391290,10214.842000
4113.842530,-383.047749,-1036.288319,10140.821405
4113.842845,76.609550,296.082377,9548.656652
4113.843161,306.438199,1480.411884,8956.491898
4113.843476,0.000000,1628.453072,9326.594869
4113.843791,229.828649,1554.432478,9400.615463
4113.844107,459.657299,1258.350101,9474.636058
4113.844422,-229.828649,-74.020594,10066.800811
4113.844737,0.000000,-666.185348,10362.883188
4113.845053,229.828649,-888.247130,9992.780217
4113.845368,689.485948,-148.041188,9770.718434
4113.845683,1685.410096,814.226536,9474.636058
4113.845999,1072.533697,1184.329507,8882.471304
4113.846314,1149.143247,1702.473667,8882.471304
4113.846629,919.314598,1406.391290,9104.533087
4113.846945,153.219100,888.247130,9178.553681
4113.847260,153.219100,-0.000000,9992.780217
4113.847575,-306.438199,-1258.350101,9844.739029
4113.847890,0.000000,-1480.411884,9696.697840
4113.848206,383.047749,-1110.308913,9992.780217
4113.848521,842.705048,-74.020594,9548.656652
4113.848836,612.876398,1184.329507,9326.594869
4113.849152,536.266849,2146.597232,9178.553681
4113.849467,536.266849,2072.576638,9770.718434
4113.849782,229.828649,1110.308913,9992.780217
4113.850098,76.609550,148.041188,10510.924376
4113.850413,-153.219100,-592.164754,10584.944971
4113.850728,0.000000,-1036.288319,9770.718434
4113.851044,536.266849,-444.123565,9918.759623
4113.851359,766.095498,-0.000000,9326.594869
4113.851674,306.438199,888.247130,9326.594869
4113.851990,0.000000,1258.350101,9622.677246
4113.852305,-306.438199,962.267725,9474.636058
4113.852620,-229.828649,-0.000000,9622.677246
4113.852936,-766.095498,-740.205942,9918.759623
4113.853251,-766.095498,-1554.432478,9770.718434
4113.853566,-612.876398,-1702.473667,9548.656652
4113.853882,76.609550,-1110.308913,9474.636058
4113.854197,536.266849,-0.000000,9030.512492
4113.854512,153.219100,1258.350101,8512.368333
4113.854828,0.000000,1406.391290,8586.388927
4113.855143,0.000000,1480.411884,9104.533087
4113.855458,-229.828649,740.205942,9326.594869
4113.855774,-612.876398,-296.082377,9918.759623
4113.856089,-995.924147,-1480.411884,9992.780217
4113.856404,-995.924147,-1776.494261,10066.800811
4113.856720,-383.047749,-1406.391290,9696.697840
4113.857035,0.000000,-222.061783,9474.636058
4113.857350,0.000000,518.144159,8956.491898
4113.857666,0.000000,962.267725,8956.491898
4113.857981,-536.266849,888.247130,9474.636058
4113.858296,-459.657299,666.185348,9252.574275
4113.858612,-689.485948,-0.000000,9548.656652
4113.858927,-306.438199,-666.185348,9844.739029
4113.859242,229.828649,-1184.329507,9770.718434
4113.859558,689.485948,-888.247130,9474.636058
4113.859873,689.485948,-74.020594,9474.636058
4113.860188,459.657299,962.267725,8660.409521
4113.860504,536.266849,1702.473667,9474.636058
4113.860819,0.000000,1554.432478,10214.842000
4113.861134,-229.828649,444.123565,10288.862594
4113.861450,-766.095498,-0.000000,10362.883188
4113.861765,-612.876398,-1184.329507,10362.883188
4113.862080,0.000000,-1184.329507,9770.718434
4113.862395,1072.533697,-444.123565,10436.903782
4113.862711,1149.143247,666.185348,9622.677246
4113.863026,766.095498,1332.370696,8956.491898
4113.863341,1149.143247,2220.617826,9400.615463
4113.863657,766.095498,2220.617826,9548.656652
4113.863972,459.657299,1258.350101,9474.636058
4113.864287,383.047749,296.082377,10288.862594
4113.864603,459.657299,-814.226536,9918.759623
4113.864918,536.266849,-1332.370696,9696.697840
4113.865233,536.266849,-740.205942,9918.759623
4113.865549,536.266849,-0.000000,10066.800811
4113.865864,383.047749,814.226536,9622.677246
4113.866179,76.609550,1184.329507,9844.739029
4113.866495,0.000000,962.267725,9622.677246
4113.866810,0.000000,740.205942,9696.697840
4113.867125,0.000000,-370.102971,10140.821405
4113.867441,-459.657299,-814.226536,10140.821405
4113.867756,306.438199,-962.267725,10140.821405
4113.868071,995.924147,-444.123565,9548.656652
4113.868387,919.314598,370.102971,9030.512492
4113.868702,842.705048,1332.370696,8586.388927
4113.869017,689.485948,1554.432478,8956.491898
4113.869333,153.219100,1554.432478,9474.636058
4113.869648,0.000000,592.164754,9844.739029
4113.869963,-766.095498,-592.164754,9770.718434
4113.870279,-1072.533697,-1702.473667,10214.842000
4113.870594,-842.705048,-1036.288319,9622.677246
4113.870909,0.000000,-1036.288319,9104.533087
4113.871225,153.219100,-0.000000,9474.636058
4113.871540,229.828649,1184.329507,9400.615463
4113.871855,0.000000,1258.350101,9252.574275
4113.872170,0.000000,1702.473667,9474.636058
4113.872486,0.000000,1184.329507,9696.697840
4113.872801,-229.828649,74.020594,9770.718434
4113.873116,-612.876398,-222.061783,9770.718434
4113.873432,-842.705048,-592.164754,9844.739029
4113.873747,229.828649,-296.082377,9474.636058
4113.874062,612.876398,296.082377,9178.553681
4113.874378,383.047749,1036.288319,8808.450710
4113.874693,229.828649,1406.391290,9474.636058
4113.875008,-459.657299,1184.329507,9918.759623
4113.875324,-229.828649,962.267725,9178.553681
4113.875639,-612.876398,-666.185348,9696.697840
4113.875954,-383.047749,-1554.432478,9844.739029
4113.876270,-153.219100,-1776.494261,9474.636058
4113.876585,153.219100,-1184.329507,9252.574275
4113.876900,229.828649,-74.020594,9252.574275
4113.877216,612.876398,962.267725,8956.491898
4113.877531,536.266849,1184.329507,8882.471304
4113.877846,919.314598,1184.329507,9548.656652
4113.878162,383.047749,296.082377,9548.656652
4113.878477,76.609550,-592.164754,10288.862594
4113.878792,153.219100,-962.267725,10066.800811
4113.879107,76.609550,-1184.329507,9696.697840
4113.879423,689.485948,-888.247130,10214.842000
4113.879738,1149.143247,-148.041188,9178.553681
4113.880053,689.485948,518.144159,9030.512492
4113.880369,766.095498,962.267725,9770.718434
4113.880684,153.219100,814.226536,9548.656652
4113.880999,0.000000,444.123565,9696.697840
4113.881315,76.609550,-444.123565,9918.759623
4113.881630,0.000000,-1628.453072,9696.697840
4113.881945,459.657299,-1554.432478,9474.636058
4113.882261,995.924147,-1184.329507,9326.594869
4113.882576,766.095498,222.061783,9178.553681
4113.882891,0.000000,1184.329507,8956.491898
4113.883207,76.609550,1480.411884,8882.471304
4113.883522,153.219100,888.247130,9252.574275
4113.883837,-612.876398,592.164754,9696.697840
4113.884153,-1302.362347,-666.185348,10584.944971
4113.884468,-1302.362347,-1036.288319,10436.903782
4113.884783,-536.266849,-1036.288319,9918.759623
4113.885099,0.000000,-444.123565,9548.656652
4113.885414,306.438199,518.144159,8734.430116
4113.885729,229.828649,1702.473667,8882.471304
4113.886044,459.657299,1998.556043,8882.471304
4113.886360,76.609550,1628.453072,8956.491898
4113.886675,-229.828649,1110.308913,9400.615463
4113.886990,-383.047749,-296.082377,9622.677246
4113.887306,-612.876398,-962.267725,9844.739029
4113.887621,-306.438199,-1036.288319,9474.636058
4113.887936,0.000000,-592.164754,9474.636058
4113.888252,229.828649,370.102971,9104.533087
4113.888567,76.609550,1258.350101,9326.594869
4113.888882,0.000000,1850.514855,9178.553681
4113.889198,76.609550,1776.494261,9474.636058
4113.889513,0.000000,1036.288319,10066.800811
4113.889828,-153.219100,-74.020594,10140.821405
4113.890144,-229.828649,-666.185348,10214.842000
4113.890459,229.828649,-592.164754,9918.759623
4113.890774,995.924147,-296.082377,9622.677246
4113.891090,1455.581446,1036.288319,9326.594869
4113.891405,1915.238745,1924.535449,9474.636058
4113.891720,1072.533697,1702.473667,9770.718434
4113.892036,459.657299,1628.453072,9622.677246
4113.892351,153.219100,518.144159,10066.800811
4113.892666,0.000000,-222.061783,10066.800811
4113.892981,0.000000,-1332.370696,10584.944971
4113.893297,76.609550,-1184.329507,9844.739029
4113.893612,229.828649,-666.185348,9992.780217
4113.893927,536.266849,444.123565,9030.512492
4113.894243,383.047749,1036.288319,9696.697840
4113.894558,459.657299,1554.432478,9992.780217
4113.894873,0.000000,962.267725,9918.759623
4113.895189,-306.438199,518.144159,9770.718434
4113.895504,-612.876398,-370.102971,10584.944971
4113.895819,-383.047749,-740.205942,10066.800811
4113.896135,-383.047749,-962.267725,10214.842000
4113.896450,306.438199,-74.020594,9696.697840
4113.896765,536.266849,592.164754,9326.594869
4113.897081,229.828649,1110.308913,8808.450710
4113.897396,229.828649,1110.308913,9104.533087
4113.897711,0.000000,814.226536,9696.697840
4113.898027,-459.657299,296.082377,10288.862594
4113.898342,-842.705048,-740.205942,10066.800811
4113.898657,-612.876398,-1998.556043,9992.780217
4113.898973,0.000000,-1554.432478,9474.636058
4113.899288,689.485948,-518.144159,9030.512492
4113.899603,612.876398,370.102971,8290.306550
4113.899918,689.485948,1554.432478,8216.285956
4113.900234,919.314598,1480.411884,8956.491898
4113.900549,-153.219100,962.267725,8956.491898
4113.900864,153.219100,666.185348,9400.615463
4113.901180,-76.609550,-666.185348,9548.656652
4113.901495,-153.219100,-1332.370696,9548.656652
4113.901810,-153.219100,-1554.432478,9622.677246
4113.902126,0.000000,-962.267725,9548.656652
4113.902441,229.828649,-296.082377,9474.636058
4113.902756,0.000000,814.226536,9400.615463
4113.903072,76.609550,1036.288319,9326.594869
4113.903387,-229.828649,962.267725,9400.615463
4113.903702,0.000000,296.082377,9548.656652
4113.904018,-383.047749,-814.226536,9918.759623
4113.904333,-306.438199,-888.247130,9770.718434
4113.904648,383.047749,-1036.288319,9326.594869
4113.904964,612.876398,-666.185348,9252.574275
4113.905279,612.876398,370.102971,9104.533087
4113.905594,459.657299,1258.350101,9104.533087
4113.905910,0.000000,1258.350101,9548.656652
4113.906225,-229.828649,1036.288319,9918.759623
4113.906540,-689.485948,222.061783,10362.883188
4113.906855,-919.314598,-962.267725,10510.924376
4113.907171,-689.485948,-1628.453072,10510.924376
4113.907486,0.000000,-1554.432478,9992.780217
4113.907801,459.657299,-518.144159,9548.656652
4113.908117,536.266849,592.164754,9474.636058
4113.908432,383.047749,1554.432478,9104.533087
4113.908747,229.828649,1628.453072,9252.574275
4113.909063,536.266849,1702.473667,8882.471304
4113.909378,306.438199,592.164754,9474.636058
4113.909693,0.000000,-296.082377,9844.739029
4113.910009,-306.438199,-1110.308913,9622.677246
4113.910324,229.828649,-1036.288319,9548.656652
4113.910639,153.219100,-370.102971,9252.574275
4113.910955,0.000000,222.061783,9474.636058
4113.911270,0.000000,1036.288319,9622.677246
4113.911585,0.000000,1702.473667,9252.574275
4113.911901,0.000000,1184.329507,9548.656652
4113.912216,-459.657299,592.164754,9474.636058
4113.912531,-689.485948,-0.000000,10140.821405
4113.912847,-536.266849,-592.164754,10066.800811
4113.913162,0.000000,-592.164754,9770.718434
4113.913477,612.876398,-222.061783,9844.739029
4113.913792,1072.533697,1184.329507,9252.574275
4113.914108,689.485948,1924.535449,9474.636058
4113.914423,153.219100,1924.535449,9844.739029
4113.914738,-383.047749,1702.473667,9992.780217
4113.915054,-995.924147,740.205942,9992.780217
4113.915369,-612.876398,-222.061783,10140.821405
4113.915684,-306.438199,-666.185348,10066.800811
4113.916000,229.828649,-962.267725,9844.739029
4113.916315,536.266849,-74.020594,9696.697840
4113.916630,689.485948,1036.288319,9178.553681
4113.916946,536.266849,2368.659014,9400.615463
4113.917261,536.266849,2146.597232,9622.677246
4113.917576,383.047749,1702.473667,9548.656652
4113.917892,0.000000,666.185348,9918.759623
4113.918207,153.219100,-518.144159,9918.759623
4113.918522,76.609550,-1110.308913,9918.759623
4113.918838,689.485948,-814.226536,9770.718434
4113.919153,689.485948,-222.061783,9696.697840
4113.919468,1302.362347,1036.288319,8956.491898
4113.919784,1149.143247,1332.370696,8734.430116
4113.920099,842.705048,1628.453072,9326.594869
4113.920414,383.047749,814.226536,9548.656652
4113.920729,0.000000,-0.000000,9992.780217
4113.921045,-306.438199,-1184.329507,9844.739029
4113.921360,0.000000,-1406.391290,9918.759623
4113.921675,76.609550,-1184.329507,9844.739029
4113.921991,536.266849,-888.247130,9770.718434
4113.922306,459.657299,370.102971,9104.533087
4113.922621,459.657299,1036.288319,9030.512492
4113.922937,459.657299,962.267725,9326.594869
4113.923252,0.000000,814.226536,9400.615463
4113.923567,76.609550,-74.020594,9548.656652
4113.923883,-842.705048,-1332.370696,9918.759623
4113.924198,-536.266849,-1776.494261,9474.636058
4113.924513,76.609550,-1332.370696,9326.594869
4113.924829,383.047749,-888.247130,9474.636058
4113.925144,229.828649,-0.000000,9400.615463
4113.925459,153.219100,518.144159,9400.615463
4113.925775,383.047749,666.185348,9326.594869
4113.926090,0.000000,-0.000000,9474.636058
4113.926405,-383.047749,-518.144159,9696.697840
4113.926721,-919.314598,-1184.329507,9844.739029
4113.927036,-612.876398,-1628.453072,9696.697840
4113.927351,0.000000,-1110.308913,9622.677246
4113.927666,842.705048,-666.185348,8882.471304
4113.927982,612.876398,666.185348,8660.409521
4113.928297,229.828649,1110.308913,8956.491898
4113.928612,0.000000,962.267725,9474.636058
4113.928928,0.000000,962.267725,9474.636058
4113.929243,-536.266849,222.061783,9918.759623
4113.929558,-383.047749,-1480.411884,10584.944971
4113.929874,-612.876398,-962.267725,9622.677246
4113.930189,0.000000,-1184.329507,9696.697840
4113.930504,842.705048,-444.123565,9474.636058
4113.930820,383.047749,888.247130,9104.533087
4113.931135,383.047749,1406.391290,9178.553681
4113.931450,229.828649,1480.411884,9178.553681
4113.931766,153.219100,888.247130,9400.615463
4113.932081,153.219100,296.082377,9622.677246
4113.932396,-229.828649,-666.185348,9770.718434
4113.932712,-306.438199,-1554.432478,9548.656652
4113.933027,383.047749,-1332.370696,9844.739029
4113.933342,689.485948,-592.164754,9474.636058
4113.933658,766.095498,518.144159,9252.574275
4113.933973,612.876398,1406.391290,9474.636058
4113.934288,383.047749,1998.556043,9474.636058
4113.934603,0.000000,1480.411884,9696.697840
4113.934919,229.828649,518.144159,9696.697840
4113.935234,-229.828649,-74.020594,10066.800811
4113.935549,153.219100,-888.247130,9844.739029
4113.935865,459.657299,-1110.308913,9770.718434
4113.936180,689.485948,-0.000000,9696.697840
4113.936495,229.828649,1332.370696,9030.512492
4113.936811,459.657299,1924.535449,9474.636058
4113.937126,383.047749,1924.535449,9474.636058
4113.937441,76.609550,1036.288319,10066.800811
4113.937757,-459.657299,-0.000000,10066.800811
4113.938072,-612.876398,-444.123565,10066.800811
4113.938387,-306.438199,-1036.288319,9918.759623
4113.938703,306.438199,-740.205942,9770.718434
4113.939018,689.485948,-0.000000,9474.636058
4113.939333,153.219100,962.267725,9474.636058
4113.939649,0.000000,1480.411884,9622.677246
4113.939964,76.609550,1776.494261,9474.636058
4113.940279,0.000000,1702.473667,9622.677246
4113.940595,-536.266849,592.164754,9844.739029
4113.940910,-766.095498,-592.164754,9918.759623
4113.941225,-612.876398,-666.185348,9918.759623
4113.941540,0.000000,-1184.329507,9474.636058
4113.941856,229.828649,-222.061783,9548.656652
4113.942171,536.266849,888.247130,9474.636058
4113.942486,0.000000,1776.494261,9178.553681
4113.942802,229.828649,1776.494261,9252.574275
4113.943117,-153.219100,1036.288319,9252.574275
4113.943432,-306.438199,-0.000000,9770.718434
4113.943748,-306.438199,-740.205942,9696.697840
4113.944063,-153.219100,-1184.329507,9696.697840
4113.944378,306.438199,-1184.329507,9326.594869
4113.944694,689.485948,-222.061783,9474.636058
4113.945009,995.924147,962.267725,9030.512492
4113.945324,459.657299,814.226536,9104.533087
4113.945640,459.657299,1406.391290,9400.615463
4113.945955,76.609550,888.247130,9844.739029
4113.946270,0.000000,-0.000000,9622.677246
4113.946586,-153.219100,-962.267725,10140.821405
4113.946901,0.000000,-1406.391290,9918.759623
4113.947216,766.095498,-1184.329507,9474.636058
4113.947532,1149.143247,-74.020594,9178.553681
4113.947847,1072.533697,1036.288319,8882.471304
4113.948162,689.485948,1554.432478,9474.636058
4113.948477,229.828649,962.267725,9104.533087
4113.948793,153.219100,444.123565,9992.780217
4113.949108,0.000000,-148.041188,10140.821405
4113.949423,-229.828649,-1110.308913,10214.842000
4113.949739,-459.657299,-1628.453072,9992.780217
4113.950054,229.828649,-1554.432478,9622.677246
4113.950369,1149.143247,-518.144159,9326.594869
4113.950685,766.095498,296.082377,8660.409521
4113.951000,536.266849,1480.411884,9104.533087
4113.951315,459.657299,1110.308913,9326.594869
4113.951631,0.000000,740.205942,9400.615463
4113.951946,-536.266849,-296.082377,9770.718434
4113.952261,-689.485948,-1110.308913,9918.759623
4113.952577,-536.266849,-1554.432478,9844.739029
4113.952892,306.438199,-1554.432478,9918.759623
4113.953207,383.047749,-518.144159,9474.636058
4113.953523,153.219100,740.205942,9326.594869
4113.953838,0.000000,1184.329507,9178.553681
4113.954153,0.000000,1332.370696,9548.656652
4113.954469,-383.047749,370.102971,9770.718434
4113.954784,-612.876398,-0.000000,10140.821405
4113.955099,-459.657299,-962.267725,10214.842000
4113.955414,0.000000,-1406.391290,9992.780217
4113.955730,459.657299,-1332.370696,10140.821405
4113.956045,229.828649,-74.020594,9770.718434
4113.956360,612.876398,814.226536,8882.471304
4113.956676,459.657299,1776.494261,9178.553681
4113.956991,306.438199,1850.514855,9474.636058
4113.957306,229.828649,1110.308913,9474.636058
4113.957622,0.000000,-0.000000,9918.759623
4113.957937,-766.095498,-1184.329507,10214.842000
4113.958252,0.000000,-1480.411884,9844.739029
4113.958568,0.000000,-740.205942,9992.780217
4113.958883,536.266849,-222.061783,9696.697840
4113.959198,0.000000,962.267725,9474.636058
4113.959514,0.000000,1850.514855,9548.656652
4113.959829,76.609550,1628.453072,9696.697840
4113.960144,0.000000,1332.370696,9548.656652
4113.960460,-306.438199,296.082377,10436.903782
4113.960775,-383.047749,-518.144159,9844.739029
4113.961090,76.609550,-1258.350101,9474.636058
4113.961406,842.705048,-1036.288319,9252.574275
4113.961721,1225.752797,-0.000000,9326.594869
4113.962036,689.485948,1036.288319,8956.491898
4113.962351,383.047749,1628.453072,8956.491898
4113.962667,612.876398,1850.514855,9178.553681
4113.962982,153.219100,814.226536,9104.533087
4113.963297,-229.828649,-370.102971,9770.718434
4113.963613,-536.266849,-962.267725,9992.780217
4113.963928,0.000000,-2072.576638,9474.636058
4113.964243,536.266849,-1258.350101,9770.718434
4113.964559,689.485948,-148.041188,9474.636058
4113.964874,383.047749,814.226536,9326.594869
4113.965189,306.438199,1998.556043,9474.636058
4113.965505,229.828649,1776.494261,9474.636058
4113.965820,76.609550,1184.329507,9844.739029
4113.966135,153.219100,-74.020594,9548.656652
4113.966451,-306.438199,-1258.350101,10066.800811
4113.966766,-383.047749,-1406.391290,9548.656652
4113.967081,383.047749,-814.226536,9770.718434
4113.967397,383.047749,-0.000000,9326.594869
4113.967712,153.219100,962.267725,9178.553681
4113.968027,153.219100,1554.432478,9548.656652
4113.968343,0.000000,740.205942,9696.697840
4113.968658,-229.828649,740.205942,9400.615463
4113.968973,-689.485948,-518.144159,9918.759623
4113.969288,-842.705048,-1184.329507,9992.780217
4113.969604,-536.266849,-1628.453072,10140.821405
4113.969919,-383.047749,-814.226536,9770.718434
4113.970234,306.438199,-74.020594,9326.594869
4113.970550,153.219100,1184.329507,9030.512492
4113.970865,153.219100,1702.473667,9474.636058
4113.971180,0.000000,1850.514855,9770.718434
4113.971496,-995.924147,1036.288319,9770.718434
4113.971811,-766.095498,-222.061783,9918.759623
4113.972126,-766.095498,-1036.288319,10066.800811
4113.972442,0.000000,-962.267725,9474.636058
4113.972757,306.438199,-1258.350101,10140.821405
4113.973072,536.266849,-444.123565,8956.491898
4113.973388,459.657299,1036.288319,8808.450710
4113.973703,383.047749,1554.432478,8956.491898
4113.974018,0.000000,1480.411884,9474.636058
4113.974334,-153.219100,1110.308913,9696.697840
4113.974649,-306.438199,370.102971,9622.677246
4113.974964,-306.438199,-740.205942,9844.739029
4113.975280,0.000000,-1332.370696,9474.636058
4113.975595,766.095498,-740.205942,9696.697840
4113.975910,612.876398,-0.000000,9400.615463
4113.976225,689.485948,1628.453072,9474.636058
4113.976541,842.705048,1924.535449,9474.636058
4113.976856,459.657299,1480.411884,9622.677246
4113.977171,306.438199,1036.288319,9844.739029
4113.977487,-229.828649,-74.020594,9918.759623
4113.977802,0.000000,-814.226536,10140.821405
4113.978117,306.438199,-1332.370696,9770.718434
4113.978433,842.705048,-814.226536,9474.636058
4113.978748,459.657299,148.041188,9474.636058
4113.979063,383.047749,740.205942,9030.512492
4113.979379,459.657299,1258.350101,9474.636058
4113.979694,0.000000,888.247130,9844.739029
4113.980009,0.000000,296.082377,9548.656652
4113.980325,-383.047749,-962.267725,10362.883188
4113.980640,-306.438199,-1110.308913,10066.800811
4113.980955,-153.219100,-1702.473667,9622.677246
4113.981271,536.266849,-1036.288319,9770.718434
4113.981586,766.095498,-148.041188,9252.574275
4113.981901,689.485948,814.226536,9104.533087
4113.982217,536.266849,1702.473667,9474.636058
4113.982532,612.876398,1554.432478,9474.636058
4113.982847,306.438199,296.082377,9326.594869
4113.983163,-229.828649,-222.061783,9770.718434
4113.983478,-306.438199,-1258.350101,10214.842000
4113.983793,0.000000,-1406.391290,9696.697840
4113.984108,153.219100,-1184.329507,9696.697840
4113.984424,919.314598,-74.020594,9252.574275
4113.984739,0.000000,962.267725,9030.512492
4113.985054,153.219100,1184.329507,9548.656652
4113.985370,0.000000,1258.350101,9326.594869
4113.985685,-306.438199,296.082377,9622.677246
4113.986000,-536.266849,-518.144159,9918.759623
4113.986316,-842.705048,-1258.350101,10214.842000
4113.986631,0.000000,-1406.391290,9992.780217
4113.986946,459.657299,-444.123565,9548.656652
4113.987262,842.705048,592.164754,9104.533087
4113.987577,689.485948,1110.308913,9252.574275
4113.987892,919.314598,1554.432478,9326.594869
4113.988208,383.047749,1776.494261,9178.553681
4113.988523,-153.219100,888.247130,9474.636058
4113.988838,-459.657299,-444.123565,9844.739029
4113.989154,-459.657299,-1184.329507,9770.718434
4113.989469,306.438199,-1554.432478,9992.780217
4113.989784,0.000000,-888.247130,9622.677246
4113.990100,0.000000,-518.144159,9696.697840
4113.990415,-229.828649,740.205942,9474.636058
4113.990730,-383.047749,1036.288319,9770.718434
4113.991046,-306.438199,814.226536,10214.842000
4113.991361,-612.876398,370.102971,9918.759623
4113.991676,-766.095498,-370.102971,9992.780217
4113.991991,-459.657299,-1110.308913,10140.821405
4113.992307,153.219100,-1110.308913,9474.636058
4113.992622,536.266849,-296.082377,9992.780217
4113.992937,689.485948,592.164754,9030.512492
4113.993253,153.219100,1332.370696,8808.450710
4113.993568,76.609550,1332.370696,9030.512492
4113.993883,76.609550,888.247130,9252.574275
4113.994199,-459.657299,-0.000000,9918.759623
4113.994514,-1225.752797,-1258.350101,9992.780217
4113.994829,-919.314598,-1480.411884,9844.739029
4113.995145,-536.266849,-1554.432478,9474.636058
4113.995460,-153.219100,-962.267725,9326.594869
4113.995775,459.657299,370.102971,9178.553681
4113.996091,76.609550,1554.432478,9178.553681
4113.996406,459.657299,2146.597232,9400.615463
4113.996721,689.485948,1850.514855,9104.533087
4113.997037,612.876398,1184.329507,9104.533087
4113.997352,-306.438199,518.144159,9622.677246
4113.997667,0.000000,-666.185348,9844.739029
4113.997983,536.266849,-518.144159,9770.718434
4113.998298,612.876398,-0.000000,9622.677246
4113.998613,995.924147,740.205942,9474.636058
4113.998929,76.609550,2072.576638,9474.636058
4113.999244,229.828649,1776.494261,9474.636058
4113.999559,153.219100,1406.391290,9992.780217
4113.999874,76.609550,740.205942,9844.739029
4114.000190,-459.657299,-148.041188,9622.677246
4114.000505,-229.828649,-888.247130,10214.842000
4114.000820,76.609550,-666.185348,9622.677246
4114.001136,919.314598,-0.000000,9474.636058
4114.001451,612.876398,740.205942,9252.574275
4114.001766,766.095498,1480.411884,9696.697840
4114.002082,766.095498,1998.556043,9178.553681
4114.002397,229.828649,1776.494261,9548.656652
4114.002712,0.000000,1406.391290,9918.759623
4114.003028,-459.657299,-148.041188,10436.903782
4114.003343,-459.657299,-1258.350101,10362.883188
4114.003658,-229.828649,-1258.350101,10362.883188
4114.003974,383.047749,-666.185348,10140.821405
4114.004289,689.485948,296.082377,9770.718434
4114.004604,536.266849,1406.391290,9548.656652
4114.004920,689.485948,1036.288319,9622.677246
4114.005235,459.657299,888.247130,9992.780217
4114.005550,0.000000,740.205942,9770.718434
4114.005866,153.219100,-222.061783,9696.697840
4114.006181,0.000000,-1036.288319,9696.697840
4114.006496,612.876398,-962.267725,9696.697840
4114.006812,842.705048,-666.185348,9548.656652
4114.007127,612.876398,148.041188,9252.574275
4114.007442,612.876398,888.247130,9252.574275
4114.007757,459.657299,1184.329507,9548.656652
4114.008073,-383.047749,814.226536,9992.780217
4114.008388,-842.705048,296.082377,10214.842000
4114.008703,-919.314598,-962.267725,10214.842000
4114.009019,-689.485948,-1406.391290,9844.739029
4114.009334,0.000000,-1850.514855,9918.759623
4114.009649,383.047749,-814.226536,9252.574275
4114.009965,306.438199,740.205942,8438.347739
4114.010280,306.438199,1258.350101,8734.430116
4114.010595,229.828649,1332.370696,8882.471304
4114.010911,-306.438199,592.164754,8734.430116
4114.011226,-536.266849,-0.000000,9474.636058
4114.011541,-842.705048,-888.247130,9474.636058
4114.011857,-766.095498,-1776.494261,9696.697840
4114.012172,-229.828649,-1776.494261,9548.656652
4114.012487,76.609550,-1480.411884,9622.677246
4114.012803,0.000000,-0.000000,9252.574275
4114.013118,153.219100,888.247130,8882.471304
4114.013433,0.000000,1332.370696,9104.533087
4114.013749,-76.609550,814.226536,9474.636058
4114.014064,-306.438199,-0.000000,9918.759623
4114.014379,-459.657299,-518.144159,9548.656652
4114.014695,-76.609550,-1184.329507,9548.656652
4114.015010,229.828649,-1332.370696,9474.636058
4114.015325,1072.533697,-666.185348,9326.594869
4114.015640,842.705048,-0.000000,9178.553681
4114.015956,306.438199,740.205942,9104.533087
4114.016271,153.219100,814.226536,9474.636058
4114.016586,306.438199,592.164754,9622.677246
4114.016902,-383.047749,-222.061783,9844.739029
4114.017217,-383.047749,-962.267725,9918.759623
4114.017532,0.000000,-1184.329507,10288.862594
4114.017848,306.438199,-1332.370696,9548.656652
4114.018163,1149.143247,-444.123565,9474.636058
4114.018478,995.924147,592.164754,9548.656652
4114.018794,842.705048,1480.411884,9178.553681
4114.019109,612.876398,1628.453072,9252.574275
4114.019424,919.314598,1702.473667,9696.697840
4114.019740,306.438199,666.185348,9844.739029
4114.020055,-153.219100,-148.041188,10066.800811
4114.020370,-76.609550,-814.226536,10214.842000
4114.020686,76.609550,-888.247130,9770.718434
4114.021001,536.266849,-518.144159,9844.739029
4114.021316,536.266849,592.164754,9474.636058
4114.021632,153.219100,1406.391290,9474.636058
4114.021947,153.219100,1554.432478,9770.718434
4114.022262,153.219100,1406.391290,9400.615463
4114.022577,-229.828649,1110.308913,9548.656652
4114.022893,-459.657299,-0.000000,9918.759623
4114.023208,-229.828649,-814.226536,9918.759623
4114.023523,383.047749,-444.123565,9474.636058
4114.023839,766.095498,-0.000000,9104.533087
4114.024154,459.657299,666.185348,9178.553681
4114.024469,0.000000,1554.432478,9252.574275
4114.024785,0.000000,1702.473667,9696.697840
4114.025100,-153.219100,1554.432478,10140.821405
4114.025415,-612.876398,444.123565,9844.739029
4114.025731,-1072.533697,-148.041188,9770.718434
4114.026046,-612.876398,-1184.329507,9622.677246
4114.026361,229.828649,-1184.329507,9548.656652
4114.026677,153.219100,-296.082377,9474.636058
4114.026992,229.828649,962.267725,8956.491898
4114.027307,229.828649,1702.473667,8660.409521
4114.027623,0.000000,1554.432478,9104.533087
4114.027938,306.438199,1554.432478,9400.615463
4114.028253,-306.438199,592.164754,9696.697840
4114.028569,-459.657299,-592.164754,9918.759623
4114.028884,-229.828649,-1258.350101,9918.759623
4114.029199,0.000000,-1110.308913,9770.718434
4114.029515,383.047749,-370.102971,9548.656652
4114.029830,229.828649,592.164754,9326.594869
4114.030145,0.000000,1480.411884,9400.615463
4114.030460,536.266849,1554.432478,9474.636058
4114.030776,0.000000,1258.350101,9474.636058
4114.031091,-536.266849,666.185348,9622.677246
4114.031406,-536.266849,-518.144159,10066.800811
4114.031722,-229.828649,-1184.329507,9918.759623
4114.032037,76.609550,-1258.350101,9918.759623
4114.032352,842.705048,-518.144159,9770.718434
4114.032668,612.876398,518.144159,9252.574275
4114.032983,383.047749,1480.411884,9474.636058
4114.033298,459.657299,1480.411884,9992.780217
4114.033614,0.000000,1184.329507,9696.697840
4114.033929,0.000000,222.061783,10066.800811
4114.034244,-536.266849,-666.185348,10140.821405
4114.034560,-229.828649,-1258.350101,9844.739029
4114.034875,306.438199,-1406.391290,9622.677246
4114.035190,536.266849,-1258.350101,9178.553681
4114.035506,229.828649,-0.000000,9178.553681
4114.035821,383.047749,740.205942,9548.656652
4114.036136,459.657299,1110.308913,9400.615463
4114.036452,153.219100,666.185348,9844.739029
4114.036767,229.828649,-0.000000,10288.862594
4114.037082,-383.047749,-814.226536,9548.656652
4114.037398,-612.876398,-1480.411884,9474.636058
4114.037713,76.609550,-1480.411884,9400.615463
4114.038028,459.657299,-740.205942,9178.553681
4114.038343,766.095498,-0.000000,8660.409521
4114.038659,0.000000,888.247130,9252.574275
4114.038974,76.609550,1110.308913,9474.636058
4114.039289,0.000000,370.102971,9622.677246
4114.039605,-229.828649,-296.082377,9918.759623
4114.039920,0.000000,-1480.411884,9992.780217
4114.040235,0.000000,-1850.514855,9696.697840
4114.040551,383.047749,-1184.329507,9400.615463
4114.040866,1149.143247,-148.041188,9104.533087
4114.041181,536.266849,666.185348,8956.491898
4114.041497,766.095498,1036.288319,9400.615463
4114.041812,459.657299,1776.494261,9104.533087
4114.042127,76.609550,1110.308913,9622.677246
4114.042443,-306.438199,148.041188,9844.739029
4114.042758,-612.876398,-814.226536,9844.739029
4114.043073,0.000000,-1776.494261,9918.759623
4114.043389,229.828649,-1110.308913,9548.656652
4114.043704,919.314598,-370.102971,9548.656652
4114.044019,459.657299,962.267725,9400.615463
4114.044335,306.438199,1850.514855,9400.615463
4114.044650,689.485948,1850.514855,9622.677246
4114.044965,689.485948,1406.391290,9474.636058
4114.045281,459.657299,518.144159,9622.677246
4114.045596,0.000000,-370.102971,9548.656652
4114.045911,383.047749,-1036.288319,9696.697840
4114.046226,766.095498,-740.205942,9696.697840
4114.046542,766.095498,-0.000000,9696.697840
4114.046857,459.657299,1332.370696,9400.615463
4114.047172,536.266849,1258.350101,9400.615463
4114.047488,612.876398,888.247130,9622.677246
4114.047803,153.219100,370.102971,10066.800811
4114.048118,-612.876398,-0.000000,10140.821405
4114.048434,-612.876398,-740.205942,10140.821405
4114.048749,-153.219100,-740.205942,9770.718434
4114.049064,689.485948,-444.123565,9474.636058
4114.049380,1149.143247,444.123565,9696.697840
4114.049695,383.047749,1110.308913,9474.636058
4114.050010,459.657299,1628.453072,9474.636058
4114.050326,229.828649,1776.494261,9844.739029
4114.050641,-383.047749,1258.350101,9622.677246
4114.050956,-689.485948,-0.000000,9844.739029
4114.051272,-919.314598,-666.185348,10140.821405
4114.051587,-766.095498,-1184.329507,9844.739029
4114.051902,0.000000,-1036.288319,9696.697840
4114.052218,153.219100,-222.061783,9548.656652
4114.052533,-306.438199,444.123565,9474.636058
4114.052848,-306.438199,1406.391290,9696.697840
4114.053164,-229.828649,1702.473667,9030.512492
4114.053479,-536.266849,962.267725,9548.656652
4114.053794,-383.047749,518.144159,9992.780217
4114.054109,-995.924147,-518.144159,9992.780217
4114.054425,-612.876398,-1184.329507,9474.636058
4114.054740,229.828649,-592.164754,9474.636058
4114.055055,383.047749,-0.000000,9474.636058
4114.055371,0.000000,962.267725,9030.512492
4114.055686,0.000000,1998.556043,9474.636058
4114.056001,-153.219100,1628.453072,9474.636058
4114.056317,-459.657299,1036.288319,9622.677246
4114.056632,-842.705048,-0.000000,9844.739029
4114.056947,-842.705048,-740.205942,10140.821405
4114.057263,-612.876398,-1924.535449,9622.677246
4114.057578,306.438199,-1332.370696,9474.636058
4114.057893,459.657299,-148.041188,9400.615463
4114.058209,383.047749,740.205942,8956.491898
4114.058524,766.095498,1480.411884,8956.491898
4114.058839,612.876398,1036.288319,9548.656652
4114.059155,612.876398,518.144159,9178.553681
4114.059470,612.876398,-740.205942,9474.636058
4114.059785,229.828649,-1036.288319,9474.636058
4114.060101,76.609550,-1258.350101,9326.594869
4114.060416,1072.533697,-962.267725,9400.615463
4114.060731,1378.971896,-444.123565,9104.533087
4114.061046,995.924147,518.144159,9030.512492
4114.061362,919.314598,1332.370696,8956.491898
4114.061677,1149.143247,888.247130,9474.636058
4114.061992,766.095498,888.247130,9326.594869
4114.062308,306.438199,-888.247130,10288.862594
4114.062623,229.828649,-962.267725,9844.739029
4114.062938,766.095498,-1702.473667,10436.903782
4114.063254,1532.190996,-1036.288319,9992.780217
4114.063569,842.705048,1110.308913,9326.594869
4114.063884,842.705048,1628.453072,8808.450710
4114.064200,1072.533697,1850.514855,9326.594869
4114.064515,612.876398,1554.432478,9844.739029
4114.064830,536.266849,592.164754,10140.821405
4114.065146,-306.438199,-74.020594,9622.677246
4114.065461,-766.095498,-1036.288319,10436.903782
4114.065776,-383.047749,-1554.432478,10066.800811
4114.066092,153.219100,-1110.308913,9770.718434
4114.066407,0.000000,-0.000000,9992.780217
4114.066722,-383.047749,1036.288319,9326.594869
4114.067038,0.000000,1406.391290,9918.759623
4114.067353,0.000000,1776.494261,9548.656652
4114.067668,-536.266849,1036.288319,10288.862594
4114.067984,-919.314598,296.082377,10140.821405
4114.068299,-1072.533697,-592.164754,10140.821405
4114.068614,-459.657299,-888.247130,9696.697840
4114.068929,459.657299,-1110.308913,9474.636058
4114.069245,383.047749,-0.000000,9474.636058
4114.069560,0.000000,1036.288319,9104.533087
4114.069875,-306.438199,1628.453072,9252.574275
4114.070191,-536.266849,1406.391290,9178.553681
4114.070506,-612.876398,-0.000000,10140.821405
4114.070821,-919.314598,-1184.329507,10362.883188
4114.071137,-1302.362347,-1554.432478,10288.862594
4114.071452,-383.047749,-1554.432478,9326.594869
4114.071767,0.000000,-962.267725,9474.636058
4114.072083,536.266849,-74.020594,9252.574275
4114.072398,383.047749,1184.329507,9030.512492
4114.072713,76.609550,1702.473667,9030.512492
4114.073029,383.047749,1406.391290,9474.636058
4114.073344,229.828649,814.226536,9252.574275
4114.073659,229.828649,-222.061783,10066.800811
4114.073974,-306.438199,-1480.411884,9474.636058
4114.074290,76.609550,-1258.350101,9622.677246
4114.074605,842.705048,-888.247130,9474.636058
4114.074920,689.485948,-148.041188,9326.594869
4114.075236,459.657299,666.185348,9400.615463
4114.075551,0.000000,1258.350101,9770.718434
4114.075866,0.000000,888.247130,9844.739029
4114.076181,0.000000,592.164754,9696.697840
4114.076497,76.609550,-296.082377,9844.739029
4114.076812,153.219100,-1258.350101,9844.739029
4114.077127,153.219100,-1036.288319,9548.656652
4114.077443,1149.143247,-444.123565,9178.553681
4114.077758,1455.581446,444.123565,8438.347739
4114.078073,766.095498,1332.370696,9104.533087
4114.078388,612.876398,1776.494261,9178.553681
4114.078704,229.828649,1480.411884,9400.615463
4114.079019,-229.828649,740.205942,9548.656652
4114.079334,-459.657299,-444.123565,9992.780217
4114.079650,-383.047749,-1332.370696,10362.883188
4114.079965,-229.828649,-1332.370696,9622.677246
4114.080280,383.047749,-740.205942,9770.718434
4114.080595,459.657299,444.123565,9400.615463
4114.080911,459.657299,1184.329507,8956.491898
4114.081226,229.828649,1554.432478,8956.491898
4114.081541,153.219100,1776.494261,9474.636058
4114.081857,153.219100,962.267725,9548.656652
4114.082172,-153.219100,-74.020594,9474.636058
4114.082487,0.000000,-740.205942,9696.697840
4114.082802,306.438199,-962.267725,9992.780217
4114.083118,536.266849,-592.164754,9548.656652
4114.083433,766.095498,518.144159,9104.533087
4114.083748,0.000000,1628.453072,8808.450710
4114.084064,306.438199,1702.473667,9474.636058
4114.084379,306.438199,1480.411884,9548.656652
4114.084694,-459.657299,1036.288319,10140.821405
4114.085009,-919.314598,-222.061783,10658.965565
4114.085325,-919.314598,-962.267725,10288.862594
4114.085640,0.000000,-1184.329507,10066.800811
4114.085955,153.219100,-666.185348,10214.842000
4114.086271,383.047749,518.144159,9844.739029
4114.086586,0.000000,1702.473667,9844.739029
4114.086901,229.828649,1776.494261,9548.656652
4114.087216,459.657299,1628.453072,9474.636058
4114.087532,229.828649,592.164754,9918.759623
4114.087847,-536.266849,-148.041188,10066.800811
4114.088162,-536.266849,-740.205942,10066.800811
4114.088478,0.000000,-1036.288319,9474.636058
4114.088793,383.047749,-1110.308913,9918.759623
4114.089108,689.485948,-0.000000,9104.533087
4114.089423,306.438199,1036.288319,9696.697840
4114.089739,459.657299,1184.329507,9474.636058
4114.090054,536.266849,962.267725,9474.636058
4114.090369,0.000000,592.164754,10362.883188
4114.090685,-383.047749,-444.123565,9474.636058
4114.091000,-306.438199,-888.247130,9696.697840
4114.091315,306.438199,-1110.308913,9326.594869
4114.091630,1072.533697,-518.144159,9030.512492
4114.091946,1149.143247,-444.123565,9178.553681
4114.092261,536.266849,1332.370696,8808.450710
4114.092576,76.609550,1110.308913,9326.594869
4114.092892,76.609550,814.226536,9326.594869
4114.093207,76.609550,-222.061783,9474.636058
4114.093522,-766.095498,-888.247130,10510.924376
4114.093837,-1149.143247,-2220.617826,10066.800811
4114.094153,0.000000,-1628.453072,9400.615463
4114.094468,229.828649,-1258.350101,9178.553681
4114.094783,229.828649,-0.000000,8882.471304
4114.095099,459.657299,1850.514855,8660.409521
4114.095414,306.438199,1480.411884,9252.574275
4114.095729,229.828649,962.267725,9474.636058
4114.096044,76.609550,296.082377,9548.656652
4114.096360,-689.485948,-370.102971,9548.656652
4114.096675,-536.266849,-1110.308913,9918.759623
4114.096990,383.047749,-1036.288319,9844.739029
4114.097306,689.485948,-518.144159,9770.718434
4114.097621,612.876398,370.102971,8808.450710
4114.097936,306.438199,1110.308913,9030.512492
4114.098251,229.828649,1110.308913,9696.697840
4114.098567,-229.828649,1036.288319,9770.718434
4114.098882,-612.876398,444.123565,10066.800811
4114.099197,-995.924147,-444.123565,10140.821405
4114.099513,0.000000,-1036.288319,9770.718434
4114.099828,383.047749,-1406.391290,9844.739029
4114.100143,919.314598,-592.164754,9770.718434
4114.100458,612.876398,1184.329507,9104.533087
4114.100774,612.876398,2072.576638,9400.615463
4114.101089,612.876398,1924.535449,9474.636058
4114.101404,689.485948,1332.370696,9474.636058
4114.101720,0.000000,444.123565,9770.718434
4114.102035,-612.876398,-592.164754,10362.883188
4114.102350,-536.266849,-1406.391290,10066.800811
4114.102665,-229.828649,-1554.432478,10066.800811
4114.102981,306.438199,-1110.308913,10066.800811
4114.103296,306.438199,-0.000000,9252.574275
4114.103611,0.000000,814.226536,9252.574275
4114.103927,76.609550,1258.350101,9474.636058
4114.104242,306.438199,1332.370696,9918.759623
4114.104557,76.609550,740.205942,9252.574275
4114.104872,0.000000,-74.020594,9548.656652
4114.105188,0.000000,-962.267725,9622.677246
4114.105503,766.095498,-1110.308913,9622.677246
4114.105818,1225.752797,-296.082377,9622.677246
4114.106134,689.485948,1036.288319,9548.656652
4114.106449,229.828649,1480.411884,9400.615463
4114.106764,383.047749,1554.432478,9696.697840
4114.107079,0.000000,1184.329507,9844.739029
4114.107395,-459.657299,-0.000000,9844.739029
4114.107710,-995.924147,-1110.308913,10066.800811
4114.108025,-689.485948,-1258.350101,10140.821405
4114.108341,-153.219100,-1184.329507,9474.636058
4114.108656,383.047749,-444.123565,9326.594869
4114.108971,229.828649,814.226536,8734.430116
4114.109286,612.876398,1776.494261,8660.409521
4114.109602,383.047749,1628.453072,9400.615463
4114.109917,229.828649,1776.494261,9474.636058
4114.110232,0.000000,1036.288319,9474.636058
4114.110548,-306.438199,-0.000000,9770.718434
4114.110863,-153.219100,-1332.370696,9696.697840
4114.111178,76.609550,-1628.453072,9844.739029
4114.111493,153.219100,-666.185348,9696.697840
4114.111809,229.828649,370.102971,9400.615463
4114.112124,229.828649,1776.494261,9178.553681
4114.112439,-383.047749,1776.494261,8882.471304
4114.112755,-459.657299,1332.370696,9622.677246
4114.113070,-689.485948,-74.020594,9622.677246
4114.113385,-995.924147,-888.247130,9844.739029
4114.113700,-842.705048,-888.247130,9696.697840
4114.114016,0.000000,-1110.308913,9770.718434
4114.114331,689.485948,296.082377,9326.594869
4114.114646,842.705048,1480.411884,8808.450710
4114.114962,383.047749,1628.453072,9400.615463
4114.115277,612.876398,1776.494261,9844.739029
4114.115592,383.047749,1702.473667,9844.739029
4114.115907,229.828649,740.205942,9474.636058
4114.116223,-383.047749,-518.144159,10140.821405
4114.116538,0.000000,-1332.370696,10436.903782
4114.116853,229.828649,-1184.329507,9918.759623
4114.117169,153.219100,-814.226536,10066.800811
4114.117484,383.047749,666.185348,9548.656652
4114.117799,383.047749,1480.411884,9474.636058
4114.118114,536.266849,1406.391290,9844.739029
4114.118430,766.095498,962.267725,9918.759623
4114.118745,153.219100,-74.020594,10140.821405
4114.119060,0.000000,-444.123565,9992.780217
4114.119376,0.000000,-1258.350101,9918.759623
4114.119691,153.219100,-1258.350101,10066.800811
4114.120006,766.095498,-444.123565,9696.697840
4114.120321,766.095498,518.144159,9474.636058
4114.120637,0.000000,962.267725,9548.656652
4114.120952,306.438199,1406.391290,9918.759623
4114.121267,-383.047749,740.205942,10066.800811
4114.121583,-383.047749,-74.020594,9918.759623
4114.121898,-1072.533697,-814.226536,10955.047942
4114.122213,-459.657299,-1554.432478,9992.780217
4114.122528,76.609550,-2146.597232,9548.656652
4114.122844,612.876398,-666.185348,9326.594869
4114.123159,76.609550,444.123565,8808.450710
4114.123474,0.000000,1184.329507,9326.594869
4114.123790,0.000000,1258.350101,9104.533087
4114.124105,0.000000,740.205942,9030.512492
4114.124420,0.000000,148.041188,9178.553681
4114.124735,-229.828649,-888.247130,9252.574275
4114.125051,-229.828649,-1702.473667,9696.697840
4114.125366,689.485948,-1480.411884,9326.594869
4114.125681,842.705048,-740.205942,9326.594869
4114.125997,229.828649,-0.000000,8734.430116
4114.126312,76.609550,888.247130,9104.533087
4114.126627,76.609550,962.267725,9326.594869
4114.126942,76.609550,1036.288319,9326.594869
4114.127258,0.000000,-0.000000,9474.636058
4114.127573,-306.438199,-888.247130,9400.615463
4114.127888,0.000000,-1406.391290,9548.656652
4114.128204,689.485948,-1110.308913,9548.656652
4114.128519,1225.752797,-222.061783,8808.450710
4114.128834,919.314598,814.226536,8734.430116
