#time,accel_x,accel_y,accel_z
4238.095792,76.609550,296.082377,9622.677246
4238.096108,76.609550,-0.000000,9474.636058
4238.096423,612.876398,-0.000000,9548.656652
4238.096738,76.609550,296.082377,9622.677246
4238.097054,76.609550,222.061783,10066.800811
4238.097369,76.609550,-0.000000,10214.842000
4238.097684,76.609550,-0.000000,9844.739029
4238.098000,383.047749,-0.000000,9252.574275
4238.098315,0.000000,296.082377,9918.759623
4238.098631,153.219100,222.061783,10214.842000
4238.098946,76.609550,222.061783,9918.759623
4238.099261,229.828649,-148.041188,9622.677246
4238.099577,0.000000,370.102971,9992.780217
4238.099892,0.000000,-0.000000,9622.677246
4238.100207,76.609550,222.061783,9622.677246
4238.100523,0.000000,-0.000000,9622.677246
4238.100838,0.000000,-148.041188,9696.697840
4238.101153,0.000000,-0.000000,9252.574275
4238.101469,76.609550,296.082377,9326.594869
4238.101784,0.000000,222.061783,9918.759623
4238.102100,0.000000,296.082377,9696.697840
4238.102415,0.000000,-0.000000,9252.574275
4238.102730,0.000000,-0.000000,9548.656652
4238.103046,229.828649,-0.000000,9400.615463
4238.103361,0.000000,148.041188,9400.615463
4238.103676,153.219100,-0.000000,9474.636058
4238.103992,536.266849,-0.000000,9622.677246
4238.104307,306.438199,-0.000000,9178.553681
4238.104622,76.609550,-0.000000,9252.574275
4238.104938,153.219100,444.123565,9474.636058
4238.105253,0.000000,-0.000000,9474.636058
4238.105569,229.828649,370.102971,9548.656652
4238.105884,76.609550,518.144159,9548.656652
4238.106199,383.047749,222.061783,9622.677246
4238.106515,229.828649,370.102971,9622.677246
4238.106830,383.047749,222.061783,9178.553681
4238.107145,383.047749,-0.000000,9474.636058
4238.107461,689.485948,666.185348,9548.656652
4238.107776,383.047749,-0.000000,9622.677246
4238.108092,76.609550,222.061783,10214.842000
4238.108407,0.000000,148.041188,9770.718434
4238.108722,153.219100,296.082377,9622.677246
4238.109038,76.609550,-0.000000,9474.636058
4238.109353,0.000000,-0.000000,10214.842000
4238.109668,306.438199,-0.000000,9844.739029
4238.109984,153.219100,-0.000000,9178.553681
4238.110299,0.000000,-0.000000,9696.697840
4238.110614,229.828649,-0.000000,10140.821405
4238.110930,0.000000,-0.000000,9844.739029
4238.111245,-306.438199,296.082377,9844.739029
4238.111561,0.000000,-0.000000,9696.697840
4238.111876,76.609550,-0.000000,9400.615463
4238.112191,153.219100,592.164754,9030.512492
4238.112507,76.609550,-0.000000,9844.739029
4238.112822,0.000000,-0.000000,9548.656652
4238.113137,0.000000,222.061783,9622.677246
4238.113453,0.000000,-0.000000,9474.636058
4238.113768,0.000000,222.061783,9474.636058
4238.114083,0.000000,296.082377,9548.656652
4238.114399,0.000000,444.123565,9622.677246
4238.114714,306.438199,-0.000000,9474.636058
4238.115030,306.438199,-0.000000,9178.553681
4238.115345,0.000000,222.061783,9474.636058
4238.115660,0.000000,-222.061783,9548.656652
4238.115976,-229.828649,-74.020594,9400.615463
4238.116291,306.438199,-0.000000,9474.636058
4238.116606,0.000000,-222.061783,9400.615463
4238.116922,153.219100,222.061783,9548.656652
4238.117237,153.219100,296.082377,9474.636058
4238.117553,306.438199,222.061783,9326.594869
4238.117868,76.609550,-0.000000,9474.636058
4238.118183,76.609550,-148.041188,9474.636058
4238.118499,229.828649,-0.000000,9844.739029
4238.118814,153.219100,296.082377,9770.718434
4238.119129,0.000000,222.061783,9770.718434
4238.119445,306.438199,296.082377,9548.656652
4238.119760,0.000000,-0.000000,9770.718434
4238.120075,0.000000,-0.000000,9992.780217
4238.120391,0.000000,-0.000000,9770.718434
4238.120706,-153.219100,370.102971,9400.615463
4238.121022,306.438199,296.082377,9474.636058
4238.121337,153.219100,148.041188,9992.780217
4238.121652,153.219100,222.061783,9548.656652
4238.121968,-459.657299,666.185348,9474.636058
4238.122283,-689.485948,296.082377,9548.656652
4238.122598,-383.047749,296.082377,9696.697840
4238.122914,-612.876398,222.061783,9696.697840
4238.123229,-689.485948,370.102971,10066.800811
4238.123545,-766.095498,222.061783,9770.718434
4238.123860,-612.876398,592.164754,9474.636058
4238.124175,-229.828649,666.185348,9400.615463
4238.124491,-689.485948,888.247130,9474.636058
4238.124806,-842.705048,962.267725,9178.553681
4238.125121,-766.095498,740.205942,9252.574275
4238.125437,-1455.581446,1110.308913,8660.409521
4238.125752,-1302.362347,1184.329507,8882.471304
4238.126067,-1762.019645,1406.391290,8882.471304
4238.126383,-2451.505594,1332.370696,9104.533087
4238.126698,-2604.724693,1184.329507,9400.615463
4238.127014,-2451.505594,740.205942,9252.574275
4238.127329,-2757.943793,1258.350101,9770.718434
4238.127644,-2987.772442,1480.411884,9992.780217
4238.127960,-2987.772442,1702.473667,9400.615463
4238.128275,-2681.334243,1998.556043,9474.636058
4238.128590,-2374.896044,1998.556043,9474.636058
4238.128906,-2528.115143,2516.700203,9474.636058
4238.129221,-2298.286494,2960.823768,9622.677246
4238.129536,-2451.505594,2886.803174,9178.553681
4238.129852,-2451.505594,3034.844362,9252.574275
4238.130167,-2221.676944,3034.844362,9326.594869
4238.130483,-2298.286494,3034.844362,9770.718434
4238.130798,-2528.115143,2368.659014,10066.800811
4238.131113,-2298.286494,2516.700203,10510.924376
4238.131429,-2298.286494,2442.679609,10288.862594
4238.131744,-1302.362347,2146.597232,9992.780217
4238.132059,-1685.410096,2368.659014,9696.697840
4238.132375,-1378.971896,2738.761985,9622.677246
4238.132690,-1302.362347,3108.864956,9252.574275
4238.133006,-842.705048,3775.050304,8882.471304
4238.133321,-842.705048,3849.070898,8512.368333
4238.133636,-995.924147,4071.132681,8660.409521
4238.133952,-1608.800546,3775.050304,9252.574275
4238.134267,-2221.676944,2960.823768,9770.718434
4238.134582,-2757.943793,3034.844362,10732.986159
4238.134898,-3140.991542,2738.761985,11103.089130
4238.135213,-2757.943793,2442.679609,11251.130318
4238.135528,-2757.943793,2590.720797,11399.171507
4238.135844,-2451.505594,3404.947333,11029.068536
4238.136159,-2221.676944,3627.009116,10140.821405
4238.136475,-1685.410096,4219.173869,9252.574275
4238.136790,-1378.971896,4737.318029,8882.471304
4238.137105,-1378.971896,4663.297435,8586.388927
4238.137421,-1762.019645,4441.235652,8438.347739
4238.137736,-1915.238745,3701.029710,8808.450710
4238.138051,-2298.286494,2960.823768,9696.697840
4238.138367,-2298.286494,2516.700203,10732.986159
4238.138682,-2604.724693,2220.617826,10881.027347
4238.138997,-2374.896044,2072.576638,11399.171507
4238.139313,-2298.286494,1702.473667,11251.130318
4238.139628,-1608.800546,1924.535449,11029.068536
4238.139944,-612.876398,2442.679609,10214.842000
4238.140259,0.000000,2886.803174,9326.594869
4238.140574,383.047749,3330.926739,8660.409521
4238.140890,383.047749,3552.988522,8216.285956
4238.141205,0.000000,3627.009116,7698.141797
4238.141520,0.000000,3478.967927,7698.141797
4238.141836,-1378.971896,3034.844362,8068.244768
4238.142151,-2221.676944,2812.782580,8882.471304
4238.142467,-3064.381992,1184.329507,9252.574275
4238.142782,-4136.915689,740.205942,10214.842000
4238.143097,-4443.353888,-0.000000,11547.212695
4238.143413,-4749.792088,-0.000000,10881.027347
4238.143728,-4596.572988,-0.000000,11029.068536
4238.144043,-4136.915689,814.226536,11103.089130
4238.144359,-2834.553343,888.247130,10955.047942
4238.144674,-1762.019645,1554.432478,10288.862594
4238.144989,-766.095498,2368.659014,9696.697840
4238.145305,0.000000,3108.864956,8882.471304
4238.145620,689.485948,3330.926739,8734.430116
4238.145936,612.876398,2886.803174,8142.265362
4238.146251,0.000000,2442.679609,7920.203579
4238.146566,-919.314598,2146.597232,7846.182985
4238.146882,-1608.800546,1332.370696,7920.203579
4238.147197,-2987.772442,370.102971,7846.182985
4238.147512,-3907.087040,-444.123565,8438.347739
4238.147828,-5286.058936,-962.267725,9992.780217
4238.148143,-5745.716235,-1554.432478,11473.192101
4238.148459,-4979.620737,-1406.391290,10658.965565
4238.148774,-4366.744339,-1036.288319,11843.295072
4238.149089,-3370.820191,-592.164754,11917.315666
4238.149405,-1608.800546,148.041188,11473.192101
4238.149720,995.924147,1998.556043,10214.842000
4238.150035,2145.067394,3404.947333,8290.306550
4238.150351,2604.724693,4959.379811,6809.894666
4238.150666,2987.772442,6587.832884,6069.688724
4238.150981,1915.238745,5921.647536,5033.400406
4238.151297,536.266849,5107.421000,5403.503377
4238.151612,-1532.190996,3849.070898,7031.956449
4238.151928,-4519.963438,1184.329507,8882.471304
4238.152243,-6052.154434,-2072.576638,12435.459826
4238.152558,-7277.907231,-3775.050304,12805.562797
4238.152874,-7814.174080,-4293.194464,14359.995275
4238.153189,-6435.202183,-3627.009116,14952.160028
4238.153504,-4136.915689,-1924.535449,13101.645173
4238.153820,-1838.629195,1480.411884,10362.883188
4238.154135,612.876398,4811.338623,7179.997637
4238.154450,2298.286494,7994.224174,5329.482782
4238.154766,3447.429741,9696.697840,3849.070898
4238.155081,2757.943793,10214.842000,3997.112087
4238.155397,1072.533697,8068.244768,5551.544565
4238.155712,-612.876398,5181.441594,9104.533087
4238.156027,-2374.896044,1924.535449,12065.356855
4238.156343,-3983.696590,-1924.535449,14582.057057
4238.156658,-5209.449386,-2960.823768,15988.448347
4238.156973,-4979.620737,-3108.864956,15248.242405
4238.157289,-4443.353888,-2368.659014,13323.706956
4238.157604,-3294.210641,518.144159,10807.006753
4238.157920,-2068.457845,3330.926739,9474.636058
4238.158235,-383.047749,6069.688724,5921.647536
4238.158550,459.657299,7031.956449,4441.235652
4238.158866,842.705048,7698.141797,4811.338623
4238.159181,-612.876398,6735.874072,6809.894666
4238.159496,-1302.362347,4811.338623,8290.306550
4238.159812,-1762.019645,2516.700203,10436.903782
4238.160127,-1532.190996,1702.473667,11325.150913
4238.160442,-1685.410096,666.185348,12879.583391
4238.160758,-3217.601092,888.247130,12287.418637
4238.161073,-3600.648841,592.164754,12879.583391
4238.161389,-3524.039291,1924.535449,12139.377449
4238.161704,-3294.210641,3404.947333,10214.842000
4238.162019,-3217.601092,3256.906145,8660.409521
4238.162335,-3370.820191,2960.823768,8068.244768
4238.162650,-2145.067394,3256.906145,7254.018232
4238.162965,-1991.848295,3478.967927,7179.997637
4238.163281,-2298.286494,4071.132681,7994.224174
4238.163596,-1685.410096,3552.988522,9844.739029
4238.163911,-2374.896044,3034.844362,10807.006753
4238.164227,-2068.457845,1924.535449,11473.192101
4238.164542,-1915.238745,592.164754,12065.356855
4238.164858,-1685.410096,-0.000000,11029.068536
4238.165173,-1378.971896,370.102971,10140.821405
4238.165488,-2221.676944,2664.741391,8586.388927
4238.165804,-2221.676944,3552.988522,8216.285956
4238.166119,-1838.629195,4071.132681,7402.059420
4238.166434,-1991.848295,4811.338623,7846.182985
4238.166750,-3447.429741,4219.173869,8142.265362
4238.167065,-3524.039291,2146.597232,9252.574275
4238.167381,-2911.162892,370.102971,11029.068536
4238.167696,-2911.162892,-592.164754,11177.109724
4238.168011,-2374.896044,-1406.391290,12139.377449
4238.168327,-1915.238745,-592.164754,12657.521608
4238.168642,-1149.143247,-74.020594,11621.233289
4238.168957,0.000000,2368.659014,9844.739029
4238.169273,1072.533697,3256.906145,8068.244768
4238.169588,1685.410096,4367.215058,6439.791695
4238.169903,1072.533697,5329.482782,5625.565159
4238.170219,459.657299,4145.153275,5625.565159
4238.170534,-1455.581446,3330.926739,7105.977043
4238.170850,-2987.772442,2368.659014,8512.368333
4238.171165,-3524.039291,-0.000000,9992.780217
4238.171480,-3447.429741,-1702.473667,11325.150913
4238.171796,-3294.210641,-2664.741391,12287.418637
4238.172111,-3600.648841,-2516.700203,14063.912898
4238.172427,-3983.696590,-1258.350101,13915.871710
4238.172742,-3370.820191,1406.391290,11991.336260
4238.173058,-1991.848295,3108.864956,10066.800811
4238.173373,0.000000,4145.153275,7920.203579
4238.173688,1378.971896,5033.400406,6143.709319
4238.174004,1455.581446,4441.235652,6365.771101
4238.174319,536.266849,4367.215058,7105.977043
4238.174635,-1838.629195,4737.318029,7550.100608
4238.174950,-2451.505594,2590.720797,9474.636058
4238.175266,-2528.115143,296.082377,10881.027347
4238.175581,-3064.381992,-1332.370696,11991.336260
4238.175896,-2604.724693,-2516.700203,12953.603985
4238.176212,-3983.696590,-2442.679609,13323.706956
4238.176527,-4903.011187,-888.247130,12065.356855
4238.176843,-3830.477490,666.185348,10510.924376
4238.177158,-1915.238745,2590.720797,8660.409521
4238.177474,0.000000,4145.153275,6587.832884
4238.177789,1149.143247,4071.132681,6513.812290
4238.178104,0.000000,5107.421000,6513.812290
4238.178420,-1991.848295,5033.400406,6661.853478
4238.178735,-1838.629195,4515.256246,8882.471304
4238.179051,-1455.581446,2590.720797,9326.594869
4238.179366,-1072.533697,666.185348,11029.068536
4238.179682,-1838.629195,-222.061783,13101.645173
4238.179997,-4519.963438,-74.020594,12583.501014
4238.180312,-4749.792088,-0.000000,12287.418637
4238.180628,-3753.867940,1554.432478,10881.027347
4238.180943,-2374.896044,3182.885551,9030.512492
4238.181259,-842.705048,3034.844362,8216.285956
4238.181574,-1072.533697,3775.050304,7624.121203
4238.181889,-1991.848295,4071.132681,7328.038826
4238.182205,-1302.362347,3775.050304,7550.100608
4238.182520,-536.266849,3478.967927,8438.347739
4238.182836,76.609550,2146.597232,9326.594869
4238.183151,-842.705048,1332.370696,10732.986159
4238.183467,-1915.238745,888.247130,11251.130318
4238.183782,-1455.581446,518.144159,11621.233289
4238.184097,-1302.362347,962.267725,11103.089130
4238.184413,-383.047749,1776.494261,10807.006753
4238.184728,-612.876398,2368.659014,9770.718434
4238.185044,-1685.410096,3849.070898,8290.306550
4238.185359,-536.266849,2664.741391,8142.265362
4238.185675,0.000000,3256.906145,8068.244768
4238.185990,306.438199,2516.700203,8882.471304
4238.186305,0.000000,1628.453072,9696.697840
4238.186621,-1149.143247,1628.453072,10584.944971
4238.186936,-1455.581446,370.102971,10807.006753
4238.187252,0.000000,-222.061783,11621.233289
4238.187567,1149.143247,-370.102971,11695.253884
4238.187883,1378.971896,-1110.308913,11251.130318
4238.188198,229.828649,-0.000000,10140.821405
4238.188513,-229.828649,1628.453072,9178.553681
4238.188829,1225.752797,2516.700203,8216.285956
4238.189144,2145.067394,2886.803174,7402.059420
4238.189460,1991.848295,2146.597232,7846.182985
4238.189775,76.609550,1776.494261,7105.977043
4238.190091,-842.705048,370.102971,8216.285956
4238.190406,-995.924147,-296.082377,9622.677246
4238.190721,-1378.971896,-1258.350101,11547.212695
4238.191037,-1991.848295,-2294.638420,11917.315666
4238.191352,-2374.896044,-3256.906145,12731.542202
4238.191668,-1072.533697,-2886.803174,11843.295072
4238.191983,766.095498,-1332.370696,10214.842000
4238.192299,1532.190996,740.205942,9104.533087
4238.192614,1991.848295,1924.535449,8956.491898
4238.192929,1838.629195,2960.823768,7328.038826
4238.193245,1991.848295,2664.741391,6809.894666
4238.193560,2221.676944,2294.638420,5847.626942
4238.193876,1991.848295,1480.411884,7846.182985
4238.194191,306.438199,-1258.350101,9844.739029
4238.194506,-1455.581446,-2220.617826,10066.800811
4238.194822,-1685.410096,-2960.823768,11029.068536
4238.195137,-1532.190996,-2664.741391,10881.027347
4238.195453,-842.705048,-3478.967927,12287.418637
4238.195768,-536.266849,-2590.720797,11251.130318
4238.196084,-1685.410096,-1924.535449,10658.965565
4238.196399,153.219100,-814.226536,8660.409521
4238.196714,919.314598,592.164754,7402.059420
4238.197030,2068.457845,1924.535449,6143.709319
4238.197345,1685.410096,1332.370696,7328.038826
4238.197661,0.000000,1702.473667,6513.812290
4238.197976,-459.657299,-444.123565,8734.430116
4238.198292,-306.438199,-740.205942,9178.553681
4238.198607,-766.095498,-2072.576638,11473.192101
4238.198922,-1991.848295,-2442.679609,11769.274478
4238.199238,-2834.553343,-3923.091493,13249.686362
4238.199553,-2221.676944,-3627.009116,11991.336260
4238.199869,-1149.143247,-3404.947333,11029.068536
4238.200184,0.000000,-1258.350101,10140.821405
4238.200500,153.219100,148.041188,8660.409521
4238.200815,-383.047749,1998.556043,6587.832884
4238.201130,612.876398,814.226536,7402.059420
4238.201446,1225.752797,1184.329507,6587.832884
4238.201761,1455.581446,-296.082377,8142.265362
4238.202077,76.609550,-888.247130,9178.553681
4238.202392,-536.266849,-1702.473667,10436.903782
4238.202708,0.000000,-1702.473667,10881.027347
4238.203023,536.266849,-1480.411884,11251.130318
4238.203338,1455.581446,-1332.370696,11251.130318
4238.203654,689.485948,-1702.473667,10510.924376
4238.203969,612.876398,444.123565,9918.759623
4238.204285,153.219100,1184.329507,7772.162391
4238.204600,1685.410096,1702.473667,7846.182985
4238.204916,2757.943793,2220.617826,7328.038826
4238.205231,1072.533697,2220.617826,7179.997637
4238.205546,0.000000,814.226536,8364.327145
4238.205862,383.047749,518.144159,9030.512492
4238.206177,459.657299,740.205942,10288.862594
4238.206493,306.438199,-0.000000,10510.924376
4238.206808,-229.828649,-740.205942,11843.295072
4238.207123,-1225.752797,-518.144159,11177.109724
4238.207439,0.000000,-888.247130,10288.862594
4238.207754,1225.752797,962.267725,10288.862594
4238.208070,1762.019645,2368.659014,9104.533087
4238.208385,842.705048,2812.782580,8734.430116
4238.208701,766.095498,2886.803174,8142.265362
4238.209016,919.314598,2886.803174,7994.224174
4238.209331,995.924147,2812.782580,8290.306550
4238.209647,995.924147,1406.391290,9696.697840
4238.209962,-689.485948,518.144159,10807.006753
4238.210278,-1302.362347,-592.164754,11843.295072
4238.210593,-842.705048,-370.102971,11251.130318
4238.210909,-306.438199,-148.041188,12139.377449
4238.211224,229.828649,-0.000000,11621.233289
4238.211539,0.000000,1036.288319,10436.903782
4238.211855,383.047749,1628.453072,9622.677246
4238.212170,1149.143247,2368.659014,8068.244768
4238.212486,1685.410096,3330.926739,7698.141797
4238.212801,842.705048,2590.720797,8068.244768
4238.213117,-919.314598,1998.556043,8882.471304
4238.213432,-1149.143247,-0.000000,10658.965565
4238.213747,-995.924147,296.082377,10436.903782
4238.214063,-689.485948,-296.082377,11547.212695
4238.214378,-995.924147,-592.164754,12139.377449
4238.214694,-2528.115143,-1184.329507,11843.295072
4238.215009,-2068.457845,-370.102971,11399.171507
4238.215325,-842.705048,296.082377,10214.842000
4238.215640,0.000000,1258.350101,9622.677246
4238.215955,383.047749,1628.453072,8438.347739
4238.216271,-383.047749,1998.556043,7624.121203
4238.216586,-612.876398,1258.350101,8216.285956
4238.216902,153.219100,1184.329507,8808.450710
4238.217217,459.657299,888.247130,9104.533087
4238.217532,-689.485948,-370.102971,9474.636058
4238.217848,-1991.848295,-1628.453072,11325.150913
4238.218163,-1838.629195,-1776.494261,10362.883188
4238.218479,-919.314598,-2072.576638,10066.800811
4238.218794,0.000000,-1480.411884,10584.944971
4238.219110,-536.266849,-1110.308913,9918.759623
4238.219425,-612.876398,-148.041188,9030.512492
4238.219740,383.047749,-370.102971,8512.368333
4238.220056,1302.362347,1258.350101,6957.935855
4238.220371,1685.410096,1036.288319,8216.285956
4238.220687,1378.971896,814.226536,7476.080014
4238.221002,153.219100,-0.000000,8068.244768
4238.221318,536.266849,-296.082377,8734.430116
4238.221633,689.485948,-1554.432478,9622.677246
4238.221948,1072.533697,-1850.514855,10658.965565
4238.222264,76.609550,-1924.535449,10732.986159
4238.222579,-919.314598,-2294.638420,10658.965565
4238.222895,-536.266849,-2442.679609,10436.903782
4238.223210,383.047749,-962.267725,9178.553681
4238.223526,1149.143247,-592.164754,9400.615463
4238.223841,1302.362347,-74.020594,9252.574275
4238.224156,459.657299,592.164754,8882.471304
4238.224472,1532.190996,518.144159,8068.244768
4238.224787,2145.067394,-0.000000,8438.347739
4238.225103,2298.286494,-0.000000,9252.574275
4238.225418,1302.362347,-740.205942,9918.759623
4238.225734,153.219100,-1332.370696,9844.739029
4238.226049,76.609550,-1850.514855,11029.068536
4238.226364,1302.362347,-1776.494261,10881.027347
4238.226680,995.924147,-962.267725,9770.718434
4238.226995,0.000000,-1332.370696,10066.800811
4238.227311,-153.219100,296.082377,8956.491898
4238.227626,459.657299,-0.000000,8438.347739
4238.227942,766.095498,962.267725,7772.162391
4238.228257,766.095498,1332.370696,9252.574275
4238.228572,-229.828649,962.267725,9030.512492
4238.228888,-1302.362347,-0.000000,9474.636058
4238.229203,-459.657299,148.041188,9770.718434
4238.229519,-306.438199,-74.020594,10955.047942
4238.229834,0.000000,-444.123565,11103.089130
4238.230149,-919.314598,-666.185348,11029.068536
4238.230465,-1378.971896,296.082377,10436.903782
4238.230780,-689.485948,1406.391290,9104.533087
4238.231096,0.000000,2516.700203,7772.162391
4238.231411,459.657299,1924.535449,8734.430116
4238.231727,-612.876398,1702.473667,8142.265362
4238.232042,-1225.752797,740.205942,8142.265362
4238.232357,-612.876398,-74.020594,8660.409521
4238.232673,-612.876398,444.123565,10066.800811
4238.232988,-766.095498,-0.000000,10140.821405
4238.233304,-1532.190996,-592.164754,11029.068536
4238.233619,-1838.629195,-222.061783,10584.944971
4238.233935,-689.485948,-74.020594,10214.842000
4238.234250,306.438199,1406.391290,9844.739029
4238.234565,766.095498,1702.473667,9622.677246
4238.234881,229.828649,1998.556043,8882.471304
4238.235196,0.000000,1332.370696,9104.533087
4238.235512,459.657299,2442.679609,8216.285956
4238.235827,306.438199,2220.617826,9252.574275
4238.236143,766.095498,1554.432478,9474.636058
4238.236458,-1149.143247,592.164754,10288.862594
4238.236773,-1302.362347,444.123565,10214.842000
4238.237089,-766.095498,370.102971,10881.027347
4238.237404,0.000000,814.226536,10881.027347
4238.237720,0.000000,296.082377,11177.109724
4238.238035,-919.314598,-0.000000,10807.006753
4238.238351,0.000000,814.226536,10362.883188
4238.238666,766.095498,1406.391290,8808.450710
4238.238981,1762.019645,1628.453072,9178.553681
4238.239297,1915.238745,1924.535449,9400.615463
4238.239612,229.828649,1554.432478,9104.533087
4238.239928,612.876398,1184.329507,9178.553681
4238.240243,1225.752797,296.082377,9770.718434
4238.240559,1991.848295,666.185348,9918.759623
4238.240874,919.314598,-296.082377,9992.780217
4238.241189,612.876398,-740.205942,10658.965565
4238.241505,842.705048,-666.185348,10658.965565
4238.241820,1608.800546,296.082377,9474.636058
4238.242136,3217.601092,962.267725,9326.594869
4238.242451,2145.067394,518.144159,9104.533087
4238.242766,919.314598,592.164754,9252.574275
4238.243082,1072.533697,-0.000000,8364.327145
4238.243397,1991.848295,1110.308913,8660.409521
4238.243713,1608.800546,814.226536,9178.553681
4238.244028,383.047749,-444.123565,9178.553681
4238.244344,-995.924147,-1480.411884,10510.924376
4238.244659,-383.047749,-1184.329507,10066.800811
4238.244974,-153.219100,-2146.597232,10658.965565
4238.245290,536.266849,-518.144159,10584.944971
4238.245605,0.000000,-740.205942,10214.842000
4238.245921,-995.924147,-444.123565,9400.615463
4238.246236,-459.657299,-666.185348,9400.615463
4238.246552,536.266849,222.061783,8734.430116
4238.246867,1149.143247,1258.350101,8586.388927
4238.247182,0.000000,370.102971,8216.285956
4238.247498,-919.314598,-296.082377,9252.574275
4238.247813,0.000000,-592.164754,9030.512492
4238.248129,-766.095498,-1036.288319,9622.677246
4238.248444,-306.438199,-1110.308913,9770.718434
4238.248760,-1378.971896,-1850.514855,10881.027347
4238.249075,-1915.238745,-1776.494261,10658.965565
4238.249390,-1302.362347,-1406.391290,9918.759623
4238.249706,-306.438199,-296.082377,9696.697840
4238.250021,229.828649,-296.082377,9548.656652
4238.250337,-459.657299,-370.102971,9104.533087
4238.250652,-1149.143247,-148.041188,9178.553681
4238.250968,-536.266849,-0.000000,8808.450710
4238.251283,536.266849,1110.308913,9400.615463
4238.251598,306.438199,444.123565,9474.636058
4238.251914,-612.876398,-444.123565,9844.739029
4238.252229,-1532.190996,-962.267725,10362.883188
4238.252545,-766.095498,-1406.391290,9400.615463
4238.252860,306.438199,-1184.329507,10362.883188
4238.253176,76.609550,-1184.329507,9622.677246
4238.253491,-1302.362347,-888.247130,10214.842000
4238.253806,-1378.971896,-962.267725,9474.636058
4238.254122,-383.047749,-222.061783,8586.388927
4238.254437,995.924147,-0.000000,8660.409521
4238.254753,1072.533697,-222.061783,8660.409521
4238.255068,153.219100,-0.000000,9030.512492
4238.255383,76.609550,-518.144159,9030.512492
4238.255699,842.705048,222.061783,8734.430116
4238.256014,1608.800546,814.226536,9548.656652
4238.256330,1608.800546,296.082377,9622.677246
4238.256645,1072.533697,-148.041188,10510.924376
4238.256961,383.047749,148.041188,9844.739029
4238.257276,1225.752797,-0.000000,9622.677246
4238.257591,1378.971896,1036.288319,9622.677246
4238.257907,1532.190996,888.247130,9474.636058
4238.258222,229.828649,1110.308913,9696.697840
4238.258538,919.314598,444.123565,9548.656652
4238.258853,995.924147,592.164754,9030.512492
4238.259169,1838.629195,1480.411884,9696.697840
4238.259484,842.705048,740.205942,9696.697840
4238.259799,0.000000,592.164754,10510.924376
4238.260115,383.047749,740.205942,9844.739029
4238.260430,1225.752797,814.226536,9622.677246
4238.260746,1685.410096,1258.350101,10436.903782
4238.261061,766.095498,1258.350101,10066.800811
4238.261377,-229.828649,1850.514855,9696.697840
4238.261692,0.000000,1258.350101,9770.718434
4238.262007,153.219100,1924.535449,9178.553681
4238.262323,1225.752797,1850.514855,9548.656652
4238.262638,459.657299,1554.432478,9474.636058
4238.262954,-1455.581446,444.123565,10658.965565
4238.263269,-1455.581446,148.041188,9992.780217
4238.263585,0.000000,148.041188,10510.924376
4238.263900,459.657299,962.267725,10362.883188
4238.264215,-536.266849,222.061783,10140.821405
4238.264531,-1378.971896,-0.000000,10288.862594
4238.264846,-536.266849,-74.020594,9474.636058
4238.265162,612.876398,962.267725,9400.615463
4238.265477,1225.752797,1480.411884,9400.615463
4238.265792,-306.438199,1036.288319,9178.553681
4238.266108,-1685.410096,296.082377,9548.656652
4238.266423,-536.266849,-0.000000,9400.615463
4238.266739,-153.219100,-0.000000,9622.677246
4238.267054,0.000000,-0.000000,9622.677246
4238.267370,-766.095498,-666.185348,10066.800811
4238.267685,-2681.334243,-592.164754,9548.656652
4238.268000,-1378.971896,-888.247130,9918.759623
4238.268316,-459.657299,370.102971,10140.821405
4238.268631,-153.219100,-0.000000,10066.800811
4238.268947,-919.314598,-74.020594,9696.697840
4238.269262,-1378.971896,-222.061783,9474.636058
4238.269578,-766.095498,-444.123565,8882.471304
4238.269893,612.876398,222.061783,8586.388927
4238.270209,1149.143247,814.226536,8956.491898
4238.270524,-229.828649,-148.041188,9696.697840
4238.270840,-536.266849,-444.123565,8956.491898
4238.271155,306.438199,-1184.329507,8808.450710
4238.271470,1149.143247,-0.000000,9400.615463
4238.271786,1302.362347,-962.267725,9104.533087
4238.272101,306.438199,-888.247130,9030.512492
4238.272417,-306.438199,-1036.288319,9326.594869
4238.272732,766.095498,-592.164754,7994.224174
4238.273048,1072.533697,-0.000000,8142.265362
4238.273363,1762.019645,-0.000000,9178.553681
4238.273679,689.485948,-0.000000,9030.512492
4238.273994,-229.828649,-370.102971,8882.471304
4238.274309,689.485948,-592.164754,8956.491898
4238.274625,1225.752797,-518.144159,9696.697840
4238.274940,1225.752797,-814.226536,10362.883188
4238.275256,-306.438199,-888.247130,10955.047942
4238.275571,-459.657299,-888.247130,9622.677246
4238.275887,229.828649,-814.226536,10362.883188
4238.276202,1072.533697,-0.000000,9622.677246
4238.276518,1072.533697,-592.164754,10214.842000
4238.276833,0.000000,-370.102971,9326.594869
4238.277149,76.609550,-962.267725,9474.636058
4238.277464,1302.362347,-0.000000,7994.224174
4238.277779,1915.238745,-148.041188,9474.636058
4238.278095,1455.581446,296.082377,9252.574275
4238.278410,76.609550,-518.144159,9844.739029
4238.278726,-153.219100,-592.164754,9474.636058
4238.279041,459.657299,-888.247130,9918.759623
4238.279357,842.705048,-148.041188,10436.903782
4238.279672,612.876398,-222.061783,10214.842000
4238.279988,-1072.533697,-0.000000,10066.800811
4238.280303,-842.705048,-518.144159,9918.759623
4238.280619,-76.609550,-0.000000,9918.759623
4238.280934,842.705048,666.185348,9770.718434
4238.281249,0.000000,1258.350101,10288.862594
4238.281565,-766.095498,1406.391290,9770.718434
4238.281880,-689.485948,1406.391290,9030.512492
4238.282196,306.438199,962.267725,9474.636058
4238.282511,766.095498,1406.391290,10066.800811
4238.282827,-229.828649,370.102971,9474.636058
4238.283142,-1915.238745,-0.000000,9992.780217
4238.283458,-1685.410096,222.061783,9622.677246
4238.283773,-459.657299,814.226536,9104.533087
4238.284089,153.219100,814.226536,9326.594869
4238.284404,-1378.971896,888.247130,9548.656652
4238.284719,-1762.019645,666.185348,9548.656652
4238.285035,-1302.362347,888.247130,9178.553681
4238.285350,-383.047749,1702.473667,9104.533087
4238.285666,536.266849,1480.411884,9548.656652
4238.285981,-229.828649,1036.288319,9548.656652
4238.286297,-842.705048,962.267725,10066.800811
4238.286612,-229.828649,962.267725,9622.677246
4238.286928,1072.533697,2072.576638,9030.512492
4238.287243,1302.362347,1332.370696,9622.677246
4238.287559,0.000000,740.205942,10584.944971
4238.287874,-459.657299,296.082377,9696.697840
4238.288189,229.828649,444.123565,9252.574275
4238.288505,612.876398,740.205942,9326.594869
4238.288820,1532.190996,-222.061783,10214.842000
4238.289136,76.609550,-0.000000,9918.759623
4238.289451,-995.924147,-0.000000,9474.636058
4238.289767,229.828649,-0.000000,9252.574275
4238.290082,1225.752797,444.123565,9548.656652
4238.290398,1225.752797,222.061783,9548.656652
4238.290713,153.219100,666.185348,9770.718434
4238.291028,-459.657299,518.144159,9770.718434
4238.291344,229.828649,-0.000000,9844.739029
4238.291659,1072.533697,962.267725,10066.800811
4238.291975,1149.143247,962.267725,10436.903782
4238.292290,76.609550,666.185348,9696.697840
4238.292606,-229.828649,592.164754,9844.739029
4238.292921,76.609550,518.144159,9400.615463
4238.293237,995.924147,888.247130,10214.842000
4238.293552,612.876398,518.144159,10214.842000
4238.293868,-612.876398,222.061783,10066.800811
4238.294183,-612.876398,-888.247130,9992.780217
4238.294498,0.000000,-518.144159,9770.718434
4238.294814,1072.533697,-74.020594,9548.656652
4238.295129,995.924147,-148.041188,9918.759623
4238.295445,-766.095498,-148.041188,9474.636058
4238.295760,689.485948,-518.144159,9474.636058
4238.296076,1302.362347,148.041188,8512.368333
4238.296391,1685.410096,666.185348,8512.368333
4238.296707,1149.143247,888.247130,9252.574275
4238.297022,612.876398,296.082377,9548.656652
4238.297338,-153.219100,-1036.288319,9252.574275
4238.297653,536.266849,-1110.308913,9178.553681
4238.297968,612.876398,-148.041188,10066.800811
4238.298284,0.000000,-740.205942,9844.739029
4238.298599,-1455.581446,-814.226536,10214.842000
4238.298915,-1378.971896,-1406.391290,9992.780217
4238.299230,-459.657299,-1110.308913,9400.615463
4238.299546,229.828649,-444.123565,9844.739029
4238.299861,0.000000,-592.164754,9030.512492
4238.300177,-689.485948,-666.185348,9252.574275
4238.300492,-153.219100,-1406.391290,9326.594869
4238.300808,612.876398,-814.226536,9178.553681
4238.301123,1072.533697,-0.000000,9252.574275
4238.301438,306.438199,-74.020594,9548.656652
4238.301754,-459.657299,-592.164754,10140.821405
4238.302069,0.000000,-814.226536,9622.677246
4238.302385,536.266849,-740.205942,8660.409521
4238.302700,919.314598,-666.185348,9918.759623
4238.303016,0.000000,-222.061783,9622.677246
4238.303331,-1149.143247,-962.267725,9104.533087
4238.303647,-383.047749,-1184.329507,9918.759623
4238.303962,0.000000,-296.082377,9474.636058
4238.304277,459.657299,-148.041188,9770.718434
4238.304593,0.000000,-0.000000,9400.615463
4238.304908,-995.924147,-74.020594,9474.636058
4238.305224,-153.219100,-444.123565,9326.594869
4238.305539,459.657299,-0.000000,9178.553681
4238.305855,1072.533697,962.267725,9400.615463
4238.306170,-306.438199,740.205942,9178.553681
4238.306486,-995.924147,888.247130,9326.594869
4238.306801,-153.219100,666.185348,9178.553681
4238.307117,0.000000,1110.308913,9326.594869
4238.307432,306.438199,962.267725,9548.656652
4238.307747,-766.095498,592.164754,9474.636058
4238.308063,-1762.019645,148.041188,10066.800811
4238.308378,-153.219100,444.123565,9696.697840
4238.308694,0.000000,1554.432478,9104.533087
4238.309009,612.876398,1258.350101,9918.759623
4238.309325,0.000000,1776.494261,9474.636058
4238.309640,0.000000,740.205942,10214.842000
4238.309956,0.000000,740.205942,9696.697840
4238.310271,689.485948,1406.391290,10584.944971
4238.310587,766.095498,1480.411884,10436.903782
4238.310902,0.000000,1480.411884,9770.718434
4238.311217,-306.438199,592.164754,9992.780217
4238.311533,536.266849,370.102971,9918.759623
4238.311848,1838.629195,1924.535449,10066.800811
4238.312164,1762.019645,1776.494261,9918.759623
4238.312479,1225.752797,1628.453072,10066.800811
4238.312795,919.314598,888.247130,9474.636058
4238.313110,1225.752797,222.061783,9918.759623
4238.313426,1225.752797,1332.370696,10214.842000
4238.313741,689.485948,370.102971,10214.842000
4238.314057,0.000000,-0.000000,10362.883188
4238.314372,-1072.533697,-666.185348,10658.965565
4238.314687,229.828649,-0.000000,9918.759623
4238.315003,1072.533697,444.123565,10066.800811
4238.315318,383.047749,370.102971,10288.862594
4238.315634,-766.095498,296.082377,9844.739029
4238.315949,-383.047749,-148.041188,9696.697840
4238.316265,383.047749,814.226536,9474.636058
4238.316580,1302.362347,740.205942,9696.697840
4238.316896,1225.752797,814.226536,9252.574275
4238.317211,-229.828649,296.082377,9474.636058
4238.317526,306.438199,-0.000000,9252.574275
4238.317842,1455.581446,-0.000000,8586.388927
4238.318157,1225.752797,296.082377,9474.636058
4238.318473,689.485948,-0.000000,9326.594869
4238.318788,-383.047749,-296.082377,8956.491898
4238.319104,-229.828649,-666.185348,9400.615463
4238.319419,229.828649,-1258.350101,7994.224174
4238.319735,612.876398,-1184.329507,9252.574275
4238.320050,306.438199,-888.247130,9400.615463
4238.320366,-1225.752797,-444.123565,8956.491898
4238.320681,-995.924147,-444.123565,9030.512492
4238.320996,-383.047749,-222.061783,9326.594869
4238.321312,842.705048,-0.000000,9548.656652
4238.321627,459.657299,-296.082377,9252.574275
4238.321943,-1225.752797,-296.082377,9400.615463
4238.322258,-1225.752797,-1110.308913,9104.533087
4238.322574,-229.828649,-518.144159,9400.615463
4238.322889,-229.828649,-222.061783,10140.821405
4238.323205,-1378.971896,-0.000000,9696.697840
4238.323520,-2298.286494,-888.247130,9474.636058
4238.323836,-1915.238745,-1406.391290,9474.636058
4238.324151,-1072.533697,-1554.432478,9548.656652
4238.324466,-536.266849,-666.185348,9918.759623
4238.324782,-1149.143247,-370.102971,9622.677246
4238.325097,-1532.190996,-740.205942,9696.697840
4238.325413,-229.828649,-888.247130,9770.718434
4238.325728,306.438199,-444.123565,9030.512492
4238.326044,459.657299,-592.164754,9918.759623
4238.326359,-306.438199,-0.000000,9548.656652
4238.326675,-612.876398,-296.082377,9622.677246
4238.326990,76.609550,-444.123565,8956.491898
4238.327306,536.266849,-74.020594,9326.594869
4238.327621,1302.362347,-296.082377,9696.697840
4238.327936,612.876398,-518.144159,9178.553681
4238.328252,-689.485948,-0.000000,9474.636058
4238.328567,0.000000,-148.041188,9474.636058
4238.328883,995.924147,-0.000000,9992.780217
4238.329198,1455.581446,296.082377,10362.883188
4238.329514,383.047749,370.102971,9548.656652
4238.329829,0.000000,370.102971,9844.739029
4238.330145,459.657299,370.102971,9918.759623
4238.330460,1149.143247,740.205942,9548.656652
4238.330776,1991.848295,1332.370696,9474.636058
4238.331091,919.314598,1480.411884,9104.533087
4238.331406,612.876398,1110.308913,9474.636058
4238.331722,1455.581446,444.123565,10140.821405
4238.332037,1838.629195,1184.329507,9548.656652
4238.332353,1608.800546,740.205942,10658.965565
4238.332668,229.828649,592.164754,9770.718434
4238.332984,995.924147,-0.000000,9326.594869
4238.333299,1608.800546,592.164754,9326.594869
4238.333615,1838.629195,1258.350101,9918.759623
4238.333930,1762.019645,1406.391290,10066.800811
4238.334245,153.219100,962.267725,9474.636058
4238.334561,229.828649,-0.000000,10066.800811
4238.334876,995.924147,370.102971,9770.718434
4238.335192,1532.190996,1332.370696,9844.739029
4238.335507,1302.362347,592.164754,10066.800811
4238.335823,0.000000,-0.000000,10214.842000
4238.336138,-459.657299,-0.000000,9918.759623
4238.336454,153.219100,518.144159,9474.636058
4238.336769,1378.971896,1110.308913,9918.759623
4238.337085,766.095498,592.164754,10362.883188
4238.337400,-1072.533697,666.185348,9474.636058
4238.337715,-1225.752797,-0.000000,9622.677246
4238.338031,-459.657299,-74.020594,9992.780217
4238.338346,-459.657299,370.102971,10214.842000
4238.338662,-612.876398,296.082377,10362.883188
4238.338977,-1991.848295,-0.000000,9992.780217
4238.339293,-1685.410096,-370.102971,9622.677246
4238.339608,-1225.752797,-296.082377,9400.615463
4238.339924,-536.266849,-222.061783,10066.800811
4238.340239,-689.485948,296.082377,9474.636058
4238.340555,-1455.581446,518.144159,9400.615463
4238.340870,-1302.362347,518.144159,9326.594869
4238.341185,-689.485948,-0.000000,8882.471304
4238.341501,153.219100,518.144159,9918.759623
4238.341816,-306.438199,-74.020594,8882.471304
4238.342132,-1608.800546,-74.020594,9252.574275
4238.342447,-995.924147,-74.020594,9030.512492
4238.342763,-919.314598,296.082377,8808.450710
4238.343078,306.438199,-74.020594,9030.512492
4238.343394,0.000000,-296.082377,9252.574275
4238.343709,-842.705048,-370.102971,8882.471304
4238.344025,-689.485948,-370.102971,8882.471304
4238.344340,-459.657299,148.041188,9104.533087
4238.344655,459.657299,518.144159,9252.574275
4238.344971,153.219100,666.185348,9474.636058
4238.345286,-766.095498,222.061783,8956.491898
4238.345602,-306.438199,-666.185348,9474.636058
4238.345917,-229.828649,-148.041188,9622.677246
4238.346233,612.876398,-74.020594,10362.883188
4238.346548,-153.219100,-296.082377,10214.842000
4238.346864,-459.657299,-148.041188,10881.027347
4238.347179,229.828649,-148.041188,9474.636058
4238.347494,1225.752797,222.061783,9474.636058
4238.347810,2451.505594,518.144159,10288.862594
4238.348125,1455.581446,962.267725,9252.574275
4238.348441,995.924147,592.164754,8734.430116
4238.348756,1915.238745,-0.000000,9178.553681
4238.349072,2681.334243,666.185348,8882.471304
4238.349387,2604.724693,-296.082377,9992.780217
4238.349703,1302.362347,-0.000000,9918.759623
4238.350018,153.219100,-592.164754,9918.759623
4238.350334,919.314598,-74.020594,9844.739029
4238.350649,1302.362347,-370.102971,10288.862594
4238.350964,1455.581446,-74.020594,10288.862594
4238.351280,919.314598,-74.020594,9844.739029
4238.351595,0.000000,-0.000000,10214.842000
4238.351911,612.876398,444.123565,9696.697840
4238.352226,842.705048,962.267725,9474.636058
4238.352542,1455.581446,962.267725,9696.697840
4238.352857,153.219100,666.185348,9770.718434
4238.353173,0.000000,518.144159,9474.636058
4238.353488,0.000000,-0.000000,10140.821405
4238.353804,536.266849,814.226536,10066.800811
4238.354119,459.657299,592.164754,10140.821405
4238.354434,-1149.143247,222.061783,9474.636058
4238.354750,-1455.581446,-370.102971,9474.636058
4238.355065,-995.924147,-814.226536,9474.636058
4238.355381,-229.828649,222.061783,9474.636058
4238.355696,-842.705048,-222.061783,9474.636058
4238.356012,-2068.457845,-0.000000,9696.697840
4238.356327,-1762.019645,-74.020594,8808.450710
4238.356643,-306.438199,-0.000000,8512.368333
4238.356958,0.000000,370.102971,9548.656652
4238.357274,0.000000,-148.041188,9548.656652
4238.357589,-919.314598,-0.000000,9992.780217
4238.357904,-1455.581446,666.185348,9178.553681
4238.358220,-459.657299,-222.061783,8956.491898
4238.358535,-229.828649,592.164754,9326.594869
4238.358851,0.000000,-222.061783,9844.739029
4238.359166,-1532.190996,-0.000000,9400.615463
4238.359482,-1762.019645,-222.061783,9474.636058
4238.359797,-1302.362347,-222.061783,9030.512492
4238.360113,-153.219100,666.185348,9474.636058
4238.360428,-612.876398,370.102971,9548.656652
4238.360744,-1378.971896,-0.000000,9548.656652
4238.361059,-1302.362347,-814.226536,9548.656652
4238.361374,-153.219100,-296.082377,9474.636058
4238.361690,306.438199,296.082377,9696.697840
4238.362005,153.219100,592.164754,9326.594869
4238.362321,-612.876398,518.144159,9178.553681
4238.362636,-383.047749,-0.000000,8956.491898
4238.362952,306.438199,-0.000000,9104.533087
4238.363267,1225.752797,296.082377,9474.636058
4238.363583,919.314598,-0.000000,9548.656652
4238.363898,-153.219100,296.082377,9844.739029
4238.364213,153.219100,518.144159,9400.615463
4238.364529,1302.362347,-0.000000,9696.697840
4238.364844,2145.067394,444.123565,9770.718434
4238.365160,1838.629195,-444.123565,10066.800811
4238.365475,919.314598,296.082377,9622.677246
4238.365791,995.924147,740.205942,9844.739029
4238.366106,1838.629195,666.185348,9252.574275
4238.366422,2528.115143,740.205942,9918.759623
4238.366737,1838.629195,1184.329507,9474.636058
4238.367053,919.314598,222.061783,8956.491898
4238.367368,689.485948,-296.082377,10362.883188
4238.367683,1378.971896,666.185348,9252.574275
4238.367999,1455.581446,296.082377,9770.718434
4238.368314,76.609550,666.185348,10362.883188
4238.368630,-306.438199,296.082377,9992.780217
4238.368945,0.000000,-0.000000,9918.759623
4238.369261,612.876398,370.102971,10066.800811
4238.369576,1149.143247,296.082377,10807.006753
4238.369892,0.000000,518.144159,9622.677246
4238.370208,-1225.752797,222.061783,9696.697840
4238.370523,0.000000,148.041188,9252.574275
4238.370839,306.438199,740.205942,9104.533087
4238.371154,1225.752797,444.123565,9474.636058
4238.371470,-536.266849,370.102971,9400.615463
4238.371786,-1378.971896,-0.000000,9178.553681
4238.372101,-383.047749,-592.164754,9474.636058
4238.372417,-383.047749,370.102971,9918.759623
4238.372732,153.219100,-370.102971,10140.821405
4238.373048,-383.047749,-592.164754,9992.780217
4238.373364,-919.314598,-74.020594,9474.636058
4238.373679,-383.047749,-296.082377,9696.697840
4238.373995,0.000000,888.247130,9548.656652
4238.374310,229.828649,444.123565,10066.800811
4238.374626,-766.095498,592.164754,9548.656652
4238.374942,-1225.752797,518.144159,9178.553681
4238.375257,-689.485948,-74.020594,9104.533087
4238.375573,-306.438199,-0.000000,9474.636058
4238.375888,153.219100,-222.061783,9696.697840
4238.376204,-1302.362347,-0.000000,8660.409521
4238.376520,-1378.971896,-592.164754,9770.718434
4238.376835,-612.876398,-444.123565,8956.491898
4238.377151,0.000000,-148.041188,9474.636058
4238.377466,-229.828649,-0.000000,9178.553681
4238.377782,-995.924147,-370.102971,9400.615463
4238.378098,-1302.362347,-370.102971,9622.677246
4238.378413,-459.657299,-444.123565,8808.450710
4238.378729,536.266849,-222.061783,9252.574275
4238.379044,612.876398,-0.000000,9992.780217
4238.379360,-383.047749,-0.000000,9252.574275
4238.379676,-536.266849,-74.020594,9400.615463
4238.379991,153.219100,-74.020594,9474.636058
4238.380307,1149.143247,592.164754,9252.574275
4238.380622,1149.143247,370.102971,9400.615463
4238.380938,383.047749,-296.082377,9400.615463
4238.381254,0.000000,-444.123565,9918.759623
4238.381569,76.609550,-518.144159,9030.512492
4238.381885,1149.143247,370.102971,9400.615463
4238.382200,1378.971896,-222.061783,9992.780217
4238.382516,612.876398,592.164754,9252.574275
4238.382832,1302.362347,-0.000000,8660.409521
4238.383147,1302.362347,444.123565,8586.388927
4238.383463,1991.848295,518.144159,9844.739029
4238.383778,1762.019645,666.185348,9474.636058
4238.384094,153.219100,740.205942,9622.677246
4238.384410,306.438199,592.164754,9622.677246
4238.384725,1072.533697,666.185348,9474.636058
4238.385041,1149.143247,666.185348,10510.924376
4238.385356,306.438199,-0.000000,11251.130318
4238.385672,-919.314598,370.102971,10584.944971
4238.385988,-459.657299,-0.000000,10214.842000
4238.386303,459.657299,1184.329507,9548.656652
4238.386619,842.705048,888.247130,10510.924376
4238.386934,766.095498,962.267725,10140.821405
4238.387250,0.000000,962.267725,9844.739029
4238.387566,-995.924147,592.164754,10214.842000
4238.387881,459.657299,666.185348,10140.821405
4238.388197,1302.362347,1184.329507,9548.656652
4238.388512,459.657299,-74.020594,9992.780217
4238.388828,-459.657299,370.102971,9992.780217
4238.389144,-612.876398,222.061783,9474.636058
4238.389459,-383.047749,444.123565,9548.656652
4238.389775,842.705048,296.082377,10510.924376
4238.390090,-306.438199,888.247130,9696.697840
4238.390406,-1455.581446,-148.041188,9622.677246
4238.390722,-1378.971896,-222.061783,10066.800811
4238.391037,-536.266849,370.102971,9844.739029
4238.391353,229.828649,-0.000000,9696.697840
4238.391669,-459.657299,148.041188,9548.656652
4238.391984,-1072.533697,-0.000000,9992.780217
4238.392300,-306.438199,-222.061783,9400.615463
4238.392615,76.609550,-148.041188,9474.636058
4238.392931,919.314598,814.226536,9696.697840
4238.393247,-536.266849,444.123565,8882.471304
4238.393562,-1072.533697,222.061783,8290.306550
4238.393878,-612.876398,-518.144159,9252.574275
4238.394193,153.219100,-666.185348,9474.636058
4238.394509,306.438199,-666.185348,9696.697840
4238.394825,-995.924147,-592.164754,9400.615463
4238.395140,-1302.362347,-814.226536,9252.574275
4238.395456,0.000000,-666.185348,8734.430116
4238.395771,766.095498,-222.061783,9326.594869
4238.396087,1532.190996,-222.061783,9474.636058
4238.396403,536.266849,148.041188,8808.450710
4238.396718,-459.657299,74.020594,9474.636058
4238.397034,536.266849,296.082377,8586.388927
4238.397349,1302.362347,888.247130,9474.636058
4238.397665,1685.410096,148.041188,9400.615463
4238.397981,689.485948,148.041188,9474.636058
4238.398296,-76.609550,-222.061783,9178.553681
4238.398612,76.609550,-518.144159,9696.697840
4238.398927,995.924147,148.041188,9474.636058
4238.399243,766.095498,-74.020594,9844.739029
4238.399559,-459.657299,-0.000000,9992.780217
4238.399874,-306.438199,-444.123565,9696.697840
4238.400190,0.000000,-740.205942,8512.368333
4238.400505,1225.752797,-814.226536,9992.780217
4238.400821,766.095498,222.061783,9844.739029
4238.401137,-383.047749,666.185348,9178.553681
4238.401452,-229.828649,370.102971,9474.636058
4238.401768,536.266849,518.144159,9030.512492
4238.402083,1378.971896,814.226536,9548.656652
4238.402399,1302.362347,518.144159,9548.656652
4238.402715,-229.828649,666.185348,10436.903782
4238.403030,-383.047749,-444.123565,10288.862594
4238.403346,459.657299,296.082377,9548.656652
4238.403661,842.705048,740.205942,10066.800811
4238.403977,306.438199,444.123565,9992.780217
4238.404293,-689.485948,-0.000000,10362.883188
4238.404608,-383.047749,-444.123565,10362.883188
4238.404924,306.438199,518.144159,9326.594869
4238.405239,1532.190996,222.061783,9844.739029
4238.405555,689.485948,222.061783,10214.842000
4238.405871,-459.657299,444.123565,9992.780217
4238.406186,-689.485948,-0.000000,8956.491898
4238.406502,229.828649,-0.000000,10140.821405
4238.406817,1302.362347,740.205942,10288.862594
4238.407133,383.047749,592.164754,9696.697840
4238.407449,-612.876398,814.226536,9252.574275
4238.407764,0.000000,-222.061783,9770.718434
4238.408080,383.047749,-0.000000,9918.759623
4238.408395,536.266849,370.102971,10807.006753
4238.408711,-459.657299,666.185348,9992.780217
4238.409027,-1225.752797,296.082377,10140.821405
4238.409342,-612.876398,-74.020594,9696.697840
4238.409658,229.828649,148.041188,9992.780217
4238.409973,766.095498,814.226536,9844.739029
4238.410289,-229.828649,370.102971,9918.759623
4238.410605,-919.314598,222.061783,9104.533087
4238.410920,-229.828649,-444.123565,8882.471304
4238.411236,766.095498,296.082377,9178.553681
4238.411551,1225.752797,-444.123565,9252.574275
4238.411867,-153.219100,-0.000000,9474.636058
4238.412183,-1302.362347,-0.000000,9104.533087
4238.412498,-536.266849,-1184.329507,9474.636058
4238.412814,459.657299,-444.123565,9400.615463
4238.413129,1455.581446,-148.041188,9474.636058
4238.413445,153.219100,-74.020594,9400.615463
4238.413761,-919.314598,-74.020594,8512.368333
4238.414076,0.000000,-370.102971,9178.553681
4238.414392,536.266849,370.102971,9030.512492
4238.414707,919.314598,296.082377,9400.615463
4238.415023,306.438199,370.102971,9030.512492
4238.415339,-306.438199,-0.000000,8882.471304
4238.415654,0.000000,-740.205942,9326.594869
4238.415970,306.438199,-0.000000,9252.574275
4238.416286,459.657299,296.082377,10362.883188
4238.416601,-459.657299,-0.000000,9622.677246
4238.416917,-1225.752797,-370.102971,9770.718434
4238.417232,0.000000,-814.226536,9474.636058
4238.417548,1072.533697,-296.082377,9548.656652
4238.417864,1149.143247,-0.000000,10140.821405
4238.418179,0.000000,1184.329507,8586.388927
4238.418495,0.000000,370.102971,8808.450710
4238.418810,842.705048,-0.000000,8882.471304
4238.419126,1378.971896,444.123565,8882.471304
4238.419442,1149.143247,-0.000000,9918.759623
4238.419757,-153.219100,444.123565,9622.677246
4238.420073,-383.047749,-296.082377,10288.862594
4238.420388,-306.438199,-74.020594,9992.780217
4238.420704,229.828649,222.061783,10658.965565
4238.421020,306.438199,-148.041188,10510.924376
4238.421335,-1225.752797,296.082377,10510.924376
4238.421651,-919.314598,296.082377,10288.862594
4238.421966,0.000000,888.247130,9474.636058
4238.422282,612.876398,962.267725,9474.636058
4238.422598,612.876398,814.226536,9918.759623
4238.422913,-689.485948,592.164754,10288.862594
4238.423229,0.000000,222.061783,9696.697840
4238.423544,536.266849,148.041188,9844.739029
4238.423860,689.485948,444.123565,9696.697840
4238.424176,153.219100,740.205942,10140.821405
4238.424491,-766.095498,518.144159,9252.574275
4238.424807,-766.095498,-370.102971,9548.656652
4238.425122,0.000000,-0.000000,9474.636058
4238.425438,612.876398,222.061783,9992.780217
4238.425754,229.828649,-0.000000,10214.842000
4238.426069,-766.095498,518.144159,9918.759623
4238.426385,0.000000,-0.000000,9474.636058
4238.426700,919.314598,222.061783,9178.553681
4238.427016,1149.143247,962.267725,9696.697840
4238.427332,995.924147,222.061783,10066.800811
4238.427647,0.000000,222.061783,9030.512492
4238.427963,0.000000,-74.020594,8734.430116
4238.428278,1072.533697,666.185348,9178.553681
4238.428594,1762.019645,518.144159,9696.697840
4238.428910,306.438199,-0.000000,9622.677246
4238.429225,-229.828649,-0.000000,9326.594869
4238.429541,-612.876398,-1036.288319,9178.553681
4238.429856,306.438199,-296.082377,9474.636058
4238.430172,536.266849,-0.000000,9918.759623
4238.430488,-612.876398,370.102971,9474.636058
4238.430803,-1225.752797,-148.041188,9252.574275
4238.431119,-919.314598,-1036.288319,9844.739029
4238.431434,-306.438199,-0.000000,10436.903782
4238.431750,459.657299,444.123565,9770.718434
4238.432066,-689.485948,962.267725,9770.718434
4238.432381,-1225.752797,-0.000000,9622.677246
4238.432697,0.000000,-0.000000,9474.636058
4238.433012,536.266849,888.247130,9178.553681
4238.433328,612.876398,666.185348,9770.718434
4238.433644,-766.095498,740.205942,9696.697840
4238.433959,-1455.581446,666.185348,9252.574275
4238.434275,-766.095498,-0.000000,9030.512492
4238.434590,229.828649,-370.102971,9622.677246
4238.434906,766.095498,-814.226536,9918.759623
4238.435222,-229.828649,-666.185348,9474.636058
4238.435537,-1455.581446,-148.041188,9178.553681
4238.435853,-536.266849,-0.000000,9030.512492
4238.436168,229.828649,222.061783,9474.636058
4238.436484,1149.143247,-0.000000,9178.553681
4238.436800,-383.047749,592.164754,9030.512492
4238.437115,-536.266849,-296.082377,9030.512492
4238.437431,-306.438199,-148.041188,9622.677246
4238.437746,995.924147,1110.308913,9474.636058
4238.438062,842.705048,444.123565,9770.718434
4238.438378,-229.828649,1036.288319,9844.739029
4238.438693,-536.266849,-0.000000,9474.636058
4238.439009,536.266849,-74.020594,9622.677246
4238.439324,1455.581446,888.247130,9918.759623
4238.439640,612.876398,888.247130,9992.780217
4238.439956,-229.828649,666.185348,9474.636058
4238.440271,-153.219100,-222.061783,9548.656652
4238.440587,0.000000,-444.123565,9178.553681
4238.440902,919.314598,-74.020594,10214.842000
4238.441218,536.266849,296.082377,9770.718434
4238.441534,-689.485948,148.041188,10066.800811
4238.441849,0.000000,-222.061783,9696.697840
4238.442165,842.705048,-148.041188,9400.615463
4238.442481,1685.410096,962.267725,9548.656652
4238.442796,1455.581446,370.102971,9400.615463
4238.443112,842.705048,296.082377,9992.780217
4238.443427,536.266849,148.041188,9844.739029
4238.443743,1149.143247,1036.288319,9178.553681
4238.444059,1685.410096,814.226536,10288.862594
4238.444374,1378.971896,592.164754,9770.718434
4238.444690,383.047749,740.205942,10362.883188
4238.445005,0.000000,-444.123565,9474.636058
4238.445321,0.000000,-74.020594,9622.677246
4238.445637,766.095498,-518.144159,9474.636058
4238.445952,0.000000,-666.185348,10140.821405
4238.446268,-1455.581446,-0.000000,9474.636058
4238.446583,-995.924147,-1332.370696,9104.533087
4238.446899,0.000000,-962.267725,9400.615463
4238.447215,689.485948,-444.123565,9548.656652
4238.447530,76.609550,-0.000000,8808.450710
4238.447846,-689.485948,592.164754,8956.491898
4238.448161,-306.438199,222.061783,8586.388927
4238.448477,306.438199,444.123565,8956.491898
4238.448793,1608.800546,370.102971,9770.718434
4238.449108,0.000000,666.185348,9696.697840
4238.449424,-1302.362347,222.061783,8956.491898
4238.449739,-919.314598,-592.164754,9622.677246
4238.450055,76.609550,-74.020594,10066.800811
4238.450371,383.047749,-296.082377,9844.739029
4238.450686,-459.657299,-148.041188,10140.821405
4238.451002,-1532.190996,-148.041188,9918.759623
4238.451317,-842.705048,-1036.288319,9548.656652
4238.451633,229.828649,-74.020594,9104.533087
4238.451949,229.828649,222.061783,9770.718434
4238.452264,229.828649,-0.000000,9400.615463
4238.452580,-459.657299,-0.000000,9252.574275
4238.452895,459.657299,-296.082377,8956.491898
4238.453211,995.924147,592.164754,9252.574275
4238.453527,1608.800546,1332.370696,9622.677246
4238.453842,383.047749,740.205942,8734.430116
4238.454158,0.000000,370.102971,9178.553681
4238.454473,383.047749,-0.000000,9474.636058
4238.454789,306.438199,222.061783,9326.594869
4238.455105,0.000000,-222.061783,10510.924376
4238.455420,-1532.190996,370.102971,9844.739029
4238.455736,-1455.581446,-296.082377,9844.739029
4238.456051,-766.095498,-592.164754,9844.739029
4238.456367,76.609550,-0.000000,10140.821405
4238.456683,612.876398,-0.000000,10066.800811
4238.456998,-459.657299,666.185348,9844.739029
4238.457314,-689.485948,-74.020594,9696.697840
4238.457629,842.705048,-0.000000,9474.636058
4238.457945,1608.800546,1258.350101,9104.533087
4238.458261,2221.676944,962.267725,9178.553681
4238.458576,459.657299,1184.329507,9474.636058
4238.458892,689.485948,592.164754,8956.491898
4238.459207,995.924147,518.144159,8956.491898
4238.459523,1302.362347,296.082377,9474.636058
4238.459839,995.924147,-444.123565,10214.842000
4238.460154,306.438199,-444.123565,9622.677246
4238.460470,-153.219100,-888.247130,9474.636058
4238.460785,-383.047749,-0.000000,9326.594869
4238.461101,459.657299,296.082377,10288.862594
4238.461417,1072.533697,444.123565,10362.883188
4238.461732,-612.876398,1332.370696,8956.491898
4238.462048,-229.828649,74.020594,9918.759623
4238.462363,306.438199,-0.000000,8808.450710
4238.462679,1225.752797,666.185348,10214.842000
4238.462995,1149.143247,814.226536,9992.780217
4238.463310,-1072.533697,666.185348,9696.697840
4238.463626,-612.876398,-0.000000,8882.471304
4238.463941,-306.438199,-148.041188,9548.656652
4238.464257,229.828649,444.123565,9918.759623
4238.464573,-306.438199,-0.000000,9770.718434
4238.464888,-1532.190996,-148.041188,9696.697840
4238.465204,-1149.143247,-888.247130,9696.697840
4238.465519,-766.095498,-740.205942,9696.697840
4238.465835,76.609550,296.082377,10140.821405
4238.466151,76.609550,-222.061783,10066.800811
4238.466466,-766.095498,-0.000000,9548.656652
4238.466782,-383.047749,-444.123565,9844.739029
4238.467098,153.219100,-0.000000,9400.615463
4238.467413,1149.143247,1110.308913,9622.677246
4238.467729,766.095498,592.164754,9474.636058
4238.468044,-306.438199,518.144159,9474.636058
4238.468360,-229.828649,-296.082377,9252.574275
4238.468676,0.000000,-0.000000,9474.636058
4238.468991,536.266849,592.164754,9548.656652
4238.469307,229.828649,-0.000000,9548.656652
4238.469622,-1072.533697,-444.123565,10140.821405
4238.469938,-536.266849,-518.144159,8956.491898
4238.470254,-383.047749,-592.164754,10066.800811
4238.470569,306.438199,-74.020594,9844.739029
4238.470885,-306.438199,444.123565,9474.636058
4238.471200,-536.266849,-0.000000,8512.368333
4238.471516,459.657299,-518.144159,9252.574275
4238.471832,995.924147,666.185348,9252.574275
4238.472147,1838.629195,-74.020594,9474.636058
4238.472463,919.314598,518.144159,10066.800811
4238.472779,383.047749,-222.061783,10288.862594
4238.473094,689.485948,-444.123565,9178.553681
4238.473410,1072.533697,-74.020594,9400.615463
4238.473726,1532.190996,-222.061783,9400.615463
4238.474041,0.000000,-0.000000,8660.409521
4238.474357,153.219100,-370.102971,9326.594869
4238.474672,153.219100,-740.205942,9326.594869
4238.474988,766.095498,-222.061783,9918.759623
4238.475304,1532.190996,-0.000000,9992.780217
4238.475619,229.828649,444.123565,9844.739029
4238.475935,-612.876398,222.061783,10140.821405
4238.476251,306.438199,-296.082377,9474.636058
4238.476566,919.314598,592.164754,10140.821405
4238.476882,1302.362347,1110.308913,10510.924376
4238.477198,-459.657299,962.267725,9844.739029
4238.477513,-919.314598,740.205942,9474.636058
4238.477829,0.000000,444.123565,9770.718434
4238.478145,459.657299,888.247130,10140.821405
4238.478460,536.266849,444.123565,10066.800811
4238.478776,-689.485948,740.205942,9622.677246
4238.479091,-919.314598,-0.000000,8660.409521
4238.479407,-459.657299,-148.041188,9622.677246
4238.479723,306.438199,666.185348,9252.574275
4238.480038,689.485948,-74.020594,9770.718434
4238.480354,-459.657299,814.226536,9548.656652
4238.480670,-1149.143247,-74.020594,8882.471304
4238.480985,0.000000,-0.000000,9548.656652
4238.481301,306.438199,740.205942,10214.842000
4238.481617,229.828649,296.082377,10510.924376
4238.481932,-383.047749,444.123565,9474.636058
4238.482248,-995.924147,-222.061783,9252.574275
4238.482564,-229.828649,-222.061783,9770.718434
4238.482879,919.314598,222.061783,10362.883188
4238.483195,459.657299,1110.308913,9918.759623
4238.483510,-1072.533697,1036.288319,9326.594869
4238.483826,-919.314598,518.144159,8734.430116
4238.484142,306.438199,148.041188,9104.533087
4238.484457,766.095498,370.102971,9474.636058
4238.484773,1149.143247,-0.000000,9400.615463
4238.485089,-1149.143247,296.082377,9178.553681
4238.485404,-689.485948,-296.082377,9400.615463
4238.485720,76.609550,148.041188,9326.594869
4238.486036,383.047749,370.102971,9326.594869
4238.486351,229.828649,518.144159,10288.862594
4238.486667,-919.314598,518.144159,9474.636058
4238.486982,-689.485948,-222.061783,9696.697840
4238.487298,153.219100,370.102971,9548.656652
4238.487614,1149.143247,592.164754,10066.800811
4238.487929,766.095498,-148.041188,10732.986159
4238.488245,153.219100,-0.000000,9548.656652
4238.488561,766.095498,-444.123565,9400.615463
4238.488876,1838.629195,518.144159,9474.636058
4238.489192,2298.286494,1184.329507,9474.636058
4238.489508,1608.800546,1036.288319,9178.553681
4238.489823,766.095498,296.082377,8882.471304
4238.490139,1149.143247,-592.164754,9474.636058
4238.490455,995.924147,-888.247130,9548.656652
4238.490770,919.314598,-222.061783,10066.800811
4238.491086,229.828649,-518.144159,10510.924376
4238.491401,-1072.533697,-296.082377,9696.697840
4238.491717,0.000000,-814.226536,9252.574275
4238.492033,153.219100,-296.082377,9844.739029
4238.492348,306.438199,-0.000000,10214.842000
4238.492664,0.000000,222.061783,9918.759623
4238.492980,-842.705048,-0.000000,10510.924376
4238.493295,0.000000,-0.000000,9474.636058
4238.493611,306.438199,370.102971,9696.697840
4238.493927,612.876398,962.267725,9474.636058
4238.494242,-306.438199,370.102971,9474.636058
4238.494558,-1072.533697,-0.000000,9400.615463
4238.494873,-306.438199,-370.102971,9030.512492
4238.495189,-306.438199,-148.041188,9696.697840
4238.495505,383.047749,-444.123565,9474.636058
4238.495820,-1378.971896,-370.102971,9548.656652
4238.496136,-1991.848295,-1036.288319,9326.594869
4238.496452,-1149.143247,-1184.329507,9844.739029
4238.496767,-383.047749,-222.061783,9844.739029
4238.497083,76.609550,-0.000000,9622.677246
4238.497399,-995.924147,222.061783,9696.697840
4238.497714,-459.657299,-0.000000,9252.574275
4238.498030,0.000000,-370.102971,9030.512492
4238.498346,0.000000,1184.329507,9548.656652
4238.498661,536.266849,666.185348,9992.780217
4238.498977,-612.876398,814.226536,9474.636058
4238.499292,-919.314598,1110.308913,9474.636058
4238.499608,-536.266849,-74.020594,9918.759623
4238.499924,0.000000,-0.000000,10140.821405
4238.500239,-306.438199,-518.144159,10140.821405
4238.500555,-1378.971896,148.041188,9770.718434
4238.500871,-1302.362347,-74.020594,9474.636058
4238.501186,-459.657299,-222.061783,9474.636058
4238.501502,459.657299,296.082377,9474.636058
4238.501818,536.266849,370.102971,9696.697840
4238.502133,-459.657299,592.164754,9696.697840
4238.502449,-459.657299,666.185348,8734.430116
4238.502765,153.219100,370.102971,9178.553681
4238.503080,919.314598,814.226536,9474.636058
4238.503396,1149.143247,592.164754,9918.759623
4238.503711,0.000000,962.267725,9844.739029
4238.504027,0.000000,-0.000000,9548.656652
4238.504343,995.924147,74.020594,9844.739029
4238.504658,1532.190996,888.247130,10066.800811
4238.504974,1455.581446,444.123565,10066.800811
4238.505290,459.657299,1110.308913,9844.739029
4238.505605,1072.533697,296.082377,9178.553681
4238.505921,1455.581446,-0.000000,9548.656652
4238.506237,1762.019645,888.247130,9622.677246
4238.506552,1532.190996,370.102971,9696.697840
4238.506868,153.219100,962.267725,9844.739029
4238.507183,383.047749,-370.102971,9474.636058
4238.507499,1225.752797,518.144159,9548.656652
4238.507815,1685.410096,666.185348,9770.718434
4238.508130,459.657299,518.144159,9770.718434
4238.508446,-689.485948,296.082377,9474.636058
4238.508762,-383.047749,-444.123565,9400.615463
4238.509077,-229.828649,-0.000000,9622.677246
4238.509393,459.657299,444.123565,10066.800811
4238.509709,0.000000,-0.000000,9474.636058
4238.510024,-1072.533697,74.020594,8882.471304
4238.510340,-842.705048,-740.205942,8660.409521
4238.510656,-536.266849,-148.041188,9326.594869
4238.510971,383.047749,592.164754,9770.718434
4238.511287,-383.047749,222.061783,9770.718434
4238.511602,-1302.362347,666.185348,9326.594869
4238.511918,-612.876398,-740.205942,9178.553681
4238.512234,-76.609550,-74.020594,9696.697840
4238.512549,459.657299,-0.000000,9770.718434
4238.512865,-383.047749,-148.041188,9844.739029
4238.513181,-689.485948,-0.000000,9844.739029
4238.513496,-459.657299,-740.205942,9252.574275
4238.513812,-383.047749,-74.020594,9918.759623
4238.514128,919.314598,-0.000000,10066.800811
4238.514443,-153.219100,666.185348,9622.677246
4238.514759,-995.924147,-0.000000,9252.574275
4238.515074,0.000000,-296.082377,9252.574275
4238.515390,383.047749,370.102971,9548.656652
4238.515706,766.095498,-0.000000,9400.615463
4238.516021,-306.438199,-296.082377,10066.800811
4238.516337,-995.924147,-296.082377,9474.636058
4238.516653,-383.047749,-814.226536,9474.636058
4238.516968,0.000000,-0.000000,10510.924376
4238.517284,919.314598,370.102971,9844.739029
4238.517600,-536.266849,592.164754,9622.677246
4238.517915,-995.924147,296.082377,9844.739029
4238.518231,-383.047749,-0.000000,9770.718434
4238.518547,229.828649,814.226536,9844.739029
4238.518862,766.095498,-0.000000,9770.718434
4238.519178,-153.219100,-0.000000,9474.636058
4238.519493,-229.828649,-740.205942,9474.636058
4238.519809,0.000000,-0.000000,9918.759623
4238.520125,1072.533697,-74.020594,8216.285956
4238.520440,1838.629195,-518.144159,9992.780217
4238.520756,459.657299,296.082377,8956.491898
4238.521072,229.828649,-814.226536,8438.347739
4238.521387,0.000000,-666.185348,9622.677246
4238.521703,459.657299,-0.000000,9844.739029
4238.522019,919.314598,-74.020594,10066.800811
4238.522334,0.000000,666.185348,9770.718434
4238.522650,612.876398,-592.164754,9622.677246
4238.522966,1378.971896,-592.164754,9474.636058
4238.523281,1455.581446,888.247130,9696.697840
4238.523597,1838.629195,1184.329507,9474.636058
4238.523912,612.876398,1406.391290,9770.718434
4238.524228,383.047749,592.164754,8808.450710
4238.524544,1072.533697,518.144159,8734.430116
4238.524859,995.924147,814.226536,9178.553681
4238.525175,306.438199,-370.102971,10066.800811
4238.525491,-1072.533697,-0.000000,9918.759623
4238.525806,-1149.143247,-222.061783,9030.512492
4238.526122,-1225.752797,-814.226536,10214.842000
4238.526438,536.266849,-0.000000,10066.800811
4238.526753,0.000000,-0.000000,9844.739029
4238.527069,-1225.752797,1110.308913,10066.800811
4238.527384,-1378.971896,296.082377,9696.697840
4238.527700,0.000000,-0.000000,10288.862594
4238.528016,1225.752797,1184.329507,9770.718434
4238.528331,689.485948,1628.453072,9622.677246
4238.528647,-612.876398,1332.370696,9696.697840
4238.528963,0.000000,370.102971,9844.739029
4238.529278,306.438199,1184.329507,10436.903782
4238.529594,766.095498,1036.288319,9474.636058
4238.529910,0.000000,740.205942,9918.759623
4238.530225,-1225.752797,296.082377,9696.697840
4238.530541,-919.314598,-814.226536,9400.615463
4238.530857,-306.438199,-370.102971,9770.718434
4238.531172,-229.828649,-222.061783,10140.821405
4238.531488,-536.266849,-592.164754,10436.903782
4238.531803,-1685.410096,-0.000000,9548.656652
4238.532119,-536.266849,-222.061783,9326.594869
4238.532435,-306.438199,-0.000000,8956.491898
4238.532750,842.705048,1036.288319,9400.615463
4238.533066,0.000000,592.164754,10140.821405
4238.533382,-306.438199,962.267725,8956.491898
4238.533697,153.219100,-148.041188,9696.697840
4238.534013,383.047749,1110.308913,9326.594869
4238.534329,1225.752797,740.205942,9696.697840
4238.534644,76.609550,-0.000000,10288.862594
4238.534960,-919.314598,-370.102971,9770.718434
4238.535275,-536.266849,-962.267725,9474.636058
4238.535591,536.266849,-74.020594,9400.615463
4238.535907,995.924147,-0.000000,9474.636058
4238.536222,229.828649,-592.164754,9474.636058
4238.536538,-383.047749,-370.102971,9104.533087
4238.536854,76.609550,-814.226536,8882.471304
4238.537169,383.047749,222.061783,9696.697840
4238.537485,1608.800546,-148.041188,9622.677246
4238.537801,842.705048,370.102971,9474.636058
4238.538116,0.000000,-0.000000,9400.615463
4238.538432,689.485948,-74.020594,9104.533087
4238.538748,689.485948,592.164754,9178.553681
4238.539063,1302.362347,666.185348,9474.636058
4238.539379,-229.828649,-0.000000,9844.739029
4238.539694,-995.924147,-148.041188,9770.718434
4238.540010,-153.219100,-1554.432478,9844.739029
4238.540326,153.219100,444.123565,10066.800811
4238.540641,76.609550,-222.061783,9696.697840
4238.540957,-766.095498,-518.144159,9844.739029
4238.541273,-919.314598,-148.041188,9252.574275
4238.541588,-306.438199,-444.123565,8808.450710
4238.541904,306.438199,148.041188,9178.553681
4238.542220,1149.143247,-74.020594,9474.636058
4238.542535,-383.047749,-0.000000,9474.636058
4238.542851,-919.314598,296.082377,8956.491898
4238.543167,-919.314598,-370.102971,9548.656652
4238.543482,459.657299,444.123565,9770.718434
4238.543798,689.485948,-666.185348,10362.883188
4238.544113,0.000000,222.061783,9474.636058
4238.544429,-459.657299,-0.000000,9326.594869
4238.544745,76.609550,-592.164754,10066.800811
4238.545060,689.485948,740.205942,10140.821405
4238.545376,842.705048,740.205942,9400.615463
4238.545692,-766.095498,814.226536,9696.697840
4238.546007,-766.095498,-592.164754,9326.594869
4238.546323,459.657299,-222.061783,9474.636058
4238.546639,766.095498,518.144159,9252.574275
4238.546954,383.047749,222.061783,10214.842000
4238.547270,-612.876398,962.267725,9844.739029
4238.547585,-689.485948,-518.144159,9918.759623
4238.547901,383.047749,-0.000000,9622.677246
4238.548217,612.876398,1258.350101,9622.677246
4238.548532,612.876398,296.082377,9770.718434
4238.548848,-842.705048,1036.288319,9844.739029
4238.549164,-306.438199,-0.000000,9770.718434
4238.549479,689.485948,370.102971,9104.533087
4238.549795,1455.581446,1036.288319,9474.636058
4238.550111,842.705048,1110.308913,10362.883188
4238.550426,-536.266849,1184.329507,10214.842000
4238.550742,306.438199,-148.041188,9178.553681
4238.551058,919.314598,-0.000000,9770.718434
4238.551373,1378.971896,814.226536,9844.739029
4238.551689,229.828649,-0.000000,10066.800811
4238.552004,-689.485948,740.205942,10140.821405
4238.552320,-76.609550,-814.226536,9696.697840
4238.552636,229.828649,-148.041188,9400.615463
4238.552951,1225.752797,-74.020594,10066.800811
4238.553267,536.266849,444.123565,9622.677246
4238.553583,-383.047749,740.205942,9178.553681
4238.553898,0.000000,-814.226536,8660.409521
4238.554214,766.095498,296.082377,9104.533087
4238.554530,1149.143247,1036.288319,8808.450710
4238.554845,229.828649,888.247130,9104.533087
4238.555161,-689.485948,1036.288319,9030.512492
4238.555476,-383.047749,-296.082377,9178.553681
4238.555792,76.609550,370.102971,9770.718434
4238.556108,919.314598,-0.000000,9918.759623
4238.556423,-459.657299,-0.000000,10066.800811
4238.556739,-1378.971896,-74.020594,9992.780217
4238.557055,-842.705048,-666.185348,9474.636058
4238.557370,153.219100,-0.000000,10362.883188
4238.557686,766.095498,666.185348,9770.718434
4238.558002,-383.047749,740.205942,9548.656652
4238.558317,-689.485948,592.164754,8882.471304
4238.558633,153.219100,-370.102971,9474.636058
4238.558949,1378.971896,296.082377,9400.615463
4238.559264,2068.457845,222.061783,9474.636058
4238.559580,153.219100,-74.020594,9474.636058
4238.559895,-612.876398,-74.020594,9474.636058
4238.560211,459.657299,-888.247130,9252.574275
4238.560527,1149.143247,-0.000000,9178.553681
4238.560842,1225.752797,-222.061783,10066.800811
4238.561158,-459.657299,-222.061783,10436.903782
4238.561474,-1378.971896,-74.020594,9178.553681
4238.561789,-383.047749,-962.267725,10214.842000
4238.562105,153.219100,148.041188,9770.718434
4238.562421,459.657299,814.226536,9992.780217
4238.562736,0.000000,518.144159,10807.006753
4238.563052,-459.657299,222.061783,9400.615463
4238.563367,-306.438199,-592.164754,9622.677246
4238.563683,919.314598,-0.000000,9622.677246
4238.563999,1072.533697,666.185348,9104.533087
4238.564314,-459.657299,888.247130,9326.594869
4238.564630,-383.047749,-74.020594,9030.512492
4238.564946,76.609550,-518.144159,8734.430116
4238.565261,766.095498,-0.000000,9400.615463
4238.565577,766.095498,-296.082377,9474.636058
4238.565893,-689.485948,-74.020594,9104.533087
4238.566208,-612.876398,-370.102971,9400.615463
4238.566524,383.047749,-962.267725,9326.594869
4238.566840,766.095498,-148.041188,9104.533087
4238.567155,919.314598,-666.185348,9844.739029
4238.567471,-689.485948,592.164754,10066.800811
4238.567786,76.609550,-444.123565,9252.574275
4238.568102,919.314598,-0.000000,9400.615463
4238.568418,1378.971896,518.144159,9992.780217
4238.568733,1302.362347,-0.000000,9770.718434
4238.569049,0.000000,370.102971,9252.574275
4238.569365,-153.219100,-296.082377,9326.594869
4238.569680,229.828649,-444.123565,9696.697840
4238.569996,459.657299,370.102971,9844.739029
4238.570312,0.000000,148.041188,9770.718434
4238.570627,-1378.971896,518.144159,9548.656652
4238.570943,-1149.143247,-740.205942,9400.615463
4238.571259,-383.047749,-592.164754,9474.636058
4238.571572,0.000000,296.082377,9400.615463
4238.571888,-383.047749,-148.041188,10214.842000
4238.572203,-1302.362347,222.061783,9548.656652
4238.572519,-842.705048,-74.020594,9326.594869
4238.572834,153.219100,296.082377,9400.615463
4238.573150,459.657299,444.123565,10214.842000
4238.573465,-153.219100,666.185348,9918.759623
4238.573780,-1302.362347,1406.391290,9474.636058
4238.574096,-919.314598,444.123565,9326.594869
4238.574411,0.000000,-148.041188,9770.718434
4238.574727,919.314598,444.123565,10214.842000
4238.575042,0.000000,-0.000000,10214.842000
4238.575358,-919.314598,-0.000000,9548.656652
4238.575673,-383.047749,-444.123565,9918.759623
4238.575989,383.047749,740.205942,9400.615463
4238.576304,1225.752797,666.185348,9992.780217
4238.576620,229.828649,1184.329507,9030.512492
4238.576935,-689.485948,740.205942,9474.636058
4238.577251,383.047749,-296.082377,9104.533087
4238.577566,766.095498,444.123565,9252.574275
4238.577882,1072.533697,1258.350101,9844.739029
4238.578197,0.000000,296.082377,10362.883188
4238.578513,-612.876398,666.185348,9770.718434
4238.578828,76.609550,-74.020594,9770.718434
4238.579144,536.266849,444.123565,10140.821405
4238.579459,536.266849,1110.308913,10140.821405
4238.579775,306.438199,740.205942,10584.944971
4238.580090,-612.876398,814.226536,8956.491898
4238.580406,383.047749,222.061783,9178.553681
4238.580721,1072.533697,888.247130,10066.800811
4238.581037,1685.410096,370.102971,10510.924376
4238.581352,689.485948,888.247130,9474.636058
4238.581668,153.219100,518.144159,9104.533087
4238.581983,1302.362347,-222.061783,9178.553681
4238.582299,1378.971896,-0.000000,9548.656652
4238.582614,1532.190996,-0.000000,10362.883188
4238.582930,306.438199,-0.000000,10066.800811
4238.583245,-306.438199,-0.000000,9474.636058
4238.583560,995.924147,-518.144159,9770.718434
4238.583876,1225.752797,444.123565,9400.615463
4238.584191,1225.752797,-222.061783,9844.739029
4238.584507,306.438199,-0.000000,10140.821405
4238.584822,-383.047749,370.102971,9104.533087
4238.585138,459.657299,-370.102971,9178.553681
4238.585453,842.705048,370.102971,9622.677246
4238.585769,536.266849,-0.000000,9918.759623
4238.586084,-536.266849,-0.000000,9474.636058
4238.586400,-842.705048,-370.102971,8956.491898
4238.586715,-612.876398,-1036.288319,9548.656652
4238.587031,-229.828649,222.061783,8882.471304
4238.587346,0.000000,-518.144159,9548.656652
4238.587662,-1608.800546,-0.000000,9770.718434
4238.587977,-1225.752797,-814.226536,9104.533087
4238.588293,-536.266849,-740.205942,8956.491898
4238.588608,0.000000,-0.000000,9548.656652
4238.588924,-306.438199,-296.082377,9622.677246
4238.589239,-1762.019645,-148.041188,9918.759623
4238.589555,-1455.581446,-444.123565,8364.327145
4238.589870,-766.095498,-962.267725,9326.594869
4238.590186,153.219100,-0.000000,9400.615463
4238.590501,-306.438199,-444.123565,9326.594869
4238.590817,-919.314598,444.123565,9696.697840
4238.591132,-536.266849,-370.102971,8438.347739
4238.591448,0.000000,-148.041188,8808.450710
4238.591763,766.095498,740.205942,9474.636058
4238.592079,153.219100,296.082377,9918.759623
4238.592394,-995.924147,1036.288319,9696.697840
4238.592710,-459.657299,-0.000000,9474.636058
4238.593025,383.047749,-518.144159,9696.697840
4238.593340,459.657299,-0.000000,10955.047942
4238.593656,0.000000,-666.185348,11177.109724
4238.593971,-1302.362347,444.123565,10362.883188
4238.594287,-766.095498,-0.000000,9400.615463
4238.594602,995.924147,-0.000000,10362.883188
4238.594918,1915.238745,1110.308913,9030.512492
4238.595233,2145.067394,814.226536,9696.697840
4238.595549,76.609550,370.102971,9178.553681
4238.595864,1072.533697,-592.164754,8734.430116
4238.596180,1532.190996,370.102971,9474.636058
4238.596495,1532.190996,962.267725,9400.615463
4238.596811,459.657299,222.061783,10214.842000
4238.597126,306.438199,-0.000000,9770.718434
4238.597442,1072.533697,-814.226536,9918.759623
4238.597757,1225.752797,296.082377,10066.800811
4238.598073,1455.581446,740.205942,10140.821405
4238.598388,766.095498,888.247130,10510.924376
4238.598704,0.000000,814.226536,9400.615463
4238.599019,1378.971896,-0.000000,9474.636058
4238.599335,1685.410096,814.226536,10140.821405
4238.599650,1762.019645,296.082377,9696.697840
4238.599966,459.657299,222.061783,10140.821405
4238.600281,-229.828649,296.082377,8956.491898
4238.600597,459.657299,444.123565,8956.491898
4238.600912,1455.581446,1258.350101,9844.739029
4238.601228,1302.362347,962.267725,9696.697840
4238.601543,-689.485948,962.267725,10288.862594
4238.601859,-612.876398,740.205942,9252.574275
4238.602174,-842.705048,-74.020594,9474.636058
4238.602490,0.000000,740.205942,9770.718434
4238.602805,0.000000,222.061783,10140.821405
4238.603120,-1072.533697,888.247130,10214.842000
4238.603436,-2145.067394,296.082377,9474.636058
4238.603751,-1455.581446,-370.102971,9770.718434
4238.604067,-612.876398,814.226536,9992.780217
4238.604382,-383.047749,592.164754,9548.656652
4238.604698,-1762.019645,-0.000000,10510.924376
4238.605013,-1225.752797,-0.000000,8734.430116
4238.605329,-459.657299,-444.123565,8956.491898
4238.605644,-229.828649,518.144159,9548.656652
4238.605960,383.047749,-0.000000,9474.636058
4238.606275,-842.705048,592.164754,9178.553681
4238.606591,-766.095498,370.102971,8290.306550
4238.606906,0.000000,-370.102971,8808.450710
4238.607222,0.000000,370.102971,9178.553681
4238.607537,-459.657299,296.082377,9474.636058
4238.607853,-1838.629195,-0.000000,9770.718434
4238.608168,-1378.971896,-962.267725,9474.636058
4238.608484,-459.657299,-1184.329507,9474.636058
4238.608799,229.828649,296.082377,9474.636058
4238.609115,0.000000,-0.000000,9696.697840
4238.609430,-995.924147,370.102971,10140.821405
4238.609746,0.000000,-222.061783,9326.594869
4238.610061,306.438199,-222.061783,8734.430116
4238.610377,1072.533697,444.123565,9622.677246
4238.610692,919.314598,370.102971,9548.656652
4238.611008,-306.438199,222.061783,9326.594869
4238.611323,76.609550,-296.082377,9104.533087
4238.611639,536.266849,-444.123565,9992.780217
4238.611954,1302.362347,444.123565,9622.677246
4238.612269,536.266849,-148.041188,10066.800811
4238.612585,-229.828649,-0.000000,10066.800811
4238.612900,689.485948,-518.144159,9548.656652
4238.613216,1072.533697,-296.082377,9770.718434
4238.613531,1838.629195,222.061783,10436.903782
4238.613847,995.924147,814.226536,9918.759623
4238.614162,0.000000,740.205942,9400.615463
4238.614478,1225.752797,-444.123565,9474.636058
4238.614793,1685.410096,296.082377,9770.718434
4238.615109,1685.410096,1110.308913,9992.780217
4238.615424,1149.143247,592.164754,9622.677246
4238.615740,153.219100,740.205942,9548.656652
4238.616055,1225.752797,-962.267725,9622.677246
4238.616371,1225.752797,-0.000000,9326.594869
4238.616686,919.314598,962.267725,9548.656652
4238.617002,0.000000,-74.020594,10362.883188
4238.617317,-995.924147,444.123565,9474.636058
4238.617633,-306.438199,-962.267725,9326.594869
4238.617948,0.000000,-74.020594,9770.718434
4238.618264,0.000000,592.164754,10140.821405
4238.618579,-612.876398,-0.000000,9474.636058
4238.618895,-1225.752797,222.061783,9474.636058
4238.619210,-153.219100,-592.164754,8882.471304
4238.619526,-153.219100,148.041188,9622.677246
4238.619841,306.438199,740.205942,9474.636058
4238.620157,-612.876398,592.164754,9474.636058
4238.620472,-766.095498,-0.000000,9548.656652
4238.620788,76.609550,-740.205942,8660.409521
4238.621103,153.219100,-0.000000,9918.759623
4238.621419,229.828649,-148.041188,10214.842000
4238.621734,-995.924147,-74.020594,9770.718434
4238.622049,-1455.581446,-296.082377,9326.594869
4238.622365,-383.047749,-1184.329507,10214.842000
4238.622680,0.000000,296.082377,9770.718434
4238.622996,229.828649,-518.144159,9696.697840
4238.623311,-689.485948,444.123565,9696.697840
4238.623627,-766.095498,888.247130,9252.574275
4238.623942,-153.219100,296.082377,8438.347739
4238.624258,76.609550,444.123565,10288.862594
4238.624573,383.047749,1184.329507,9622.677246
4238.624889,-1072.533697,518.144159,9622.677246
4238.625204,-919.314598,814.226536,9178.553681
4238.625520,-306.438199,-370.102971,9844.739029
4238.625835,0.000000,1480.411884,10288.862594
4238.626151,0.000000,1184.329507,9844.739029
4238.626466,-1072.533697,1184.329507,9474.636058
4238.626782,0.000000,888.247130,9474.636058
4238.627097,536.266849,222.061783,9622.677246
4238.627413,766.095498,1332.370696,9622.677246
4238.627728,995.924147,370.102971,9918.759623
4238.628044,76.609550,-0.000000,9844.739029
4238.628359,153.219100,-518.144159,9400.615463
4238.628675,536.266849,-518.144159,10066.800811
4238.628990,1608.800546,740.205942,10140.821405
4238.629306,1608.800546,-0.000000,9548.656652
4238.629621,919.314598,592.164754,9474.636058
4238.629937,1302.362347,666.185348,7920.203579
4238.630252,1838.629195,-740.205942,9104.533087
4238.630568,1915.238745,740.205942,9696.697840
4238.630883,2068.457845,296.082377,9770.718434
4238.631199,919.314598,1110.308913,9992.780217
4238.631514,689.485948,-0.000000,9030.512492
4238.631829,842.705048,-666.185348,9992.780217
4238.632145,1302.362347,296.082377,9992.780217
4238.632460,383.047749,-0.000000,9918.759623
4238.632776,-689.485948,444.123565,10066.800811
4238.633091,-306.438199,-222.061783,9326.594869
4238.633407,459.657299,-888.247130,10140.821405
4238.633722,612.876398,518.144159,9844.739029
4238.634038,-229.828649,-0.000000,9474.636058
4238.634353,-766.095498,370.102971,9770.718434
4238.634669,-153.219100,-592.164754,9400.615463
4238.634984,76.609550,518.144159,9474.636058
4238.635300,153.219100,962.267725,9474.636058
4238.635615,-153.219100,-0.000000,9548.656652
4238.635931,-1225.752797,296.082377,9992.780217
4238.636246,-536.266849,-592.164754,9474.636058
4238.636562,-229.828649,-370.102971,9918.759623
4238.636877,229.828649,-0.000000,9696.697840
4238.637193,-995.924147,-222.061783,10362.883188
4238.637508,-1378.971896,444.123565,10362.883188
4238.637824,0.000000,-222.061783,9252.574275
4238.638139,-229.828649,-0.000000,9474.636058
4238.638455,153.219100,296.082377,9696.697840
4238.638770,-612.876398,-888.247130,9622.677246
4238.639086,-1378.971896,-148.041188,9400.615463
4238.639401,-306.438199,-1036.288319,8882.471304
4238.639717,-306.438199,-444.123565,10214.842000
4238.640032,153.219100,296.082377,9474.636058
4238.640348,-689.485948,-592.164754,10066.800811
4238.640663,-1378.971896,-0.000000,9252.574275
4238.640979,-612.876398,-1110.308913,9400.615463
4238.641294,153.219100,-0.000000,9770.718434
4238.641609,842.705048,-518.144159,9548.656652
4238.641925,0.000000,-74.020594,9474.636058
4238.642240,-536.266849,518.144159,8660.409521
4238.642556,306.438199,-1406.391290,8512.368333
4238.642871,76.609550,-296.082377,9992.780217
4238.643187,842.705048,370.102971,9252.574275
4238.643502,0.000000,-1036.288319,9844.739029
4238.643818,0.000000,-296.082377,9474.636058
4238.644133,1072.533697,-1480.411884,9548.656652
4238.644449,1072.533697,-0.000000,9844.739029
4238.644764,1532.190996,-222.061783,8956.491898
4238.645080,306.438199,-0.000000,9622.677246
4238.645395,919.314598,-444.123565,9252.574275
4238.645711,1838.629195,-666.185348,9178.553681
4238.646026,1915.238745,1036.288319,10066.800811
4238.646342,2068.457845,962.267725,9474.636058
4238.646657,76.609550,740.205942,9474.636058
4238.646973,459.657299,-0.000000,9474.636058
4238.647288,1302.362347,-592.164754,9770.718434
4238.647604,1225.752797,1480.411884,9474.636058
4238.647919,689.485948,814.226536,9548.656652
4238.648235,-459.657299,666.185348,9622.677246
4238.648550,-536.266849,-148.041188,9474.636058
4238.648866,-459.657299,-740.205942,9474.636058
4238.649181,-689.485948,1036.288319,9844.739029
4238.649497,-689.485948,666.185348,10066.800811
4238.649812,-1149.143247,1184.329507,10214.842000
4238.650128,-689.485948,518.144159,9696.697840
4238.650443,0.000000,222.061783,9696.697840
4238.650759,229.828649,1110.308913,9992.780217
4238.651074,229.828649,1258.350101,9918.759623
4238.651389,-766.095498,1776.494261,9918.759623
4238.651705,-229.828649,666.185348,9474.636058
4238.652020,0.000000,-74.020594,10288.862594
4238.652336,383.047749,1184.329507,10288.862594
4238.652651,0.000000,592.164754,9622.677246
4238.652967,-995.924147,148.041188,9474.636058
4238.653282,-612.876398,-888.247130,9918.759623
4238.653598,-383.047749,-0.000000,9918.759623
4238.653913,-229.828649,592.164754,10214.842000
4238.654229,-689.485948,444.123565,9178.553681
4238.654544,-1149.143247,222.061783,9844.739029
4238.654860,-459.657299,-222.061783,9400.615463
4238.655175,766.095498,-0.000000,9400.615463
4238.655491,612.876398,1850.514855,9252.574275
4238.655806,229.828649,518.144159,9252.574275
4238.656122,-689.485948,814.226536,9696.697840
4238.656437,153.219100,-0.000000,9474.636058
4238.656753,0.000000,1184.329507,9770.718434
4238.657068,689.485948,1258.350101,9474.636058
4238.657384,0.000000,518.144159,9770.718434
4238.657699,-995.924147,592.164754,9992.780217
4238.658015,-306.438199,-444.123565,8882.471304
4238.658330,76.609550,296.082377,9474.636058
4238.658646,919.314598,592.164754,9770.718434
4238.658961,229.828649,518.144159,9252.574275
4238.659277,-229.828649,444.123565,9252.574275
4238.659592,1149.143247,-888.247130,9178.553681
4238.659908,612.876398,-0.000000,9622.677246
4238.660223,1302.362347,962.267725,9548.656652
4238.660539,995.924147,518.144159,9400.615463
4238.660854,536.266849,666.185348,9326.594869
4238.661169,1608.800546,-222.061783,8882.471304
4238.661485,995.924147,740.205942,8734.430116
4238.661800,1532.190996,444.123565,9622.677246
4238.662116,459.657299,-74.020594,9844.739029
4238.662431,-229.828649,296.082377,9770.718434
4238.662747,229.828649,-962.267725,9770.718434
4238.663062,383.047749,-0.000000,10584.944971
4238.663378,689.485948,-0.000000,9474.636058
4238.663693,-383.047749,-740.205942,10436.903782
4238.664009,-689.485948,-518.144159,9474.636058
4238.664324,0.000000,-1998.556043,9770.718434
4238.664640,612.876398,-370.102971,9844.739029
4238.664955,1149.143247,148.041188,9400.615463
4238.665271,-229.828649,-0.000000,9474.636058
4238.665586,0.000000,-518.144159,9326.594869
4238.665902,689.485948,-1332.370696,9104.533087
4238.666217,1149.143247,-370.102971,9400.615463
4238.666533,689.485948,-74.020594,8808.450710
4238.666848,-459.657299,-888.247130,9548.656652
4238.667164,-1072.533697,-888.247130,9326.594869
4238.667479,-383.047749,-1110.308913,9696.697840
4238.667795,0.000000,-0.000000,10881.027347
4238.668110,229.828649,-148.041188,9918.759623
4238.668426,-536.266849,-370.102971,10584.944971
4238.668741,0.000000,-0.000000,9326.594869
4238.669057,0.000000,-148.041188,9548.656652
4238.669372,153.219100,1184.329507,9696.697840
4238.669688,689.485948,-74.020594,9918.759623
4238.670003,0.000000,444.123565,9326.594869
4238.670318,0.000000,-518.144159,9326.594869
4238.670634,459.657299,-370.102971,9474.636058
4238.670949,536.266849,148.041188,9992.780217
4238.671265,919.314598,-666.185348,9548.656652
4238.671580,229.828649,-666.185348,9844.739029
4238.671896,229.828649,-962.267725,9104.533087
4238.672211,1225.752797,-1332.370696,9400.615463
4238.672527,1455.581446,-0.000000,9548.656652
4238.672842,1991.848295,-222.061783,9474.636058
4238.673158,995.924147,-0.000000,9474.636058
4238.673473,1225.752797,-592.164754,8956.491898
4238.673789,1762.019645,-148.041188,9400.615463
4238.674104,2681.334243,370.102971,9770.718434
4238.674420,2681.334243,-518.144159,10066.800811
4238.674735,1685.410096,-1110.308913,10658.965565
4238.675051,1378.971896,-1702.473667,10362.883188
4238.675366,1991.848295,-1702.473667,9918.759623
4238.675682,3064.381992,-592.164754,9918.759623
4238.675997,3830.477490,-1702.473667,9770.718434
4238.676313,3447.429741,-1702.473667,9992.780217
4238.676628,3140.991542,-740.205942,9178.553681
4238.676944,2834.553343,-814.226536,9178.553681
4238.677259,3140.991542,-148.041188,9400.615463
4238.677575,3983.696590,-814.226536,8808.450710
4238.677890,3600.648841,-1702.473667,9474.636058
4238.678206,2681.334243,-1628.453072,10288.862594
4238.678521,2451.505594,-3108.864956,11029.068536
4238.678837,766.095498,-888.247130,9104.533087
4238.679152,1915.238745,-3256.906145,10288.862594
4238.679468,3447.429741,-2368.659014,10436.903782
4238.679783,2298.286494,-888.247130,9548.656652
4238.680098,1225.752797,-1850.514855,8882.471304
4238.680414,1072.533697,-2072.576638,9474.636058
4238.680729,1532.190996,-666.185348,9104.533087
4238.681045,1532.190996,-1998.556043,9918.759623
4238.681360,1838.629195,-1184.329507,8660.409521
4238.681676,306.438199,-1184.329507,8734.430116
4238.681991,-229.828649,-1998.556043,9030.512492
4238.682307,0.000000,-2960.823768,10362.883188
4238.682622,0.000000,-2368.659014,10214.842000
4238.682938,919.314598,-2960.823768,11251.130318
4238.683254,383.047749,-1998.556043,9770.718434
4238.683569,0.000000,-2960.823768,10881.027347
4238.683885,1455.581446,-2590.720797,9696.697840
4238.684200,2068.457845,-2368.659014,8956.491898
4238.684516,2681.334243,-2590.720797,8586.388927
4238.684831,3524.039291,-2072.576638,8734.430116
4238.685147,3064.381992,-962.267725,7624.121203
4238.685462,1991.848295,-1258.350101,7624.121203
4238.685778,1225.752797,-1776.494261,8364.327145
4238.686093,1378.971896,-2738.761985,8586.388927
4238.686409,2145.067394,-4071.132681,9178.553681
4238.686724,2068.457845,-4737.318029,9844.739029
4238.687040,459.657299,-4071.132681,10807.006753
4238.687355,383.047749,-3552.988522,11177.109724
4238.687671,76.609550,-3404.947333,10732.986159
4238.687986,1838.629195,-2664.741391,10288.862594
4238.688302,3140.991542,-1924.535449,9252.574275
4238.688617,3830.477490,-2220.617826,8364.327145
4238.688933,3677.258390,-1480.411884,9474.636058
4238.689248,2604.724693,-518.144159,8956.491898
4238.689564,1762.019645,-1628.453072,9104.533087
4238.689880,2528.115143,-1924.535449,9622.677246
4238.690195,3830.477490,-2590.720797,9474.636058
4238.690511,4060.306139,-3034.844362,9622.677246
4238.690826,3064.381992,-3775.050304,10510.924376
4238.691142,2298.286494,-3627.009116,10436.903782
4238.691457,1685.410096,-3182.885551,10658.965565
4238.691773,2221.676944,-2664.741391,10214.842000
4238.692088,3370.820191,-2368.659014,9622.677246
4238.692404,3907.087040,-1998.556043,8882.471304
4238.692719,4519.963438,-1776.494261,8290.306550
4238.693035,3830.477490,-1480.411884,8290.306550
4238.693350,3064.381992,-962.267725,8956.491898
4238.693666,3064.381992,-222.061783,9030.512492
4238.693981,2911.162892,-1036.288319,9252.574275
4238.694297,3064.381992,-1702.473667,9400.615463
4238.694612,3370.820191,-2664.741391,9474.636058
4238.694928,3294.210641,-2960.823768,9474.636058
4238.695243,2145.067394,-2516.700203,9844.739029
4238.695559,1378.971896,-1850.514855,9992.780217
4238.695874,1608.800546,-1406.391290,9844.739029
4238.696190,2374.896044,-888.247130,9400.615463
4238.696505,1762.019645,-1332.370696,9622.677246
4238.696821,1991.848295,-1258.350101,9326.594869
4238.697137,1762.019645,-1776.494261,9326.594869
4238.697452,1608.800546,-1776.494261,9770.718434
4238.697768,1455.581446,-1554.432478,9770.718434
4238.698083,1838.629195,-1480.411884,10510.924376
4238.698399,1915.238745,-962.267725,10732.986159
4238.698714,2221.676944,-1258.350101,10584.944971
4238.699030,1915.238745,-1850.514855,10362.883188
4238.699345,1225.752797,-2072.576638,10066.800811
4238.699661,1838.629195,-1998.556043,9474.636058
4238.699976,1762.019645,-1332.370696,9178.553681
4238.700292,1762.019645,-1480.411884,8512.368333
4238.700607,1149.143247,-1184.329507,9104.533087
4238.700923,842.705048,-1554.432478,9548.656652
4238.701238,306.438199,-1850.514855,10140.821405
4238.701554,0.000000,-1998.556043,10807.006753
4238.701869,0.000000,-2368.659014,10658.965565
4238.702185,459.657299,-2590.720797,10362.883188
4238.702500,1302.362347,-2516.700203,9992.780217
4238.702816,1838.629195,-2072.576638,10140.821405
4238.703131,1915.238745,-666.185348,9178.553681
4238.703447,1915.238745,-148.041188,8586.388927
4238.703763,1838.629195,222.061783,8808.450710
4238.704078,1991.848295,-0.000000,8734.430116
4238.704394,1532.190996,-518.144159,9400.615463
4238.704709,919.314598,-1776.494261,9992.780217
4238.705025,995.924147,-2590.720797,10288.862594
4238.705340,1302.362347,-2516.700203,10362.883188
4238.705656,2298.286494,-3256.906145,9548.656652
4238.705971,2681.334243,-2072.576638,9770.718434
4238.706287,3064.381992,-888.247130,8808.450710
4238.706602,2451.505594,-296.082377,8438.347739
4238.706918,2451.505594,-370.102971,8364.327145
4238.707233,2451.505594,-1036.288319,9104.533087
4238.707549,2757.943793,-1332.370696,9178.553681
4238.707864,2681.334243,-2442.679609,9844.739029
4238.708180,2911.162892,-3330.926739,10881.027347
4238.708495,3677.258390,-2886.803174,10140.821405
4238.708811,3907.087040,-2442.679609,9918.759623
4238.709126,3294.210641,-1258.350101,9326.594869
4238.709442,3217.601092,74.020594,8586.388927
4238.709757,3217.601092,296.082377,8216.285956
4238.710073,2451.505594,-148.041188,7994.224174
4238.710388,1608.800546,-1480.411884,9474.636058
4238.710704,1149.143247,-2886.803174,10362.883188
4238.711020,1302.362347,-3923.091493,11621.233289
4238.711335,1685.410096,-4663.297435,12065.356855
4238.711651,2451.505594,-4811.338623,12657.521608
4238.711966,2987.772442,-4145.153275,11769.274478
4238.712282,4366.744339,-2146.597232,10510.924376
4238.712597,4366.744339,-592.164754,8586.388927
4238.712913,4673.182538,444.123565,7550.100608
4238.713228,5132.839837,592.164754,5995.668130
4238.713544,4443.353888,-148.041188,5699.585753
4238.713859,2604.724693,-444.123565,6217.729913
4238.714175,1225.752797,-2738.761985,8364.327145
4238.714490,229.828649,-4145.153275,10584.944971
4238.714806,-306.438199,-5329.482782,12287.418637
4238.715121,-459.657299,-6217.729913,13249.686362
4238.715437,0.000000,-5921.647536,14137.933492
4238.715752,1302.362347,-5107.421000,12953.603985
4238.716068,2987.772442,-3997.112087,11251.130318
4238.716383,4443.353888,-2146.597232,8956.491898
4238.716699,5132.839837,592.164754,6735.874072
4238.717014,5132.839837,2072.576638,5033.400406
4238.717330,4443.353888,1776.494261,4589.276840
4238.717646,3677.258390,1184.329507,5107.421000
4238.717961,2221.676944,-592.164754,7105.977043
4238.718277,0.000000,-1776.494261,8956.491898
4238.718592,-1685.410096,-4145.153275,10955.047942
4238.718908,-2681.334243,-5847.626942,13101.645173
4238.719223,-3140.991542,-6069.688724,13027.624579
4238.719539,-1991.848295,-6587.832884,13471.748144
4238.719854,-842.705048,-4441.235652,12879.583391
4238.720170,689.485948,-2812.782580,11399.171507
4238.720485,2298.286494,-0.000000,9030.512492
4238.720801,3753.867940,1924.535449,6809.894666
4238.721116,4213.525239,2738.761985,6883.915261
4238.721432,4826.401637,2368.659014,6661.853478
4238.721747,4826.401637,1554.432478,7105.977043
4238.722063,4213.525239,-296.082377,7920.203579
4238.722378,3294.210641,-2442.679609,9770.718434
4238.722694,2145.067394,-3552.988522,11103.089130
4238.723009,919.314598,-4737.318029,11695.253884
4238.723325,995.924147,-5033.400406,11843.295072
4238.723640,766.095498,-4885.359217,11103.089130
4238.723956,229.828649,-3849.070898,10140.821405
4238.724271,995.924147,-2220.617826,9326.594869
4238.724587,1225.752797,-962.267725,8216.285956
4238.724903,842.705048,-296.082377,8364.327145
4238.725218,1838.629195,148.041188,7772.162391
4238.725534,2298.286494,222.061783,8660.409521
4238.725849,2451.505594,222.061783,9548.656652
4238.726165,2451.505594,-148.041188,10436.903782
4238.726480,2911.162892,-740.205942,11029.068536
4238.726796,3217.601092,-1702.473667,11621.233289
4238.727111,3217.601092,-1554.432478,11177.109724
4238.727427,2834.553343,-1554.432478,10881.027347
4238.727742,2681.334243,-962.267725,9548.656652
4238.728058,2145.067394,-1036.288319,7994.224174
4238.728373,1685.410096,-814.226536,7550.100608
4238.728689,1072.533697,-1406.391290,8142.265362
4238.729004,842.705048,-1554.432478,7994.224174
4238.729320,536.266849,-1998.556043,8882.471304
4238.729635,842.705048,-2368.659014,9474.636058
4238.729951,1149.143247,-2664.741391,10436.903782
4238.730266,2068.457845,-2220.617826,11325.150913
4238.730582,2681.334243,-2072.576638,11547.212695
4238.730897,3907.087040,-1110.308913,10807.006753
4238.731213,4749.792088,74.020594,10140.821405
4238.731529,4749.792088,1110.308913,9326.594869
4238.731844,4749.792088,1110.308913,8216.285956
4238.732160,4213.525239,1258.350101,8142.265362
4238.732475,3294.210641,518.144159,8068.244768
4238.732791,2145.067394,-666.185348,8364.327145
4238.733106,1225.752797,-1702.473667,9474.636058
4238.733422,689.485948,-2960.823768,10214.842000
4238.733737,-229.828649,-4293.194464,10955.047942
4238.734053,-766.095498,-4145.153275,10881.027347
4238.734368,-153.219100,-4737.318029,10807.006753
4238.734684,842.705048,-3552.988522,10436.903782
4238.734999,919.314598,-2368.659014,9770.718434
4238.735315,919.314598,-1332.370696,9400.615463
4238.735630,842.705048,-592.164754,8808.450710
4238.735946,1378.971896,74.020594,8734.430116
4238.736261,1149.143247,-222.061783,8882.471304
4238.736577,1378.971896,-222.061783,9474.636058
4238.736892,459.657299,-0.000000,9400.615463
4238.737208,689.485948,-1554.432478,10658.965565
4238.737523,612.876398,-2146.597232,11177.109724
4238.737839,612.876398,-2664.741391,11103.089130
4238.738154,995.924147,-4219.173869,11399.171507
4238.738470,1302.362347,-3552.988522,11177.109724
4238.738786,1685.410096,-2812.782580,10362.883188
4238.739101,2145.067394,-2590.720797,9548.656652
4238.739417,2145.067394,-1850.514855,7698.141797
4238.739732,2757.943793,-1702.473667,8068.244768
4238.740048,3140.991542,-1332.370696,7772.162391
4238.740363,3140.991542,-1702.473667,7550.100608
4238.740679,4060.306139,-1998.556043,8364.327145
4238.740994,3524.039291,-2220.617826,9252.574275
4238.741310,3294.210641,-3108.864956,9696.697840
4238.741625,3524.039291,-3182.885551,9992.780217
4238.741941,3294.210641,-2886.803174,10362.883188
4238.742256,3524.039291,-2516.700203,11029.068536
4238.742572,3524.039291,-1850.514855,10140.821405
4238.742887,3753.867940,-1628.453072,9548.656652
4238.743203,3907.087040,-1776.494261,9252.574275
4238.743518,4136.915689,-1554.432478,9104.533087
4238.743834,3830.477490,-1998.556043,9178.553681
4238.744149,3907.087040,-2294.638420,9030.512492
4238.744465,3983.696590,-2664.741391,9474.636058
4238.744780,3907.087040,-3256.906145,9770.718434
4238.745096,3830.477490,-3404.947333,10066.800811
4238.745412,3677.258390,-3478.967927,10436.903782
4238.745727,3294.210641,-3108.864956,9992.780217
4238.746043,3370.820191,-3182.885551,9622.677246
4238.746358,2757.943793,-2960.823768,9474.636058
4238.746674,2757.943793,-2516.700203,9252.574275
4238.746989,2451.505594,-2368.659014,9400.615463
4238.747305,2451.505594,-2294.638420,9400.615463
4238.747620,2068.457845,-2294.638420,9474.636058
4238.747936,2068.457845,-2146.597232,9918.759623
4238.748251,1608.800546,-2442.679609,10214.842000
4238.748567,1762.019645,-2664.741391,10288.862594
4238.748882,1532.190996,-2590.720797,10658.965565
4238.749198,1762.019645,-2960.823768,10955.047942
4238.749513,1685.410096,-2812.782580,10510.924376
4238.749829,2145.067394,-2738.761985,10658.965565
4238.750144,2604.724693,-2664.741391,9400.615463
4238.750460,2298.286494,-2590.720797,8660.409521
4238.750775,2221.676944,-2368.659014,8512.368333
4238.751091,2374.896044,-1776.494261,7994.224174
4238.751406,1455.581446,-2146.597232,7772.162391
4238.751722,1685.410096,-1628.453072,7624.121203
4238.752038,1225.752797,-1924.535449,8068.244768
4238.752353,612.876398,-1924.535449,8068.244768
4238.752669,-383.047749,-1850.514855,8364.327145
4238.752984,-919.314598,-2072.576638,9326.594869
4238.753300,-1302.362347,-2146.597232,10140.821405
4238.753615,-919.314598,-1702.473667,10288.862594
4238.753931,-1378.971896,-1554.432478,10510.924376
4238.754246,-995.924147,-888.247130,10362.883188
4238.754562,-919.314598,-1036.288319,10807.006753
4238.754877,383.047749,-962.267725,10584.944971
4238.755193,1225.752797,-1110.308913,10584.944971
4238.755508,2451.505594,-370.102971,10288.862594
4238.755824,3600.648841,-74.020594,10140.821405
4238.756139,4060.306139,-0.000000,9474.636058
4238.756455,4366.744339,-74.020594,9030.512492
4238.756770,4136.915689,-0.000000,8290.306550
4238.757086,2911.162892,-148.041188,8512.368333
4238.757401,2604.724693,-814.226536,8364.327145
4238.757717,1838.629195,-1628.453072,8364.327145
4238.758032,1225.752797,-1850.514855,8364.327145
4238.758348,306.438199,-2442.679609,9992.780217
4238.758663,-229.828649,-3034.844362,11547.212695
4238.758979,536.266849,-3478.967927,12213.398043
4238.759295,1532.190996,-2516.700203,12583.501014
4238.759610,2834.553343,-2294.638420,12879.583391
4238.759926,4673.182538,-1184.329507,12287.418637
4238.760241,5898.935335,-0.000000,10510.924376
4238.760557,6435.202183,962.267725,9474.636058
4238.760872,6818.249932,2442.679609,7550.100608
4238.761188,5669.106685,2886.803174,6291.750507
4238.761503,5132.839837,2368.659014,6143.709319
4238.761819,3524.039291,814.226536,6809.894666
4238.762134,1838.629195,-1184.329507,8438.347739
4238.762450,306.438199,-3923.091493,10807.006753
4238.762765,-842.705048,-5773.606348,13175.665768
4238.763081,-1072.533697,-7105.977043,14656.077652
4238.763396,0.000000,-7328.038826,14804.118840
4238.763712,2145.067394,-6439.791695,13323.706956
4238.764027,4213.525239,-3923.091493,11029.068536
4238.764343,5362.668486,-74.020594,7254.018232
4238.764658,6358.592633,2442.679609,5551.544565
4238.764974,6665.030833,4293.194464,3627.009116
4238.765289,6358.592633,3997.112087,2960.823768
4238.765605,4596.572988,2590.720797,4811.338623
4238.765921,2298.286494,-74.020594,7920.203579
4238.766236,306.438199,-3478.967927,10732.986159
4238.766552,-612.876398,-6957.935855,13693.809927
4238.766867,-1072.533697,-8882.471304,14582.057057
4238.767183,-919.314598,-8956.491898,15248.242405
4238.767498,-306.438199,-7179.997637,13767.830521
4238.767814,1302.362347,-5329.482782,10807.006753
4238.768129,2221.676944,-1776.494261,8142.265362
4238.768445,4213.525239,592.164754,5995.668130
4238.768760,4136.915689,2072.576638,4737.318029
4238.769076,3524.039291,2146.597232,4515.256246
4238.769391,3140.991542,-0.000000,6217.729913
4238.769707,2834.553343,-1924.535449,7994.224174
4238.770022,2145.067394,-3552.988522,9918.759623
4238.770338,1072.533697,-5181.441594,11399.171507
4238.770653,306.438199,-5847.626942,12509.480420
4238.770969,536.266849,-5773.606348,12805.562797
4238.771284,0.000000,-5551.544565,12213.398043
4238.771600,-306.438199,-3923.091493,11547.212695
4238.771915,-842.705048,-2220.617826,10214.842000
4238.772231,-383.047749,-1924.535449,8512.368333
4238.772546,919.314598,-1702.473667,7179.997637
4238.772862,919.314598,-1258.350101,7105.977043
4238.773178,1149.143247,-740.205942,6809.894666
4238.773493,1302.362347,-740.205942,8734.430116
4238.773809,1762.019645,-740.205942,10288.862594
4238.774124,1685.410096,-1702.473667,11769.274478
4238.774440,1762.019645,-3182.885551,12509.480420
4238.774755,2374.896044,-4293.194464,13175.665768
4238.775071,3140.991542,-3552.988522,11621.233289
4238.775386,3600.648841,-3330.926739,10214.842000
4238.775702,3830.477490,-2146.597232,8512.368333
4238.776017,3600.648841,-148.041188,6513.812290
4238.776333,2757.943793,814.226536,6365.771101
4238.776648,1991.848295,1332.370696,6513.812290
4238.776964,1532.190996,444.123565,6883.915261
4238.777279,1072.533697,-888.247130,8660.409521
4238.777595,229.828649,-2072.576638,9474.636058
4238.777910,689.485948,-3923.091493,11843.295072
4238.778226,1915.238745,-4441.235652,13249.686362
4238.778541,2145.067394,-3701.029710,12953.603985
4238.778857,3064.381992,-2368.659014,12879.583391
4238.779172,3370.820191,148.041188,11029.068536
4238.779488,4749.792088,1258.350101,9400.615463
4238.779803,5745.716235,2368.659014,7179.997637
4238.780119,5975.544884,2294.638420,6069.688724
4238.780434,4749.792088,2294.638420,6809.894666
4238.780750,3140.991542,740.205942,6957.935855
4238.781065,2145.067394,-1258.350101,8660.409521
4238.781381,1838.629195,-2812.782580,9992.780217
4238.781696,1302.362347,-4293.194464,10955.047942
4238.782011,1225.752797,-5477.523971,12213.398043
4238.782327,1149.143247,-5107.421000,13101.645173
4238.782642,766.095498,-3923.091493,13027.624579
4238.782958,766.095498,-3034.844362,11917.315666
4238.783273,2298.286494,-814.226536,9918.759623
4238.783588,3677.258390,592.164754,7624.121203
4238.783904,5209.449386,666.185348,6735.874072
4238.784219,5515.887586,2146.597232,6957.935855
4238.784535,3447.429741,2146.597232,6809.894666
4238.784850,2145.067394,962.267725,8290.306550
4238.785166,1378.971896,-0.000000,9474.636058
4238.785481,842.705048,-1702.473667,10362.883188
4238.785796,1302.362347,-4219.173869,11547.212695
4238.786112,1072.533697,-5551.544565,12361.439231
4238.786427,-612.876398,-5625.565159,12953.603985
4238.786743,-1302.362347,-4663.297435,12361.439231
4238.787058,-842.705048,-2812.782580,10584.944971
4238.787374,919.314598,-962.267725,8808.450710
4238.787689,3830.477490,-740.205942,7698.141797
4238.788004,4213.525239,888.247130,6365.771101
4238.788320,3370.820191,592.164754,5995.668130
4238.788635,2068.457845,-0.000000,7105.977043
4238.788951,1838.629195,-518.144159,8142.265362
4238.789266,2451.505594,-1554.432478,9178.553681
4238.789581,3600.648841,-2960.823768,10510.924376
4238.789897,2145.067394,-4071.132681,10881.027347
4238.790212,383.047749,-5477.523971,12287.418637
4238.790528,-919.314598,-4367.215058,12287.418637
4238.790843,-383.047749,-2812.782580,10807.006753
4238.791159,1072.533697,-2812.782580,9844.739029
4238.791474,2221.676944,-962.267725,8364.327145
4238.791789,2068.457845,-1184.329507,7328.038826
4238.792105,1302.362347,-1036.288319,7105.977043
4238.792420,1225.752797,-666.185348,7994.224174
4238.792736,1762.019645,-1480.411884,8586.388927
4238.793051,2604.724693,-1554.432478,9844.739029
4238.793367,1762.019645,-2072.576638,9696.697840
4238.793682,459.657299,-3330.926739,11029.068536
4238.793997,-306.438199,-3256.906145,11843.295072
4238.794313,-306.438199,-3997.112087,12657.521608
4238.794628,1149.143247,-2664.741391,12065.356855
4238.794944,1608.800546,-1554.432478,10066.800811
4238.795259,995.924147,-148.041188,9030.512492
4238.795574,766.095498,1036.288319,8216.285956
4238.795890,1532.190996,222.061783,7994.224174
4238.796205,2221.676944,296.082377,8364.327145
4238.796521,1608.800546,-0.000000,8808.450710
4238.796836,842.705048,-1628.453072,9400.615463
4238.797152,-459.657299,-1110.308913,9770.718434
4238.797467,0.000000,-2072.576638,10288.862594
4238.797782,1225.752797,-3701.029710,11843.295072
4238.798098,1302.362347,-2072.576638,10881.027347
4238.798413,153.219100,-1776.494261,10066.800811
4238.798729,153.219100,-370.102971,9030.512492
4238.799044,1532.190996,962.267725,8290.306550
4238.799360,1838.629195,1258.350101,7994.224174
4238.799675,1838.629195,1998.556043,7105.977043
4238.799990,612.876398,1258.350101,7920.203579
4238.800306,-689.485948,814.226536,7994.224174
4238.800621,-383.047749,592.164754,9474.636058
4238.800937,-76.609550,-0.000000,10066.800811
4238.801252,-842.705048,-222.061783,11325.150913
4238.801568,-1608.800546,-1036.288319,11473.192101
4238.801883,-2451.505594,-370.102971,11399.171507
4238.802198,-919.314598,370.102971,10510.924376
4238.802514,536.266849,740.205942,10214.842000
4238.802829,1915.238745,1850.514855,9770.718434
4238.803145,1685.410096,3108.864956,7698.141797
4238.803460,766.095498,3256.906145,7772.162391
4238.803775,1685.410096,2886.803174,7772.162391
4238.804091,2145.067394,2516.700203,8512.368333
4238.804406,842.705048,2368.659014,9104.533087
4238.804722,-383.047749,1036.288319,9992.780217
4238.805037,-1608.800546,592.164754,11177.109724
4238.805353,-383.047749,-296.082377,10807.006753
4238.805668,0.000000,-370.102971,12509.480420
4238.805983,-1378.971896,148.041188,11399.171507
4238.806299,-1225.752797,-592.164754,11695.253884
4238.806614,-459.657299,1110.308913,10288.862594
4238.806930,1455.581446,1702.473667,9622.677246
4238.807245,1762.019645,2812.782580,8734.430116
4238.807561,995.924147,3404.947333,8808.450710
4238.807876,153.219100,2072.576638,8660.409521
4238.808191,383.047749,1850.514855,9474.636058
4238.808507,1302.362347,1924.535449,8882.471304
4238.808822,1072.533697,888.247130,10140.821405
4238.809138,-766.095498,222.061783,10436.903782
4238.809453,-1685.410096,-1332.370696,10955.047942
4238.809768,-2145.067394,-518.144159,10658.965565
4238.810084,-536.266849,-1332.370696,10362.883188
4238.810399,-306.438199,370.102971,9992.780217
4238.810715,-459.657299,666.185348,10140.821405
4238.811030,-1378.971896,962.267725,8734.430116
4238.811346,153.219100,296.082377,9400.615463
4238.811661,689.485948,1480.411884,7476.080014
4238.811976,0.000000,1850.514855,8068.244768
4238.812292,536.266849,962.267725,8882.471304
4238.812607,229.828649,-0.000000,9474.636058
4238.812923,-383.047749,-0.000000,8660.409521
4238.813238,459.657299,-1110.308913,9548.656652
4238.813554,0.000000,-370.102971,11177.109724
4238.813869,-306.438199,-1184.329507,10436.903782
4238.814184,-459.657299,-1554.432478,9844.739029
4238.814500,0.000000,-518.144159,9178.553681
4238.814815,383.047749,-222.061783,8068.244768
4238.815131,76.609550,1036.288319,8734.430116
4238.815446,-995.924147,740.205942,8290.306550
4238.815761,-919.314598,-148.041188,8068.244768
4238.816077,306.438199,222.061783,8438.347739
4238.816392,1072.533697,-888.247130,8882.471304
4238.816708,153.219100,-0.000000,10510.924376
4238.817023,-995.924147,-666.185348,10066.800811
4238.817339,-1225.752797,-1332.370696,10584.944971
4238.817654,153.219100,-444.123565,10584.944971
4238.817969,995.924147,-740.205942,10214.842000
4238.818285,919.314598,296.082377,10066.800811
4238.818600,536.266849,-0.000000,9474.636058
4238.818916,-229.828649,-0.000000,8660.409521
4238.819231,0.000000,-0.000000,8438.347739
4238.819547,383.047749,-0.000000,9104.533087
4238.819862,76.609550,-0.000000,9474.636058
4238.820177,-459.657299,-1332.370696,9844.739029
4238.820493,-766.095498,-1924.535449,10362.883188
4238.820808,229.828649,-2220.617826,10362.883188
4238.821124,1072.533697,-2146.597232,10881.027347
4238.821439,459.657299,-296.082377,10584.944971
4238.821754,76.609550,-666.185348,9844.739029
4238.822070,0.000000,-444.123565,9844.739029
4238.822385,1685.410096,222.061783,8956.491898
4238.822701,1991.848295,-0.000000,8808.450710
4238.823016,689.485948,1998.556043,9326.594869
4238.823332,76.609550,888.247130,8586.388927
4238.823647,-306.438199,222.061783,9696.697840
4238.823962,229.828649,-444.123565,9474.636058
4238.824278,766.095498,-1184.329507,10362.883188
4238.824593,-1072.533697,-370.102971,11473.192101
4238.824909,-1838.629195,-1480.411884,11251.130318
4238.825224,-1608.800546,-1258.350101,11251.130318
4238.825540,-153.219100,-592.164754,10362.883188
4238.825855,1302.362347,592.164754,9770.718434
4238.826170,459.657299,1850.514855,8660.409521
4238.826486,766.095498,2220.617826,7476.080014
4238.826801,1149.143247,1554.432478,8216.285956
4238.827117,2374.896044,2146.597232,7105.977043
4238.827432,2451.505594,888.247130,9104.533087
4238.827747,766.095498,1332.370696,9252.574275
4238.828063,0.000000,-666.185348,9844.739029
4238.828378,-995.924147,-222.061783,9992.780217
4238.828694,-459.657299,-1628.453072,10658.965565
4238.829009,383.047749,-962.267725,11399.171507
4238.829325,-919.314598,-222.061783,10658.965565
4238.829640,-1455.581446,-740.205942,9474.636058
4238.829955,-612.876398,444.123565,9400.615463
4238.830271,919.314598,1480.411884,8364.327145
4238.830586,919.314598,2146.597232,8290.306550
4238.830902,612.876398,2368.659014,8734.430116
4238.831217,229.828649,1184.329507,9030.512492
4238.831533,536.266849,962.267725,9400.615463
4238.831848,995.924147,444.123565,9622.677246
4238.832163,306.438199,1554.432478,10436.903782
4238.832479,-1149.143247,740.205942,9844.739029
4238.832794,-1685.410096,-74.020594,9548.656652
4238.833110,-995.924147,-0.000000,10362.883188
4238.833425,-459.657299,-74.020594,9696.697840
4238.833741,0.000000,814.226536,10288.862594
4238.834056,-1532.190996,592.164754,9474.636058
4238.834371,-1608.800546,148.041188,9622.677246
4238.834687,-306.438199,666.185348,9400.615463
4238.835002,1149.143247,592.164754,9252.574275
4238.835318,919.314598,666.185348,10732.986159
4238.835633,689.485948,1110.308913,9844.739029
4238.835948,-306.438199,-0.000000,10214.842000
4238.836264,689.485948,1036.288319,9548.656652
4238.836579,1225.752797,444.123565,10362.883188
4238.836895,1685.410096,814.226536,10140.821405
4238.837210,536.266849,-0.000000,9918.759623
4238.837526,-995.924147,222.061783,9622.677246
4238.837841,536.266849,-0.000000,9918.759623
4238.838156,1532.190996,592.164754,9104.533087
4238.838472,-229.828649,814.226536,10288.862594
4238.838787,153.219100,-222.061783,9252.574275
4238.839103,-306.438199,-370.102971,9474.636058
4238.839418,612.876398,-0.000000,9030.512492
4238.839734,1915.238745,-888.247130,10807.006753
4238.840049,0.000000,518.144159,10436.903782
4238.840364,-383.047749,-1036.288319,10288.862594
4238.840680,-306.438199,-370.102971,10066.800811
4238.840995,536.266849,-0.000000,9474.636058
4238.841311,1302.362347,-148.041188,9178.553681
4238.841626,1072.533697,962.267725,9178.553681
4238.841941,229.828649,370.102971,9030.512492
4238.842257,-383.047749,296.082377,9178.553681
4238.842572,536.266849,-370.102971,9178.553681
4238.842888,766.095498,-1036.288319,9696.697840
4238.843203,-229.828649,-518.144159,10584.944971
4238.843519,-612.876398,-1998.556043,10288.862594
4238.843834,-1149.143247,-1776.494261,10214.842000
4238.844149,0.000000,-1480.411884,9844.739029
4238.844465,766.095498,-2146.597232,9622.677246
4238.844780,153.219100,-296.082377,9252.574275
4238.845096,76.609550,-1332.370696,8290.306550
4238.845411,76.609550,-518.144159,8512.368333
4238.845727,1378.971896,-592.164754,7772.162391
4238.846042,1302.362347,-740.205942,8734.430116
4238.846357,76.609550,592.164754,8882.471304
4238.846673,-459.657299,-814.226536,8956.491898
4238.846988,-842.705048,-1036.288319,9474.636058
4238.847304,0.000000,-888.247130,9548.656652
4238.847619,-229.828649,-592.164754,10066.800811
4238.847934,-1072.533697,-0.000000,10436.903782
4238.848250,-1225.752797,-1184.329507,9992.780217
4238.848565,-612.876398,-592.164754,9400.615463
4238.848881,229.828649,-0.000000,9104.533087
4238.849196,0.000000,814.226536,10066.800811
4238.849512,-306.438199,1184.329507,9252.574275
4238.849827,-536.266849,740.205942,8882.471304
4238.850142,-1072.533697,814.226536,9030.512492
4238.850458,153.219100,-370.102971,9474.636058
4238.850773,306.438199,-74.020594,9622.677246
4238.851089,-383.047749,148.041188,9548.656652
4238.851404,-919.314598,-592.164754,9992.780217
4238.851720,-842.705048,370.102971,9770.718434
4238.852035,766.095498,-592.164754,9548.656652
4238.852350,536.266849,888.247130,10066.800811
4238.852666,0.000000,1332.370696,9770.718434
4238.852981,-153.219100,222.061783,9326.594869
4238.853297,0.000000,1184.329507,9474.636058
4238.853612,1225.752797,888.247130,9474.636058
4238.853927,536.266849,1480.411884,10510.924376
4238.854243,-536.266849,1554.432478,10140.821405
4238.854558,-919.314598,-0.000000,10436.903782
4238.854874,0.000000,666.185348,9770.718434
4238.855189,995.924147,962.267725,10066.800811
4238.855505,306.438199,2146.597232,10436.903782
4238.855820,-383.047749,1406.391290,9992.780217
4238.856135,-995.924147,666.185348,9474.636058
4238.856451,76.609550,592.164754,9770.718434
4238.856766,1838.629195,1036.288319,9474.636058
4238.857082,536.266849,1480.411884,10140.821405
4238.857397,229.828649,1480.411884,9918.759623
4238.857713,-229.828649,740.205942,9548.656652
4238.858028,153.219100,962.267725,9400.615463
4238.858343,459.657299,222.061783,9622.677246
4238.858659,383.047749,1776.494261,9696.697840
4238.858974,0.000000,-0.000000,9844.739029
4238.859290,-229.828649,222.061783,9696.697840
4238.859605,153.219100,-0.000000,9992.780217
4238.859921,919.314598,-74.020594,10214.842000
4238.860236,306.438199,1036.288319,10362.883188
4238.860551,229.828649,1702.473667,9104.533087
4238.860867,0.000000,-74.020594,9844.739029
4238.861182,919.314598,148.041188,9326.594869
4238.861498,1072.533697,518.144159,9770.718434
4238.861813,306.438199,1258.350101,9178.553681
4238.862128,-306.438199,370.102971,9474.636058
4238.862444,-1072.533697,-74.020594,9178.553681
4238.862759,0.000000,-740.205942,9400.615463
4238.863075,612.876398,-0.000000,9844.739029
4238.863390,-153.219100,-0.000000,9844.739029
4238.863706,-995.924147,-962.267725,9474.636058
4238.864021,-1302.362347,-518.144159,9252.574275
4238.864336,-153.219100,-222.061783,8734.430116
4238.864652,383.047749,-592.164754,9696.697840
4238.864967,76.609550,296.082377,9326.594869
4238.865283,-842.705048,-74.020594,8364.327145
4238.865598,-1225.752797,-518.144159,8734.430116
4238.865914,306.438199,-740.205942,8956.491898
4238.866229,1072.533697,-296.082377,9548.656652
4238.866544,229.828649,296.082377,9104.533087
4238.866860,-229.828649,-740.205942,9252.574275
4238.867175,-383.047749,-666.185348,8956.491898
4238.867491,612.876398,-1110.308913,9474.636058
4238.867806,1225.752797,-370.102971,9696.697840
4238.868121,689.485948,-0.000000,9252.574275
4238.868437,0.000000,-888.247130,9252.574275
4238.868752,-153.219100,-1406.391290,9104.533087
4238.869068,689.485948,-1628.453072,9178.553681
4238.869383,842.705048,-740.205942,10288.862594
4238.869699,612.876398,-74.020594,9474.636058
4238.870014,0.000000,-1036.288319,9326.594869
4238.870329,612.876398,-518.144159,9548.656652
4238.870645,1532.190996,-74.020594,9622.677246
4238.870960,1532.190996,-148.041188,9918.759623
4238.871276,536.266849,370.102971,10214.842000
4238.871591,153.219100,-0.000000,10436.903782
4238.871907,153.219100,444.123565,9844.739029
4238.872222,842.705048,740.205942,10066.800811
4238.872537,459.657299,1036.288319,10584.944971
4238.872853,-612.876398,148.041188,10140.821405
4238.873168,-1149.143247,-222.061783,9770.718434
4238.873484,0.000000,-370.102971,9770.718434
4238.873799,995.924147,-74.020594,9548.656652
4238.874114,383.047749,666.185348,9992.780217
4238.874430,-536.266849,296.082377,9622.677246
4238.874745,-536.266849,-1332.370696,9696.697840
4238.875061,-383.047749,-0.000000,9326.594869
4238.875376,842.705048,-222.061783,9474.636058
4238.875692,306.438199,814.226536,9474.636058
4238.876007,-383.047749,444.123565,9178.553681
4238.876322,-1302.362347,-888.247130,9400.615463
4238.876638,-995.924147,740.205942,9030.512492
4238.876953,0.000000,-0.000000,9918.759623
4238.877269,-536.266849,666.185348,9918.759623
4238.877584,-1608.800546,962.267725,9844.739029
4238.877900,-1915.238745,444.123565,9770.718434
4238.878215,-1455.581446,222.061783,9918.759623
4238.878530,153.219100,148.041188,9918.759623
4238.878846,-306.438199,1184.329507,10658.965565
4238.879161,-689.485948,1332.370696,9400.615463
4238.879477,-1072.533697,888.247130,8734.430116
4238.879792,0.000000,1628.453072,8216.285956
4238.880107,1149.143247,1554.432478,9474.636058
4238.880423,536.266849,2072.576638,9474.636058
4238.880738,0.000000,1258.350101,8882.471304
4238.881054,-766.095498,962.267725,9178.553681
4238.881369,-153.219100,592.164754,9474.636058
4238.881685,536.266849,444.123565,9770.718434
4238.882000,0.000000,888.247130,9622.677246
4238.882316,-1149.143247,-0.000000,10510.924376
4238.882632,-1378.971896,-444.123565,10732.986159
4238.882947,0.000000,-148.041188,10140.821405
4238.883263,919.314598,518.144159,10732.986159
4238.883578,995.924147,2146.597232,10066.800811
4238.883894,689.485948,1332.370696,9622.677246
4238.884209,766.095498,888.247130,9548.656652
4238.884525,1532.190996,666.185348,8882.471304
4238.884840,2068.457845,370.102971,9622.677246
4238.885156,1378.971896,1554.432478,9548.656652
4238.885471,383.047749,666.185348,9622.677246
4238.885787,0.000000,-0.000000,10066.800811
4238.886102,383.047749,-444.123565,9622.677246
4238.886418,689.485948,-296.082377,10214.842000
4238.886733,0.000000,-0.000000,9844.739029
4238.887049,-229.828649,-1036.288319,9622.677246
4238.887364,-383.047749,-296.082377,9548.656652
4238.887680,536.266849,148.041188,9474.636058
4238.887995,1455.581446,-74.020594,9548.656652
4238.888311,689.485948,1184.329507,9622.677246
4238.888626,383.047749,-148.041188,9178.553681
4238.888942,0.000000,-222.061783,9474.636058
4238.889257,1302.362347,-0.000000,8882.471304
4238.889573,1838.629195,888.247130,9178.553681
4238.889888,842.705048,814.226536,9030.512492
4238.890204,-536.266849,-222.061783,9326.594869
4238.890519,-383.047749,-888.247130,9474.636058
4238.890835,612.876398,-1258.350101,9548.656652
4238.891150,689.485948,-518.144159,9992.780217
4238.891466,0.000000,-444.123565,9622.677246
4238.891781,0.000000,-814.226536,9400.615463
4238.892097,-842.705048,-74.020594,9400.615463
4238.892413,306.438199,-888.247130,9400.615463
4238.892728,1149.143247,-370.102971,9696.697840
4238.893044,306.438199,-148.041188,9474.636058
4238.893359,-459.657299,-666.185348,9770.718434
4238.893675,-229.828649,-74.020594,9400.615463
4238.893990,153.219100,-444.123565,10066.800811
4238.894306,0.000000,296.082377,9992.780217
4238.894621,-766.095498,-148.041188,10214.842000
