#time,accel_x,accel_y,accel_z
3652.281241,1225.752797,148.041188,9178.553681
3652.281555,1225.752797,518.144159,8808.450710
3652.281869,1685.410096,1110.308913,9030.512492
3652.282183,1838.629195,1924.535449,9400.615463
3652.282498,2068.457845,1776.494261,8956.491898
3652.282812,2221.676944,1776.494261,9030.512492
3652.283126,2145.067394,1776.494261,9030.512492
3652.283440,1685.410096,1332.370696,8808.450710
3652.283755,1838.629195,962.267725,8956.491898
3652.284069,766.095498,666.185348,9326.594869
3652.284383,153.219100,-0.000000,9474.636058
3652.284697,0.000000,-74.020594,9252.574275
3652.285011,-612.876398,-1036.288319,9696.697840
3652.285326,-995.924147,-1702.473667,10214.842000
3652.285640,-766.095498,-1480.411884,10140.821405
3652.285954,-1072.533697,-1332.370696,9474.636058
3652.286268,-1378.971896,-888.247130,9326.594869
3652.286583,-689.485948,-666.185348,9548.656652
3652.286897,-459.657299,-296.082377,9400.615463
3652.287211,-459.657299,-296.082377,9252.574275
3652.287525,0.000000,-296.082377,9252.574275
3652.287839,-153.219100,-74.020594,9474.636058
3652.288154,0.000000,-0.000000,9400.615463
3652.288468,0.000000,-0.000000,9844.739029
3652.288782,0.000000,-666.185348,10140.821405
3652.289096,-383.047749,-740.205942,10066.800811
3652.289411,-153.219100,-518.144159,9918.759623
3652.289725,-766.095498,-1406.391290,10362.883188
3652.290039,-919.314598,-1258.350101,10140.821405
3652.290353,-766.095498,-962.267725,10214.842000
3652.290667,-1072.533697,-1258.350101,9844.739029
3652.290982,-306.438199,-1036.288319,9474.636058
3652.291296,-153.219100,-814.226536,9326.594869
3652.291610,229.828649,-518.144159,9104.533087
3652.291924,612.876398,-666.185348,8882.471304
3652.292239,842.705048,-296.082377,8660.409521
3652.292553,766.095498,-222.061783,8882.471304
3652.292867,1608.800546,-296.082377,8882.471304
3652.293181,1302.362347,-296.082377,9178.553681
3652.293495,1149.143247,-74.020594,9178.553681
3652.293810,536.266849,-296.082377,9326.594869
3652.294124,459.657299,-0.000000,9178.553681
3652.294438,383.047749,-74.020594,9030.512492
3652.294752,229.828649,-0.000000,8808.450710
3652.295066,306.438199,-0.000000,9030.512492
3652.295381,689.485948,-0.000000,8882.471304
3652.295695,842.705048,370.102971,8512.368333
3652.296009,1072.533697,518.144159,8660.409521
3652.296323,766.095498,888.247130,9104.533087
3652.296638,612.876398,518.144159,9030.512492
3652.296952,612.876398,666.185348,9326.594869
3652.297266,459.657299,814.226536,9326.594869
3652.297580,612.876398,740.205942,9474.636058
3652.297894,459.657299,1184.329507,9844.739029
3652.298209,229.828649,962.267725,9474.636058
3652.298523,383.047749,1110.308913,9622.677246
3652.298837,306.438199,1110.308913,9622.677246
3652.299151,229.828649,1036.288319,9844.739029
3652.299466,306.438199,814.226536,9918.759623
3652.299780,0.000000,740.205942,10288.862594
3652.300094,-229.828649,666.185348,10881.027347
3652.300408,-459.657299,740.205942,10510.924376
3652.300722,-153.219100,962.267725,10732.986159
3652.301037,-229.828649,1110.308913,10658.965565
3652.301351,-229.828649,1110.308913,10510.924376
3652.301665,229.828649,888.247130,10140.821405
3652.301979,0.000000,962.267725,10362.883188
3652.302294,0.000000,888.247130,10510.924376
3652.302608,0.000000,740.205942,10362.883188
3652.302922,0.000000,296.082377,10362.883188
3652.303236,0.000000,518.144159,10214.842000
3652.303550,-153.219100,592.164754,10510.924376
3652.303865,0.000000,370.102971,10584.944971
3652.304179,0.000000,444.123565,10658.965565
3652.304493,0.000000,296.082377,10288.862594
3652.304807,0.000000,-0.000000,9918.759623
3652.305122,229.828649,518.144159,9696.697840
3652.305436,612.876398,666.185348,9474.636058
3652.305750,459.657299,370.102971,9104.533087
3652.306064,459.657299,148.041188,8956.491898
3652.306378,612.876398,-222.061783,9030.512492
3652.306693,383.047749,-74.020594,9326.594869
3652.307007,76.609550,-0.000000,9474.636058
3652.307321,306.438199,-148.041188,9696.697840
3652.307635,459.657299,-296.082377,9770.718434
3652.307949,383.047749,-370.102971,9104.533087
3652.308264,306.438199,-74.020594,8734.430116
3652.308578,612.876398,222.061783,9326.594869
3652.308892,459.657299,-0.000000,8660.409521
3652.309206,919.314598,-0.000000,8808.450710
3652.309521,229.828649,-0.000000,8734.430116
3652.309835,229.828649,-444.123565,9178.553681
3652.310149,306.438199,-296.082377,9326.594869
3652.310463,0.000000,-444.123565,9474.636058
3652.310777,229.828649,-666.185348,9474.636058
3652.311092,0.000000,-666.185348,9326.594869
3652.311406,0.000000,-814.226536,9252.574275
3652.311720,0.000000,-740.205942,9326.594869
3652.312034,0.000000,-592.164754,9252.574275
3652.312349,76.609550,-518.144159,9252.574275
3652.312663,153.219100,-370.102971,9178.553681
3652.312977,0.000000,-592.164754,9326.594869
3652.313291,0.000000,-592.164754,9474.636058
3652.313605,-459.657299,-740.205942,9474.636058
3652.313920,-383.047749,-888.247130,10066.800811
3652.314234,-383.047749,-666.185348,9918.759623
3652.314548,-229.828649,-814.226536,9992.780217
3652.314862,-229.828649,-666.185348,9844.739029
3652.315177,0.000000,-518.144159,9548.656652
3652.315491,-459.657299,-148.041188,9474.636058
3652.315805,-229.828649,-370.102971,9326.594869
3652.316119,0.000000,-222.061783,9474.636058
3652.316433,76.609550,-444.123565,9918.759623
3652.316748,0.000000,-370.102971,9622.677246
3652.317062,-229.828649,222.061783,9992.780217
3652.317376,0.000000,-148.041188,9770.718434
3652.317690,0.000000,-0.000000,9918.759623
3652.318005,0.000000,-0.000000,9770.718434
3652.318319,0.000000,-74.020594,9474.636058
3652.318633,153.219100,-0.000000,9030.512492
3652.318947,229.828649,592.164754,9178.553681
3652.319261,459.657299,666.185348,9104.533087
3652.319576,229.828649,518.144159,9400.615463
3652.319890,383.047749,814.226536,9400.615463
3652.320204,229.828649,666.185348,9696.697840
3652.320518,229.828649,740.205942,9400.615463
3652.320832,459.657299,888.247130,9696.697840
3652.321147,229.828649,888.247130,9622.677246
3652.321461,306.438199,888.247130,9474.636058
3652.321775,153.219100,888.247130,9400.615463
3652.322089,536.266849,962.267725,9474.636058
3652.322404,612.876398,962.267725,9474.636058
3652.322718,306.438199,666.185348,9474.636058
3652.323032,0.000000,888.247130,9548.656652
3652.323346,0.000000,592.164754,9474.636058
3652.323660,229.828649,740.205942,9474.636058
3652.323975,536.266849,814.226536,9770.718434
3652.324289,306.438199,666.185348,9918.759623
3652.324603,306.438199,592.164754,9696.697840
3652.324917,76.609550,592.164754,9770.718434
3652.325232,536.266849,518.144159,9548.656652
3652.325546,306.438199,518.144159,10140.821405
3652.325860,383.047749,666.185348,9844.739029
3652.326174,0.000000,296.082377,9844.739029
3652.326488,383.047749,222.061783,10362.883188
3652.326803,0.000000,296.082377,9918.759623
3652.327117,0.000000,-0.000000,9918.759623
3652.327431,0.000000,-0.000000,10066.800811
3652.327745,76.609550,222.061783,9770.718434
3652.328060,0.000000,-0.000000,9844.739029
3652.328374,0.000000,-0.000000,9844.739029
3652.328688,-153.219100,-0.000000,9992.780217
3652.329002,0.000000,-0.000000,9696.697840
3652.329316,0.000000,222.061783,9400.615463
3652.329631,0.000000,-0.000000,9770.718434
3652.329945,459.657299,148.041188,10066.800811
3652.330259,0.000000,-0.000000,9918.759623
3652.330573,0.000000,-0.000000,9622.677246
3652.330888,0.000000,-0.000000,9474.636058
3652.331202,153.219100,-0.000000,9548.656652
3652.331516,76.609550,-0.000000,9326.594869
3652.331830,76.609550,-0.000000,9474.636058
3652.332145,76.609550,-0.000000,9252.574275
3652.332459,153.219100,-0.000000,9178.553681
3652.332773,306.438199,-296.082377,9104.533087
3652.333087,153.219100,222.061783,9474.636058
3652.333402,0.000000,-0.000000,9400.615463
3652.333716,76.609550,-0.000000,8956.491898
3652.334030,0.000000,-148.041188,8882.471304
3652.334344,-383.047749,-222.061783,9030.512492
3652.334659,229.828649,-0.000000,9252.574275
3652.334973,383.047749,-0.000000,9252.574275
3652.335287,0.000000,-222.061783,9030.512492
3652.335602,229.828649,-148.041188,9252.574275
3652.335916,76.609550,-222.061783,9326.594869
3652.336230,229.828649,-296.082377,9474.636058
3652.336544,76.609550,-74.020594,9474.636058
3652.336859,306.438199,-74.020594,9474.636058
3652.337173,76.609550,-296.082377,9474.636058
3652.337487,459.657299,-148.041188,9622.677246
3652.337801,459.657299,-74.020594,9548.656652
3652.338116,76.609550,-0.000000,9548.656652
3652.338430,0.000000,-0.000000,9474.636058
3652.338744,229.828649,-0.000000,9474.636058
3652.339058,766.095498,-0.000000,9696.697840
3652.339373,0.000000,-0.000000,10140.821405
3652.339687,76.609550,-0.000000,10066.800811
3652.340001,-153.219100,222.061783,9844.739029
3652.340315,153.219100,370.102971,9622.677246
3652.340630,459.657299,666.185348,9992.780217
3652.340944,0.000000,222.061783,10066.800811
3652.341258,0.000000,222.061783,9844.739029
3652.341572,76.609550,444.123565,9992.780217
3652.341887,0.000000,592.164754,10066.800811
3652.342201,0.000000,740.205942,10288.862594
3652.342515,76.609550,518.144159,10214.842000
3652.342829,-229.828649,518.144159,9918.759623
3652.343144,0.000000,666.185348,9844.739029
3652.343458,0.000000,370.102971,9696.697840
3652.343772,-459.657299,888.247130,10362.883188
3652.344086,0.000000,666.185348,10140.821405
3652.344401,0.000000,592.164754,9770.718434
3652.344715,76.609550,592.164754,9474.636058
3652.345029,0.000000,814.226536,9918.759623
3652.345343,229.828649,740.205942,10140.821405
3652.345658,153.219100,592.164754,9326.594869
3652.345972,229.828649,444.123565,9474.636058
3652.346286,153.219100,592.164754,9696.697840
3652.346600,459.657299,592.164754,9474.636058
3652.346915,153.219100,296.082377,9548.656652
3652.347229,0.000000,444.123565,9918.759623
3652.347543,0.000000,370.102971,9770.718434
3652.347857,229.828649,222.061783,9326.594869
3652.348172,459.657299,592.164754,9326.594869
3652.348486,459.657299,518.144159,9992.780217
3652.348800,153.219100,222.061783,9252.574275
3652.349114,0.000000,148.041188,9178.553681
3652.349429,459.657299,-0.000000,9400.615463
3652.349743,459.657299,-0.000000,9474.636058
3652.350057,0.000000,-444.123565,9474.636058
3652.350372,383.047749,-74.020594,9696.697840
3652.350686,76.609550,-0.000000,9992.780217
3652.351000,76.609550,-222.061783,9104.533087
3652.351314,612.876398,-0.000000,9474.636058
3652.351629,459.657299,-74.020594,9844.739029
3652.351943,153.219100,-0.000000,9548.656652
3652.352257,0.000000,-0.000000,9474.636058
3652.352571,0.000000,-0.000000,9696.697840
3652.352886,153.219100,-222.061783,9844.739029
3652.353200,0.000000,-296.082377,9474.636058
3652.353514,0.000000,-296.082377,9622.677246
3652.353828,0.000000,-74.020594,9622.677246
3652.354143,0.000000,-222.061783,9474.636058
3652.354457,-306.438199,-222.061783,9474.636058
3652.354771,-153.219100,-0.000000,9548.656652
3652.355085,-153.219100,-222.061783,9548.656652
3652.355400,0.000000,-148.041188,9104.533087
3652.355714,-153.219100,-148.041188,9178.553681
3652.356028,153.219100,-444.123565,9622.677246
3652.356342,0.000000,-296.082377,9474.636058
3652.356657,0.000000,-222.061783,9252.574275
3652.356971,0.000000,-148.041188,9178.553681
3652.357285,0.000000,-0.000000,9400.615463
3652.357599,383.047749,-296.082377,9104.533087
3652.357914,229.828649,-0.000000,9326.594869
3652.358228,0.000000,-222.061783,9326.594869
3652.358542,76.609550,-0.000000,9326.594869
3652.358856,229.828649,74.020594,9178.553681
3652.359171,153.219100,-0.000000,9474.636058
3652.359485,0.000000,-296.082377,9548.656652
3652.359799,459.657299,-74.020594,9400.615463
3652.360113,229.828649,-74.020594,9178.553681
3652.360428,229.828649,-148.041188,9474.636058
3652.360742,383.047749,296.082377,9696.697840
3652.361056,306.438199,-0.000000,9474.636058
3652.361370,383.047749,-0.000000,9400.615463
3652.361685,153.219100,296.082377,9474.636058
3652.361999,0.000000,-148.041188,9918.759623
3652.362313,383.047749,222.061783,9696.697840
3652.362627,76.609550,444.123565,9770.718434
3652.362942,76.609550,444.123565,9844.739029
3652.363256,0.000000,-0.000000,9622.677246
3652.363570,0.000000,370.102971,9918.759623
3652.363884,76.609550,444.123565,10066.800811
3652.364199,0.000000,148.041188,9918.759623
3652.364513,0.000000,444.123565,9918.759623
3652.364827,0.000000,222.061783,10066.800811
3652.365142,306.438199,370.102971,9770.718434
3652.365456,306.438199,592.164754,9696.697840
3652.365770,76.609550,370.102971,9992.780217
3652.366084,-229.828649,222.061783,9844.739029
3652.366399,0.000000,370.102971,9844.739029
3652.366713,153.219100,-74.020594,9474.636058
3652.367027,0.000000,444.123565,9918.759623
3652.367341,0.000000,370.102971,10066.800811
3652.367656,-229.828649,296.082377,9474.636058
3652.367970,-306.438199,518.144159,9474.636058
3652.368284,306.438199,296.082377,9548.656652
3652.368598,229.828649,296.082377,9548.656652
3652.368913,229.828649,444.123565,9548.656652
3652.369227,0.000000,518.144159,9770.718434
3652.369541,153.219100,296.082377,9992.780217
3652.369855,0.000000,-0.000000,9622.677246
3652.370170,0.000000,-74.020594,9474.636058
3652.370484,76.609550,-0.000000,9918.759623
3652.370798,0.000000,148.041188,9474.636058
3652.371112,153.219100,-148.041188,9474.636058
3652.371427,0.000000,148.041188,9696.697840
3652.371741,153.219100,-0.000000,9622.677246
3652.372055,76.609550,222.061783,9400.615463
3652.372369,76.609550,148.041188,9326.594869
3652.372684,383.047749,-0.000000,9474.636058
3652.372998,229.828649,-74.020594,9326.594869
3652.373312,153.219100,-0.000000,9548.656652
3652.373626,153.219100,222.061783,9474.636058
3652.373941,76.609550,-0.000000,9400.615463
3652.374255,76.609550,74.020594,9548.656652
3652.374569,76.609550,-0.000000,10066.800811
3652.374883,76.609550,-74.020594,9770.718434
3652.375198,76.609550,-74.020594,9252.574275
3652.375512,229.828649,-0.000000,9326.594869
3652.375826,76.609550,-0.000000,9474.636058
3652.376140,229.828649,-0.000000,9474.636058
3652.376455,76.609550,-222.061783,9474.636058
3652.376769,0.000000,-74.020594,9474.636058
3652.377083,0.000000,-0.000000,9844.739029
3652.377397,76.609550,-222.061783,9326.594869
3652.377712,0.000000,-0.000000,9252.574275
3652.378026,0.000000,-148.041188,9770.718434
3652.378340,153.219100,-518.144159,9918.759623
3652.378654,0.000000,-148.041188,9548.656652
3652.378969,-229.828649,-296.082377,9474.636058
3652.379283,0.000000,-222.061783,9548.656652
3652.379597,0.000000,-74.020594,9696.697840
3652.379911,0.000000,-0.000000,9622.677246
3652.380226,0.000000,-74.020594,9548.656652
3652.380540,153.219100,-0.000000,9326.594869
3652.380854,153.219100,148.041188,9474.636058
3652.381169,0.000000,-0.000000,9474.636058
3652.381483,0.000000,-0.000000,9474.636058
3652.381797,459.657299,-0.000000,9326.594869
3652.382111,306.438199,222.061783,9548.656652
3652.382426,76.609550,222.061783,9696.697840
3652.382740,0.000000,222.061783,9474.636058
3652.383054,-306.438199,370.102971,9474.636058
3652.383368,-306.438199,444.123565,9770.718434
3652.383683,76.609550,148.041188,9622.677246
3652.383997,0.000000,370.102971,9770.718434
3652.384311,0.000000,370.102971,9474.636058
3652.384625,76.609550,666.185348,9474.636058
3652.384940,383.047749,740.205942,9474.636058
3652.385254,306.438199,592.164754,9622.677246
3652.385568,153.219100,-0.000000,9918.759623
3652.385882,76.609550,444.123565,9622.677246
3652.386197,459.657299,518.144159,9622.677246
3652.386511,229.828649,518.144159,9400.615463
3652.386825,153.219100,518.144159,9696.697840
3652.387139,153.219100,592.164754,9622.677246
3652.387454,0.000000,444.123565,9474.636058
3652.387768,229.828649,444.123565,9548.656652
3652.388082,0.000000,444.123565,9918.759623
3652.388396,383.047749,518.144159,9770.718434
3652.388711,459.657299,444.123565,9178.553681
3652.389025,153.219100,296.082377,9474.636058
3652.389339,76.609550,-0.000000,9770.718434
3652.389653,153.219100,222.061783,9548.656652
3652.389968,459.657299,370.102971,9770.718434
3652.390282,383.047749,296.082377,9548.656652
3652.390596,306.438199,444.123565,9622.677246
3652.390910,153.219100,-0.000000,9474.636058
3652.391225,229.828649,-0.000000,9696.697840
3652.391539,306.438199,148.041188,9770.718434
3652.391853,0.000000,-0.000000,9548.656652
3652.392167,-153.219100,-0.000000,9548.656652
3652.392482,0.000000,-370.102971,9770.718434
3652.392796,0.000000,-0.000000,9622.677246
3652.393110,229.828649,222.061783,9844.739029
3652.393424,0.000000,-0.000000,9696.697840
3652.393739,76.609550,-0.000000,9622.677246
3652.394053,306.438199,-74.020594,9548.656652
3652.394367,306.438199,-0.000000,9548.656652
3652.394681,76.609550,-0.000000,9696.697840
3652.394996,0.000000,-0.000000,9696.697840
3652.395310,153.219100,296.082377,9770.718434
3652.395624,-306.438199,-0.000000,9548.656652
3652.395939,0.000000,-0.000000,9622.677246
3652.396253,-153.219100,-0.000000,9326.594869
3652.396567,0.000000,148.041188,9326.594869
3652.396881,0.000000,148.041188,9770.718434
3652.397196,0.000000,-296.082377,9474.636058
3652.397510,383.047749,74.020594,9770.718434
3652.397824,-153.219100,-0.000000,9548.656652
3652.398138,76.609550,222.061783,9548.656652
3652.398453,76.609550,-74.020594,9178.553681
3652.398767,153.219100,-74.020594,9178.553681
3652.399081,383.047749,-74.020594,9696.697840
3652.399395,306.438199,-0.000000,9474.636058
3652.399710,0.000000,-0.000000,8956.491898
3652.400024,76.609550,-0.000000,9326.594869
3652.400338,153.219100,-0.000000,9548.656652
3652.400652,536.266849,-74.020594,9696.697840
3652.400967,383.047749,-74.020594,9252.574275
3652.401281,383.047749,-296.082377,9474.636058
3652.401595,306.438199,-0.000000,9474.636058
3652.401909,459.657299,-0.000000,9548.656652
3652.402224,459.657299,-0.000000,9770.718434
3652.402538,153.219100,-148.041188,9622.677246
3652.402852,229.828649,-296.082377,9548.656652
3652.403166,229.828649,-0.000000,9474.636058
3652.403481,76.609550,148.041188,9844.739029
3652.403795,383.047749,-0.000000,9622.677246
3652.404109,459.657299,-0.000000,9696.697840
3652.404423,306.438199,-0.000000,9770.718434
3652.404738,0.000000,222.061783,9548.656652
3652.405052,153.219100,296.082377,9918.759623
3652.405366,153.219100,222.061783,9844.739029
3652.405680,153.219100,-0.000000,9696.697840
3652.405995,76.609550,222.061783,9770.718434
3652.406309,-153.219100,148.041188,9622.677246
3652.406623,0.000000,-0.000000,10066.800811
3652.406937,76.609550,592.164754,9696.697840
3652.407252,0.000000,444.123565,9918.759623
3652.407566,0.000000,370.102971,9622.677246
3652.407880,0.000000,222.061783,9622.677246
3652.408194,153.219100,-0.000000,9474.636058
3652.408509,0.000000,444.123565,9770.718434
3652.408823,153.219100,518.144159,9770.718434
3652.409137,0.000000,296.082377,9474.636058
3652.409451,153.219100,444.123565,9548.656652
3652.409766,76.609550,222.061783,9400.615463
3652.410080,0.000000,296.082377,9400.615463
3652.410394,0.000000,74.020594,9400.615463
3652.410709,-76.609550,222.061783,9400.615463
3652.411023,153.219100,370.102971,9474.636058
3652.411337,229.828649,296.082377,9696.697840
3652.411651,306.438199,296.082377,9622.677246
3652.411966,153.219100,148.041188,9474.636058
3652.412280,0.000000,296.082377,9474.636058
3652.412594,0.000000,-0.000000,9548.656652
3652.412908,383.047749,-74.020594,9400.615463
3652.413223,76.609550,-222.061783,9622.677246
3652.413537,0.000000,-0.000000,9844.739029
3652.413851,76.609550,-0.000000,9474.636058
3652.414165,76.609550,-0.000000,9696.697840
3652.414480,766.095498,-222.061783,10066.800811
3652.414794,306.438199,-0.000000,9844.739029
3652.415108,0.000000,-0.000000,9326.594869
3652.415422,76.609550,222.061783,9326.594869
3652.415737,76.609550,370.102971,9844.739029
3652.416051,153.219100,-0.000000,9844.739029
3652.416365,383.047749,222.061783,9696.697840
3652.416679,-306.438199,-0.000000,9696.697840
3652.416994,0.000000,-0.000000,9548.656652
3652.417308,76.609550,-0.000000,9622.677246
3652.417622,0.000000,-0.000000,9696.697840
3652.417936,-229.828649,-0.000000,9992.780217
3652.418251,0.000000,-0.000000,9474.636058
3652.418565,76.609550,-0.000000,9326.594869
3652.418879,-459.657299,-0.000000,9844.739029
3652.419193,153.219100,-74.020594,9622.677246
3652.419508,0.000000,-0.000000,9474.636058
3652.419822,0.000000,222.061783,9474.636058
3652.420136,0.000000,-0.000000,9548.656652
3652.420450,612.876398,-0.000000,9474.636058
3652.420765,153.219100,-0.000000,9474.636058
3652.421079,0.000000,-0.000000,9696.697840
3652.421393,0.000000,-0.000000,9474.636058
3652.421707,0.000000,148.041188,9474.636058
3652.422022,76.609550,-0.000000,9474.636058
3652.422336,0.000000,-0.000000,9548.656652
3652.422650,153.219100,518.144159,9622.677246
3652.422964,153.219100,148.041188,9548.656652
3652.423279,153.219100,-0.000000,9622.677246
3652.423593,229.828649,-0.000000,9696.697840
3652.423907,153.219100,-0.000000,9400.615463
3652.424221,229.828649,-0.000000,9474.636058
3652.424536,229.828649,296.082377,9548.656652
3652.424850,76.609550,-0.000000,9548.656652
3652.425164,153.219100,-0.000000,9400.615463
3652.425479,0.000000,-0.000000,9992.780217
3652.425793,0.000000,-0.000000,9622.677246
3652.426107,0.000000,148.041188,9474.636058
3652.426421,229.828649,148.041188,9844.739029
3652.426736,459.657299,-0.000000,10066.800811
3652.427050,383.047749,148.041188,9992.780217
3652.427364,153.219100,296.082377,9696.697840
3652.427678,0.000000,296.082377,9844.739029
3652.427993,229.828649,592.164754,9992.780217
3652.428307,689.485948,222.061783,10066.800811
3652.428621,306.438199,-0.000000,9918.759623
3652.428935,229.828649,148.041188,9918.759623
3652.429250,0.000000,370.102971,9696.697840
3652.429564,153.219100,222.061783,9474.636058
3652.429878,0.000000,296.082377,9770.718434
3652.430192,0.000000,296.082377,9844.739029
3652.430507,153.219100,222.061783,9326.594869
3652.430821,0.000000,-0.000000,9770.718434
3652.431135,536.266849,-148.041188,10288.862594
3652.431450,229.828649,296.082377,10214.842000
3652.431764,612.876398,444.123565,10066.800811
3652.432079,612.876398,740.205942,9548.656652
3652.432393,689.485948,814.226536,9326.594869
3652.432707,1378.971896,1110.308913,9252.574275
3652.433022,1149.143247,1036.288319,9178.553681
3652.433336,1225.752797,888.247130,8660.409521
3652.433650,1302.362347,666.185348,9178.553681
3652.433965,919.314598,444.123565,9326.594869
3652.434279,842.705048,222.061783,9326.594869
3652.434593,919.314598,296.082377,9548.656652
3652.434908,842.705048,444.123565,9918.759623
3652.435222,919.314598,222.061783,10066.800811
3652.435536,1302.362347,666.185348,10140.821405
3652.435851,1762.019645,1184.329507,9918.759623
3652.436165,1991.848295,1480.411884,9844.739029
3652.436479,2145.067394,1702.473667,9622.677246
3652.436794,2834.553343,2368.659014,9030.512492
3652.437108,2834.553343,2146.597232,8142.265362
3652.437423,3217.601092,2072.576638,8290.306550
3652.437737,2987.772442,2220.617826,9252.574275
3652.438051,2834.553343,1702.473667,9104.533087
3652.438366,2604.724693,1702.473667,9474.636058
3652.438680,2298.286494,1554.432478,9992.780217
3652.438994,2145.067394,1480.411884,10510.924376
3652.439309,2068.457845,1702.473667,10214.842000
3652.439623,2298.286494,2146.597232,9918.759623
3652.439937,2374.896044,2812.782580,10140.821405
3652.440252,2987.772442,3108.864956,9400.615463
3652.440566,3600.648841,3552.988522,8660.409521
3652.440880,3830.477490,3775.050304,8586.388927
3652.441195,3983.696590,4441.235652,8808.450710
3652.441509,3830.477490,3923.091493,8586.388927
3652.441823,3830.477490,3552.988522,9178.553681
3652.442138,3140.991542,3701.029710,9548.656652
3652.442452,2451.505594,3627.009116,9844.739029
3652.442766,2221.676944,3182.885551,9918.759623
3652.443081,1455.581446,3034.844362,10584.944971
3652.443395,1608.800546,3256.906145,10732.986159
3652.443710,1302.362347,2812.782580,10510.924376
3652.444024,1455.581446,3552.988522,10288.862594
3652.444338,1838.629195,4071.132681,9770.718434
3652.444653,1685.410096,3997.112087,9326.594869
3652.444967,2068.457845,4293.194464,9622.677246
3652.445281,2528.115143,4219.173869,10436.903782
3652.445596,2528.115143,4071.132681,10066.800811
3652.445910,2604.724693,3552.988522,9992.780217
3652.446224,1991.848295,3478.967927,10658.965565
3652.446539,1991.848295,3849.070898,10658.965565
3652.446853,1838.629195,3775.050304,10658.965565
3652.447167,1762.019645,3627.009116,10510.924376
3652.447482,1608.800546,2664.741391,10584.944971
3652.447796,919.314598,3182.885551,9548.656652
3652.448110,1225.752797,3108.864956,8956.491898
3652.448425,1302.362347,2368.659014,9400.615463
3652.448739,1455.581446,1850.514855,9696.697840
3652.449054,919.314598,1554.432478,9992.780217
3652.449368,383.047749,1628.453072,10140.821405
3652.449682,229.828649,1406.391290,10658.965565
3652.449997,76.609550,1998.556043,10510.924376
3652.450311,306.438199,1850.514855,10436.903782
3652.450625,306.438199,1850.514855,10066.800811
3652.450940,383.047749,1924.535449,9474.636058
3652.451254,383.047749,1628.453072,9030.512492
3652.451568,153.219100,1480.411884,9104.533087
3652.451883,536.266849,666.185348,9326.594869
3652.452197,76.609550,222.061783,9844.739029
3652.452511,0.000000,-74.020594,9992.780217
3652.452826,-306.438199,-592.164754,10436.903782
3652.453140,-459.657299,-370.102971,10510.924376
3652.453454,-995.924147,-592.164754,10807.006753
3652.453769,229.828649,-666.185348,9696.697840
3652.454083,153.219100,-222.061783,9326.594869
3652.454398,842.705048,-148.041188,8734.430116
3652.454712,1302.362347,-148.041188,7994.224174
3652.455026,1838.629195,-148.041188,8290.306550
3652.455341,1915.238745,-444.123565,8216.285956
3652.455655,1915.238745,-222.061783,7846.182985
3652.455969,1532.190996,-740.205942,8586.388927
3652.456284,1225.752797,-814.226536,9548.656652
3652.456598,306.438199,-1184.329507,9252.574275
3652.456912,76.609550,-1628.453072,9252.574275
3652.457227,0.000000,-1702.473667,9474.636058
3652.457541,0.000000,-2146.597232,9992.780217
3652.457855,0.000000,-2368.659014,10140.821405
3652.458170,0.000000,-2516.700203,10066.800811
3652.458484,0.000000,-1776.494261,9918.759623
3652.458798,306.438199,-1480.411884,10288.862594
3652.459113,766.095498,-1184.329507,10362.883188
3652.459427,1225.752797,-1036.288319,10288.862594
3652.459741,1532.190996,-814.226536,9252.574275
3652.460056,1378.971896,-518.144159,8956.491898
3652.460370,1608.800546,-592.164754,8956.491898
3652.460685,1838.629195,-740.205942,9030.512492
3652.460999,1685.410096,-1184.329507,8808.450710
3652.461313,1225.752797,-740.205942,8068.244768
3652.461628,612.876398,-814.226536,8142.265362
3652.461942,153.219100,-962.267725,8438.347739
3652.462256,-306.438199,-1110.308913,8660.409521
3652.462571,-1149.143247,-1776.494261,8956.491898
3652.462885,-1455.581446,-2072.576638,9030.512492
3652.463199,-1838.629195,-2294.638420,9844.739029
3652.463514,-1608.800546,-2368.659014,10510.924376
3652.463828,-1608.800546,-1628.453072,10732.986159
3652.464142,-1378.971896,-888.247130,10658.965565
3652.464457,-995.924147,-0.000000,10140.821405
3652.464771,-459.657299,962.267725,9770.718434
3652.465085,153.219100,1998.556043,9104.533087
3652.465400,1302.362347,2220.617826,8142.265362
3652.465714,1455.581446,2072.576638,7920.203579
3652.466029,1378.971896,1628.453072,8068.244768
3652.466343,1072.533697,1184.329507,9178.553681
3652.466657,536.266849,740.205942,8586.388927
3652.466972,229.828649,296.082377,9178.553681
3652.467286,-536.266849,-0.000000,9696.697840
3652.467600,-1608.800546,222.061783,9770.718434
3652.467915,-1838.629195,-0.000000,9548.656652
3652.468229,-2221.676944,-0.000000,9548.656652
3652.468543,-1608.800546,-0.000000,10362.883188
3652.468858,-1378.971896,666.185348,10362.883188
3652.469172,-995.924147,1110.308913,10214.842000
3652.469486,-536.266849,1480.411884,10510.924376
3652.469801,-229.828649,1628.453072,11251.130318
3652.470115,612.876398,2664.741391,11251.130318
3652.470429,1225.752797,3108.864956,11029.068536
3652.470744,1378.971896,3404.947333,10807.006753
3652.471058,1532.190996,3034.844362,10436.903782
3652.471372,1532.190996,2590.720797,10214.842000
3652.471687,1378.971896,1924.535449,10510.924376
3652.472001,919.314598,1406.391290,10066.800811
3652.472316,153.219100,740.205942,9622.677246
3652.472630,76.609550,592.164754,9844.739029
3652.472944,0.000000,-74.020594,9696.697840
3652.473259,0.000000,-296.082377,9548.656652
3652.473573,-153.219100,-222.061783,9770.718434
3652.473887,-153.219100,-296.082377,9844.739029
3652.474202,0.000000,-370.102971,10362.883188
3652.474516,459.657299,-0.000000,10955.047942
3652.474830,229.828649,592.164754,10732.986159
3652.475145,612.876398,814.226536,10288.862594
3652.475459,1149.143247,1332.370696,9992.780217
3652.475773,1915.238745,1924.535449,9992.780217
3652.476088,2145.067394,2294.638420,9474.636058
3652.476402,1915.238745,1998.556043,8734.430116
3652.476716,2068.457845,1184.329507,8956.491898
3652.477031,1838.629195,592.164754,9252.574275
3652.477345,1302.362347,-0.000000,9104.533087
3652.477660,689.485948,-666.185348,8734.430116
3652.477974,306.438199,-1184.329507,8586.388927
3652.478288,76.609550,-1406.391290,8882.471304
3652.478603,-229.828649,-1628.453072,8882.471304
3652.478917,-459.657299,-1406.391290,8734.430116
3652.479231,-689.485948,-1110.308913,8660.409521
3652.479546,-766.095498,-1036.288319,9178.553681
3652.479860,-536.266849,-740.205942,9474.636058
3652.480174,-689.485948,-518.144159,9178.553681
3652.480489,-536.266849,-962.267725,9622.677246
3652.480803,76.609550,-148.041188,10066.800811
3652.481117,536.266849,-74.020594,9992.780217
3652.481432,459.657299,370.102971,9696.697840
3652.481746,153.219100,444.123565,9696.697840
3652.482060,919.314598,-296.082377,9474.636058
3652.482375,459.657299,-370.102971,9548.656652
3652.482689,0.000000,-370.102971,9252.574275
3652.483004,-229.828649,-740.205942,8586.388927
3652.483318,-383.047749,-1554.432478,8586.388927
3652.483632,-689.485948,-1628.453072,8956.491898
3652.483947,-1149.143247,-1702.473667,8956.491898
3652.484261,-1685.410096,-1702.473667,8956.491898
3652.484575,-1608.800546,-1702.473667,9030.512492
3652.484890,-1838.629195,-1776.494261,9548.656652
3652.485204,-1685.410096,-1776.494261,10658.965565
3652.485518,-1685.410096,-1776.494261,10288.862594
3652.485833,-1608.800546,-1332.370696,10510.924376
3652.486147,-1072.533697,-888.247130,11177.109724
3652.486461,-689.485948,222.061783,10732.986159
3652.486776,-76.609550,814.226536,10510.924376
3652.487090,0.000000,1258.350101,9844.739029
3652.487404,306.438199,1258.350101,9622.677246
3652.487719,689.485948,888.247130,9400.615463
3652.488033,1072.533697,666.185348,9252.574275
3652.488347,0.000000,-0.000000,9548.656652
3652.488662,0.000000,-444.123565,9178.553681
3652.488976,76.609550,-814.226536,9104.533087
3652.489291,-306.438199,-740.205942,9104.533087
3652.489605,-306.438199,-740.205942,9030.512492
3652.489919,-229.828649,-740.205942,9178.553681
3652.490234,-459.657299,-296.082377,9178.553681
3652.490548,-306.438199,-518.144159,9622.677246
3652.490862,-229.828649,-0.000000,9622.677246
3652.491177,76.609550,296.082377,9622.677246
3652.491491,536.266849,592.164754,10214.842000
3652.491805,1149.143247,1628.453072,10584.944971
3652.492120,1302.362347,1998.556043,10362.883188
3652.492434,1378.971896,2146.597232,9770.718434
3652.492748,1838.629195,2146.597232,9548.656652
3652.493063,1762.019645,2294.638420,9474.636058
3652.493377,1762.019645,1776.494261,9622.677246
3652.493691,1608.800546,1628.453072,9474.636058
3652.494006,919.314598,888.247130,9178.553681
3652.494320,536.266849,444.123565,9030.512492
3652.494635,383.047749,518.144159,9178.553681
3652.494949,229.828649,222.061783,9474.636058
3652.495263,0.000000,-0.000000,9326.594869
3652.495578,0.000000,-148.041188,9252.574275
3652.495892,76.609550,-296.082377,9770.718434
3652.496206,536.266849,-148.041188,10140.821405
3652.496521,229.828649,296.082377,9770.718434
3652.496835,229.828649,888.247130,9844.739029
3652.497149,766.095498,1332.370696,10362.883188
3652.497464,1225.752797,1924.535449,10584.944971
3652.497778,995.924147,2442.679609,9992.780217
3652.498092,995.924147,2442.679609,9622.677246
3652.498407,1455.581446,2294.638420,9548.656652
3652.498721,1378.971896,1998.556043,9474.636058
3652.499035,1149.143247,1184.329507,9622.677246
3652.499350,612.876398,296.082377,9844.739029
3652.499664,153.219100,-0.000000,9400.615463
3652.499979,-229.828649,-0.000000,9474.636058
3652.500293,-612.876398,-296.082377,9400.615463
3652.500607,-995.924147,-74.020594,9474.636058
3652.500922,-689.485948,-296.082377,9326.594869
3652.501236,-1302.362347,-0.000000,9548.656652
3652.501550,-1302.362347,-0.000000,9844.739029
3652.501865,-1378.971896,148.041188,10214.842000
3652.502179,-1225.752797,370.102971,9844.739029
3652.502493,-766.095498,370.102971,11029.068536
3652.502808,-383.047749,888.247130,10658.965565
3652.503122,76.609550,1702.473667,10288.862594
3652.503436,383.047749,1702.473667,9770.718434
3652.503751,1072.533697,1480.411884,9548.656652
3652.504065,1072.533697,888.247130,10066.800811
3652.504379,153.219100,370.102971,9474.636058
3652.504694,-229.828649,296.082377,9252.574275
3652.505008,-153.219100,-370.102971,9178.553681
3652.505322,-689.485948,-518.144159,9474.636058
3652.505637,-612.876398,-962.267725,9252.574275
3652.505951,-842.705048,-1184.329507,9252.574275
3652.506266,-1378.971896,-1406.391290,8956.491898
3652.506580,-995.924147,-1850.514855,9178.553681
3652.506894,-306.438199,-1628.453072,9696.697840
3652.507209,-536.266849,-1850.514855,10362.883188
3652.507523,-536.266849,-1258.350101,10066.800811
3652.507837,-306.438199,-296.082377,10214.842000
3652.508152,306.438199,-0.000000,10288.862594
3652.508466,766.095498,222.061783,10066.800811
3652.508780,1072.533697,814.226536,9696.697840
3652.509095,1302.362347,740.205942,9474.636058
3652.509409,1685.410096,592.164754,9622.677246
3652.509723,1762.019645,-148.041188,9030.512492
3652.510038,919.314598,-518.144159,9474.636058
3652.510352,689.485948,-1110.308913,9178.553681
3652.510666,153.219100,-1554.432478,8956.491898
3652.510981,0.000000,-1554.432478,9104.533087
3652.511295,-153.219100,-1554.432478,9030.512492
3652.511610,-306.438199,-2368.659014,9030.512492
3652.511924,-689.485948,-1776.494261,9104.533087
3652.512238,-689.485948,-1628.453072,9474.636058
3652.512553,-689.485948,-1554.432478,9992.780217
3652.512867,-383.047749,-962.267725,10140.821405
3652.513181,-153.219100,-814.226536,10214.842000
3652.513496,153.219100,-0.000000,10066.800811
3652.513810,766.095498,666.185348,10066.800811
3652.514124,1149.143247,1406.391290,9770.718434
3652.514439,1378.971896,1258.350101,9474.636058
3652.514753,1532.190996,814.226536,9622.677246
3652.515067,1455.581446,962.267725,9030.512492
3652.515382,995.924147,740.205942,8512.368333
3652.515696,1072.533697,296.082377,8808.450710
3652.516010,536.266849,-444.123565,8734.430116
3652.516325,0.000000,-518.144159,9252.574275
3652.516639,-995.924147,-1258.350101,8734.430116
3652.516953,-766.095498,-1036.288319,8734.430116
3652.517268,-1225.752797,-518.144159,8956.491898
3652.517582,-919.314598,-592.164754,9400.615463
3652.517897,-766.095498,-740.205942,9992.780217
3652.518211,-842.705048,-370.102971,10288.862594
3652.518525,-689.485948,592.164754,10288.862594
3652.518840,-536.266849,1184.329507,10436.903782
3652.519154,153.219100,1480.411884,10881.027347
3652.519468,612.876398,2516.700203,10732.986159
3652.519783,536.266849,2738.761985,9400.615463
3652.520097,1072.533697,2368.659014,9474.636058
3652.520411,1072.533697,2146.597232,9548.656652
3652.520726,459.657299,1628.453072,9992.780217
3652.521040,0.000000,740.205942,9548.656652
3652.521354,-306.438199,-0.000000,9770.718434
3652.521669,-229.828649,-0.000000,9696.697840
3652.521983,-612.876398,-0.000000,9696.697840
3652.522297,-995.924147,222.061783,9770.718434
3652.522612,-1302.362347,296.082377,9770.718434
3652.522926,-842.705048,444.123565,9696.697840
3652.523241,-459.657299,444.123565,9918.759623
3652.523555,-459.657299,666.185348,10362.883188
3652.523869,153.219100,740.205942,10807.006753
3652.524184,229.828649,1258.350101,10362.883188
3652.524498,995.924147,1702.473667,10881.027347
3652.524812,1225.752797,2220.617826,10658.965565
3652.525127,1149.143247,2368.659014,9918.759623
3652.525441,1149.143247,2072.576638,9548.656652
3652.525755,995.924147,1480.411884,9918.759623
3652.526070,842.705048,1110.308913,9696.697840
3652.526384,612.876398,740.205942,9030.512492
3652.526698,383.047749,-0.000000,9030.512492
3652.527013,229.828649,-592.164754,9474.636058
3652.527327,0.000000,-518.144159,9252.574275
3652.527641,-229.828649,-740.205942,8882.471304
3652.527956,-153.219100,-518.144159,8882.471304
3652.528270,0.000000,-592.164754,9622.677246
3652.528585,0.000000,-592.164754,9400.615463
3652.528899,76.609550,-592.164754,9400.615463
3652.529213,0.000000,-222.061783,9992.780217
3652.529528,383.047749,-0.000000,9622.677246
3652.529842,919.314598,666.185348,9844.739029
3652.530156,1072.533697,1110.308913,10066.800811
3652.530471,1072.533697,1258.350101,9474.636058
3652.530785,1149.143247,1110.308913,9030.512492
3652.531099,1072.533697,962.267725,9178.553681
3652.531413,1455.581446,-0.000000,9474.636058
3652.531728,1072.533697,-444.123565,8956.491898
3652.532042,306.438199,-666.185348,8660.409521
3652.532356,76.609550,-1036.288319,8734.430116
3652.532671,306.438199,-1184.329507,9030.512492
3652.532985,76.609550,-962.267725,8734.430116
3652.533299,-383.047749,-962.267725,8882.471304
3652.533613,-689.485948,-1184.329507,9252.574275
3652.533928,-842.705048,-1110.308913,9326.594869
3652.534242,-689.485948,-1110.308913,9622.677246
3652.534556,-383.047749,-592.164754,10288.862594
3652.534870,-536.266849,-370.102971,10140.821405
3652.535185,76.609550,-296.082377,10584.944971
3652.535499,153.219100,148.041188,10658.965565
3652.535813,229.828649,518.144159,10584.944971
3652.536128,383.047749,962.267725,9622.677246
3652.536442,536.266849,1110.308913,9548.656652
3652.536756,689.485948,592.164754,9844.739029
3652.537070,766.095498,666.185348,9400.615463
3652.537385,153.219100,-0.000000,9178.553681
3652.537699,-153.219100,-666.185348,9178.553681
3652.538013,-536.266849,-888.247130,9326.594869
3652.538327,-995.924147,-1184.329507,9474.636058
3652.538642,-919.314598,-1036.288319,9178.553681
3652.538956,-1685.410096,-1406.391290,9696.697840
3652.539270,-1455.581446,-1332.370696,9918.759623
3652.539584,-1302.362347,-1332.370696,9548.656652
3652.539899,-1149.143247,-666.185348,10288.862594
3652.540213,-842.705048,-148.041188,10140.821405
3652.540527,-459.657299,222.061783,10140.821405
3652.540842,0.000000,888.247130,10436.903782
3652.541156,536.266849,1406.391290,10066.800811
3652.541470,689.485948,1924.535449,9474.636058
3652.541784,1149.143247,1998.556043,9400.615463
3652.542099,1149.143247,1628.453072,9844.739029
3652.542413,1302.362347,962.267725,9252.574275
3652.542727,766.095498,444.123565,9104.533087
3652.543041,383.047749,-0.000000,8808.450710
3652.543356,536.266849,-666.185348,9474.636058
3652.543670,153.219100,-666.185348,9252.574275
3652.543984,-383.047749,-740.205942,9178.553681
3652.544299,-612.876398,-740.205942,9178.553681
3652.544613,-766.095498,-518.144159,9030.512492
3652.544927,0.000000,-148.041188,9770.718434
3652.545241,0.000000,-148.041188,10140.821405
3652.545556,0.000000,444.123565,10066.800811
3652.545870,306.438199,740.205942,10066.800811
3652.546184,536.266849,1332.370696,9992.780217
3652.546498,1455.581446,1406.391290,10510.924376
3652.546813,1455.581446,2146.597232,10066.800811
3652.547127,1455.581446,2146.597232,9696.697840
3652.547441,1378.971896,1702.473667,9474.636058
3652.547756,1685.410096,1406.391290,9770.718434
3652.548070,1072.533697,1110.308913,9844.739029
3652.548384,612.876398,592.164754,9178.553681
3652.548698,459.657299,-0.000000,9178.553681
3652.549013,0.000000,-0.000000,9326.594869
3652.549327,-536.266849,-370.102971,9104.533087
3652.549641,-689.485948,-518.144159,9252.574275
3652.549955,-536.266849,-444.123565,9326.594869
3652.550270,-612.876398,-518.144159,9474.636058
3652.550584,-612.876398,-370.102971,9770.718434
3652.550898,-383.047749,296.082377,9844.739029
3652.551213,0.000000,666.185348,9770.718434
3652.551527,306.438199,962.267725,10510.924376
3652.551841,612.876398,1776.494261,10066.800811
3652.552155,842.705048,2294.638420,9844.739029
3652.552470,995.924147,2368.659014,9696.697840
3652.552784,1149.143247,1628.453072,9474.636058
3652.553098,1378.971896,1184.329507,9548.656652
3652.553412,766.095498,740.205942,9474.636058
3652.553727,383.047749,444.123565,8882.471304
3652.554041,536.266849,-74.020594,9178.553681
3652.554355,0.000000,-222.061783,9252.574275
3652.554670,-536.266849,-518.144159,9252.574275
3652.554984,-1072.533697,-740.205942,9104.533087
3652.555298,-995.924147,-518.144159,9104.533087
3652.555612,-1302.362347,-814.226536,9622.677246
3652.555927,-766.095498,-740.205942,10140.821405
3652.556241,-612.876398,-148.041188,10140.821405
3652.556555,-995.924147,222.061783,10288.862594
3652.556869,229.828649,222.061783,10584.944971
3652.557184,76.609550,888.247130,10510.924376
3652.557498,612.876398,1258.350101,10510.924376
3652.557812,306.438199,1258.350101,10066.800811
3652.558127,689.485948,1406.391290,9844.739029
3652.558441,1149.143247,1184.329507,9474.636058
3652.558755,919.314598,592.164754,9548.656652
3652.559069,459.657299,-0.000000,9252.574275
3652.559384,0.000000,-592.164754,9178.553681
3652.559698,0.000000,-962.267725,9252.574275
3652.560012,-383.047749,-962.267725,8882.471304
3652.560326,-995.924147,-1332.370696,8808.450710
3652.560641,-1072.533697,-1406.391290,9030.512492
3652.560955,-842.705048,-1702.473667,9400.615463
3652.561269,-689.485948,-1702.473667,9696.697840
3652.561584,-995.924147,-1480.411884,10214.842000
3652.561898,-766.095498,-740.205942,10140.821405
3652.562212,-306.438199,-296.082377,10436.903782
3652.562526,229.828649,-0.000000,10288.862594
3652.562841,689.485948,592.164754,10362.883188
3652.563155,919.314598,1258.350101,9770.718434
3652.563469,1225.752797,1110.308913,9104.533087
3652.563783,1455.581446,666.185348,9178.553681
3652.564098,1455.581446,296.082377,9252.574275
3652.564412,1302.362347,-0.000000,9104.533087
3652.564726,919.314598,-518.144159,9030.512492
3652.565041,383.047749,-888.247130,8882.471304
3652.565355,153.219100,-962.267725,9030.512492
3652.565669,-459.657299,-1110.308913,8808.450710
3652.565983,-459.657299,-1036.288319,8808.450710
3652.566298,-1149.143247,-1332.370696,8956.491898
3652.566612,-1149.143247,-1184.329507,9474.636058
3652.566926,-689.485948,-666.185348,10288.862594
3652.567240,-995.924147,-296.082377,9844.739029
3652.567555,0.000000,-0.000000,9844.739029
3652.567869,306.438199,592.164754,10140.821405
3652.568183,689.485948,1184.329507,10436.903782
3652.568497,536.266849,1776.494261,10214.842000
3652.568812,689.485948,2072.576638,9844.739029
3652.569126,1072.533697,1702.473667,9548.656652
3652.569440,1072.533697,1776.494261,9696.697840
3652.569755,689.485948,962.267725,9326.594869
3652.570069,76.609550,518.144159,9104.533087
3652.570383,-229.828649,-148.041188,9474.636058
3652.570697,-459.657299,-296.082377,8956.491898
3652.571012,-536.266849,-592.164754,9326.594869
3652.571326,-842.705048,-592.164754,9326.594869
3652.571640,-1072.533697,-1110.308913,9326.594869
3652.571954,-919.314598,-962.267725,9918.759623
3652.572269,-612.876398,-740.205942,10362.883188
3652.572583,-612.876398,-74.020594,10362.883188
3652.572897,-229.828649,370.102971,10658.965565
3652.573212,0.000000,888.247130,10732.986159
3652.573526,919.314598,1480.411884,10066.800811
3652.573840,842.705048,2146.597232,9844.739029
3652.574154,1149.143247,2146.597232,9622.677246
3652.574469,1685.410096,2072.576638,9696.697840
3652.574783,1378.971896,1554.432478,9474.636058
3652.575097,995.924147,1184.329507,9178.553681
3652.575411,766.095498,814.226536,8956.491898
3652.575726,306.438199,-0.000000,9474.636058
3652.576040,0.000000,-296.082377,9696.697840
3652.576354,-306.438199,-370.102971,9696.697840
3652.576669,0.000000,-962.267725,9252.574275
3652.576983,-612.876398,-296.082377,9252.574275
3652.577297,-306.438199,-666.185348,9400.615463
3652.577611,0.000000,-592.164754,9992.780217
3652.577926,0.000000,-0.000000,10066.800811
3652.578240,0.000000,296.082377,9622.677246
3652.578554,689.485948,888.247130,9770.718434
3652.578868,995.924147,1480.411884,10362.883188
3652.579183,1225.752797,1628.453072,9992.780217
3652.579497,1302.362347,1998.556043,9474.636058
3652.579811,919.314598,1554.432478,9548.656652
3652.580126,1302.362347,1110.308913,9696.697840
3652.580440,995.924147,740.205942,9770.718434
3652.580754,766.095498,444.123565,9178.553681
3652.581068,306.438199,-148.041188,9030.512492
3652.581383,76.609550,-444.123565,9104.533087
3652.581697,-306.438199,-814.226536,8956.491898
3652.582011,0.000000,-888.247130,9030.512492
3652.582325,-459.657299,-888.247130,8586.388927
3652.582640,-459.657299,-1110.308913,8956.491898
3652.582954,-459.657299,-962.267725,9400.615463
3652.583268,-612.876398,-592.164754,10214.842000
3652.583583,-536.266849,-370.102971,10066.800811
3652.583897,0.000000,-222.061783,10288.862594
3652.584211,766.095498,-0.000000,10362.883188
3652.584525,0.000000,888.247130,9696.697840
3652.584840,459.657299,1258.350101,9696.697840
3652.585154,612.876398,962.267725,10066.800811
3652.585468,842.705048,518.144159,9326.594869
3652.585782,842.705048,296.082377,9400.615463
3652.586097,689.485948,-74.020594,9326.594869
3652.586411,0.000000,-814.226536,9104.533087
3652.586725,76.609550,-740.205942,9474.636058
3652.587040,-306.438199,-888.247130,9326.594869
3652.587354,-306.438199,-740.205942,9104.533087
3652.587668,-842.705048,-592.164754,8956.491898
3652.587982,-766.095498,-666.185348,8882.471304
3652.588297,-689.485948,-740.205942,9326.594869
3652.588611,-766.095498,-814.226536,9770.718434
3652.588925,-919.314598,-74.020594,10140.821405
3652.589239,-689.485948,-0.000000,10066.800811
3652.589554,-153.219100,444.123565,10510.924376
3652.589868,229.828649,666.185348,10732.986159
3652.590182,306.438199,1480.411884,10510.924376
3652.590497,306.438199,1258.350101,9992.780217
3652.590811,536.266849,1110.308913,9844.739029
3652.591125,766.095498,1184.329507,9770.718434
3652.591439,689.485948,740.205942,9400.615463
3652.591754,383.047749,518.144159,9030.512492
3652.592068,383.047749,-296.082377,8660.409521
3652.592382,383.047749,-74.020594,8808.450710
3652.592696,76.609550,-370.102971,8882.471304
3652.593011,-459.657299,-222.061783,8660.409521
3652.593325,-919.314598,-814.226536,8808.450710
3652.593639,-383.047749,-1036.288319,9474.636058
3652.593954,-919.314598,-1036.288319,9770.718434
3652.594268,-766.095498,-740.205942,10214.842000
3652.594582,-612.876398,-370.102971,10288.862594
3652.594896,536.266849,-74.020594,10510.924376
3652.595211,306.438199,666.185348,10807.006753
3652.595525,995.924147,1850.514855,10066.800811
3652.595839,995.924147,1554.432478,9474.636058
3652.596153,1225.752797,1554.432478,9474.636058
3652.596468,1532.190996,1406.391290,9400.615463
3652.596782,1225.752797,888.247130,9104.533087
3652.597096,1149.143247,666.185348,8956.491898
3652.597410,766.095498,-0.000000,9252.574275
3652.597725,306.438199,-370.102971,9400.615463
3652.598039,153.219100,-888.247130,9326.594869
3652.598353,-919.314598,-814.226536,8956.491898
3652.598668,-689.485948,-444.123565,9622.677246
3652.598982,-383.047749,-444.123565,9400.615463
3652.599296,-306.438199,-518.144159,9770.718434
3652.599610,-306.438199,-666.185348,10288.862594
3652.599925,-306.438199,-0.000000,9548.656652
3652.600239,0.000000,666.185348,10066.800811
3652.600553,536.266849,888.247130,10436.903782
3652.600867,612.876398,1628.453072,10658.965565
3652.601182,536.266849,1776.494261,9918.759623
3652.601496,689.485948,1850.514855,9622.677246
3652.601810,842.705048,1998.556043,9696.697840
3652.602125,842.705048,1702.473667,9548.656652
3652.602439,842.705048,1110.308913,9252.574275
3652.602753,459.657299,296.082377,8956.491898
3652.603067,76.609550,-0.000000,8956.491898
3652.603382,0.000000,-518.144159,9030.512492
3652.603696,-459.657299,-666.185348,9252.574275
3652.604010,-766.095498,-518.144159,9178.553681
3652.604324,-919.314598,-222.061783,9252.574275
3652.604639,-1225.752797,-592.164754,9548.656652
3652.604953,-766.095498,-592.164754,10140.821405
3652.605267,-842.705048,-148.041188,10584.944971
3652.605582,-306.438199,148.041188,10288.862594
3652.605896,76.609550,518.144159,10436.903782
3652.606210,459.657299,1258.350101,10658.965565
3652.606524,919.314598,2146.597232,9622.677246
3652.606839,1149.143247,1628.453072,9400.615463
3652.607153,1455.581446,1184.329507,9400.615463
3652.607467,919.314598,1036.288319,9696.697840
3652.607781,842.705048,666.185348,9252.574275
3652.608096,842.705048,-0.000000,9252.574275
3652.608410,0.000000,-592.164754,9400.615463
3652.608724,-306.438199,-666.185348,9400.615463
3652.609039,-612.876398,-1036.288319,9326.594869
3652.609353,-1072.533697,-1036.288319,9326.594869
3652.609667,-1455.581446,-1110.308913,9844.739029
3652.609981,-1072.533697,-962.267725,9622.677246
3652.610296,-459.657299,-1036.288319,10066.800811
3652.610610,-766.095498,-740.205942,10362.883188
3652.610924,-383.047749,-148.041188,10066.800811
3652.611238,306.438199,-74.020594,10066.800811
3652.611553,612.876398,592.164754,10584.944971
3652.611867,1608.800546,1332.370696,10066.800811
3652.612181,919.314598,1554.432478,9326.594869
3652.612496,995.924147,1406.391290,9326.594869
3652.612810,1302.362347,1110.308913,9400.615463
3652.613124,766.095498,592.164754,9178.553681
3652.613438,536.266849,-0.000000,8512.368333
3652.613753,76.609550,-592.164754,8882.471304
3652.614067,-306.438199,-1406.391290,8882.471304
3652.614381,-536.266849,-1480.411884,8882.471304
3652.614695,-842.705048,-1332.370696,9252.574275
3652.615010,-1149.143247,-1406.391290,9474.636058
3652.615324,-1149.143247,-1258.350101,9474.636058
3652.615638,-612.876398,-1184.329507,9696.697840
3652.615953,-536.266849,-888.247130,10066.800811
3652.616267,-842.705048,-444.123565,10066.800811
3652.616581,306.438199,-0.000000,9992.780217
3652.616895,766.095498,740.205942,10214.842000
3652.617210,842.705048,1554.432478,10066.800811
3652.617524,1378.971896,1702.473667,9326.594869
3652.617838,1608.800546,1480.411884,8734.430116
3652.618152,1455.581446,1036.288319,9030.512492
3652.618467,1608.800546,592.164754,9400.615463
3652.618781,995.924147,-0.000000,8956.491898
3652.619095,383.047749,-518.144159,9252.574275
3652.619410,76.609550,-962.267725,9696.697840
3652.619724,0.000000,-1184.329507,9474.636058
3652.620038,-459.657299,-962.267725,9104.533087
3652.620352,-842.705048,-740.205942,9326.594869
3652.620667,-766.095498,-740.205942,9474.636058
3652.620981,-689.485948,-592.164754,9696.697840
3652.621295,-306.438199,-370.102971,9918.759623
3652.621609,-459.657299,-0.000000,9918.759623
3652.621924,-153.219100,518.144159,10214.842000
3652.622238,766.095498,1110.308913,10362.883188
3652.622552,459.657299,1332.370696,10362.883188
3652.622867,459.657299,1702.473667,10288.862594
3652.623181,766.095498,1850.514855,9844.739029
3652.623495,919.314598,1406.391290,9918.759623
3652.623809,383.047749,1406.391290,9844.739029
3652.624124,459.657299,518.144159,9326.594869
3652.624438,153.219100,148.041188,9326.594869
3652.624752,0.000000,-148.041188,9474.636058
3652.625066,0.000000,-370.102971,9326.594869
3652.625381,-459.657299,-370.102971,9030.512492
3652.625695,-536.266849,-444.123565,8882.471304
3652.626009,-766.095498,-444.123565,9400.615463
3652.626323,-689.485948,-296.082377,9474.636058
3652.626638,-995.924147,-222.061783,10066.800811
3652.626952,0.000000,-0.000000,10658.965565
3652.627266,0.000000,592.164754,10140.821405
3652.627581,0.000000,814.226536,10140.821405
3652.627895,689.485948,1554.432478,10140.821405
3652.628209,995.924147,1998.556043,10436.903782
3652.628523,1225.752797,2146.597232,9548.656652
3652.628838,1378.971896,1776.494261,8956.491898
3652.629152,1225.752797,1258.350101,9474.636058
3652.629466,1225.752797,740.205942,9326.594869
3652.629780,229.828649,518.144159,9474.636058
3652.630095,689.485948,-444.123565,9696.697840
3652.630409,0.000000,-814.226536,9548.656652
3652.630723,-306.438199,-740.205942,9400.615463
3652.631038,-459.657299,-592.164754,8808.450710
3652.631352,-459.657299,-444.123565,9252.574275
3652.631666,-306.438199,-444.123565,9474.636058
3652.631981,0.000000,-518.144159,9474.636058
3652.632295,-306.438199,-222.061783,9918.759623
3652.632610,-229.828649,-0.000000,9918.759623
3652.632924,0.000000,296.082377,10288.862594
3652.633238,229.828649,296.082377,10955.047942
3652.633553,766.095498,1110.308913,10807.006753
3652.633867,1072.533697,1332.370696,9844.739029
3652.634182,1225.752797,1480.411884,9844.739029
3652.634496,1302.362347,1406.391290,9770.718434
3652.634810,995.924147,962.267725,9548.656652
3652.635125,995.924147,444.123565,8734.430116
3652.635439,612.876398,-148.041188,8808.450710
3652.635754,766.095498,-740.205942,8882.471304
3652.636068,153.219100,-518.144159,8512.368333
3652.636382,0.000000,-1258.350101,7846.182985
3652.636697,-612.876398,-1332.370696,8808.450710
3652.637011,-766.095498,-1332.370696,9104.533087
3652.637325,-306.438199,-1110.308913,9474.636058
3652.637640,-995.924147,-740.205942,10362.883188
3652.637954,-1072.533697,-444.123565,10214.842000
3652.638269,-536.266849,-222.061783,10436.903782
3652.638583,0.000000,666.185348,10214.842000
3652.638897,459.657299,1036.288319,10140.821405
3652.639212,842.705048,1332.370696,9992.780217
3652.639526,919.314598,1036.288319,9400.615463
3652.639841,1072.533697,1258.350101,9400.615463
3652.640155,1685.410096,1036.288319,9326.594869
3652.640469,1072.533697,814.226536,9178.553681
3652.640784,689.485948,-74.020594,9178.553681
3652.641098,153.219100,-740.205942,9326.594869
3652.641413,0.000000,-1184.329507,9178.553681
3652.641727,-459.657299,-740.205942,9474.636058
3652.642041,-919.314598,-962.267725,9178.553681
3652.642356,-842.705048,-1110.308913,9474.636058
3652.642670,-1225.752797,-814.226536,9326.594869
3652.642984,-919.314598,-666.185348,9474.636058
3652.643299,-766.095498,-370.102971,9992.780217
3652.643613,-536.266849,-0.000000,10510.924376
3652.643928,0.000000,296.082377,10881.027347
3652.644242,306.438199,740.205942,10658.965565
3652.644556,383.047749,1554.432478,10288.862594
3652.644871,612.876398,1554.432478,10362.883188
3652.645185,1072.533697,1554.432478,9992.780217
3652.645500,1072.533697,1184.329507,10066.800811
3652.645814,842.705048,1036.288319,9326.594869
3652.646128,306.438199,592.164754,8808.450710
3652.646443,153.219100,-0.000000,8808.450710
3652.646757,76.609550,-518.144159,8882.471304
3652.647072,-383.047749,-444.123565,9474.636058
3652.647386,-766.095498,-1036.288319,8586.388927
3652.647700,-766.095498,-1406.391290,9252.574275
3652.648015,-919.314598,-962.267725,9696.697840
3652.648329,-842.705048,-1776.494261,10066.800811
3652.648643,-689.485948,-592.164754,10362.883188
3652.648958,-536.266849,-0.000000,10288.862594
3652.649272,76.609550,740.205942,10436.903782
3652.649587,766.095498,1258.350101,9696.697840
3652.649901,919.314598,1924.535449,9918.759623
3652.650215,1455.581446,2146.597232,10066.800811
3652.650530,1838.629195,1850.514855,9030.512492
3652.650844,1838.629195,1702.473667,9252.574275
3652.651159,1532.190996,888.247130,9400.615463
3652.651473,1072.533697,-0.000000,9474.636058
3652.651787,919.314598,-296.082377,9326.594869
3652.652102,-229.828649,-592.164754,9326.594869
3652.652416,-229.828649,-1036.288319,9696.697840
3652.652731,-612.876398,-814.226536,9622.677246
3652.653045,-919.314598,-962.267725,9178.553681
3652.653359,-995.924147,-814.226536,9326.594869
3652.653674,-383.047749,-740.205942,9400.615463
3652.653988,-153.219100,-370.102971,9696.697840
3652.654302,0.000000,-0.000000,9918.759623
3652.654617,153.219100,-0.000000,10362.883188
3652.654931,766.095498,666.185348,10436.903782
3652.655246,459.657299,1036.288319,9844.739029
3652.655560,689.485948,1850.514855,10140.821405
3652.655874,689.485948,1480.411884,9992.780217
3652.656189,306.438199,1406.391290,9696.697840
3652.656503,689.485948,962.267725,9474.636058
3652.656818,612.876398,296.082377,9252.574275
3652.657132,229.828649,-0.000000,8956.491898
3652.657446,153.219100,-592.164754,8808.450710
3652.657761,0.000000,-888.247130,9030.512492
3652.658075,-383.047749,-888.247130,9030.512492
3652.658390,-766.095498,-666.185348,8808.450710
3652.658704,-766.095498,-518.144159,9104.533087
3652.659018,-689.485948,-814.226536,9622.677246
3652.659333,-383.047749,-740.205942,9696.697840
3652.659647,-536.266849,-296.082377,10288.862594
3652.659961,-306.438199,-0.000000,10214.842000
3652.660276,153.219100,518.144159,10288.862594
3652.660590,536.266849,1110.308913,10362.883188
3652.660905,383.047749,1850.514855,9622.677246
3652.661219,689.485948,1776.494261,9622.677246
3652.661533,1149.143247,1554.432478,9474.636058
3652.661848,1532.190996,962.267725,9326.594869
3652.662162,919.314598,592.164754,9474.636058
3652.662477,229.828649,-0.000000,9474.636058
3652.662791,153.219100,-518.144159,9030.512492
3652.663105,-383.047749,-592.164754,9474.636058
3652.663420,-383.047749,-592.164754,9474.636058
3652.663734,-612.876398,-814.226536,9548.656652
3652.664049,-842.705048,-666.185348,9252.574275
3652.664363,-459.657299,-518.144159,9104.533087
3652.664677,-536.266849,-370.102971,9548.656652
3652.664992,-459.657299,-296.082377,10140.821405
3652.665306,-306.438199,444.123565,9992.780217
3652.665620,0.000000,296.082377,10140.821405
3652.665935,229.828649,1258.350101,10362.883188
3652.666249,612.876398,1110.308913,10214.842000
3652.666564,536.266849,1776.494261,9918.759623
3652.666878,306.438199,1406.391290,9918.759623
3652.667192,459.657299,888.247130,9770.718434
3652.667507,612.876398,814.226536,9548.656652
3652.667821,459.657299,222.061783,8956.491898
3652.668136,383.047749,-74.020594,9400.615463
3652.668450,-383.047749,-296.082377,9030.512492
3652.668764,-306.438199,-1036.288319,8882.471304
3652.669079,-536.266849,-666.185348,9252.574275
3652.669393,-536.266849,-1036.288319,8956.491898
3652.669708,-383.047749,-740.205942,9474.636058
3652.670022,0.000000,-1110.308913,9844.739029
3652.670336,-459.657299,-518.144159,9844.739029
3652.670651,-612.876398,-0.000000,10288.862594
3652.670965,-383.047749,148.041188,10362.883188
3652.671279,153.219100,666.185348,10584.944971
3652.671594,536.266849,1480.411884,10214.842000
3652.671908,766.095498,1628.453072,9548.656652
3652.672223,1225.752797,1554.432478,9400.615463
3652.672537,1532.190996,1110.308913,9252.574275
3652.672851,1838.629195,444.123565,9474.636058
3652.673166,1149.143247,518.144159,9326.594869
3652.673480,536.266849,-148.041188,8882.471304
3652.673795,76.609550,-444.123565,8734.430116
3652.674109,0.000000,-518.144159,9400.615463
3652.674423,-306.438199,-666.185348,9252.574275
3652.674738,-612.876398,-814.226536,9104.533087
3652.675052,-536.266849,-814.226536,9178.553681
3652.675367,-459.657299,-888.247130,9400.615463
3652.675681,-459.657299,-888.247130,9918.759623
3652.675995,-459.657299,-370.102971,9844.739029
3652.676310,-153.219100,222.061783,9992.780217
3652.676624,76.609550,666.185348,10436.903782
3652.676938,459.657299,888.247130,10362.883188
3652.677253,1149.143247,1480.411884,10140.821405
3652.677567,842.705048,1480.411884,9918.759623
3652.677882,842.705048,1258.350101,9548.656652
3652.678196,1072.533697,1332.370696,9474.636058
3652.678510,766.095498,592.164754,9400.615463
3652.678825,459.657299,-148.041188,9326.594869
3652.679139,229.828649,-592.164754,9104.533087
3652.679454,-306.438199,-740.205942,8586.388927
3652.679768,-536.266849,-444.123565,9178.553681
3652.680082,-536.266849,-592.164754,9474.636058
3652.680397,-995.924147,-1036.288319,9548.656652
3652.680711,-766.095498,-1036.288319,9918.759623
3652.681026,-842.705048,-1184.329507,10140.821405
3652.681340,-612.876398,-740.205942,10066.800811
3652.681654,-76.609550,-0.000000,10214.842000
3652.681969,76.609550,592.164754,10288.862594
3652.682283,536.266849,962.267725,10510.924376
3652.682597,1072.533697,1628.453072,9622.677246
3652.682912,1149.143247,1850.514855,9474.636058
3652.683226,1762.019645,1480.411884,9326.594869
3652.683541,1455.581446,1258.350101,9474.636058
3652.683855,995.924147,814.226536,9696.697840
3652.684169,536.266849,-0.000000,9326.594869
3652.684484,229.828649,-222.061783,9474.636058
3652.684798,0.000000,-888.247130,9400.615463
3652.685113,0.000000,-1036.288319,9326.594869
3652.685427,-612.876398,-592.164754,9326.594869
3652.685741,-766.095498,-814.226536,9178.553681
3652.686056,-612.876398,-888.247130,9030.512492
3652.686370,-612.876398,-740.205942,9844.739029
3652.686685,-383.047749,-444.123565,9770.718434
3652.686999,0.000000,222.061783,10436.903782
3652.687313,0.000000,518.144159,10066.800811
3652.687628,689.485948,814.226536,10510.924376
3652.687942,612.876398,1332.370696,10881.027347
3652.688256,842.705048,1702.473667,9992.780217
3652.688571,1225.752797,1480.411884,9548.656652
3652.688885,1225.752797,1184.329507,9400.615463
3652.689200,1149.143247,1036.288319,9474.636058
3652.689514,153.219100,296.082377,8882.471304
3652.689828,229.828649,-0.000000,9030.512492
3652.690143,76.609550,-444.123565,8882.471304
3652.690457,0.000000,-740.205942,8512.368333
3652.690772,-383.047749,-592.164754,8808.450710
3652.691086,-919.314598,-296.082377,9770.718434
3652.691400,-1072.533697,-888.247130,9474.636058
3652.691715,-612.876398,-814.226536,9548.656652
3652.692029,-612.876398,-518.144159,9918.759623
3652.692344,-612.876398,-0.000000,10288.862594
3652.692658,76.609550,296.082377,10214.842000
3652.692972,306.438199,962.267725,10214.842000
3652.693287,612.876398,1628.453072,10066.800811
3652.693601,995.924147,1850.514855,9696.697840
3652.693915,1149.143247,1924.535449,9548.656652
3652.694230,1225.752797,1776.494261,9770.718434
3652.694544,1302.362347,1184.329507,9474.636058
3652.694859,995.924147,592.164754,9030.512492
3652.695173,459.657299,-0.000000,9030.512492
3652.695487,76.609550,-0.000000,9770.718434
3652.695802,229.828649,-518.144159,9474.636058
3652.696116,-306.438199,-222.061783,9326.594869
3652.696431,-536.266849,-222.061783,9252.574275
3652.696745,-919.314598,-370.102971,8956.491898
3652.697059,-766.095498,-222.061783,9252.574275
3652.697374,0.000000,-592.164754,9696.697840
3652.697688,-459.657299,-222.061783,10584.944971
3652.698003,-383.047749,-0.000000,10362.883188
3652.698317,0.000000,518.144159,10362.883188
3652.698631,306.438199,962.267725,10807.006753
3652.698946,459.657299,1332.370696,10510.924376
3652.699260,842.705048,1776.494261,10288.862594
3652.699574,842.705048,1702.473667,9918.759623
3652.699889,919.314598,1036.288319,9622.677246
3652.700203,919.314598,740.205942,9252.574275
3652.700518,612.876398,-148.041188,9104.533087
3652.700832,153.219100,-592.164754,9474.636058
3652.701146,0.000000,-814.226536,9400.615463
3652.701461,-383.047749,-814.226536,9178.553681
3652.701775,-919.314598,-740.205942,9252.574275
3652.702090,-383.047749,-1184.329507,9474.636058
3652.702404,-536.266849,-1332.370696,9696.697840
3652.702718,-459.657299,-1258.350101,9696.697840
3652.703033,-689.485948,-888.247130,9918.759623
3652.703347,-459.657299,-222.061783,9918.759623
3652.703661,0.000000,-0.000000,10066.800811
3652.703976,383.047749,148.041188,9992.780217
3652.704290,766.095498,814.226536,9548.656652
3652.704605,1072.533697,1332.370696,8956.491898
3652.704919,1378.971896,1258.350101,9252.574275
3652.705233,1149.143247,888.247130,9474.636058
3652.705548,1302.362347,296.082377,9326.594869
3652.705862,383.047749,-74.020594,8660.409521
3652.706177,0.000000,-888.247130,8734.430116
3652.706491,0.000000,-1036.288319,9400.615463
3652.706805,-383.047749,-888.247130,9326.594869
3652.707120,-842.705048,-1258.350101,8808.450710
3652.707434,-766.095498,-1110.308913,8956.491898
3652.707749,-995.924147,-814.226536,9252.574275
3652.708063,-612.876398,-1036.288319,9474.636058
3652.708377,-383.047749,-814.226536,9992.780217
3652.708692,-306.438199,-296.082377,9918.759623
3652.709006,-229.828649,370.102971,10214.842000
3652.709320,383.047749,666.185348,9918.759623
3652.709635,612.876398,962.267725,10214.842000
3652.709949,536.266849,1406.391290,9622.677246
3652.710264,1072.533697,1184.329507,9474.636058
3652.710578,1378.971896,1406.391290,9326.594869
3652.710892,1149.143247,888.247130,9326.594869
3652.711207,842.705048,370.102971,9178.553681
3652.711521,536.266849,-370.102971,9400.615463
3652.711836,0.000000,-888.247130,8882.471304
3652.712150,0.000000,-592.164754,8956.491898
3652.712464,-383.047749,-444.123565,9030.512492
3652.712779,-612.876398,-740.205942,9252.574275
3652.713093,-612.876398,-814.226536,9474.636058
3652.713408,-612.876398,-962.267725,9844.739029
3652.713722,-766.095498,-518.144159,9992.780217
3652.714036,-383.047749,-0.000000,10510.924376
3652.714351,-306.438199,148.041188,10288.862594
3652.714665,76.609550,592.164754,10066.800811
3652.714979,995.924147,1480.411884,10288.862594
3652.715294,1072.533697,1998.556043,9844.739029
3652.715608,1225.752797,1924.535449,9622.677246
3652.715923,1378.971896,1480.411884,9992.780217
3652.716237,1455.581446,1554.432478,9992.780217
3652.716551,919.314598,888.247130,9622.677246
3652.716866,76.609550,222.061783,9400.615463
3652.717180,229.828649,-222.061783,9474.636058
3652.717495,0.000000,-296.082377,9918.759623
3652.717809,-612.876398,-444.123565,9104.533087
3652.718123,-1072.533697,-222.061783,9104.533087
3652.718438,-919.314598,-296.082377,9400.615463
3652.718752,-689.485948,-222.061783,9622.677246
3652.719067,-766.095498,-296.082377,10066.800811
3652.719381,-612.876398,-518.144159,10066.800811
3652.719695,-229.828649,222.061783,10807.006753
3652.720010,-153.219100,370.102971,10362.883188
3652.720324,383.047749,1184.329507,10584.944971
3652.720638,612.876398,1554.432478,10362.883188
3652.720953,766.095498,1924.535449,9474.636058
3652.721267,1532.190996,1850.514855,9104.533087
3652.721582,1608.800546,1406.391290,9178.553681
3652.721896,1149.143247,962.267725,9104.533087
3652.722210,842.705048,222.061783,8512.368333
3652.722525,612.876398,-222.061783,8808.450710
3652.722839,-306.438199,-814.226536,9104.533087
3652.723154,-306.438199,-962.267725,8882.471304
3652.723468,-612.876398,-1184.329507,9030.512492
3652.723782,-842.705048,-1184.329507,9104.533087
3652.724097,-459.657299,-1406.391290,9252.574275
3652.724411,-459.657299,-814.226536,9548.656652
3652.724726,-153.219100,-222.061783,9770.718434
3652.725040,-306.438199,-222.061783,10140.821405
3652.725354,0.000000,-0.000000,10288.862594
3652.725669,919.314598,666.185348,10140.821405
3652.725983,689.485948,1406.391290,10288.862594
3652.726297,1072.533697,1850.514855,9844.739029
3652.726612,1378.971896,1702.473667,9548.656652
3652.726926,1225.752797,1258.350101,9548.656652
3652.727241,1149.143247,444.123565,9474.636058
3652.727555,536.266849,-0.000000,9474.636058
3652.727869,306.438199,-296.082377,9104.533087
3652.728184,153.219100,-814.226536,9400.615463
3652.728498,0.000000,-1036.288319,9400.615463
3652.728813,-612.876398,-888.247130,8882.471304
3652.729127,-689.485948,-740.205942,8882.471304
3652.729441,-459.657299,-666.185348,9104.533087
3652.729756,-229.828649,-518.144159,9474.636058
3652.730070,-536.266849,-814.226536,9918.759623
3652.730385,0.000000,-0.000000,9992.780217
3652.730699,0.000000,-0.000000,10066.800811
3652.731013,0.000000,518.144159,10584.944971
3652.731328,536.266849,1036.288319,10584.944971
3652.731642,689.485948,1406.391290,10140.821405
3652.731956,689.485948,1554.432478,9992.780217
3652.732271,1225.752797,1184.329507,9548.656652
3652.732585,1072.533697,814.226536,9474.636058
3652.732899,995.924147,666.185348,9400.615463
3652.733214,229.828649,-0.000000,8956.491898
3652.733528,612.876398,-592.164754,8956.491898
3652.733842,-306.438199,-962.267725,8808.450710
3652.734157,-459.657299,-1258.350101,8956.491898
3652.734471,-459.657299,-1110.308913,9400.615463
3652.734785,-1532.190996,-1110.308913,9548.656652
3652.735100,-689.485948,-814.226536,9252.574275
3652.735414,-689.485948,-814.226536,10140.821405
3652.735728,-919.314598,-444.123565,10510.924376
3652.736043,-689.485948,-444.123565,10436.903782
3652.736357,0.000000,222.061783,10584.944971
3652.736671,383.047749,740.205942,10214.842000
3652.736986,689.485948,1554.432478,10140.821405
3652.737300,919.314598,1554.432478,9844.739029
3652.737614,995.924147,1480.411884,9622.677246
3652.737929,995.924147,962.267725,9474.636058
3652.738243,536.266849,148.041188,8956.491898
3652.738557,536.266849,296.082377,9252.574275
3652.738872,153.219100,-370.102971,9252.574275
3652.739186,0.000000,-740.205942,9326.594869
3652.739500,-229.828649,-814.226536,9104.533087
3652.739815,-766.095498,-666.185348,8956.491898
3652.740129,-612.876398,-518.144159,9252.574275
3652.740443,-612.876398,-518.144159,9252.574275
3652.740758,-306.438199,-444.123565,10140.821405
3652.741072,-459.657299,-222.061783,9770.718434
3652.741386,0.000000,-0.000000,9696.697840
3652.741701,0.000000,592.164754,10362.883188
3652.742015,306.438199,1332.370696,10584.944971
3652.742329,459.657299,1554.432478,10436.903782
3652.742644,919.314598,1924.535449,9844.739029
3652.742958,1072.533697,2146.597232,9474.636058
3652.743272,1149.143247,1480.411884,9474.636058
3652.743587,919.314598,1184.329507,9326.594869
3652.743901,766.095498,740.205942,9104.533087
3652.744215,383.047749,-0.000000,8512.368333
3652.744530,612.876398,-666.185348,9030.512492
3652.744844,229.828649,-370.102971,8956.491898
3652.745158,-229.828649,-888.247130,9104.533087
3652.745473,-612.876398,-888.247130,9400.615463
3652.745787,-1072.533697,-592.164754,9696.697840
3652.746101,-612.876398,-370.102971,10436.903782
3652.746416,-229.828649,-222.061783,10140.821405
3652.746730,-153.219100,-444.123565,10436.903782
3652.747044,153.219100,296.082377,10732.986159
3652.747359,383.047749,740.205942,10362.883188
3652.747673,919.314598,1776.494261,10658.965565
3652.747987,1378.971896,1998.556043,10288.862594
3652.748302,1378.971896,2072.576638,9696.697840
3652.748616,1302.362347,1628.453072,9326.594869
3652.748930,1225.752797,1036.288319,9326.594869
3652.749245,766.095498,518.144159,9992.780217
3652.749559,306.438199,-296.082377,9696.697840
3652.749873,0.000000,-666.185348,9474.636058
3652.750188,-383.047749,-814.226536,9400.615463
3652.750502,-536.266849,-1332.370696,9326.594869
3652.750816,-766.095498,-666.185348,9252.574275
3652.751131,-612.876398,-740.205942,9252.574275
3652.751445,-766.095498,-888.247130,9770.718434
3652.751759,-459.657299,-592.164754,9696.697840
3652.752074,-612.876398,-148.041188,9844.739029
3652.752388,-689.485948,296.082377,10214.842000
3652.752702,76.609550,444.123565,10436.903782
3652.753017,689.485948,1184.329507,10436.903782
3652.753331,536.266849,1258.350101,9918.759623
3652.753645,459.657299,1110.308913,10066.800811
3652.753960,919.314598,1258.350101,9400.615463
3652.754274,689.485948,888.247130,9252.574275
3652.754588,383.047749,370.102971,8808.450710
3652.754903,229.828649,-296.082377,8512.368333
3652.755217,-383.047749,-1184.329507,9030.512492
3652.755531,-229.828649,-1184.329507,8734.430116
3652.755846,-459.657299,-1332.370696,8882.471304
3652.756160,-1072.533697,-1036.288319,8808.450710
3652.756474,-1225.752797,-1036.288319,8882.471304
3652.756789,-536.266849,-1258.350101,9252.574275
3652.757103,-536.266849,-1184.329507,9622.677246
3652.757417,-842.705048,-444.123565,9696.697840
3652.757732,-689.485948,-148.041188,9844.739029
3652.758046,0.000000,148.041188,10362.883188
3652.758360,612.876398,814.226536,10288.862594
3652.758675,1072.533697,1258.350101,9844.739029
3652.758989,1149.143247,1258.350101,9696.697840
3652.759303,1072.533697,888.247130,9474.636058
3652.759618,766.095498,1110.308913,9474.636058
3652.759932,842.705048,370.102971,9474.636058
3652.760246,689.485948,-0.000000,9474.636058
3652.760561,76.609550,-740.205942,9548.656652
3652.760875,-229.828649,-888.247130,9178.553681
3652.761189,0.000000,-1036.288319,9252.574275
3652.761504,0.000000,-740.205942,9030.512492
3652.761818,-383.047749,-666.185348,9252.574275
3652.762132,-612.876398,-592.164754,9252.574275
3652.762447,-459.657299,-666.185348,9474.636058
3652.762761,0.000000,-518.144159,9918.759623
3652.763075,0.000000,-148.041188,10066.800811
3652.763390,0.000000,296.082377,10362.883188
3652.763704,0.000000,814.226536,10584.944971
3652.764018,842.705048,1554.432478,10510.924376
3652.764333,919.314598,1850.514855,10066.800811
3652.764647,766.095498,1628.453072,9770.718434
3652.764961,919.314598,1332.370696,10066.800811
3652.765276,919.314598,1036.288319,9622.677246
3652.765590,1302.362347,666.185348,8808.450710
3652.765904,306.438199,-0.000000,9326.594869
3652.766219,0.000000,-296.082377,9178.553681
3652.766533,0.000000,-296.082377,8956.491898
3652.766847,-306.438199,-296.082377,9030.512492
3652.767162,-612.876398,-296.082377,9104.533087
3652.767476,-536.266849,-518.144159,8882.471304
3652.767790,-383.047749,-222.061783,8956.491898
3652.768105,-383.047749,-370.102971,10362.883188
3652.768419,-459.657299,-148.041188,10066.800811
3652.768733,-306.438199,370.102971,10214.842000
3652.769048,229.828649,814.226536,10362.883188
3652.769362,612.876398,1332.370696,10436.903782
3652.769676,842.705048,1998.556043,10214.842000
3652.769991,1149.143247,2146.597232,9918.759623
3652.770305,1149.143247,1776.494261,9770.718434
3652.770619,1455.581446,1554.432478,9400.615463
3652.770934,995.924147,1184.329507,9252.574275
3652.771248,766.095498,444.123565,9104.533087
3652.771562,612.876398,-370.102971,9622.677246
3652.771877,0.000000,-296.082377,9474.636058
3652.772191,-76.609550,-444.123565,9030.512492
3652.772505,-689.485948,-370.102971,9252.574275
3652.772820,-612.876398,-666.185348,9326.594869
3652.773134,-689.485948,-962.267725,9770.718434
3652.773448,-842.705048,-592.164754,10140.821405
3652.773763,-689.485948,-444.123565,10214.842000
3652.774077,-689.485948,-0.000000,10436.903782
3652.774391,-153.219100,518.144159,10436.903782
3652.774706,842.705048,814.226536,10510.924376
3652.775020,612.876398,1406.391290,9844.739029
3652.775334,919.314598,1776.494261,9474.636058
3652.775649,1378.971896,1332.370696,9770.718434
3652.775963,1302.362347,1258.350101,9474.636058
3652.776277,995.924147,740.205942,8956.491898
3652.776591,612.876398,296.082377,8734.430116
3652.776906,76.609550,-296.082377,8956.491898
3652.777220,0.000000,-1110.308913,9030.512492
3652.777534,-229.828649,-1036.288319,9400.615463
3652.777849,-612.876398,-1036.288319,9030.512492
3652.778163,-766.095498,-1036.288319,8586.388927
3652.778477,-689.485948,-962.267725,8808.450710
3652.778792,-459.657299,-1036.288319,9918.759623
3652.779106,-383.047749,-888.247130,10288.862594
3652.779420,-536.266849,-444.123565,9992.780217
3652.779735,0.000000,-0.000000,9992.780217
3652.780049,536.266849,740.205942,10510.924376
3652.780363,689.485948,1258.350101,10584.944971
3652.780678,995.924147,1628.453072,9548.656652
3652.780992,1608.800546,1406.391290,9696.697840
3652.781306,995.924147,1110.308913,9178.553681
3652.781621,919.314598,592.164754,9400.615463
3652.781935,383.047749,-0.000000,9178.553681
3652.782249,229.828649,-444.123565,9474.636058
3652.782564,0.000000,-814.226536,9178.553681
3652.782878,-229.828649,-888.247130,9178.553681
3652.783192,-459.657299,-1110.308913,9104.533087
3652.783507,-766.095498,-962.267725,8956.491898
3652.783821,-919.314598,-1036.288319,9400.615463
3652.784135,-766.095498,-888.247130,9474.636058
3652.784450,-1225.752797,-518.144159,10066.800811
3652.784764,-536.266849,-296.082377,10362.883188
3652.785078,-306.438199,-0.000000,10066.800811
3652.785393,306.438199,370.102971,10362.883188
3652.785707,536.266849,1036.288319,10214.842000
3652.786021,766.095498,1332.370696,9548.656652
3652.786336,919.314598,1332.370696,9696.697840
3652.786650,919.314598,1184.329507,9474.636058
3652.786964,1378.971896,740.205942,9474.636058
3652.787279,459.657299,296.082377,8956.491898
3652.787593,229.828649,-74.020594,9104.533087
3652.787907,0.000000,-740.205942,9326.594869
3652.788222,-153.219100,-666.185348,9178.553681
3652.788536,-536.266849,-814.226536,9104.533087
3652.788850,-383.047749,-592.164754,8956.491898
3652.789165,-766.095498,-592.164754,9326.594869
3652.789479,-536.266849,-740.205942,9252.574275
3652.789793,-536.266849,-518.144159,10214.842000
3652.790108,-153.219100,-370.102971,10584.944971
3652.790422,-306.438199,-0.000000,10066.800811
3652.790736,383.047749,888.247130,10436.903782
3652.791051,612.876398,1258.350101,10584.944971
3652.791365,919.314598,1776.494261,10288.862594
3652.791679,1378.971896,1702.473667,9474.636058
3652.791994,1072.533697,1702.473667,9474.636058
3652.792308,1225.752797,1702.473667,9548.656652
3652.792622,919.314598,1036.288319,9474.636058
3652.792937,689.485948,592.164754,9474.636058
3652.793251,766.095498,-74.020594,9104.533087
3652.793565,229.828649,-296.082377,8808.450710
3652.793880,-229.828649,-222.061783,9400.615463
3652.794194,-459.657299,-222.061783,9104.533087
3652.794508,-689.485948,-740.205942,9474.636058
3652.794823,-995.924147,-74.020594,9178.553681
3652.795137,-612.876398,-666.185348,9918.759623
3652.795451,-612.876398,-0.000000,10362.883188
3652.795766,-766.095498,296.082377,10362.883188
3652.796080,0.000000,222.061783,10732.986159
3652.796394,0.000000,1184.329507,10732.986159
3652.796709,766.095498,1110.308913,9918.759623
3652.797023,689.485948,1702.473667,9622.677246
3652.797337,1225.752797,1924.535449,9326.594869
3652.797652,1378.971896,1480.411884,9696.697840
3652.797966,1302.362347,962.267725,9104.533087
3652.798280,842.705048,740.205942,8734.430116
3652.798595,459.657299,-148.041188,8956.491898
3652.798909,229.828649,-444.123565,9104.533087
3652.799223,-306.438199,-444.123565,9178.553681
3652.799538,-612.876398,-1036.288319,9030.512492
3652.799852,-842.705048,-888.247130,9178.553681
3652.800166,-383.047749,-962.267725,9104.533087
3652.800481,-383.047749,-1036.288319,9696.697840
3652.800795,-689.485948,-740.205942,10140.821405
3652.801109,-459.657299,-222.061783,10214.842000
3652.801424,0.000000,-148.041188,10288.862594
3652.801738,229.828649,666.185348,10288.862594
3652.802052,689.485948,1184.329507,10732.986159
3652.802367,842.705048,1850.514855,9844.739029
3652.802681,1149.143247,1332.370696,9474.636058
3652.802995,1608.800546,1406.391290,9178.553681
3652.803310,1302.362347,1184.329507,9326.594869
3652.803624,766.095498,444.123565,9326.594869
3652.803938,229.828649,-0.000000,9104.533087
3652.804253,306.438199,-740.205942,9030.512492
3652.804567,0.000000,-740.205942,9030.512492
3652.804881,-536.266849,-814.226536,9400.615463
3652.805196,-1072.533697,-1110.308913,9696.697840
3652.805510,-1225.752797,-1036.288319,9474.636058
3652.805824,-1378.971896,-1036.288319,9474.636058
3652.806139,-919.314598,-888.247130,9770.718434
3652.806453,-919.314598,-222.061783,10362.883188
3652.806767,-383.047749,-0.000000,10362.883188
3652.807082,-306.438199,370.102971,10066.800811
3652.807396,612.876398,370.102971,9918.759623
3652.807710,536.266849,1702.473667,9844.739029
3652.808025,995.924147,1702.473667,9474.636058
3652.808339,689.485948,1184.329507,9178.553681
3652.808653,995.924147,888.247130,9548.656652
3652.808968,919.314598,444.123565,9326.594869
3652.809282,306.438199,-0.000000,9178.553681
3652.809596,229.828649,-962.267725,9400.615463
3652.809911,-153.219100,-1036.288319,9326.594869
3652.810225,-153.219100,-1036.288319,8882.471304
3652.810539,-536.266849,-1036.288319,9104.533087
3652.810854,-766.095498,-888.247130,8882.471304
3652.811168,-306.438199,-814.226536,9326.594869
3652.811482,-459.657299,-888.247130,9696.697840
3652.811797,-383.047749,-592.164754,9992.780217
3652.812111,76.609550,-296.082377,9844.739029
3652.812425,0.000000,-148.041188,10214.842000
3652.812740,689.485948,740.205942,10584.944971
3652.813054,689.485948,1332.370696,10510.924376
3652.813368,995.924147,1480.411884,9696.697840
3652.813683,1455.581446,1332.370696,9548.656652
3652.813997,1455.581446,1036.288319,9474.636058
3652.814311,1072.533697,444.123565,9474.636058
3652.814626,536.266849,222.061783,8956.491898
3652.814940,459.657299,-296.082377,9400.615463
3652.815254,383.047749,-814.226536,9252.574275
3652.815569,0.000000,-740.205942,9178.553681
3652.815883,-459.657299,-888.247130,9326.594869
3652.816197,-842.705048,-444.123565,9178.553681
3652.816512,-383.047749,-888.247130,9326.594869
3652.816826,-995.924147,-592.164754,9474.636058
3652.817140,-612.876398,-370.102971,10214.842000
3652.817455,-536.266849,-0.000000,10436.903782
3652.817769,-306.438199,-0.000000,10214.842000
3652.818083,459.657299,666.185348,10214.842000
3652.818398,612.876398,1332.370696,10214.842000
3652.818712,612.876398,1554.432478,10288.862594
3652.819026,1302.362347,1554.432478,9474.636058
3652.819341,1149.143247,1332.370696,9030.512492
3652.819655,1149.143247,1332.370696,9474.636058
3652.819969,842.705048,666.185348,8956.491898
3652.820284,536.266849,-0.000000,8882.471304
3652.820598,229.828649,-444.123565,9178.553681
3652.820912,0.000000,-518.144159,8956.491898
3652.821227,-536.266849,-592.164754,8808.450710
3652.821541,-612.876398,-444.123565,8956.491898
3652.821855,-689.485948,-666.185348,9178.553681
3652.822170,-995.924147,-518.144159,9548.656652
3652.822484,-612.876398,-592.164754,9844.739029
3652.822798,0.000000,-74.020594,10584.944971
3652.823113,-229.828649,370.102971,10510.924376
3652.823427,0.000000,888.247130,10732.986159
3652.823741,383.047749,1480.411884,10881.027347
3652.824056,689.485948,1924.535449,10510.924376
3652.824370,1149.143247,1998.556043,9548.656652
3652.824684,1302.362347,1554.432478,9474.636058
3652.824999,2068.457845,1702.473667,9844.739029
3652.825313,1378.971896,1332.370696,8956.491898
3652.825627,689.485948,222.061783,8882.471304
3652.825942,306.438199,-592.164754,8882.471304
3652.826256,0.000000,-518.144159,9178.553681
3652.826570,-536.266849,-666.185348,9030.512492
3652.826885,-842.705048,-370.102971,9252.574275
3652.827199,-1378.971896,-666.185348,9474.636058
3652.827513,-1225.752797,-666.185348,9844.739029
3652.827828,-766.095498,-296.082377,10288.862594
3652.828142,-842.705048,-222.061783,10214.842000
3652.828456,-536.266849,-0.000000,10214.842000
3652.828771,-229.828649,370.102971,10436.903782
3652.829085,536.266849,1110.308913,10362.883188
3652.829399,995.924147,1628.453072,10584.944971
3652.829714,689.485948,1776.494261,9770.718434
3652.830028,995.924147,1554.432478,8956.491898
3652.830342,689.485948,1258.350101,9326.594869
3652.830657,842.705048,592.164754,9326.594869
3652.830971,689.485948,222.061783,9104.533087
3652.831285,0.000000,-518.144159,9104.533087
3652.831600,0.000000,-1332.370696,9104.533087
3652.831914,-306.438199,-1184.329507,8808.450710
3652.832228,-766.095498,-1036.288319,8882.471304
3652.832543,-995.924147,-1480.411884,9252.574275
3652.832857,-306.438199,-1110.308913,9178.553681
3652.833171,-536.266849,-1036.288319,9400.615463
3652.833486,-383.047749,-814.226536,9622.677246
3652.833800,-306.438199,-592.164754,9918.759623
3652.834115,0.000000,-148.041188,10436.903782
3652.834429,536.266849,518.144159,10732.986159
3652.834743,919.314598,1184.329507,10362.883188
3652.835058,842.705048,1702.473667,9474.636058
3652.835372,995.924147,1628.453072,9622.677246
3652.835686,1302.362347,592.164754,9326.594869
3652.836001,1225.752797,518.144159,9400.615463
3652.836315,536.266849,-0.000000,9178.553681
3652.836630,306.438199,-444.123565,8882.471304
3652.836944,0.000000,-814.226536,9030.512492
3652.837258,0.000000,-1184.329507,9474.636058
3652.837573,-153.219100,-962.267725,9474.636058
3652.837887,-459.657299,-1036.288319,8882.471304
3652.838202,-766.095498,-1110.308913,9252.574275
3652.838516,-383.047749,-592.164754,9770.718434
3652.838830,-1225.752797,-592.164754,10510.924376
3652.839145,-459.657299,-74.020594,10140.821405
3652.839459,-153.219100,222.061783,9992.780217
3652.839773,383.047749,814.226536,10214.842000
3652.840088,689.485948,1036.288319,10362.883188
3652.840402,689.485948,1332.370696,9844.739029
3652.840717,612.876398,1776.494261,9696.697840
3652.841031,766.095498,1406.391290,9696.697840
3652.841345,766.095498,1036.288319,9548.656652
3652.841660,229.828649,444.123565,9474.636058
3652.841974,0.000000,-148.041188,9548.656652
3652.842289,-153.219100,-518.144159,9474.636058
3652.842603,-383.047749,-444.123565,9474.636058
3652.842917,-612.876398,-518.144159,9030.512492
3652.843232,-689.485948,-370.102971,8956.491898
3652.843546,-842.705048,-518.144159,9474.636058
3652.843861,-919.314598,-740.205942,9400.615463
3652.844175,-459.657299,-592.164754,9548.656652
3652.844489,-229.828649,-296.082377,10140.821405
3652.844804,-153.219100,296.082377,10066.800811
3652.845118,153.219100,222.061783,10510.924376
3652.845432,612.876398,962.267725,10436.903782
3652.845747,689.485948,1406.391290,9918.759623
3652.846061,1225.752797,1702.473667,9844.739029
3652.846376,1455.581446,1554.432478,9770.718434
3652.846690,1302.362347,1480.411884,9326.594869
3652.847004,612.876398,962.267725,9326.594869
3652.847319,536.266849,296.082377,8734.430116
3652.847633,459.657299,-148.041188,9252.574275
3652.847948,0.000000,-740.205942,9474.636058
3652.848262,0.000000,-814.226536,9992.780217
3652.848576,-995.924147,-518.144159,9326.594869
3652.848891,-842.705048,-740.205942,9104.533087
3652.849205,-689.485948,-370.102971,9770.718434
3652.849520,-306.438199,-444.123565,9844.739029
3652.849834,0.000000,-74.020594,10362.883188
3652.850148,0.000000,814.226536,9548.656652
3652.850463,153.219100,814.226536,9918.759623
3652.850777,919.314598,1480.411884,9844.739029
3652.851091,919.314598,1628.453072,10066.800811
3652.851406,1149.143247,1850.514855,9696.697840
3652.851720,995.924147,1554.432478,9474.636058
3652.852035,995.924147,1406.391290,9326.594869
3652.852349,995.924147,814.226536,9400.615463
3652.852663,766.095498,-0.000000,9178.553681
3652.852978,153.219100,-296.082377,9252.574275
3652.853292,153.219100,-740.205942,9252.574275
3652.853607,0.000000,-666.185348,9326.594869
3652.853921,0.000000,-444.123565,8660.409521
3652.854235,-536.266849,-814.226536,9178.553681
3652.854550,-459.657299,-888.247130,9104.533087
3652.854864,-306.438199,-666.185348,9548.656652
3652.855179,0.000000,-592.164754,10140.821405
3652.855493,306.438199,-296.082377,10288.862594
3652.855807,-459.657299,148.041188,10732.986159
3652.856122,76.609550,370.102971,10510.924376
3652.856436,306.438199,592.164754,10362.883188
3652.856750,766.095498,1554.432478,10066.800811
3652.857065,995.924147,1036.288319,9770.718434
3652.857379,1072.533697,1036.288319,9770.718434
3652.857694,919.314598,740.205942,9326.594869
3652.858008,689.485948,444.123565,9326.594869
3652.858322,229.828649,-0.000000,9178.553681
3652.858637,76.609550,-666.185348,9474.636058
3652.858951,-383.047749,-1258.350101,9104.533087
3652.859266,-612.876398,-888.247130,9548.656652
3652.859580,-1072.533697,-592.164754,9400.615463
3652.859894,-1072.533697,-888.247130,9400.615463
3652.860209,-1532.190996,-1036.288319,9844.739029
3652.860523,-919.314598,-592.164754,10510.924376
3652.860837,-1072.533697,-370.102971,10066.800811
3652.861152,-612.876398,-0.000000,10066.800811
3652.861466,0.000000,666.185348,10362.883188
3652.861781,229.828649,1110.308913,10288.862594
3652.862095,306.438199,1554.432478,9992.780217
3652.862409,153.219100,1184.329507,9696.697840
3652.862724,612.876398,1036.288319,9474.636058
3652.863038,995.924147,962.267725,9474.636058
3652.863353,689.485948,370.102971,9326.594869
3652.863667,383.047749,-74.020594,9030.512492
3652.863981,383.047749,-518.144159,8882.471304
3652.864296,0.000000,-740.205942,8808.450710
3652.864610,-689.485948,-592.164754,8808.450710
3652.864925,-536.266849,-592.164754,8882.471304
3652.865239,-689.485948,-814.226536,8734.430116
3652.865553,-383.047749,-814.226536,8734.430116
3652.865868,-229.828649,-666.185348,9474.636058
3652.866182,-459.657299,-814.226536,9918.759623
3652.866496,-153.219100,-222.061783,10288.862594
3652.866811,76.609550,518.144159,10584.944971
3652.867125,612.876398,962.267725,10807.006753
3652.867440,689.485948,1258.350101,10288.862594
3652.867754,1685.410096,1480.411884,9918.759623
3652.868068,1532.190996,1628.453072,9770.718434
3652.868383,1225.752797,1702.473667,9548.656652
3652.868697,1225.752797,1110.308913,9178.553681
3652.869012,842.705048,370.102971,8882.471304
3652.869326,919.314598,-148.041188,9400.615463
3652.869640,229.828649,-592.164754,9326.594869
3652.869955,-229.828649,-592.164754,9326.594869
3652.870269,-689.485948,-592.164754,9474.636058
3652.870584,-306.438199,-592.164754,9696.697840
3652.870898,-766.095498,-592.164754,9622.677246
3652.871212,-536.266849,-592.164754,10362.883188
3652.871527,-459.657299,-518.144159,10584.944971
3652.871841,-689.485948,-0.000000,10214.842000
3652.872155,229.828649,-0.000000,10584.944971
3652.872470,0.000000,666.185348,10510.924376
3652.872784,229.828649,1406.391290,10584.944971
3652.873099,919.314598,1924.535449,9992.780217
3652.873413,689.485948,1480.411884,9548.656652
3652.873727,1072.533697,1332.370696,9326.594869
3652.874042,995.924147,888.247130,9474.636058
3652.874356,689.485948,296.082377,9178.553681
3652.874671,153.219100,-0.000000,9326.594869
3652.874985,0.000000,-444.123565,9178.553681
3652.875299,-229.828649,-740.205942,9474.636058
3652.875614,-689.485948,-740.205942,9474.636058
3652.875928,-842.705048,-740.205942,9030.512492
3652.876243,-842.705048,-962.267725,9178.553681
3652.876557,-766.095498,-740.205942,9252.574275
3652.876871,-689.485948,-888.247130,10066.800811
3652.877186,-536.266849,-0.000000,9918.759623
3652.877500,-306.438199,-0.000000,10510.924376
3652.877814,153.219100,370.102971,10510.924376
3652.878129,995.924147,1184.329507,10140.821405
3652.878443,995.924147,2072.576638,9844.739029
3652.878758,1072.533697,1554.432478,9326.594869
3652.879072,1072.533697,1406.391290,9326.594869
3652.879386,1302.362347,1184.329507,9252.574275
3652.879701,919.314598,518.144159,8956.491898
3652.880015,229.828649,-296.082377,9030.512492
3652.880330,76.609550,-444.123565,9030.512492
3652.880644,-229.828649,-814.226536,9104.533087
3652.880958,-536.266849,-888.247130,9178.553681
3652.881273,-536.266849,-1110.308913,9030.512492
3652.881587,-1455.581446,-1628.453072,9474.636058
3652.881902,-919.314598,-888.247130,9770.718434
3652.882216,-842.705048,-1110.308913,9844.739029
3652.882530,-766.095498,-518.144159,10214.842000
3652.882845,-459.657299,-0.000000,10140.821405
3652.883159,0.000000,370.102971,10362.883188
3652.883473,689.485948,1406.391290,10288.862594
3652.883788,842.705048,1480.411884,9770.718434
3652.884102,1225.752797,1924.535449,9844.739029
3652.884417,612.876398,1332.370696,9474.636058
3652.884731,1455.581446,740.205942,9400.615463
3652.885045,1302.362347,888.247130,9030.512492
3652.885360,612.876398,-0.000000,9104.533087
3652.885674,229.828649,-370.102971,9030.512492
3652.885989,0.000000,-444.123565,8956.491898
3652.886303,-383.047749,-962.267725,9400.615463
3652.886617,-689.485948,-1036.288319,9252.574275
3652.886932,-842.705048,-1036.288319,8882.471304
3652.887246,-612.876398,-814.226536,9178.553681
3652.887560,-383.047749,-814.226536,9918.759623
3652.887875,-689.485948,-444.123565,10658.965565
3652.888189,-153.219100,-0.000000,10584.944971
3652.888504,76.609550,296.082377,10362.883188
3652.888818,459.657299,1184.329507,10288.862594
3652.889132,919.314598,1776.494261,10658.965565
3652.889447,842.705048,1924.535449,9696.697840
3652.889761,1072.533697,1702.473667,9622.677246
3652.890076,1149.143247,1184.329507,9844.739029
3652.890390,995.924147,740.205942,9104.533087
3652.890704,766.095498,148.041188,9030.512492
3652.891019,229.828649,-666.185348,9326.594869
3652.891333,0.000000,-740.205942,9252.574275
3652.891648,0.000000,-592.164754,9178.553681
3652.891962,-919.314598,-444.123565,9178.553681
3652.892276,-536.266849,-740.205942,9326.594869
3652.892591,-1302.362347,-740.205942,9474.636058
3652.892905,-995.924147,-592.164754,9770.718434
3652.893219,-612.876398,-740.205942,10214.842000
3652.893534,-536.266849,-0.000000,10066.800811
3652.893848,-536.266849,222.061783,10140.821405
3652.894163,306.438199,740.205942,10658.965565
3652.894477,383.047749,1332.370696,10510.924376
3652.894791,612.876398,1776.494261,9918.759623
3652.895106,919.314598,1702.473667,9326.594869
3652.895420,919.314598,1110.308913,9474.636058
3652.895735,995.924147,666.185348,9474.636058
3652.896049,383.047749,296.082377,9104.533087
3652.896363,76.609550,-0.000000,9178.553681
3652.896678,0.000000,-592.164754,9400.615463
3652.896992,0.000000,-814.226536,9104.533087
3652.897307,-383.047749,-1184.329507,8882.471304
3652.897621,-612.876398,-666.185348,8956.491898
3652.897935,-689.485948,-962.267725,9104.533087
3652.898250,-842.705048,-740.205942,9474.636058
3652.898564,-536.266849,-666.185348,9992.780217
3652.898878,-229.828649,-74.020594,10214.842000
3652.899193,-383.047749,-0.000000,9918.759623
3652.899507,0.000000,370.102971,9918.759623
3652.899822,536.266849,1036.288319,10732.986159
3652.900136,842.705048,1554.432478,10510.924376
3652.900450,612.876398,1480.411884,9770.718434
3652.900765,766.095498,1406.391290,9696.697840
3652.901079,1072.533697,888.247130,9326.594869
3652.901394,919.314598,518.144159,9104.533087
3652.901708,919.314598,-370.102971,9326.594869
3652.902022,229.828649,-592.164754,9252.574275
3652.902337,0.000000,-666.185348,9178.553681
3652.902651,0.000000,-666.185348,9030.512492
3652.902966,-536.266849,-666.185348,9030.512492
3652.903280,0.000000,-518.144159,9326.594869
3652.903594,-383.047749,-814.226536,9474.636058
3652.903909,-612.876398,-814.226536,9696.697840
3652.904223,-229.828649,-296.082377,10214.842000
3652.904537,0.000000,-0.000000,9696.697840
3652.904852,0.000000,592.164754,10362.883188
3652.905166,459.657299,888.247130,11029.068536
3652.905481,689.485948,1110.308913,10436.903782
3652.905795,842.705048,1776.494261,9770.718434
3652.906109,459.657299,1406.391290,9696.697840
3652.906424,1685.410096,1184.329507,9918.759623
3652.906738,1302.362347,1036.288319,9548.656652
3652.907053,612.876398,370.102971,9252.574275
3652.907367,306.438199,-222.061783,9400.615463
3652.907681,229.828649,-444.123565,9178.553681
3652.907996,0.000000,-592.164754,8808.450710
3652.908310,-229.828649,-518.144159,8956.491898
3652.908624,-766.095498,-888.247130,8956.491898
3652.908939,-459.657299,-1110.308913,9252.574275
3652.909253,-536.266849,-814.226536,9844.739029
3652.909568,-459.657299,-370.102971,10881.027347
3652.909882,-612.876398,-0.000000,10362.883188
3652.910196,-612.876398,148.041188,10140.821405
3652.910511,0.000000,666.185348,10436.903782
3652.910825,689.485948,1332.370696,10510.924376
3652.911140,842.705048,1480.411884,9844.739029
3652.911454,995.924147,1480.411884,9326.594869
3652.911768,1302.362347,1258.350101,9326.594869
3652.912083,995.924147,1258.350101,9326.594869
3652.912397,612.876398,740.205942,9252.574275
3652.912712,536.266849,-74.020594,8882.471304
3652.913026,229.828649,-518.144159,8956.491898
3652.913340,0.000000,-370.102971,9030.512492
3652.913655,-612.876398,-740.205942,9252.574275
3652.913969,-842.705048,-666.185348,9030.512492
3652.914283,-919.314598,-888.247130,9474.636058
3652.914598,-919.314598,-740.205942,9474.636058
3652.914912,-536.266849,-518.144159,10066.800811
3652.915227,-995.924147,-370.102971,9918.759623
3652.915541,-306.438199,-148.041188,9770.718434
3652.915855,0.000000,370.102971,10436.903782
3652.916170,229.828649,1110.308913,10584.944971
3652.916484,536.266849,1702.473667,10288.862594
3652.916799,689.485948,1480.411884,9474.636058
3652.917113,1378.971896,1332.370696,9326.594869
3652.917427,1378.971896,1258.350101,9474.636058
3652.917742,1072.533697,740.205942,9178.553681
3652.918056,459.657299,-0.000000,8734.430116
3652.918371,383.047749,-148.041188,9474.636058
3652.918685,0.000000,-222.061783,9474.636058
3652.918999,-536.266849,-592.164754,8734.430116
3652.919314,-766.095498,-814.226536,8956.491898
3652.919628,-1225.752797,-1258.350101,9326.594869
3652.919942,-995.924147,-962.267725,9770.718434
3652.920257,-689.485948,-592.164754,10436.903782
3652.920571,-842.705048,-74.020594,10584.944971
3652.920886,-612.876398,222.061783,10362.883188
3652.921200,153.219100,518.144159,10288.862594
3652.921514,689.485948,1258.350101,10584.944971
3652.921829,1762.019645,1776.494261,10288.862594
3652.922143,1762.019645,2072.576638,9474.636058
3652.922458,1608.800546,1702.473667,9030.512492
3652.922772,1762.019645,1036.288319,9178.553681
3652.923086,1455.581446,814.226536,9178.553681
3652.923401,612.876398,-74.020594,9030.512492
3652.923715,76.609550,-370.102971,9178.553681
3652.924030,0.000000,-666.185348,9104.533087
3652.924344,-612.876398,-1110.308913,9252.574275
3652.924658,-842.705048,-814.226536,9474.636058
3652.924973,-1302.362347,-1110.308913,9474.636058
3652.925287,-995.924147,-1036.288319,9326.594869
3652.925601,-766.095498,-814.226536,9622.677246
3652.925916,-459.657299,-592.164754,9992.780217
3652.926230,-306.438199,370.102971,10436.903782
3652.926545,0.000000,444.123565,9918.759623
3652.926859,383.047749,888.247130,9992.780217
3652.927173,612.876398,1554.432478,10584.944971
3652.927488,612.876398,1554.432478,9622.677246
3652.927802,766.095498,1258.350101,9622.677246
3652.928117,689.485948,1036.288319,9548.656652
3652.928431,1072.533697,592.164754,9548.656652
3652.928745,612.876398,-0.000000,9252.574275
3652.929060,0.000000,-296.082377,8956.491898
3652.929374,-229.828649,-814.226536,9252.574275
3652.929689,-459.657299,-740.205942,9178.553681
3652.930003,-689.485948,-814.226536,9030.512492
3652.930317,-689.485948,-666.185348,8956.491898
3652.930632,-612.876398,-1036.288319,9030.512492
3652.930946,-612.876398,-592.164754,9548.656652
3652.931260,0.000000,-444.123565,10140.821405
3652.931575,-229.828649,-444.123565,10510.924376
3652.931889,0.000000,444.123565,10066.800811
3652.932204,229.828649,666.185348,10140.821405
3652.932518,536.266849,1480.411884,10140.821405
3652.932832,919.314598,1924.535449,10362.883188
3652.933147,842.705048,1554.432478,9622.677246
3652.933461,1072.533697,1184.329507,9178.553681
3652.933776,1378.971896,962.267725,9474.636058
3652.934090,612.876398,518.144159,9252.574275
3652.934405,459.657299,-0.000000,9548.656652
3652.934719,0.000000,-888.247130,9474.636058
3652.935033,0.000000,-592.164754,9104.533087
3652.935348,-306.438199,-592.164754,9030.512492
3652.935662,-766.095498,-518.144159,9104.533087
3652.935977,-689.485948,-888.247130,8956.491898
3652.936291,-842.705048,-518.144159,9548.656652
3652.936606,-383.047749,-518.144159,9696.697840
3652.936920,-306.438199,-222.061783,10140.821405
3652.937234,0.000000,-0.000000,10066.800811
3652.937549,766.095498,296.082377,9844.739029
3652.937863,229.828649,1258.350101,10214.842000
3652.938178,306.438199,1924.535449,10288.862594
3652.938492,536.266849,1850.514855,9844.739029
3652.938807,842.705048,1406.391290,9696.697840
3652.939121,1149.143247,592.164754,9844.739029
3652.939435,612.876398,518.144159,9474.636058
3652.939750,459.657299,296.082377,9178.553681
3652.940064,0.000000,-74.020594,9326.594869
3652.940379,0.000000,-222.061783,9178.553681
3652.940693,0.000000,-444.123565,8956.491898
3652.941008,-306.438199,-444.123565,8956.491898
3652.941322,-383.047749,-666.185348,9030.512492
3652.941636,-229.828649,-518.144159,9474.636058
3652.941951,-459.657299,-444.123565,9918.759623
3652.942265,-536.266849,-444.123565,10140.821405
3652.942580,-459.657299,-0.000000,10140.821405
3652.942894,-229.828649,444.123565,10658.965565
3652.943209,153.219100,814.226536,10510.924376
3652.943523,689.485948,1480.411884,10881.027347
3652.943838,766.095498,1998.556043,10066.800811
3652.944152,689.485948,1554.432478,9474.636058
3652.944466,919.314598,1480.411884,9622.677246
3652.944781,1072.533697,814.226536,9178.553681
3652.945095,842.705048,444.123565,9030.512492
3652.945410,383.047749,-148.041188,8956.491898
3652.945724,0.000000,-740.205942,9030.512492
3652.946039,-229.828649,-666.185348,9326.594869
3652.946353,-919.314598,-666.185348,9474.636058
3652.946667,-459.657299,-1406.391290,9326.594869
3652.946982,-1378.971896,-1184.329507,9326.594869
3652.947296,-995.924147,-1036.288319,9696.697840
3652.947611,-919.314598,-1036.288319,9770.718434
3652.947925,-842.705048,-370.102971,10140.821405
3652.948240,-536.266849,-0.000000,10362.883188
3652.948554,153.219100,444.123565,10140.821405
3652.948868,306.438199,1110.308913,10362.883188
3652.949183,1072.533697,1480.411884,9770.718434
3652.949497,842.705048,1406.391290,9474.636058
3652.949812,1072.533697,1702.473667,9400.615463
3652.950126,1455.581446,1184.329507,9474.636058
3652.950441,919.314598,740.205942,9252.574275
3652.950755,536.266849,-222.061783,9104.533087
3652.951069,229.828649,-740.205942,9326.594869
3652.951384,612.876398,-962.267725,8660.409521
3652.951698,-306.438199,-962.267725,8660.409521
3652.952013,-383.047749,-1036.288319,8882.471304
3652.952327,-306.438199,-1184.329507,9178.553681
3652.952642,-612.876398,-1184.329507,9622.677246
3652.952956,-306.438199,-962.267725,9696.697840
3652.953270,-383.047749,-444.123565,9992.780217
3652.953585,-153.219100,-444.123565,10066.800811
3652.953899,229.828649,518.144159,10436.903782
3652.954214,842.705048,962.267725,10510.924376
3652.954528,842.705048,1998.556043,9918.759623
3652.954843,1072.533697,1924.535449,9030.512492
3652.955157,1302.362347,1406.391290,9252.574275
3652.955472,1378.971896,1332.370696,9622.677246
3652.955786,1072.533697,518.144159,9622.677246
3652.956100,536.266849,296.082377,9252.574275
3652.956415,76.609550,-370.102971,9326.594869
3652.956729,-153.219100,-1110.308913,9400.615463
3652.957044,-536.266849,-740.205942,9326.594869
3652.957358,-919.314598,-666.185348,9326.594869
3652.957673,-995.924147,-592.164754,9252.574275
3652.957987,-689.485948,-1258.350101,9474.636058
3652.958301,-459.657299,-888.247130,9474.636058
3652.958616,-153.219100,-444.123565,9918.759623
3652.958930,-306.438199,-148.041188,10214.842000
3652.959245,76.609550,-0.000000,10584.944971
3652.959559,383.047749,962.267725,10584.944971
3652.959874,842.705048,1702.473667,10066.800811
3652.960188,1149.143247,1776.494261,9622.677246
3652.960502,1149.143247,1628.453072,9622.677246
3652.960817,1302.362347,1480.411884,9326.594869
3652.961131,842.705048,888.247130,9548.656652
3652.961446,383.047749,444.123565,9030.512492
3652.961760,0.000000,-222.061783,9252.574275
3652.962075,0.000000,-592.164754,9474.636058
3652.962389,-612.876398,-888.247130,9474.636058
3652.962703,-995.924147,-1036.288319,9400.615463
3652.963018,-1149.143247,-962.267725,9178.553681
3652.963332,-536.266849,-592.164754,9474.636058
3652.963647,-919.314598,-740.205942,9844.739029
3652.963961,-1072.533697,-666.185348,9992.780217
3652.964276,-689.485948,-74.020594,10214.842000
3652.964590,-459.657299,370.102971,10140.821405
3652.964904,76.609550,1110.308913,10658.965565
3652.965219,383.047749,1554.432478,10584.944971
3652.965533,766.095498,1998.556043,9918.759623
3652.965848,919.314598,1406.391290,9622.677246
3652.966162,842.705048,1406.391290,9474.636058
3652.966477,766.095498,888.247130,9622.677246
3652.966791,383.047749,444.123565,9400.615463
3652.967105,76.609550,-518.144159,8956.491898
3652.967420,0.000000,-666.185348,8956.491898
3652.967734,-459.657299,-740.205942,9252.574275
3652.968049,-919.314598,-814.226536,9326.594869
3652.968363,-842.705048,-666.185348,9030.512492
3652.968678,-995.924147,-888.247130,8808.450710
3652.968992,-766.095498,-666.185348,9252.574275
3652.969307,-612.876398,-444.123565,9918.759623
3652.969621,-306.438199,-370.102971,9696.697840
3652.969935,-306.438199,-222.061783,9844.739029
3652.970250,383.047749,296.082377,10362.883188
3652.970564,689.485948,962.267725,10066.800811
3652.970879,1532.190996,1554.432478,9992.780217
3652.971193,1685.410096,1406.391290,9548.656652
3652.971508,1838.629195,1184.329507,9548.656652
3652.971822,1608.800546,1184.329507,9326.594869
3652.972136,1455.581446,962.267725,9326.594869
3652.972451,383.047749,222.061783,9030.512492
3652.972765,306.438199,-592.164754,9178.553681
3652.973080,153.219100,-962.267725,9104.533087
3652.973394,-229.828649,-1036.288319,9104.533087
3652.973709,-383.047749,-888.247130,9030.512492
3652.974023,-383.047749,-962.267725,9400.615463
3652.974337,0.000000,-814.226536,10140.821405
3652.974652,-153.219100,-814.226536,10362.883188
3652.974966,-229.828649,-370.102971,10214.842000
3652.975281,-153.219100,-0.000000,10214.842000
3652.975595,383.047749,444.123565,10881.027347
3652.975910,689.485948,1184.329507,10658.965565
3652.976224,536.266849,1554.432478,10510.924376
3652.976538,612.876398,1998.556043,9770.718434
3652.976853,1149.143247,1332.370696,9696.697840
3652.977167,1072.533697,1110.308913,9474.636058
3652.977482,1302.362347,740.205942,9622.677246
3652.977796,383.047749,518.144159,9400.615463
3652.978111,0.000000,-222.061783,9104.533087
3652.978425,-459.657299,-740.205942,9252.574275
3652.978739,-306.438199,-814.226536,9252.574275
3652.979054,-689.485948,-592.164754,9252.574275
3652.979368,-1225.752797,-518.144159,8882.471304
3652.979683,-689.485948,-666.185348,9326.594869
3652.979997,-536.266849,-518.144159,9696.697840
3652.980312,-459.657299,-296.082377,9770.718434
3652.980626,-842.705048,-296.082377,10066.800811
3652.980941,-383.047749,296.082377,9992.780217
3652.981255,0.000000,740.205942,10214.842000
3652.981569,383.047749,888.247130,10288.862594
3652.981884,383.047749,1258.350101,9696.697840
3652.982198,536.266849,1406.391290,9474.636058
3652.982513,689.485948,1258.350101,9252.574275
3652.982827,842.705048,740.205942,9474.636058
3652.983142,383.047749,222.061783,9178.553681
3652.983456,0.000000,-222.061783,9030.512492
3652.983770,0.000000,-888.247130,9178.553681
3652.984085,0.000000,-296.082377,8882.471304
3652.984399,-306.438199,-518.144159,9104.533087
3652.984714,-612.876398,-814.226536,9178.553681
3652.985028,-919.314598,-370.102971,9400.615463
3652.985343,0.000000,-888.247130,9770.718434
3652.985657,-383.047749,-592.164754,9770.718434
3652.985971,0.000000,-0.000000,9992.780217
3652.986286,-153.219100,148.041188,10510.924376
3652.986600,306.438199,518.144159,10584.944971
3652.986915,612.876398,1184.329507,10732.986159
3652.987229,766.095498,1628.453072,10066.800811
3652.987544,1149.143247,1776.494261,9844.739029
3652.987858,1378.971896,1554.432478,9474.636058
3652.988172,1532.190996,1480.411884,9030.512492
3652.988487,1378.971896,666.185348,9474.636058
3652.988801,995.924147,296.082377,9030.512492
3652.989116,689.485948,-444.123565,9104.533087
3652.989430,0.000000,-518.144159,9104.533087
3652.989745,0.000000,-444.123565,8956.491898
3652.990059,-459.657299,-222.061783,9030.512492
3652.990373,-842.705048,-592.164754,9252.574275
3652.990688,0.000000,-518.144159,9548.656652
3652.991002,-459.657299,-592.164754,9770.718434
3652.991317,-612.876398,-0.000000,9844.739029
3652.991631,-459.657299,-0.000000,10214.842000
3652.991946,229.828649,592.164754,10214.842000
3652.992260,536.266849,1036.288319,10362.883188
3652.992574,689.485948,1258.350101,10066.800811
3652.992889,1072.533697,1702.473667,9622.677246
3652.993203,1302.362347,1480.411884,9474.636058
3652.993518,1072.533697,1110.308913,9400.615463
3652.993832,766.095498,814.226536,9548.656652
3652.994147,383.047749,222.061783,9252.574275
3652.994461,0.000000,-296.082377,9696.697840
3652.994776,-229.828649,-1036.288319,9326.594869
3652.995090,-459.657299,-888.247130,8956.491898
3652.995404,-536.266849,-666.185348,9474.636058
3652.995719,-919.314598,-1036.288319,9696.697840
3652.996033,-1072.533697,-1332.370696,9400.615463
3652.996348,-766.095498,-888.247130,9918.759623
3652.996662,-689.485948,-444.123565,10214.842000
3652.996977,-612.876398,-0.000000,9992.780217
3652.997291,-153.219100,370.102971,10436.903782
3652.997605,76.609550,666.185348,10510.924376
3652.997920,536.266849,1184.329507,10584.944971
3652.998234,229.828649,1628.453072,9696.697840
3652.998549,612.876398,1480.411884,9474.636058
3652.998863,689.485948,1258.350101,9622.677246
3652.999178,842.705048,740.205942,9178.553681
3652.999492,536.266849,370.102971,9104.533087
3652.999806,306.438199,-74.020594,9252.574275
3653.000121,0.000000,-666.185348,9252.574275
3653.000435,-459.657299,-814.226536,9104.533087
3653.000750,-766.095498,-518.144159,9104.533087
3653.001064,-612.876398,-814.226536,8660.409521
3653.001379,-766.095498,-1628.453072,8586.388927
3653.001693,-459.657299,-740.205942,9178.553681
3653.002007,-766.095498,-296.082377,9770.718434
3653.002322,-689.485948,-370.102971,9696.697840
3653.002636,-689.485948,-0.000000,10066.800811
3653.002951,153.219100,666.185348,10066.800811
3653.003265,919.314598,962.267725,10510.924376
3653.003580,919.314598,1184.329507,10140.821405
3653.003894,995.924147,1258.350101,9622.677246
3653.004208,1762.019645,1184.329507,9474.636058
3653.004523,1378.971896,1184.329507,9252.574275
3653.004837,1149.143247,592.164754,9252.574275
3653.005152,842.705048,-296.082377,8956.491898
3653.005466,383.047749,-740.205942,8956.491898
3653.005781,306.438199,-814.226536,8956.491898
3653.006095,0.000000,-888.247130,8882.471304
3653.006410,-306.438199,-814.226536,9326.594869
3653.006724,-536.266849,-1036.288319,9252.574275
3653.007038,-459.657299,-888.247130,9474.636058
3653.007353,-229.828649,-666.185348,10288.862594
3653.007667,-383.047749,-296.082377,10584.944971
3653.007982,0.000000,296.082377,10732.986159
3653.008296,229.828649,592.164754,10510.924376
3653.008611,1225.752797,888.247130,10584.944971
3653.008925,842.705048,1850.514855,10288.862594
3653.009239,842.705048,1998.556043,9918.759623
3653.009554,1072.533697,1554.432478,10214.842000
3653.009868,1302.362347,1406.391290,9622.677246
3653.010183,1225.752797,888.247130,9474.636058
3653.010497,459.657299,-0.000000,9400.615463
3653.010812,0.000000,-370.102971,9400.615463
3653.011126,0.000000,-666.185348,9400.615463
3653.011440,-383.047749,-518.144159,9252.574275
3653.011755,-229.828649,-148.041188,8956.491898
3653.012069,-612.876398,-518.144159,8586.388927
3653.012384,-842.705048,-296.082377,9252.574275
3653.012698,-459.657299,-370.102971,9696.697840
3653.013013,-689.485948,-370.102971,9770.718434
3653.013327,-459.657299,-74.020594,9844.739029
3653.013641,0.000000,444.123565,9918.759623
3653.013956,459.657299,592.164754,10288.862594
3653.014270,229.828649,1184.329507,10066.800811
3653.014585,536.266849,1998.556043,9770.718434
3653.014899,1225.752797,1480.411884,10066.800811
3653.015214,995.924147,1332.370696,9548.656652
3653.015528,1149.143247,888.247130,8808.450710
3653.015842,612.876398,444.123565,9178.553681
3653.016157,229.828649,-0.000000,8882.471304
3653.016471,306.438199,-148.041188,8882.471304
3653.016786,-459.657299,-444.123565,8956.491898
3653.017100,-383.047749,-592.164754,9030.512492
3653.017415,-689.485948,-740.205942,8956.491898
3653.017729,-612.876398,-666.185348,9178.553681
3653.018044,-612.876398,-888.247130,10140.821405
3653.018358,-919.314598,-518.144159,10881.027347
3653.018672,-842.705048,-444.123565,10881.027347
3653.018987,-612.876398,-0.000000,10658.965565
3653.019301,306.438199,518.144159,10807.006753
3653.019616,76.609550,888.247130,10807.006753
3653.019930,306.438199,1702.473667,10288.862594
3653.020245,919.314598,1406.391290,9622.677246
3653.020559,995.924147,1554.432478,9548.656652
3653.020873,1302.362347,1258.350101,9326.594869
3653.021188,842.705048,518.144159,9104.533087
3653.021502,842.705048,-74.020594,9178.553681
3653.021817,153.219100,-740.205942,9326.594869
3653.022131,0.000000,-888.247130,9252.574275
3653.022446,0.000000,-740.205942,9178.553681
3653.022760,-766.095498,-814.226536,9104.533087
3653.023074,-536.266849,-962.267725,9104.533087
3653.023389,-766.095498,-962.267725,9474.636058
3653.023703,-383.047749,-740.205942,10066.800811
3653.024018,-536.266849,-444.123565,10066.800811
3653.024332,0.000000,-0.000000,9770.718434
3653.024647,306.438199,444.123565,10066.800811
3653.024961,995.924147,1110.308913,10436.903782
3653.025275,1302.362347,1702.473667,10066.800811
3653.025590,995.924147,1332.370696,9474.636058
3653.025904,1302.362347,1406.391290,9548.656652
3653.026219,1532.190996,1258.350101,9474.636058
3653.026533,1072.533697,518.144159,8734.430116
3653.026848,766.095498,-0.000000,8660.409521
3653.027162,995.924147,-888.247130,8808.450710
3653.027476,306.438199,-1036.288319,8956.491898
3653.027791,0.000000,-1036.288319,8808.450710
3653.028105,-536.266849,-962.267725,9252.574275
3653.028420,-689.485948,-1036.288319,9326.594869
3653.028734,-1149.143247,-1110.308913,9400.615463
3653.029049,-995.924147,-962.267725,9992.780217
3653.029363,-612.876398,-666.185348,10807.006753
3653.029677,-536.266849,-0.000000,10362.883188
3653.029992,0.000000,296.082377,10584.944971
3653.030306,689.485948,1036.288319,10881.027347
3653.030621,766.095498,1702.473667,10658.965565
3653.030935,1225.752797,1776.494261,9474.636058
3653.031250,1378.971896,1406.391290,9326.594869
3653.031564,1225.752797,1628.453072,9548.656652
3653.031879,1302.362347,814.226536,9400.615463
3653.032193,153.219100,-0.000000,9030.512492
3653.032507,0.000000,-444.123565,9400.615463
3653.032822,-459.657299,-1110.308913,9400.615463
3653.033136,-842.705048,-1036.288319,9400.615463
3653.033451,-1149.143247,-814.226536,9178.553681
3653.033765,-1302.362347,-962.267725,9178.553681
3653.034079,-919.314598,-814.226536,9104.533087
3653.034394,-689.485948,-518.144159,9474.636058
3653.034708,-919.314598,-148.041188,10214.842000
3653.035023,-229.828649,370.102971,9622.677246
3653.035337,0.000000,666.185348,9918.759623
3653.035651,0.000000,1036.288319,10214.842000
3653.035966,689.485948,1628.453072,10436.903782
3653.036280,612.876398,1332.370696,9474.636058
3653.036595,995.924147,1628.453072,9474.636058
3653.036909,842.705048,1332.370696,9992.780217
3653.037223,612.876398,962.267725,9696.697840
3653.037538,306.438199,444.123565,9326.594869
3653.037852,0.000000,-0.000000,9104.533087
3653.038167,459.657299,-666.185348,9326.594869
3653.038481,153.219100,-444.123565,9178.553681
3653.038795,-306.438199,-814.226536,8956.491898
3653.039110,-229.828649,-444.123565,9474.636058
3653.039424,-306.438199,-296.082377,8808.450710
3653.039739,153.219100,-296.082377,9252.574275
3653.040053,153.219100,-222.061783,10066.800811
3653.040367,0.000000,296.082377,10362.883188
3653.040682,76.609550,222.061783,10214.842000
3653.040996,459.657299,740.205942,10510.924376
3653.041311,842.705048,1332.370696,10584.944971
3653.041625,995.924147,1998.556043,10510.924376
3653.041939,842.705048,1554.432478,10140.821405
3653.042254,1149.143247,1480.411884,9844.739029
3653.042568,1225.752797,962.267725,9474.636058
3653.042883,995.924147,666.185348,9474.636058
3653.043197,536.266849,148.041188,9326.594869
3653.043511,229.828649,-666.185348,9326.594869
3653.043826,383.047749,-666.185348,9104.533087
3653.044140,-229.828649,-740.205942,9474.636058
3653.044455,-536.266849,-814.226536,9104.533087
3653.044769,-766.095498,-814.226536,9326.594869
3653.045083,-766.095498,-444.123565,9326.594869
3653.045398,-383.047749,-666.185348,9992.780217
3653.045712,-229.828649,-148.041188,9992.780217
3653.046027,-459.657299,-0.000000,10140.821405
3653.046341,229.828649,370.102971,10436.903782
3653.046655,383.047749,888.247130,10362.883188
3653.046970,766.095498,1036.288319,9844.739029
3653.047284,919.314598,1628.453072,9474.636058
3653.047599,919.314598,1036.288319,9622.677246
3653.047913,919.314598,740.205942,9474.636058
3653.048227,766.095498,148.041188,9252.574275
3653.048542,766.095498,222.061783,8734.430116
3653.048856,229.828649,-444.123565,8882.471304
3653.049171,153.219100,-962.267725,9252.574275
3653.049485,-536.266849,-592.164754,8364.327145
3653.049799,0.000000,-1480.411884,8956.491898
3653.050114,-689.485948,-1184.329507,8808.450710
3653.050428,-766.095498,-888.247130,8956.491898
3653.050742,-689.485948,-962.267725,9770.718434
3653.051057,-842.705048,-740.205942,10288.862594
3653.051371,-1302.362347,-74.020594,10362.883188
3653.051686,-612.876398,-0.000000,10288.862594
3653.052000,153.219100,740.205942,10510.924376
3653.052314,536.266849,1332.370696,10510.924376
3653.052629,689.485948,1406.391290,10214.842000
3653.052943,766.095498,1480.411884,9474.636058
3653.053258,1072.533697,1184.329507,9400.615463
3653.053572,1225.752797,888.247130,9474.636058
3653.053886,612.876398,592.164754,8882.471304
3653.054201,612.876398,-296.082377,8882.471304
3653.054515,0.000000,-370.102971,8734.430116
3653.054830,-536.266849,-666.185348,9030.512492
3653.055144,-995.924147,-1258.350101,9326.594869
3653.055458,-1149.143247,-962.267725,9696.697840
3653.055773,-995.924147,-1110.308913,9622.677246
3653.056087,-995.924147,-962.267725,9474.636058
3653.056402,-536.266849,-296.082377,9844.739029
3653.056716,-689.485948,-0.000000,10214.842000
3653.057030,-306.438199,444.123565,10066.800811
3653.057345,459.657299,1258.350101,10066.800811
3653.057659,459.657299,1702.473667,10140.821405
3653.057974,995.924147,2072.576638,10066.800811
3653.058288,1608.800546,1776.494261,9252.574275
3653.058602,1302.362347,1480.411884,9622.677246
3653.058917,1225.752797,1036.288319,9770.718434
3653.059231,766.095498,666.185348,9474.636058
3653.059546,459.657299,-0.000000,9400.615463
3653.059860,383.047749,-814.226536,9548.656652
3653.060174,0.000000,-814.226536,9474.636058
3653.060489,0.000000,-592.164754,9030.512492
3653.060803,0.000000,-592.164754,8586.388927
3653.061118,-153.219100,-666.185348,9104.533087
3653.061432,0.000000,-740.205942,9474.636058
3653.061746,76.609550,-592.164754,9696.697840
3653.062061,76.609550,-296.082377,10362.883188
3653.062375,153.219100,-0.000000,10288.862594
3653.062690,229.828649,370.102971,10436.903782
3653.063004,612.876398,1406.391290,10584.944971
3653.063318,689.485948,1332.370696,10436.903782
3653.063633,995.924147,1998.556043,9770.718434
3653.063947,995.924147,1258.350101,9252.574275
3653.064262,1072.533697,1258.350101,9474.636058
3653.064576,1072.533697,1110.308913,9030.512492
3653.064890,306.438199,444.123565,9326.594869
3653.065205,-383.047749,-370.102971,9326.594869
3653.065519,-229.828649,-666.185348,9400.615463
3653.065834,-612.876398,-666.185348,9252.574275
3653.066148,-995.924147,-740.205942,9326.594869
3653.066462,-1302.362347,-592.164754,9474.636058
3653.066777,-1072.533697,-518.144159,9622.677246
3653.067091,-689.485948,-370.102971,9548.656652
3653.067406,-842.705048,-222.061783,9918.759623
3653.067720,-612.876398,148.041188,9844.739029
3653.068034,153.219100,444.123565,9770.718434
3653.068349,689.485948,740.205942,9992.780217
3653.068663,842.705048,1110.308913,10288.862594
3653.068977,459.657299,1628.453072,9474.636058
3653.069292,766.095498,1184.329507,9104.533087
3653.069606,995.924147,1110.308913,9474.636058
3653.069921,1072.533697,370.102971,9178.553681
3653.070235,383.047749,74.020594,9030.512492
3653.070549,76.609550,-518.144159,9178.553681
3653.070864,0.000000,-814.226536,9030.512492
3653.071178,-459.657299,-814.226536,8808.450710
3653.071493,-612.876398,-814.226536,9178.553681
3653.071807,-766.095498,-1036.288319,9178.553681
3653.072121,-919.314598,-1036.288319,9474.636058
3653.072436,-612.876398,-666.185348,9918.759623
3653.072750,-689.485948,-814.226536,10066.800811
3653.073065,0.000000,-0.000000,10362.883188
3653.073379,0.000000,370.102971,10436.903782
3653.073693,76.609550,666.185348,10658.965565
3653.074008,459.657299,1184.329507,10584.944971
3653.074322,766.095498,1554.432478,9992.780217
3653.074637,612.876398,1628.453072,9400.615463
3653.074951,1378.971896,1258.350101,9548.656652
3653.075265,995.924147,1036.288319,9548.656652
3653.075580,689.485948,518.144159,9178.553681
3653.075894,0.000000,-0.000000,9104.533087
3653.076209,306.438199,-666.185348,9252.574275
3653.076523,0.000000,-962.267725,9030.512492
3653.076837,-229.828649,-1036.288319,9400.615463
3653.077152,-919.314598,-1110.308913,9104.533087
3653.077466,0.000000,-1036.288319,9622.677246
3653.077781,-459.657299,-666.185348,9696.697840
3653.078095,-383.047749,-444.123565,9770.718434
3653.078409,-383.047749,-148.041188,10066.800811
3653.078724,-229.828649,-0.000000,10140.821405
3653.079038,306.438199,444.123565,10288.862594
3653.079353,689.485948,592.164754,10362.883188
3653.079667,766.095498,1258.350101,10214.842000
3653.079981,1072.533697,1332.370696,9622.677246
3653.080296,1378.971896,962.267725,9400.615463
3653.080610,1685.410096,592.164754,9548.656652
3653.080925,1225.752797,518.144159,8956.491898
3653.081239,842.705048,222.061783,8734.430116
3653.081553,536.266849,-370.102971,8882.471304
3653.081868,229.828649,-518.144159,9178.553681
3653.082182,0.000000,-592.164754,9178.553681
3653.082497,-459.657299,-888.247130,8956.491898
3653.082811,-459.657299,-1184.329507,9104.533087
