#time,accel_x,accel_y,accel_z
3530.401163,2681.334243,1998.556043,8216.285956
3530.401477,2911.162892,2442.679609,8660.409521
3530.401791,2911.162892,2516.700203,8438.347739
3530.402106,2604.724693,2590.720797,8216.285956
3530.402420,2298.286494,1998.556043,8364.327145
3530.402734,1532.190996,1406.391290,8512.368333
3530.403048,612.876398,666.185348,9474.636058
3530.403363,-153.219100,-666.185348,9770.718434
3530.403677,-842.705048,-962.267725,9844.739029
3530.403991,-995.924147,-1184.329507,9992.780217
3530.404305,-1378.971896,-1110.308913,9918.759623
3530.404620,-1225.752797,-888.247130,9548.656652
3530.404934,-1149.143247,-1258.350101,9104.533087
3530.405248,-689.485948,-740.205942,8882.471304
3530.405562,153.219100,-444.123565,8956.491898
3530.405877,76.609550,-148.041188,9252.574275
3530.406191,229.828649,-222.061783,9400.615463
3530.406505,76.609550,222.061783,9178.553681
3530.406819,76.609550,222.061783,9104.533087
3530.407134,383.047749,-0.000000,9252.574275
3530.407448,76.609550,-74.020594,9474.636058
3530.407762,0.000000,-518.144159,10066.800811
3530.408076,-229.828649,-888.247130,9474.636058
3530.408391,-842.705048,-962.267725,10288.862594
3530.408705,-842.705048,-740.205942,9918.759623
3530.409019,-459.657299,-1036.288319,10140.821405
3530.409333,-612.876398,-1406.391290,9770.718434
3530.409648,-306.438199,-1184.329507,9696.697840
3530.409962,-153.219100,-1332.370696,9474.636058
3530.410276,-153.219100,-962.267725,9770.718434
3530.410590,0.000000,-1036.288319,10288.862594
3530.410904,153.219100,-592.164754,9622.677246
3530.411219,229.828649,-444.123565,9252.574275
3530.411533,612.876398,-222.061783,9844.739029
3530.411847,919.314598,-0.000000,9326.594869
3530.412161,1149.143247,148.041188,9400.615463
3530.412476,1225.752797,-0.000000,9474.636058
3530.412790,1225.752797,222.061783,8660.409521
3530.413104,1532.190996,-0.000000,8660.409521
3530.413418,1378.971896,-0.000000,8808.450710
3530.413733,1302.362347,-296.082377,9252.574275
3530.414047,842.705048,-444.123565,9252.574275
3530.414361,229.828649,148.041188,9474.636058
3530.414675,229.828649,-0.000000,9474.636058
3530.414990,459.657299,370.102971,9474.636058
3530.415304,306.438199,962.267725,9326.594869
3530.415618,0.000000,740.205942,9326.594869
3530.415932,536.266849,1036.288319,9178.553681
3530.416247,536.266849,1406.391290,8734.430116
3530.416561,689.485948,1628.453072,9104.533087
3530.416875,1072.533697,1554.432478,9622.677246
3530.417189,153.219100,1702.473667,9992.780217
3530.417504,536.266849,1406.391290,9770.718434
3530.417818,153.219100,1406.391290,10140.821405
3530.418132,0.000000,1702.473667,10214.842000
3530.418446,76.609550,1554.432478,10214.842000
3530.418761,-229.828649,1554.432478,10214.842000
3530.419075,0.000000,1258.350101,10066.800811
3530.419389,229.828649,1184.329507,9844.739029
3530.419703,0.000000,1184.329507,9770.718434
3530.420018,0.000000,592.164754,10362.883188
3530.420332,-383.047749,-0.000000,10066.800811
3530.420646,-383.047749,370.102971,10510.924376
3530.420960,-229.828649,370.102971,10510.924376
3530.421274,0.000000,370.102971,10807.006753
3530.421589,0.000000,740.205942,10510.924376
3530.421903,153.219100,370.102971,10362.883188
3530.422217,76.609550,814.226536,10066.800811
3530.422531,229.828649,888.247130,10066.800811
3530.422846,306.438199,888.247130,9992.780217
3530.423160,306.438199,296.082377,9770.718434
3530.423474,0.000000,-0.000000,10140.821405
3530.423788,153.219100,444.123565,9770.718434
3530.424103,153.219100,-0.000000,10140.821405
3530.424417,0.000000,-296.082377,10214.842000
3530.424731,-229.828649,-222.061783,9918.759623
3530.425045,-153.219100,-962.267725,9696.697840
3530.425360,0.000000,-444.123565,9326.594869
3530.425674,0.000000,-370.102971,9400.615463
3530.425988,0.000000,-148.041188,9104.533087
3530.426302,383.047749,-0.000000,9252.574275
3530.426617,0.000000,-518.144159,9622.677246
3530.426931,383.047749,-148.041188,9178.553681
3530.427245,612.876398,-148.041188,9178.553681
3530.427559,766.095498,-296.082377,9104.533087
3530.427874,612.876398,-296.082377,9178.553681
3530.428188,229.828649,-222.061783,8956.491898
3530.428502,229.828649,-370.102971,8734.430116
3530.428816,229.828649,-296.082377,9030.512492
3530.429131,0.000000,-370.102971,9030.512492
3530.429445,0.000000,-666.185348,8734.430116
3530.429759,0.000000,-518.144159,9104.533087
3530.430073,0.000000,-666.185348,9474.636058
3530.430388,0.000000,-592.164754,9030.512492
3530.430702,0.000000,-444.123565,9104.533087
3530.431016,-153.219100,-888.247130,9030.512492
3530.431330,-153.219100,-666.185348,9252.574275
3530.431644,-153.219100,-666.185348,9178.553681
3530.431959,0.000000,-592.164754,9474.636058
3530.432273,229.828649,-296.082377,9400.615463
3530.432587,0.000000,-296.082377,9252.574275
3530.432901,-153.219100,-518.144159,9326.594869
3530.433216,76.609550,-222.061783,9474.636058
3530.433530,0.000000,-222.061783,9696.697840
3530.433844,0.000000,-370.102971,9918.759623
3530.434158,76.609550,-296.082377,9696.697840
3530.434473,0.000000,-0.000000,9474.636058
3530.434787,0.000000,-74.020594,9918.759623
3530.435101,0.000000,-370.102971,9992.780217
3530.435415,-229.828649,-518.144159,9992.780217
3530.435730,-383.047749,-444.123565,9918.759623
3530.436044,-536.266849,-74.020594,9696.697840
3530.436358,0.000000,-296.082377,10214.842000
3530.436672,0.000000,296.082377,10510.924376
3530.436987,0.000000,370.102971,9918.759623
3530.437301,0.000000,-0.000000,9992.780217
3530.437615,-306.438199,444.123565,9696.697840
3530.437929,229.828649,888.247130,9918.759623
3530.438244,153.219100,888.247130,9622.677246
3530.438558,306.438199,814.226536,9992.780217
3530.438872,229.828649,666.185348,9696.697840
3530.439186,0.000000,1036.288319,9548.656652
3530.439501,459.657299,1110.308913,9474.636058
3530.439815,383.047749,1110.308913,9622.677246
3530.440129,76.609550,1036.288319,9622.677246
3530.440443,229.828649,1110.308913,9474.636058
3530.440758,0.000000,666.185348,9548.656652
3530.441072,0.000000,962.267725,9696.697840
3530.441386,229.828649,814.226536,9474.636058
3530.441700,76.609550,1036.288319,9622.677246
3530.442014,0.000000,962.267725,9770.718434
3530.442329,-306.438199,814.226536,9326.594869
3530.442643,536.266849,814.226536,9474.636058
3530.442957,229.828649,1110.308913,9474.636058
3530.443271,229.828649,740.205942,9400.615463
3530.443586,76.609550,740.205942,9400.615463
3530.443900,76.609550,814.226536,9548.656652
3530.444214,76.609550,370.102971,9918.759623
3530.444528,76.609550,370.102971,9474.636058
3530.444843,76.609550,370.102971,9474.636058
3530.445157,0.000000,444.123565,9696.697840
3530.445471,153.219100,-0.000000,9844.739029
3530.445785,-229.828649,-148.041188,9770.718434
3530.446100,0.000000,-222.061783,9770.718434
3530.446414,0.000000,-148.041188,9844.739029
3530.446728,0.000000,-74.020594,9622.677246
3530.447042,229.828649,-814.226536,9770.718434
3530.447356,76.609550,-296.082377,9844.739029
3530.447671,153.219100,-296.082377,9770.718434
3530.447985,229.828649,-444.123565,9474.636058
3530.448299,229.828649,-148.041188,9474.636058
3530.448613,459.657299,-148.041188,9622.677246
3530.448927,459.657299,-74.020594,9622.677246
3530.449241,153.219100,-148.041188,9474.636058
3530.449556,0.000000,-296.082377,9548.656652
3530.449870,0.000000,-222.061783,9400.615463
3530.450184,459.657299,-740.205942,9548.656652
3530.450498,0.000000,-148.041188,9622.677246
3530.450812,153.219100,-74.020594,9622.677246
3530.451126,76.609550,-370.102971,8956.491898
3530.451441,0.000000,-296.082377,9326.594869
3530.451755,306.438199,-296.082377,9474.636058
3530.452069,229.828649,-74.020594,9030.512492
3530.452383,0.000000,-370.102971,9030.512492
3530.452697,0.000000,-222.061783,9104.533087
3530.453011,306.438199,-0.000000,9104.533087
3530.453325,229.828649,-592.164754,9326.594869
3530.453640,0.000000,-0.000000,9178.553681
3530.453954,0.000000,-0.000000,9104.533087
3530.454268,0.000000,-74.020594,9326.594869
3530.454582,0.000000,-0.000000,9178.553681
3530.454896,229.828649,-0.000000,9400.615463
3530.455210,459.657299,-0.000000,9474.636058
3530.455525,459.657299,296.082377,9326.594869
3530.455839,306.438199,-0.000000,9326.594869
3530.456153,306.438199,296.082377,9474.636058
3530.456467,306.438199,-74.020594,9474.636058
3530.456781,0.000000,-0.000000,9844.739029
3530.457095,76.609550,-0.000000,9844.739029
3530.457410,0.000000,296.082377,9474.636058
3530.457724,0.000000,296.082377,9696.697840
3530.458038,689.485948,370.102971,9918.759623
3530.458352,383.047749,666.185348,9622.677246
3530.458666,76.609550,222.061783,9474.636058
3530.458980,0.000000,444.123565,9844.739029
3530.459295,0.000000,666.185348,10362.883188
3530.459609,459.657299,740.205942,10140.821405
3530.459923,0.000000,592.164754,10288.862594
3530.460237,0.000000,592.164754,10140.821405
3530.460551,76.609550,444.123565,10066.800811
3530.460865,-153.219100,518.144159,9992.780217
3530.461179,0.000000,444.123565,10288.862594
3530.461494,76.609550,592.164754,10140.821405
3530.461808,0.000000,592.164754,9844.739029
3530.462122,76.609550,592.164754,9992.780217
3530.462436,76.609550,518.144159,9918.759623
3530.462750,229.828649,962.267725,10362.883188
3530.463064,0.000000,666.185348,10066.800811
3530.463379,0.000000,444.123565,9696.697840
3530.463693,-153.219100,666.185348,9696.697840
3530.464007,229.828649,222.061783,9474.636058
3530.464321,229.828649,518.144159,9696.697840
3530.464635,306.438199,740.205942,9696.697840
3530.464949,0.000000,296.082377,9178.553681
3530.465264,229.828649,444.123565,9622.677246
3530.465578,153.219100,370.102971,9548.656652
3530.465892,153.219100,-0.000000,9474.636058
3530.466206,76.609550,222.061783,9548.656652
3530.466520,383.047749,222.061783,9104.533087
3530.466834,306.438199,444.123565,9400.615463
3530.467149,-153.219100,-148.041188,8660.409521
3530.467463,536.266849,-0.000000,9326.594869
3530.467777,0.000000,-0.000000,9844.739029
3530.468091,-229.828649,-0.000000,9178.553681
3530.468405,229.828649,-0.000000,9400.615463
3530.468719,0.000000,-0.000000,9696.697840
3530.469033,76.609550,-0.000000,9474.636058
3530.469348,229.828649,-0.000000,9326.594869
3530.469662,383.047749,-222.061783,8882.471304
3530.469976,383.047749,-0.000000,9474.636058
3530.470290,229.828649,-370.102971,9696.697840
3530.470604,153.219100,-0.000000,9548.656652
3530.470918,306.438199,-370.102971,9252.574275
3530.471233,0.000000,-296.082377,9474.636058
3530.471547,229.828649,-222.061783,9622.677246
3530.471861,229.828649,-444.123565,9770.718434
3530.472175,0.000000,-148.041188,9844.739029
3530.472489,0.000000,-370.102971,9326.594869
3530.472803,0.000000,-74.020594,9474.636058
3530.473118,229.828649,-222.061783,9696.697840
3530.473432,0.000000,-148.041188,9696.697840
3530.473746,0.000000,-222.061783,9622.677246
3530.474060,76.609550,-222.061783,9474.636058
3530.474374,0.000000,-222.061783,9400.615463
3530.474688,0.000000,-148.041188,9474.636058
3530.475003,0.000000,-0.000000,9474.636058
3530.475317,0.000000,-0.000000,9474.636058
3530.475631,0.000000,-222.061783,9252.574275
3530.475945,76.609550,-0.000000,9474.636058
3530.476259,229.828649,-0.000000,9548.656652
3530.476573,-306.438199,-222.061783,9474.636058
3530.476887,0.000000,-0.000000,9474.636058
3530.477202,153.219100,-0.000000,9178.553681
3530.477516,153.219100,296.082377,9474.636058
3530.477830,229.828649,296.082377,9326.594869
3530.478144,153.219100,-0.000000,9326.594869
3530.478458,76.609550,148.041188,9696.697840
3530.478772,153.219100,222.061783,9548.656652
3530.479087,76.609550,296.082377,9474.636058
3530.479401,306.438199,370.102971,9918.759623
3530.479715,153.219100,-0.000000,9474.636058
3530.480029,306.438199,518.144159,9474.636058
3530.480343,76.609550,666.185348,8956.491898
3530.480657,306.438199,444.123565,9548.656652
3530.480972,459.657299,370.102971,9770.718434
3530.481286,383.047749,592.164754,9992.780217
3530.481600,0.000000,444.123565,9992.780217
3530.481914,0.000000,444.123565,9622.677246
3530.482228,229.828649,666.185348,10066.800811
3530.482542,76.609550,-0.000000,10140.821405
3530.482857,0.000000,296.082377,10288.862594
3530.483171,0.000000,296.082377,9918.759623
3530.483485,76.609550,518.144159,9918.759623
3530.483799,0.000000,370.102971,9918.759623
3530.484113,153.219100,-0.000000,10214.842000
3530.484427,0.000000,222.061783,9844.739029
3530.484741,0.000000,518.144159,9844.739029
3530.485056,0.000000,296.082377,9622.677246
3530.485370,0.000000,-0.000000,9622.677246
3530.485684,76.609550,-0.000000,9622.677246
3530.485998,153.219100,-0.000000,9548.656652
3530.486312,-229.828649,-0.000000,9474.636058
3530.486626,0.000000,148.041188,9696.697840
3530.486941,229.828649,-0.000000,9548.656652
3530.487255,383.047749,444.123565,9992.780217
3530.487569,0.000000,-0.000000,9696.697840
3530.487883,383.047749,296.082377,9622.677246
3530.488197,229.828649,-0.000000,9844.739029
3530.488511,229.828649,370.102971,9770.718434
3530.488826,-229.828649,-0.000000,8956.491898
3530.489140,0.000000,-222.061783,9474.636058
3530.489454,0.000000,-74.020594,9474.636058
3530.489768,153.219100,-0.000000,9474.636058
3530.490082,0.000000,-0.000000,9622.677246
3530.490396,0.000000,-148.041188,9622.677246
3530.490711,0.000000,-0.000000,9474.636058
3530.491025,0.000000,-0.000000,9104.533087
3530.491339,306.438199,-0.000000,9474.636058
3530.491653,76.609550,-370.102971,10066.800811
3530.491967,76.609550,-0.000000,9696.697840
3530.492281,0.000000,-0.000000,9400.615463
3530.492595,76.609550,-0.000000,9474.636058
3530.492910,689.485948,-0.000000,9548.656652
3530.493224,153.219100,-0.000000,9474.636058
3530.493538,76.609550,-74.020594,9548.656652
3530.493852,0.000000,148.041188,9474.636058
3530.494166,153.219100,-0.000000,9400.615463
3530.494480,306.438199,-222.061783,9104.533087
3530.494795,229.828649,-0.000000,9622.677246
3530.495109,76.609550,370.102971,9474.636058
3530.495423,0.000000,-0.000000,9474.636058
3530.495737,76.609550,-0.000000,9326.594869
3530.496051,0.000000,-0.000000,9474.636058
3530.496365,0.000000,-74.020594,9548.656652
3530.496680,0.000000,-0.000000,9770.718434
3530.496994,0.000000,-148.041188,9622.677246
3530.497308,536.266849,222.061783,9770.718434
3530.497622,76.609550,222.061783,9696.697840
3530.497936,76.609550,222.061783,9622.677246
3530.498250,0.000000,222.061783,9696.697840
3530.498565,76.609550,222.061783,9622.677246
3530.498879,383.047749,-222.061783,9844.739029
3530.499193,459.657299,370.102971,9844.739029
3530.499507,229.828649,-74.020594,9548.656652
3530.499821,229.828649,222.061783,9326.594869
3530.500135,0.000000,148.041188,9770.718434
3530.500449,0.000000,222.061783,9696.697840
3530.500764,229.828649,444.123565,10066.800811
3530.501078,459.657299,444.123565,9992.780217
3530.501392,229.828649,518.144159,9474.636058
3530.501706,0.000000,592.164754,9474.636058
3530.502020,229.828649,296.082377,9770.718434
3530.502334,229.828649,148.041188,9696.697840
3530.502649,0.000000,370.102971,10066.800811
3530.502963,0.000000,296.082377,9844.739029
3530.503277,0.000000,518.144159,9696.697840
3530.503591,0.000000,370.102971,9770.718434
3530.503905,0.000000,444.123565,9918.759623
3530.504219,229.828649,296.082377,9696.697840
3530.504534,306.438199,518.144159,9696.697840
3530.504848,0.000000,296.082377,9474.636058
3530.505162,153.219100,148.041188,9474.636058
3530.505476,0.000000,148.041188,9696.697840
3530.505790,0.000000,222.061783,9770.718434
3530.506104,76.609550,370.102971,9326.594869
3530.506419,153.219100,296.082377,9844.739029
3530.506733,-306.438199,370.102971,9696.697840
3530.507047,153.219100,518.144159,9400.615463
3530.507361,229.828649,296.082377,9696.697840
3530.507675,0.000000,222.061783,9770.718434
3530.507989,153.219100,148.041188,9622.677246
3530.508303,0.000000,444.123565,9770.718434
3530.508618,76.609550,-0.000000,9844.739029
3530.508932,0.000000,-0.000000,9696.697840
3530.509246,153.219100,-0.000000,9400.615463
3530.509560,153.219100,-0.000000,9474.636058
3530.509874,0.000000,296.082377,9548.656652
3530.510188,153.219100,-0.000000,9548.656652
3530.510503,0.000000,-0.000000,9178.553681
3530.510817,76.609550,-0.000000,9474.636058
3530.511131,153.219100,-148.041188,9400.615463
3530.511445,76.609550,-0.000000,9770.718434
3530.511759,76.609550,-74.020594,9474.636058
3530.512073,0.000000,222.061783,9844.739029
3530.512388,76.609550,-0.000000,9622.677246
3530.512702,383.047749,-0.000000,9474.636058
3530.513016,-306.438199,-518.144159,9770.718434
3530.513330,76.609550,-0.000000,9770.718434
3530.513644,0.000000,222.061783,9622.677246
3530.513958,0.000000,-74.020594,9474.636058
3530.514273,306.438199,-148.041188,9548.656652
3530.514587,0.000000,-592.164754,9252.574275
3530.514901,153.219100,-0.000000,9548.656652
3530.515215,0.000000,222.061783,9622.677246
3530.515529,0.000000,-74.020594,9548.656652
3530.515843,0.000000,-0.000000,9622.677246
3530.516157,0.000000,-222.061783,9770.718434
3530.516472,-76.609550,-0.000000,9622.677246
3530.516786,-229.828649,148.041188,9474.636058
3530.517100,76.609550,-0.000000,9622.677246
3530.517414,0.000000,-0.000000,9622.677246
3530.517728,383.047749,-0.000000,9770.718434
3530.518042,153.219100,-0.000000,9030.512492
3530.518357,229.828649,-0.000000,9252.574275
3530.518671,0.000000,148.041188,9622.677246
3530.518985,229.828649,222.061783,9548.656652
3530.519299,-383.047749,296.082377,9696.697840
3530.519613,0.000000,222.061783,9696.697840
3530.519927,0.000000,148.041188,9474.636058
3530.520242,153.219100,-0.000000,9178.553681
3530.520556,76.609550,370.102971,9548.656652
3530.520870,766.095498,-0.000000,9696.697840
3530.521184,0.000000,222.061783,9104.533087
3530.521498,383.047749,-0.000000,9474.636058
3530.521812,229.828649,-0.000000,9770.718434
3530.522127,153.219100,222.061783,9844.739029
3530.522441,229.828649,-0.000000,9770.718434
3530.522755,153.219100,-0.000000,9622.677246
3530.523069,153.219100,296.082377,9992.780217
3530.523383,229.828649,296.082377,9548.656652
3530.523697,76.609550,370.102971,9918.759623
3530.524011,153.219100,-0.000000,10066.800811
3530.524326,0.000000,296.082377,9992.780217
3530.524640,0.000000,-0.000000,9622.677246
3530.524954,0.000000,-0.000000,9770.718434
3530.525268,0.000000,-74.020594,9770.718434
3530.525582,153.219100,296.082377,9770.718434
3530.525896,-229.828649,592.164754,9918.759623
3530.526211,153.219100,296.082377,9696.697840
3530.526525,153.219100,148.041188,9400.615463
3530.526839,306.438199,444.123565,9548.656652
3530.527153,-306.438199,296.082377,9918.759623
3530.527467,0.000000,-0.000000,9770.718434
3530.527781,0.000000,-0.000000,9696.697840
3530.528096,0.000000,-0.000000,9474.636058
3530.528410,536.266849,-74.020594,9992.780217
3530.528724,229.828649,-0.000000,9474.636058
3530.529038,0.000000,-0.000000,9326.594869
3530.529352,76.609550,-0.000000,9622.677246
3530.529666,153.219100,-0.000000,9474.636058
3530.529981,153.219100,-0.000000,9400.615463
3530.530295,229.828649,-0.000000,9326.594869
3530.530609,76.609550,222.061783,9400.615463
3530.530923,229.828649,-0.000000,9326.594869
3530.531237,229.828649,148.041188,9030.512492
3530.531551,153.219100,-148.041188,9770.718434
3530.531865,0.000000,-0.000000,9474.636058
3530.532180,0.000000,-0.000000,9400.615463
3530.532494,0.000000,-0.000000,9474.636058
3530.532808,229.828649,-222.061783,9400.615463
3530.533122,0.000000,-0.000000,9770.718434
3530.533436,0.000000,-74.020594,9548.656652
3530.533750,306.438199,222.061783,9474.636058
3530.534065,0.000000,-0.000000,9474.636058
3530.534379,229.828649,148.041188,9622.677246
3530.534693,153.219100,-0.000000,9696.697840
3530.535007,383.047749,-0.000000,9622.677246
3530.535321,0.000000,222.061783,9844.739029
3530.535635,0.000000,-0.000000,9622.677246
3530.535950,229.828649,296.082377,9696.697840
3530.536264,153.219100,-0.000000,9474.636058
3530.536578,0.000000,-0.000000,9252.574275
3530.536892,0.000000,148.041188,10140.821405
3530.537206,0.000000,-0.000000,9918.759623
3530.537520,229.828649,222.061783,9696.697840
3530.537835,0.000000,-0.000000,9918.759623
3530.538149,-306.438199,-0.000000,9770.718434
3530.538463,0.000000,-0.000000,9696.697840
3530.538777,76.609550,-0.000000,9474.636058
3530.539091,76.609550,-0.000000,10066.800811
3530.539405,0.000000,-0.000000,9548.656652
3530.539719,0.000000,-0.000000,9474.636058
3530.540034,0.000000,-0.000000,9252.574275
3530.540348,-153.219100,-0.000000,9400.615463
3530.540662,306.438199,-0.000000,9548.656652
3530.540976,0.000000,-0.000000,9474.636058
3530.541290,229.828649,370.102971,9622.677246
3530.541604,229.828649,-0.000000,9474.636058
3530.541919,229.828649,518.144159,9474.636058
3530.542233,383.047749,296.082377,9548.656652
3530.542547,0.000000,222.061783,9622.677246
3530.542861,-153.219100,-0.000000,9400.615463
3530.543175,0.000000,-0.000000,9326.594869
3530.543489,0.000000,296.082377,9844.739029
3530.543804,306.438199,296.082377,9844.739029
3530.544118,153.219100,370.102971,9696.697840
3530.544432,-153.219100,222.061783,9548.656652
3530.544746,229.828649,370.102971,9400.615463
3530.545060,153.219100,370.102971,9474.636058
3530.545374,383.047749,222.061783,9622.677246
3530.545689,153.219100,296.082377,9548.656652
3530.546003,76.609550,370.102971,9770.718434
3530.546317,0.000000,-0.000000,9622.677246
3530.546631,229.828649,296.082377,9918.759623
3530.546945,76.609550,296.082377,9918.759623
3530.547259,229.828649,-0.000000,9696.697840
3530.547576,459.657299,370.102971,9548.656652
3530.547890,229.828649,-0.000000,9918.759623
3530.548204,153.219100,-0.000000,9918.759623
3530.548518,76.609550,222.061783,9696.697840
3530.548832,0.000000,222.061783,9474.636058
3530.549146,229.828649,-0.000000,9622.677246
3530.549460,153.219100,-0.000000,9622.677246
3530.549774,0.000000,-296.082377,9696.697840
3530.550089,229.828649,-0.000000,9622.677246
3530.550403,229.828649,-0.000000,9622.677246
3530.550717,0.000000,-0.000000,9548.656652
3530.551031,0.000000,222.061783,9622.677246
3530.551345,229.828649,444.123565,9474.636058
3530.551659,383.047749,666.185348,9030.512492
3530.551973,306.438199,444.123565,8956.491898
3530.552287,383.047749,814.226536,8808.450710
3530.552601,76.609550,518.144159,8956.491898
3530.552916,689.485948,-0.000000,9474.636058
3530.553230,153.219100,-222.061783,9696.697840
3530.553544,-153.219100,-296.082377,9992.780217
3530.553858,-306.438199,-296.082377,10362.883188
3530.554172,-153.219100,-0.000000,10066.800811
3530.554486,0.000000,-0.000000,10066.800811
3530.554800,229.828649,518.144159,9770.718434
3530.555114,306.438199,370.102971,9622.677246
3530.555429,689.485948,740.205942,8734.430116
3530.555743,612.876398,1110.308913,8882.471304
3530.556057,612.876398,814.226536,8438.347739
3530.556371,536.266849,666.185348,9178.553681
3530.556685,459.657299,370.102971,9474.636058
3530.556999,229.828649,-0.000000,9918.759623
3530.557313,0.000000,-0.000000,10066.800811
3530.557627,-383.047749,-0.000000,10140.821405
3530.557941,-383.047749,296.082377,10510.924376
3530.558256,-229.828649,-0.000000,10066.800811
3530.558570,0.000000,-74.020594,9918.759623
3530.558884,0.000000,148.041188,10288.862594
3530.559198,-306.438199,444.123565,9844.739029
3530.559512,153.219100,592.164754,9696.697840
3530.559826,842.705048,814.226536,9326.594869
3530.560140,536.266849,518.144159,9104.533087
3530.560454,612.876398,592.164754,9030.512492
3530.560768,612.876398,666.185348,9400.615463
3530.561083,536.266849,-0.000000,9770.718434
3530.561397,-153.219100,148.041188,9474.636058
3530.561711,-995.924147,-0.000000,9844.739029
3530.562025,-383.047749,-0.000000,10140.821405
3530.562339,76.609550,-0.000000,9992.780217
3530.562653,229.828649,296.082377,9992.780217
3530.562967,842.705048,296.082377,9474.636058
3530.563281,689.485948,518.144159,9696.697840
3530.563595,919.314598,666.185348,9400.615463
3530.563910,842.705048,888.247130,9104.533087
3530.564224,1149.143247,814.226536,8956.491898
3530.564538,1455.581446,740.205942,8808.450710
3530.564852,1072.533697,370.102971,9474.636058
3530.565166,612.876398,592.164754,9474.636058
3530.565480,459.657299,518.144159,9622.677246
3530.565794,229.828649,148.041188,9696.697840
3530.566108,766.095498,518.144159,9992.780217
3530.566422,0.000000,296.082377,10066.800811
3530.566737,0.000000,444.123565,9844.739029
3530.567051,0.000000,518.144159,9918.759623
3530.567365,0.000000,592.164754,9622.677246
3530.567679,459.657299,740.205942,9474.636058
3530.567993,306.438199,1036.288319,9326.594869
3530.568307,306.438199,740.205942,9252.574275
3530.568621,459.657299,592.164754,9548.656652
3530.568935,229.828649,592.164754,9400.615463
3530.569249,306.438199,296.082377,9548.656652
3530.569564,0.000000,592.164754,10288.862594
3530.569878,-229.828649,-0.000000,10140.821405
3530.570192,-459.657299,148.041188,9992.780217
3530.570506,-842.705048,-0.000000,9844.739029
3530.570820,-153.219100,-0.000000,9992.780217
3530.571134,-229.828649,-0.000000,9696.697840
3530.571448,-459.657299,-296.082377,9622.677246
3530.571762,153.219100,-0.000000,9696.697840
3530.572076,-306.438199,-0.000000,9474.636058
3530.572391,153.219100,222.061783,9400.615463
3530.572705,153.219100,-0.000000,9548.656652
3530.573019,306.438199,-74.020594,9622.677246
3530.573333,0.000000,-0.000000,9622.677246
3530.573647,-306.438199,-370.102971,9622.677246
3530.573961,0.000000,-0.000000,9474.636058
3530.574275,-383.047749,-444.123565,9696.697840
3530.574589,-229.828649,-444.123565,9844.739029
3530.574903,-383.047749,-518.144159,9696.697840
3530.575218,-459.657299,-222.061783,9400.615463
3530.575532,0.000000,-444.123565,9474.636058
3530.575846,0.000000,-370.102971,9844.739029
3530.576160,153.219100,-148.041188,9770.718434
3530.576474,0.000000,-74.020594,9474.636058
3530.576788,0.000000,-148.041188,8956.491898
3530.577102,229.828649,-518.144159,9326.594869
3530.577416,0.000000,-296.082377,9696.697840
3530.577730,76.609550,-0.000000,9548.656652
3530.578045,0.000000,-74.020594,9400.615463
3530.578359,0.000000,-148.041188,9622.677246
3530.578673,153.219100,-0.000000,9326.594869
3530.578987,153.219100,-0.000000,9326.594869
3530.579301,76.609550,-370.102971,9622.677246
3530.579615,76.609550,-148.041188,9104.533087
3530.579929,0.000000,-296.082377,9252.574275
3530.580243,-306.438199,-666.185348,9548.656652
3530.580557,-536.266849,-888.247130,10066.800811
3530.580872,-536.266849,-740.205942,10066.800811
3530.581186,-229.828649,-666.185348,10140.821405
3530.581500,76.609550,-222.061783,10362.883188
3530.581814,0.000000,-0.000000,9770.718434
3530.582128,536.266849,444.123565,9474.636058
3530.582442,995.924147,444.123565,9030.512492
3530.582756,1072.533697,370.102971,8956.491898
3530.583070,1149.143247,444.123565,8216.285956
3530.583384,1149.143247,-0.000000,8290.306550
3530.583699,995.924147,-74.020594,8734.430116
3530.584013,766.095498,-296.082377,9326.594869
3530.584327,1072.533697,-444.123565,9844.739029
3530.584641,0.000000,-370.102971,9844.739029
3530.584955,0.000000,-296.082377,10140.821405
3530.585269,-383.047749,-148.041188,10214.842000
3530.585583,-229.828649,-74.020594,10066.800811
3530.585897,0.000000,-148.041188,9992.780217
3530.586211,0.000000,74.020594,9918.759623
3530.586526,383.047749,518.144159,9400.615463
3530.586840,995.924147,1184.329507,9326.594869
3530.587154,1378.971896,814.226536,9252.574275
3530.587468,1149.143247,1184.329507,9030.512492
3530.587782,1149.143247,1258.350101,9474.636058
3530.588096,689.485948,888.247130,9770.718434
3530.588410,459.657299,666.185348,9844.739029
3530.588724,0.000000,814.226536,10066.800811
3530.589039,-306.438199,518.144159,10214.842000
3530.589353,-612.876398,444.123565,10214.842000
3530.589667,-383.047749,592.164754,10214.842000
3530.589981,-536.266849,222.061783,10140.821405
3530.590295,-383.047749,-0.000000,9548.656652
3530.590609,306.438199,888.247130,9252.574275
3530.590923,229.828649,1258.350101,9104.533087
3530.591237,383.047749,1184.329507,9400.615463
3530.591551,153.219100,1184.329507,9622.677246
3530.591866,0.000000,888.247130,9178.553681
3530.592180,153.219100,814.226536,9696.697840
3530.592494,153.219100,888.247130,9844.739029
3530.592808,76.609550,888.247130,10214.842000
3530.593122,-306.438199,518.144159,10658.965565
3530.593436,-689.485948,518.144159,10066.800811
3530.593750,-612.876398,-0.000000,9918.759623
3530.594064,-153.219100,444.123565,9844.739029
3530.594378,0.000000,296.082377,9918.759623
3530.594693,76.609550,-0.000000,9696.697840
3530.595007,0.000000,-0.000000,9548.656652
3530.595321,153.219100,148.041188,9548.656652
3530.595635,229.828649,222.061783,9400.615463
3530.595949,229.828649,-0.000000,9548.656652
3530.596263,0.000000,-74.020594,9548.656652
3530.596577,689.485948,-0.000000,9622.677246
3530.596891,0.000000,-222.061783,9918.759623
3530.597205,0.000000,-222.061783,9622.677246
3530.597520,229.828649,-0.000000,9770.718434
3530.597834,0.000000,-74.020594,9622.677246
3530.598148,153.219100,-0.000000,9474.636058
3530.598462,153.219100,-0.000000,9474.636058
3530.598776,306.438199,222.061783,9696.697840
3530.599090,459.657299,-74.020594,9918.759623
3530.599404,306.438199,-222.061783,9400.615463
3530.599718,383.047749,-666.185348,9252.574275
3530.600032,306.438199,-74.020594,9696.697840
3530.600347,536.266849,-74.020594,9474.636058
3530.600661,383.047749,-444.123565,9474.636058
3530.600975,459.657299,-148.041188,9326.594869
3530.601289,459.657299,-148.041188,9474.636058
3530.601603,229.828649,-0.000000,9178.553681
3530.601917,229.828649,-74.020594,9252.574275
3530.602231,306.438199,-296.082377,9548.656652
3530.602545,229.828649,-518.144159,9252.574275
3530.602859,229.828649,-444.123565,9474.636058
3530.603174,383.047749,-148.041188,9474.636058
3530.603488,0.000000,-296.082377,9474.636058
3530.603802,0.000000,-444.123565,9474.636058
3530.604116,153.219100,-296.082377,9474.636058
3530.604430,0.000000,-370.102971,9474.636058
3530.604744,0.000000,-74.020594,9622.677246
3530.605058,0.000000,-0.000000,9696.697840
3530.605372,76.609550,-74.020594,9696.697840
3530.605686,76.609550,-222.061783,9326.594869
3530.606001,0.000000,-518.144159,9474.636058
3530.606315,0.000000,-0.000000,9770.718434
3530.606629,76.609550,-0.000000,9474.636058
3530.606943,-229.828649,-148.041188,9474.636058
3530.607257,0.000000,-148.041188,9474.636058
3530.607571,0.000000,-592.164754,9548.656652
3530.607885,0.000000,-148.041188,9918.759623
3530.608199,-153.219100,-222.061783,9844.739029
3530.608513,0.000000,148.041188,9844.739029
3530.608828,0.000000,148.041188,9992.780217
3530.609142,0.000000,222.061783,9474.636058
3530.609456,0.000000,-0.000000,9918.759623
3530.609770,229.828649,518.144159,10288.862594
3530.610084,0.000000,444.123565,9696.697840
3530.610398,0.000000,296.082377,9622.677246
3530.610712,229.828649,296.082377,9770.718434
3530.611026,0.000000,444.123565,9918.759623
3530.611340,76.609550,296.082377,9770.718434
3530.611655,0.000000,592.164754,9770.718434
3530.611969,0.000000,888.247130,9696.697840
3530.612283,76.609550,296.082377,9548.656652
3530.612597,0.000000,518.144159,9844.739029
3530.612911,0.000000,370.102971,9622.677246
3530.613225,0.000000,370.102971,9474.636058
3530.613539,0.000000,814.226536,9622.677246
3530.613853,0.000000,148.041188,9400.615463
3530.614167,76.609550,666.185348,9548.656652
3530.614482,0.000000,592.164754,9474.636058
3530.614796,0.000000,296.082377,9548.656652
3530.615110,0.000000,592.164754,9548.656652
3530.615424,76.609550,444.123565,9918.759623
3530.615738,153.219100,444.123565,9844.739029
3530.616052,0.000000,222.061783,9696.697840
3530.616366,0.000000,222.061783,9696.697840
3530.616680,0.000000,-0.000000,9992.780217
3530.616994,229.828649,518.144159,9918.759623
3530.617309,383.047749,444.123565,9696.697840
3530.617623,306.438199,370.102971,9104.533087
3530.617937,536.266849,518.144159,9400.615463
3530.618251,1072.533697,296.082377,9104.533087
3530.618565,689.485948,518.144159,9400.615463
3530.618879,842.705048,148.041188,9252.574275
3530.619193,536.266849,-0.000000,9696.697840
3530.619507,536.266849,-0.000000,10140.821405
3530.619821,536.266849,222.061783,9474.636058
3530.620136,306.438199,-0.000000,9696.697840
3530.620450,0.000000,-0.000000,10140.821405
3530.620764,0.000000,222.061783,9918.759623
3530.621078,0.000000,-0.000000,9844.739029
3530.621392,459.657299,296.082377,9770.718434
3530.621706,383.047749,-0.000000,9696.697840
3530.622020,383.047749,222.061783,9474.636058
3530.622334,383.047749,370.102971,9474.636058
3530.622649,76.609550,-0.000000,9622.677246
3530.622963,76.609550,370.102971,9474.636058
3530.623277,383.047749,296.082377,9474.636058
3530.623591,76.609550,-0.000000,9622.677246
3530.623905,-153.219100,-0.000000,9474.636058
3530.624219,76.609550,-148.041188,9474.636058
3530.624533,0.000000,-518.144159,9400.615463
3530.624847,0.000000,-296.082377,9474.636058
3530.625161,0.000000,-148.041188,9326.594869
3530.625476,-229.828649,-148.041188,9474.636058
3530.625790,-153.219100,-0.000000,9474.636058
3530.626104,0.000000,-74.020594,9252.574275
3530.626418,76.609550,-0.000000,9548.656652
3530.626732,153.219100,-0.000000,9770.718434
3530.627046,306.438199,-0.000000,9104.533087
3530.627360,76.609550,-0.000000,9474.636058
3530.627674,0.000000,-148.041188,9548.656652
3530.627988,76.609550,-0.000000,9918.759623
3530.628303,0.000000,-296.082377,9696.697840
3530.628617,0.000000,-74.020594,9474.636058
3530.628931,0.000000,-148.041188,9622.677246
3530.629245,0.000000,-148.041188,9844.739029
3530.629559,0.000000,-74.020594,9844.739029
3530.629873,-229.828649,-296.082377,9696.697840
3530.630187,0.000000,-370.102971,9992.780217
3530.630501,0.000000,-74.020594,9770.718434
3530.630815,0.000000,-74.020594,9474.636058
3530.631130,153.219100,-148.041188,9918.759623
3530.631444,0.000000,-0.000000,9770.718434
3530.631758,0.000000,-0.000000,9474.636058
3530.632072,153.219100,-0.000000,9696.697840
3530.632386,153.219100,222.061783,9622.677246
3530.632700,536.266849,-0.000000,9770.718434
3530.633014,-229.828649,-0.000000,9622.677246
3530.633328,76.609550,-0.000000,9696.697840
3530.633642,0.000000,148.041188,9844.739029
3530.633957,76.609550,296.082377,9696.697840
3530.634271,-383.047749,-0.000000,9548.656652
3530.634585,76.609550,-0.000000,9400.615463
3530.634899,0.000000,222.061783,9474.636058
3530.635213,229.828649,296.082377,9400.615463
3530.635527,76.609550,-0.000000,9474.636058
3530.635841,229.828649,-0.000000,9326.594869
3530.636155,76.609550,-0.000000,9104.533087
3530.636469,229.828649,296.082377,9400.615463
3530.636784,229.828649,444.123565,9326.594869
3530.637098,229.828649,222.061783,9400.615463
3530.637412,383.047749,-0.000000,9474.636058
3530.637726,153.219100,148.041188,9548.656652
3530.638040,229.828649,296.082377,9030.512492
3530.638354,383.047749,444.123565,9326.594869
3530.638668,383.047749,444.123565,9844.739029
3530.638982,153.219100,444.123565,9474.636058
3530.639296,0.000000,296.082377,9474.636058
3530.639611,76.609550,518.144159,9548.656652
3530.639925,306.438199,296.082377,9622.677246
3530.640239,306.438199,370.102971,9918.759623
3530.640553,76.609550,518.144159,10214.842000
3530.640867,229.828649,370.102971,10066.800811
3530.641181,229.828649,296.082377,9696.697840
3530.641495,76.609550,444.123565,9474.636058
3530.641809,459.657299,296.082377,9622.677246
3530.642123,0.000000,370.102971,9992.780217
3530.642438,229.828649,370.102971,9770.718434
3530.642752,153.219100,296.082377,9622.677246
3530.643066,76.609550,444.123565,9770.718434
3530.643380,0.000000,444.123565,9844.739029
3530.643694,76.609550,592.164754,9992.780217
3530.644008,0.000000,518.144159,9992.780217
3530.644322,229.828649,592.164754,9992.780217
3530.644636,0.000000,444.123565,9918.759623
3530.644950,-459.657299,518.144159,9770.718434
3530.645265,229.828649,296.082377,9918.759623
3530.645579,0.000000,-0.000000,9696.697840
3530.645893,153.219100,296.082377,9844.739029
3530.646207,76.609550,-0.000000,10066.800811
3530.646521,459.657299,-0.000000,9548.656652
3530.646835,306.438199,296.082377,9178.553681
3530.647149,-153.219100,-0.000000,9252.574275
3530.647463,0.000000,222.061783,9474.636058
3530.647777,-229.828649,222.061783,9474.636058
3530.648092,0.000000,-296.082377,9474.636058
3530.648406,0.000000,-0.000000,9178.553681
3530.648720,76.609550,-0.000000,9252.574275
3530.649034,76.609550,222.061783,9400.615463
3530.649348,0.000000,-74.020594,9696.697840
3530.649662,229.828649,-74.020594,9548.656652
3530.649977,76.609550,370.102971,9326.594869
3530.650291,0.000000,-0.000000,9178.553681
3530.650605,0.000000,-148.041188,9178.553681
3530.650919,0.000000,-296.082377,9696.697840
3530.651233,0.000000,-370.102971,10140.821405
3530.651547,-383.047749,-592.164754,10288.862594
3530.651862,-536.266849,-296.082377,10436.903782
3530.652176,-383.047749,-74.020594,10288.862594
3530.652490,0.000000,-0.000000,10066.800811
3530.652804,229.828649,-0.000000,9844.739029
3530.653118,612.876398,370.102971,9474.636058
3530.653432,612.876398,370.102971,8882.471304
3530.653747,842.705048,444.123565,8808.450710
3530.654061,995.924147,370.102971,8808.450710
3530.654375,766.095498,-370.102971,9252.574275
3530.654689,689.485948,-370.102971,9104.533087
3530.655003,306.438199,-296.082377,9622.677246
3530.655317,76.609550,-592.164754,9992.780217
3530.655632,0.000000,-444.123565,10066.800811
3530.655946,383.047749,-370.102971,10436.903782
3530.656260,-612.876398,-296.082377,10510.924376
3530.656574,0.000000,-74.020594,9622.677246
3530.656888,153.219100,-74.020594,9696.697840
3530.657203,153.219100,444.123565,9548.656652
3530.657517,536.266849,666.185348,9252.574275
3530.657831,689.485948,592.164754,8882.471304
3530.658145,842.705048,518.144159,9104.533087
3530.658459,842.705048,740.205942,9252.574275
3530.658773,689.485948,444.123565,9252.574275
3530.659088,383.047749,148.041188,9548.656652
3530.659402,383.047749,296.082377,9474.636058
3530.659716,76.609550,444.123565,9622.677246
3530.660030,153.219100,-0.000000,9770.718434
3530.660344,-383.047749,-0.000000,10214.842000
3530.660658,-229.828649,-0.000000,9548.656652
3530.660973,0.000000,148.041188,9400.615463
3530.661287,229.828649,370.102971,9474.636058
3530.661601,383.047749,592.164754,9696.697840
3530.661915,459.657299,814.226536,9474.636058
3530.662229,536.266849,1036.288319,9622.677246
3530.662543,612.876398,888.247130,9474.636058
3530.662858,229.828649,740.205942,9918.759623
3530.663172,229.828649,1036.288319,10140.821405
3530.663486,153.219100,740.205942,9992.780217
3530.663800,-229.828649,518.144159,10214.842000
3530.664114,-229.828649,666.185348,9992.780217
3530.664428,0.000000,518.144159,10214.842000
3530.664743,-306.438199,444.123565,10288.862594
3530.665057,0.000000,148.041188,9992.780217
3530.665371,-459.657299,-74.020594,9622.677246
3530.665685,-383.047749,370.102971,9474.636058
3530.665999,0.000000,666.185348,9844.739029
3530.666313,0.000000,444.123565,9548.656652
3530.666628,0.000000,370.102971,9622.677246
3530.666942,153.219100,296.082377,9622.677246
3530.667256,-229.828649,296.082377,9622.677246
3530.667570,0.000000,296.082377,9474.636058
3530.667884,-306.438199,148.041188,9992.780217
3530.668198,-459.657299,-0.000000,9844.739029
3530.668513,536.266849,-0.000000,9326.594869
3530.668827,0.000000,444.123565,9622.677246
3530.669141,-229.828649,-0.000000,9770.718434
3530.669455,0.000000,-0.000000,9622.677246
3530.669769,153.219100,-0.000000,9474.636058
3530.670083,153.219100,-0.000000,9252.574275
3530.670398,229.828649,74.020594,9252.574275
3530.670712,306.438199,-0.000000,9104.533087
3530.671026,76.609550,-444.123565,9474.636058
3530.671340,383.047749,-74.020594,9326.594869
3530.671654,153.219100,-0.000000,9326.594869
3530.671968,229.828649,-0.000000,9252.574275
3530.672283,383.047749,74.020594,9252.574275
3530.672597,306.438199,-222.061783,9474.636058
3530.672911,383.047749,-148.041188,9400.615463
3530.673225,229.828649,-0.000000,9252.574275
3530.673539,306.438199,-74.020594,9548.656652
3530.673853,383.047749,-74.020594,9474.636058
3530.674168,459.657299,-148.041188,9548.656652
3530.674482,306.438199,-0.000000,9400.615463
3530.674796,76.609550,-0.000000,9696.697840
3530.675110,612.876398,-0.000000,9548.656652
3530.675424,76.609550,-0.000000,9844.739029
3530.675738,306.438199,-74.020594,9844.739029
3530.676053,383.047749,-444.123565,9474.636058
3530.676367,76.609550,-74.020594,9474.636058
3530.676681,0.000000,-444.123565,9770.718434
3530.676995,0.000000,-296.082377,9696.697840
3530.677309,306.438199,-370.102971,9474.636058
3530.677623,0.000000,-370.102971,9474.636058
3530.677938,0.000000,-222.061783,9474.636058
3530.678252,153.219100,-148.041188,9252.574275
3530.678566,0.000000,-148.041188,9474.636058
3530.678880,0.000000,-74.020594,9918.759623
3530.679194,-459.657299,148.041188,9918.759623
3530.679508,-229.828649,-0.000000,9844.739029
3530.679823,-229.828649,-0.000000,9696.697840
3530.680137,-383.047749,-0.000000,9696.697840
3530.680451,229.828649,-0.000000,9918.759623
3530.680765,229.828649,-0.000000,9548.656652
3530.681079,0.000000,-74.020594,9770.718434
3530.681393,-76.609550,-148.041188,9326.594869
3530.681708,0.000000,-0.000000,9844.739029
3530.682022,0.000000,-0.000000,9622.677246
3530.682336,0.000000,148.041188,9548.656652
3530.682650,0.000000,222.061783,9548.656652
3530.682964,-306.438199,222.061783,9696.697840
3530.683278,0.000000,222.061783,9844.739029
3530.683593,306.438199,-0.000000,9622.677246
3530.683907,-153.219100,222.061783,9400.615463
3530.684221,153.219100,444.123565,9696.697840
3530.684535,0.000000,592.164754,9622.677246
3530.684849,153.219100,370.102971,9770.718434
3530.685163,383.047749,222.061783,9326.594869
3530.685478,-229.828649,444.123565,9400.615463
3530.685792,0.000000,370.102971,9696.697840
3530.686106,-306.438199,296.082377,9474.636058
3530.686420,0.000000,-0.000000,10362.883188
3530.686734,-229.828649,-0.000000,10288.862594
3530.687048,0.000000,-0.000000,9474.636058
3530.687363,-229.828649,74.020594,10140.821405
3530.687677,-306.438199,296.082377,10066.800811
3530.687991,229.828649,518.144159,9696.697840
3530.688305,383.047749,370.102971,9622.677246
3530.688619,459.657299,222.061783,9104.533087
3530.688933,689.485948,444.123565,9104.533087
3530.689248,766.095498,592.164754,8882.471304
3530.689562,842.705048,222.061783,9474.636058
3530.689876,459.657299,222.061783,9252.574275
3530.690190,229.828649,74.020594,9548.656652
3530.690504,0.000000,-0.000000,9696.697840
3530.690818,153.219100,-0.000000,9992.780217
3530.691133,76.609550,-74.020594,10140.821405
3530.691447,153.219100,-0.000000,9548.656652
3530.691761,306.438199,222.061783,9696.697840
3530.692075,612.876398,296.082377,9548.656652
3530.692389,383.047749,296.082377,9326.594869
3530.692703,153.219100,222.061783,9474.636058
3530.693018,459.657299,444.123565,9326.594869
3530.693332,766.095498,666.185348,9178.553681
3530.693646,766.095498,518.144159,9252.574275
3530.693960,689.485948,518.144159,9400.615463
3530.694274,536.266849,370.102971,9474.636058
3530.694588,306.438199,296.082377,9548.656652
3530.694903,76.609550,-0.000000,9696.697840
3530.695217,76.609550,-0.000000,9918.759623
3530.695531,-1072.533697,-0.000000,10066.800811
3530.695845,76.609550,-0.000000,9548.656652
3530.696159,0.000000,-0.000000,9548.656652
3530.696473,153.219100,296.082377,9844.739029
3530.696788,229.828649,592.164754,9696.697840
3530.697102,306.438199,518.144159,9770.718434
3530.697416,76.609550,148.041188,9696.697840
3530.697730,153.219100,592.164754,9474.636058
3530.698044,229.828649,444.123565,9770.718434
3530.698358,0.000000,296.082377,9770.718434
3530.698673,-306.438199,-0.000000,9844.739029
3530.698987,-536.266849,-0.000000,9844.739029
3530.699301,0.000000,148.041188,9696.697840
3530.699615,-229.828649,-0.000000,9474.636058
3530.699929,0.000000,444.123565,9474.636058
3530.700243,153.219100,296.082377,10214.842000
3530.700558,-306.438199,-148.041188,9918.759623
3530.700872,0.000000,-0.000000,9474.636058
3530.701186,0.000000,-0.000000,9400.615463
3530.701500,0.000000,-74.020594,9474.636058
3530.701814,0.000000,-222.061783,9696.697840
3530.702128,0.000000,222.061783,9622.677246
3530.702443,0.000000,222.061783,9400.615463
3530.702757,306.438199,296.082377,9474.636058
3530.703071,0.000000,-0.000000,9548.656652
3530.703385,0.000000,740.205942,9622.677246
3530.703699,0.000000,-0.000000,9474.636058
3530.704013,0.000000,-0.000000,9400.615463
3530.704328,0.000000,222.061783,9548.656652
3530.704642,153.219100,-74.020594,9474.636058
3530.704956,612.876398,222.061783,9696.697840
3530.705270,0.000000,-74.020594,9474.636058
3530.705584,229.828649,-0.000000,9474.636058
3530.705898,306.438199,-74.020594,9696.697840
3530.706213,459.657299,148.041188,9696.697840
3530.706527,536.266849,-0.000000,9474.636058
3530.706841,383.047749,-0.000000,9326.594869
3530.707155,383.047749,-0.000000,9474.636058
3530.707469,459.657299,370.102971,9622.677246
3530.707783,229.828649,-0.000000,9844.739029
3530.708098,459.657299,-0.000000,9474.636058
3530.708412,383.047749,518.144159,9326.594869
3530.708726,306.438199,222.061783,9326.594869
3530.709040,306.438199,222.061783,9770.718434
3530.709354,0.000000,-0.000000,9548.656652
3530.709668,-459.657299,74.020594,9844.739029
3530.709983,0.000000,-0.000000,9474.636058
3530.710297,0.000000,148.041188,9770.718434
3530.710611,153.219100,296.082377,9844.739029
3530.710925,229.828649,-0.000000,9696.697840
3530.711239,153.219100,962.267725,9918.759623
3530.711553,229.828649,370.102971,9622.677246
3530.711868,229.828649,444.123565,9474.636058
3530.712182,459.657299,222.061783,9474.636058
3530.712496,0.000000,-0.000000,9474.636058
3530.712810,229.828649,296.082377,9400.615463
3530.713124,153.219100,-0.000000,9622.677246
3530.713438,0.000000,222.061783,9474.636058
3530.713753,-229.828649,-0.000000,9844.739029
3530.714067,-383.047749,222.061783,9844.739029
3530.714381,153.219100,-370.102971,9992.780217
3530.714695,0.000000,-0.000000,9622.677246
3530.715009,153.219100,222.061783,9770.718434
3530.715323,0.000000,222.061783,9696.697840
3530.715638,0.000000,222.061783,9696.697840
3530.715952,229.828649,666.185348,9844.739029
3530.716266,76.609550,370.102971,9474.636058
3530.716580,0.000000,518.144159,9548.656652
3530.716894,153.219100,296.082377,9918.759623
3530.717208,0.000000,296.082377,9770.718434
3530.717523,0.000000,-296.082377,9696.697840
3530.717837,0.000000,222.061783,9844.739029
3530.718151,0.000000,-0.000000,9844.739029
3530.718465,0.000000,-0.000000,9844.739029
3530.718779,153.219100,222.061783,9622.677246
3530.719093,-229.828649,222.061783,9622.677246
3530.719408,76.609550,222.061783,9474.636058
3530.719722,153.219100,444.123565,9474.636058
3530.720036,76.609550,296.082377,9622.677246
3530.720350,0.000000,-0.000000,9400.615463
3530.720664,306.438199,-0.000000,9252.574275
3530.720978,-153.219100,-0.000000,9252.574275
3530.721293,0.000000,222.061783,9400.615463
3530.721607,-229.828649,-222.061783,9474.636058
3530.721921,-766.095498,-666.185348,9918.759623
3530.722235,-612.876398,-666.185348,9844.739029
3530.722549,-536.266849,-370.102971,10288.862594
3530.722863,0.000000,-444.123565,10362.883188
3530.723178,0.000000,74.020594,9992.780217
3530.723492,153.219100,-0.000000,9548.656652
3530.723806,612.876398,444.123565,9252.574275
3530.724120,919.314598,740.205942,8882.471304
3530.724434,1225.752797,370.102971,8438.347739
3530.724748,1149.143247,-0.000000,8364.327145
3530.725063,1225.752797,-74.020594,8660.409521
3530.725377,842.705048,-222.061783,9030.512492
3530.725691,689.485948,-518.144159,9252.574275
3530.726005,76.609550,-666.185348,10066.800811
3530.726319,0.000000,-740.205942,9844.739029
3530.726634,76.609550,-740.205942,10214.842000
3530.726948,0.000000,-444.123565,9992.780217
3530.727262,76.609550,-222.061783,9770.718434
3530.727576,689.485948,-0.000000,9918.759623
3530.727890,383.047749,296.082377,9622.677246
3530.728204,995.924147,370.102971,9326.594869
3530.728519,766.095498,666.185348,9178.553681
3530.728833,919.314598,370.102971,9104.533087
3530.729147,766.095498,518.144159,9178.553681
3530.729461,612.876398,444.123565,9326.594869
3530.729775,995.924147,-0.000000,9992.780217
3530.730089,0.000000,-0.000000,9548.656652
3530.730404,-153.219100,-0.000000,9844.739029
3530.730718,-459.657299,-0.000000,10140.821405
3530.731032,-689.485948,-148.041188,9622.677246
3530.731346,0.000000,-148.041188,9918.759623
3530.731660,0.000000,370.102971,9770.718434
3530.731974,0.000000,222.061783,9548.656652
3530.732289,229.828649,370.102971,9400.615463
3530.732603,536.266849,666.185348,9326.594869
3530.732917,612.876398,666.185348,9400.615463
3530.733231,306.438199,888.247130,9474.636058
3530.733545,229.828649,888.247130,9770.718434
3530.733859,153.219100,814.226536,9992.780217
3530.734174,612.876398,592.164754,9696.697840
3530.734488,0.000000,444.123565,9992.780217
3530.734802,-306.438199,518.144159,10214.842000
3530.735116,-536.266849,370.102971,10288.862594
3530.735430,-612.876398,296.082377,9622.677246
3530.735744,-229.828649,-0.000000,9548.656652
3530.736059,-306.438199,370.102971,9474.636058
3530.736373,-229.828649,222.061783,9548.656652
3530.736687,0.000000,222.061783,9844.739029
3530.737001,0.000000,222.061783,9844.739029
3530.737315,0.000000,-370.102971,9770.718434
3530.737629,383.047749,-0.000000,9400.615463
3530.737944,306.438199,518.144159,9696.697840
3530.738258,306.438199,296.082377,10288.862594
3530.738572,0.000000,518.144159,9696.697840
3530.738886,76.609550,296.082377,9622.677246
3530.739200,0.000000,444.123565,9770.718434
3530.739514,0.000000,296.082377,9770.718434
3530.739829,0.000000,222.061783,9474.636058
3530.740143,-229.828649,148.041188,9474.636058
3530.740457,229.828649,-0.000000,9696.697840
3530.740771,0.000000,-0.000000,9548.656652
3530.741085,383.047749,-0.000000,9474.636058
3530.741399,76.609550,-0.000000,9696.697840
3530.741714,0.000000,-74.020594,9474.636058
3530.742028,766.095498,148.041188,9326.594869
3530.742342,383.047749,-0.000000,9400.615463
3530.742656,383.047749,-0.000000,9474.636058
3530.742970,536.266849,296.082377,9178.553681
3530.743284,229.828649,-0.000000,9104.533087
3530.743599,459.657299,-74.020594,9548.656652
3530.743913,229.828649,-0.000000,9400.615463
3530.744227,459.657299,-222.061783,9622.677246
3530.744541,612.876398,-0.000000,9474.636058
3530.744855,306.438199,-74.020594,9474.636058
3530.745169,0.000000,-74.020594,9622.677246
3530.745484,0.000000,-0.000000,9548.656652
3530.745798,76.609550,-0.000000,9770.718434
3530.746112,76.609550,-0.000000,9474.636058
3530.746426,536.266849,-0.000000,9622.677246
3530.746740,459.657299,-74.020594,9770.718434
3530.747054,459.657299,-0.000000,9474.636058
3530.747369,536.266849,-0.000000,9622.677246
3530.747683,383.047749,-0.000000,9474.636058
3530.747997,459.657299,-74.020594,9400.615463
3530.748311,0.000000,-0.000000,9474.636058
3530.748625,306.438199,-0.000000,9400.615463
3530.748939,76.609550,-0.000000,9918.759623
3530.749254,0.000000,-0.000000,9844.739029
3530.749568,-383.047749,-592.164754,9918.759623
3530.749882,-459.657299,-0.000000,10362.883188
3530.750196,-153.219100,-0.000000,9844.739029
3530.750510,-229.828649,-0.000000,9844.739029
3530.750824,-229.828649,296.082377,9548.656652
3530.751139,459.657299,-0.000000,9992.780217
3530.751453,229.828649,222.061783,9844.739029
3530.751767,0.000000,444.123565,9770.718434
3530.752081,0.000000,370.102971,9918.759623
3530.752395,0.000000,222.061783,9622.677246
3530.752709,76.609550,222.061783,10214.842000
3530.753023,76.609550,-0.000000,9548.656652
3530.753338,0.000000,-0.000000,9992.780217
3530.753652,0.000000,296.082377,9622.677246
3530.753966,0.000000,370.102971,9474.636058
3530.754280,-229.828649,-74.020594,9474.636058
3530.754594,-306.438199,296.082377,9696.697840
3530.754908,0.000000,296.082377,9622.677246
3530.755222,76.609550,-0.000000,9548.656652
3530.755537,0.000000,-0.000000,9252.574275
3530.755851,-229.828649,222.061783,9474.636058
3530.756165,229.828649,370.102971,9326.594869
3530.756479,0.000000,148.041188,9770.718434
3530.756793,76.609550,-0.000000,9770.718434
3530.757107,0.000000,-0.000000,9696.697840
3530.757421,0.000000,-370.102971,9252.574275
3530.757736,0.000000,222.061783,9844.739029
3530.758050,76.609550,296.082377,9770.718434
3530.758364,76.609550,-0.000000,9696.697840
3530.758678,229.828649,222.061783,9622.677246
3530.758992,612.876398,370.102971,9400.615463
3530.759306,689.485948,592.164754,9400.615463
3530.759620,612.876398,296.082377,9400.615463
3530.759935,689.485948,370.102971,9326.594869
3530.760249,536.266849,222.061783,9104.533087
3530.760563,383.047749,-0.000000,9326.594869
3530.760877,383.047749,-0.000000,9474.636058
3530.761191,306.438199,-0.000000,9844.739029
3530.761505,76.609550,-0.000000,9770.718434
3530.761819,153.219100,-0.000000,9770.718434
3530.762134,0.000000,148.041188,9918.759623
3530.762448,76.609550,-0.000000,9770.718434
3530.762762,536.266849,-0.000000,9622.677246
3530.763076,383.047749,296.082377,9844.739029
3530.763390,383.047749,222.061783,9474.636058
3530.763704,383.047749,666.185348,9400.615463
3530.764018,536.266849,222.061783,9622.677246
3530.764333,612.876398,444.123565,9696.697840
3530.764647,459.657299,370.102971,9474.636058
3530.764961,153.219100,222.061783,9548.656652
3530.765275,76.609550,370.102971,9696.697840
3530.765589,0.000000,-0.000000,9918.759623
3530.765903,153.219100,222.061783,9844.739029
3530.766217,0.000000,-0.000000,9622.677246
3530.766532,0.000000,148.041188,9548.656652
3530.766846,383.047749,222.061783,9178.553681
3530.767160,306.438199,222.061783,9696.697840
3530.767474,153.219100,-0.000000,9844.739029
3530.767788,229.828649,370.102971,9474.636058
3530.768102,229.828649,518.144159,9400.615463
3530.768416,383.047749,222.061783,9622.677246
3530.768730,0.000000,444.123565,9696.697840
3530.769045,0.000000,518.144159,10066.800811
3530.769359,0.000000,-0.000000,9622.677246
3530.769673,-153.219100,148.041188,9622.677246
3530.769987,-306.438199,518.144159,9844.739029
3530.770301,0.000000,148.041188,9474.636058
3530.770615,0.000000,148.041188,9696.697840
3530.770929,-153.219100,-0.000000,9548.656652
3530.771244,-306.438199,222.061783,9770.718434
3530.771558,0.000000,148.041188,9770.718434
3530.771872,-76.609550,-0.000000,9918.759623
3530.772186,0.000000,148.041188,9770.718434
3530.772500,153.219100,-0.000000,9474.636058
3530.772814,229.828649,296.082377,9548.656652
3530.773128,0.000000,-0.000000,9548.656652
3530.773443,0.000000,222.061783,9622.677246
3530.773757,76.609550,-0.000000,9696.697840
3530.774071,-536.266849,-296.082377,9474.636058
3530.774385,76.609550,-0.000000,9474.636058
3530.774699,0.000000,-0.000000,9622.677246
3530.775013,153.219100,-0.000000,9770.718434
3530.775327,-306.438199,-0.000000,9548.656652
3530.775642,0.000000,-74.020594,9548.656652
3530.775956,0.000000,-74.020594,9622.677246
3530.776270,153.219100,-222.061783,9770.718434
3530.776584,76.609550,-74.020594,9474.636058
3530.776898,383.047749,-0.000000,9252.574275
3530.777212,229.828649,-74.020594,9474.636058
3530.777526,459.657299,222.061783,9252.574275
3530.777841,459.657299,222.061783,9474.636058
3530.778155,306.438199,-222.061783,9474.636058
3530.778469,459.657299,-0.000000,9474.636058
3530.778783,766.095498,-0.000000,9696.697840
3530.779097,229.828649,-74.020594,9400.615463
3530.779411,153.219100,148.041188,9474.636058
3530.779725,153.219100,-0.000000,9548.656652
3530.780040,153.219100,74.020594,9252.574275
3530.780354,612.876398,148.041188,9400.615463
3530.780668,153.219100,148.041188,9696.697840
3530.780982,76.609550,74.020594,9178.553681
3530.781296,153.219100,-0.000000,9622.677246
3530.781610,306.438199,-0.000000,9844.739029
3530.781924,229.828649,296.082377,9474.636058
3530.782239,459.657299,370.102971,9548.656652
3530.782553,229.828649,148.041188,9696.697840
3530.782867,459.657299,222.061783,9622.677246
3530.783181,1072.533697,444.123565,9400.615463
3530.783495,306.438199,148.041188,9252.574275
3530.783809,0.000000,-0.000000,9918.759623
3530.784123,0.000000,296.082377,9844.739029
3530.784438,0.000000,148.041188,9696.697840
3530.784752,-383.047749,-0.000000,10066.800811
3530.785066,0.000000,-0.000000,9770.718434
3530.785380,-306.438199,-148.041188,9548.656652
3530.785694,0.000000,-0.000000,9918.759623
3530.786008,0.000000,296.082377,9992.780217
3530.786322,-383.047749,-0.000000,9770.718434
3530.786637,76.609550,518.144159,9326.594869
3530.786951,76.609550,666.185348,9696.697840
3530.787265,153.219100,296.082377,9548.656652
3530.787579,76.609550,518.144159,9474.636058
3530.787893,76.609550,296.082377,9622.677246
3530.788207,76.609550,444.123565,9548.656652
3530.788521,0.000000,-0.000000,9622.677246
3530.788836,0.000000,-148.041188,9844.739029
3530.789150,-229.828649,-0.000000,10140.821405
3530.789464,0.000000,-296.082377,9548.656652
3530.789778,-459.657299,-0.000000,9696.697840
3530.790092,306.438199,222.061783,9474.636058
3530.790406,306.438199,296.082377,9474.636058
3530.790720,229.828649,-0.000000,9178.553681
3530.791035,229.828649,444.123565,8956.491898
3530.791349,0.000000,592.164754,9474.636058
3530.791663,0.000000,444.123565,9474.636058
3530.791977,0.000000,222.061783,9326.594869
3530.792291,-153.219100,-0.000000,9622.677246
3530.792605,0.000000,-296.082377,9992.780217
3530.792919,-306.438199,-518.144159,10140.821405
3530.793234,-459.657299,-444.123565,10658.965565
3530.793548,-383.047749,-444.123565,10510.924376
3530.793862,0.000000,-148.041188,9992.780217
3530.794176,76.609550,-0.000000,9474.636058
3530.794490,689.485948,814.226536,9474.636058
3530.794804,842.705048,1036.288319,9104.533087
3530.795118,1072.533697,740.205942,8956.491898
3530.795432,1072.533697,592.164754,8364.327145
3530.795747,842.705048,-0.000000,8512.368333
3530.796061,919.314598,-296.082377,8438.347739
3530.796375,766.095498,-296.082377,9252.574275
3530.796689,229.828649,-666.185348,10066.800811
3530.797003,153.219100,-518.144159,9844.739029
3530.797317,0.000000,-444.123565,9844.739029
3530.797631,-459.657299,-370.102971,9622.677246
3530.797946,0.000000,-148.041188,10140.821405
3530.798260,153.219100,-0.000000,9844.739029
3530.798574,383.047749,-0.000000,9474.636058
3530.798888,766.095498,222.061783,9474.636058
3530.799202,1225.752797,740.205942,9030.512492
3530.799516,1149.143247,518.144159,9104.533087
3530.799830,995.924147,444.123565,9474.636058
3530.800145,842.705048,518.144159,9178.553681
3530.800459,536.266849,148.041188,9474.636058
3530.800773,229.828649,148.041188,9770.718434
3530.801087,0.000000,-0.000000,9918.759623
3530.801401,-153.219100,-74.020594,10066.800811
3530.801715,-229.828649,-0.000000,9474.636058
3530.802029,-229.828649,-0.000000,9992.780217
3530.802344,0.000000,370.102971,9548.656652
3530.802658,0.000000,666.185348,9696.697840
3530.802972,153.219100,666.185348,9326.594869
3530.803286,383.047749,888.247130,9326.594869
3530.803600,383.047749,962.267725,9474.636058
3530.803914,229.828649,888.247130,9844.739029
3530.804228,76.609550,814.226536,9770.718434
3530.804543,306.438199,666.185348,9474.636058
3530.804857,0.000000,740.205942,9918.759623
3530.805171,-536.266849,666.185348,10214.842000
3530.805485,-229.828649,666.185348,10288.862594
3530.805799,-459.657299,444.123565,9918.759623
3530.806113,-383.047749,222.061783,9474.636058
3530.806427,0.000000,444.123565,9844.739029
3530.806742,-383.047749,148.041188,9696.697840
3530.807056,-153.219100,-74.020594,9178.553681
3530.807370,-306.438199,-74.020594,9844.739029
3530.807684,-306.438199,-0.000000,9548.656652
3530.807998,153.219100,370.102971,9548.656652
3530.808312,306.438199,-0.000000,9770.718434
3530.808626,153.219100,296.082377,9696.697840
3530.808941,0.000000,222.061783,9622.677246
3530.809255,0.000000,222.061783,9770.718434
3530.809569,0.000000,-0.000000,10214.842000
3530.809883,229.828649,296.082377,9696.697840
3530.810197,-306.438199,-74.020594,9622.677246
3530.810511,0.000000,-222.061783,9770.718434
3530.810825,0.000000,-0.000000,9474.636058
3530.811140,76.609550,-74.020594,9918.759623
3530.811454,306.438199,-148.041188,9696.697840
3530.811768,459.657299,-0.000000,9474.636058
3530.812082,306.438199,-0.000000,9400.615463
3530.812396,306.438199,-0.000000,9178.553681
3530.812710,612.876398,-0.000000,9400.615463
3530.813024,459.657299,-74.020594,9548.656652
3530.813339,459.657299,-0.000000,9400.615463
3530.813653,612.876398,-0.000000,9326.594869
3530.813967,459.657299,-0.000000,9326.594869
3530.814281,306.438199,-0.000000,9474.636058
3530.814595,0.000000,-74.020594,9770.718434
3530.814909,306.438199,-222.061783,9696.697840
3530.815223,306.438199,148.041188,9252.574275
3530.815538,229.828649,148.041188,9252.574275
3530.815852,229.828649,-0.000000,9474.636058
3530.816166,383.047749,222.061783,9474.636058
3530.816480,536.266849,148.041188,9474.636058
3530.816794,0.000000,-74.020594,9178.553681
3530.817108,153.219100,222.061783,9326.594869
3530.817422,153.219100,-0.000000,9548.656652
3530.817737,689.485948,-74.020594,9400.615463
3530.818051,229.828649,-222.061783,9548.656652
3530.818365,229.828649,-0.000000,9622.677246
3530.818679,0.000000,-0.000000,9474.636058
3530.818993,306.438199,-0.000000,9474.636058
3530.819307,306.438199,-0.000000,9548.656652
3530.819621,0.000000,-296.082377,9696.697840
3530.819936,0.000000,-148.041188,9844.739029
3530.820250,0.000000,-222.061783,10140.821405
3530.820564,-229.828649,-74.020594,10140.821405
3530.820878,0.000000,-222.061783,9770.718434
3530.821192,0.000000,-74.020594,10066.800811
3530.821506,0.000000,-0.000000,9548.656652
3530.821820,0.000000,222.061783,9548.656652
3530.822134,0.000000,-0.000000,9918.759623
3530.822449,459.657299,-0.000000,9622.677246
3530.822763,0.000000,444.123565,9992.780217
3530.823077,229.828649,222.061783,9474.636058
3530.823391,0.000000,-0.000000,9918.759623
3530.823705,0.000000,222.061783,9992.780217
3530.824019,-383.047749,-222.061783,10140.821405
3530.824333,-229.828649,-0.000000,9992.780217
3530.824648,-306.438199,-0.000000,9770.718434
3530.824962,-229.828649,222.061783,9696.697840
3530.825276,0.000000,370.102971,9622.677246
3530.825590,306.438199,222.061783,9844.739029
3530.825904,153.219100,444.123565,9178.553681
3530.826218,0.000000,814.226536,9252.574275
3530.826532,76.609550,814.226536,9474.636058
3530.826847,0.000000,666.185348,9474.636058
3530.827161,-383.047749,444.123565,9474.636058
3530.827475,-383.047749,-0.000000,9474.636058
3530.827789,-229.828649,-0.000000,9696.697840
3530.828103,-306.438199,-148.041188,9474.636058
3530.828417,-306.438199,-74.020594,9696.697840
3530.828731,-536.266849,-148.041188,10066.800811
3530.829046,-76.609550,-0.000000,9844.739029
3530.829360,-229.828649,296.082377,9918.759623
3530.829674,229.828649,740.205942,9326.594869
3530.829988,612.876398,444.123565,9326.594869
3530.830302,766.095498,666.185348,9030.512492
3530.830616,612.876398,518.144159,8882.471304
3530.830930,842.705048,-0.000000,9178.553681
3530.831245,995.924147,296.082377,9326.594869
3530.831559,459.657299,-0.000000,9178.553681
3530.831873,153.219100,222.061783,9696.697840
3530.832187,0.000000,-74.020594,9622.677246
3530.832501,76.609550,-222.061783,9548.656652
3530.832815,229.828649,-74.020594,9918.759623
3530.833129,76.609550,-0.000000,9844.739029
3530.833444,153.219100,222.061783,9770.718434
3530.833758,383.047749,222.061783,9770.718434
3530.834072,229.828649,518.144159,9696.697840
3530.834386,612.876398,592.164754,9844.739029
3530.834700,766.095498,444.123565,10140.821405
3530.835014,766.095498,592.164754,9474.636058
3530.835328,612.876398,370.102971,9474.636058
3530.835643,229.828649,296.082377,9548.656652
3530.835957,229.828649,444.123565,10066.800811
3530.836271,459.657299,-0.000000,10214.842000
3530.836585,-229.828649,370.102971,9622.677246
3530.836899,-76.609550,370.102971,9252.574275
3530.837213,0.000000,-0.000000,9326.594869
3530.837527,0.000000,222.061783,9548.656652
3530.837842,-229.828649,-0.000000,9548.656652
3530.838156,-153.219100,592.164754,9696.697840
3530.838470,0.000000,222.061783,9474.636058
3530.838784,306.438199,370.102971,9474.636058
3530.839098,0.000000,592.164754,9622.677246
3530.839412,383.047749,814.226536,9770.718434
3530.839726,76.609550,444.123565,9622.677246
3530.840041,0.000000,518.144159,9844.739029
3530.840355,-153.219100,444.123565,9548.656652
3530.840669,76.609550,370.102971,9770.718434
3530.840983,0.000000,-592.164754,9548.656652
3530.841297,-229.828649,-0.000000,9474.636058
3530.841611,0.000000,-0.000000,9548.656652
3530.841925,0.000000,-74.020594,9474.636058
3530.842240,0.000000,-0.000000,9992.780217
3530.842554,-229.828649,-296.082377,9548.656652
3530.842868,0.000000,-0.000000,9474.636058
3530.843182,0.000000,-74.020594,9622.677246
3530.843496,229.828649,-0.000000,9622.677246
3530.843810,76.609550,-0.000000,9622.677246
3530.844124,76.609550,-0.000000,9844.739029
3530.844439,153.219100,296.082377,9696.697840
3530.844753,306.438199,296.082377,9770.718434
3530.845067,0.000000,296.082377,9696.697840
3530.845381,306.438199,222.061783,10140.821405
3530.845695,0.000000,-74.020594,9696.697840
3530.846009,0.000000,-0.000000,9622.677246
3530.846323,153.219100,-0.000000,9844.739029
3530.846638,76.609550,-0.000000,9474.636058
3530.846952,229.828649,-0.000000,9696.697840
3530.847266,0.000000,74.020594,9770.718434
3530.847580,153.219100,-0.000000,9474.636058
3530.847894,0.000000,-0.000000,9252.574275
3530.848208,153.219100,222.061783,9474.636058
3530.848522,306.438199,148.041188,9548.656652
3530.848836,459.657299,-0.000000,9696.697840
3530.849151,536.266849,444.123565,9178.553681
3530.849465,383.047749,148.041188,9178.553681
3530.849779,383.047749,444.123565,9622.677246
3530.850093,306.438199,-0.000000,8956.491898
3530.850407,229.828649,222.061783,9474.636058
3530.850721,0.000000,296.082377,9918.759623
3530.851035,0.000000,148.041188,9474.636058
3530.851350,0.000000,-0.000000,9548.656652
3530.851664,0.000000,-0.000000,9844.739029
3530.851978,76.609550,-296.082377,9474.636058
3530.852292,229.828649,-0.000000,9622.677246
3530.852606,536.266849,222.061783,9474.636058
3530.852920,229.828649,222.061783,9622.677246
3530.853234,459.657299,-0.000000,9474.636058
3530.853548,0.000000,-0.000000,9548.656652
3530.853863,153.219100,370.102971,9474.636058
3530.854177,229.828649,222.061783,9622.677246
3530.854491,306.438199,-0.000000,9770.718434
3530.854805,306.438199,-0.000000,10066.800811
3530.855119,0.000000,222.061783,10066.800811
3530.855433,0.000000,148.041188,9992.780217
3530.855747,76.609550,-0.000000,9918.759623
3530.856061,76.609550,-0.000000,10362.883188
3530.856375,-459.657299,370.102971,10288.862594
3530.856690,0.000000,370.102971,9622.677246
3530.857004,0.000000,148.041188,9918.759623
3530.857318,76.609550,-0.000000,9696.697840
3530.857632,0.000000,-0.000000,9622.677246
3530.857946,229.828649,-0.000000,9696.697840
3530.858260,153.219100,-0.000000,9992.780217
3530.858574,76.609550,-0.000000,9400.615463
3530.858888,0.000000,148.041188,9622.677246
3530.859202,-229.828649,222.061783,9770.718434
3530.859517,-306.438199,-0.000000,9696.697840
3530.859831,-306.438199,-74.020594,9696.697840
3530.860145,0.000000,74.020594,9622.677246
3530.860459,153.219100,296.082377,9844.739029
3530.860773,-153.219100,370.102971,9474.636058
3530.861087,0.000000,296.082377,9400.615463
3530.861401,0.000000,148.041188,9474.636058
3530.861715,-153.219100,444.123565,9252.574275
3530.862029,0.000000,444.123565,9178.553681
3530.862343,0.000000,296.082377,9400.615463
3530.862658,76.609550,-296.082377,9178.553681
3530.862972,-383.047749,-0.000000,9400.615463
3530.863286,-383.047749,-74.020594,9474.636058
3530.863600,-383.047749,-592.164754,10436.903782
3530.863914,-689.485948,-444.123565,10288.862594
3530.864228,-612.876398,-444.123565,10066.800811
3530.864542,-76.609550,-296.082377,9918.759623
3530.864856,229.828649,-0.000000,9770.718434
3530.865170,689.485948,296.082377,9622.677246
3530.865485,459.657299,814.226536,9326.594869
3530.865799,995.924147,296.082377,8882.471304
3530.866113,995.924147,222.061783,8438.347739
3530.866427,1302.362347,-0.000000,8808.450710
3530.866741,1072.533697,-222.061783,9474.636058
3530.867055,459.657299,-592.164754,9474.636058
3530.867369,229.828649,-666.185348,9622.677246
3530.867683,-229.828649,-444.123565,9918.759623
3530.867997,-459.657299,-444.123565,10510.924376
3530.868312,-612.876398,-518.144159,10214.842000
3530.868626,-229.828649,-148.041188,9918.759623
3530.868940,0.000000,-0.000000,10214.842000
3530.869254,306.438199,296.082377,9622.677246
3530.869568,689.485948,666.185348,9474.636058
3530.869882,689.485948,740.205942,9622.677246
3530.870196,766.095498,592.164754,9252.574275
3530.870510,689.485948,888.247130,9178.553681
3530.870824,842.705048,666.185348,9104.533087
3530.871139,612.876398,518.144159,9844.739029
3530.871453,612.876398,-0.000000,9622.677246
3530.871767,-306.438199,-222.061783,9474.636058
3530.872081,-383.047749,-0.000000,9844.739029
3530.872395,-383.047749,-74.020594,9770.718434
3530.872709,0.000000,-74.020594,9548.656652
3530.873023,0.000000,222.061783,9474.636058
3530.873337,153.219100,148.041188,9252.574275
3530.873651,153.219100,444.123565,8808.450710
3530.873966,536.266849,888.247130,9030.512492
3530.874280,612.876398,962.267725,9474.636058
3530.874594,306.438199,666.185348,9326.594869
3530.874908,536.266849,888.247130,9474.636058
3530.875222,153.219100,518.144159,9400.615463
3530.875536,153.219100,666.185348,9918.759623
3530.875850,0.000000,296.082377,10140.821405
3530.876164,536.266849,296.082377,10066.800811
3530.876478,0.000000,222.061783,10436.903782
3530.876793,-766.095498,222.061783,10140.821405
3530.877107,-459.657299,222.061783,9548.656652
3530.877421,-306.438199,296.082377,9992.780217
3530.877735,-229.828649,-0.000000,10140.821405
3530.878049,0.000000,296.082377,9622.677246
3530.878363,-383.047749,-0.000000,9548.656652
3530.878677,-153.219100,296.082377,9918.759623
3530.878991,76.609550,222.061783,9918.759623
3530.879305,76.609550,370.102971,9992.780217
3530.879619,0.000000,296.082377,10584.944971
3530.879934,-306.438199,296.082377,10288.862594
3530.880248,-153.219100,148.041188,9992.780217
3530.880562,-229.828649,296.082377,9992.780217
3530.880876,-459.657299,-0.000000,10140.821405
3530.881190,0.000000,-0.000000,9548.656652
3530.881504,0.000000,-0.000000,9400.615463
3530.881818,229.828649,-148.041188,9622.677246
3530.882132,306.438199,-0.000000,9474.636058
3530.882446,459.657299,-0.000000,9030.512492
3530.882761,459.657299,-0.000000,9178.553681
3530.883075,306.438199,-0.000000,9178.553681
3530.883389,229.828649,-0.000000,9252.574275
3530.883703,229.828649,-0.000000,9400.615463
3530.884017,459.657299,-370.102971,8956.491898
3530.884331,689.485948,296.082377,9178.553681
3530.884645,536.266849,-0.000000,9104.533087
3530.884959,536.266849,-0.000000,9326.594869
3530.885273,536.266849,-148.041188,9326.594869
3530.885588,383.047749,-518.144159,9326.594869
3530.885902,459.657299,-0.000000,9326.594869
3530.886216,383.047749,-0.000000,9326.594869
3530.886530,459.657299,-74.020594,9770.718434
3530.886844,306.438199,-0.000000,9548.656652
3530.887158,383.047749,-148.041188,9548.656652
3530.887472,383.047749,-148.041188,9770.718434
3530.887786,229.828649,-0.000000,9844.739029
3530.888100,536.266849,-0.000000,9548.656652
3530.888415,229.828649,-0.000000,9622.677246
3530.888729,383.047749,148.041188,9770.718434
3530.889043,153.219100,-0.000000,9622.677246
3530.889357,459.657299,-0.000000,9474.636058
3530.889671,153.219100,-148.041188,9622.677246
3530.889985,76.609550,-0.000000,9622.677246
3530.890299,536.266849,-0.000000,9844.739029
3530.890613,76.609550,-148.041188,9992.780217
3530.890927,0.000000,-74.020594,10066.800811
3530.891242,-536.266849,-74.020594,10140.821405
3530.891556,-459.657299,-148.041188,9918.759623
3530.891870,-153.219100,-0.000000,9918.759623
3530.892184,76.609550,370.102971,9622.677246
3530.892498,76.609550,370.102971,9548.656652
3530.892812,76.609550,370.102971,9696.697840
3530.893126,0.000000,-0.000000,9622.677246
3530.893440,229.828649,-0.000000,9696.697840
3530.893754,0.000000,370.102971,9400.615463
3530.894069,-459.657299,-0.000000,9696.697840
3530.894383,-383.047749,-0.000000,9696.697840
3530.894697,0.000000,-0.000000,9622.677246
3530.895011,-383.047749,148.041188,9474.636058
3530.895325,0.000000,-0.000000,9474.636058
3530.895639,-229.828649,-0.000000,9474.636058
3530.895953,-153.219100,-0.000000,9548.656652
3530.896267,153.219100,-0.000000,9622.677246
3530.896581,-229.828649,296.082377,9030.512492
3530.896895,0.000000,222.061783,9104.533087
3530.897210,0.000000,370.102971,9548.656652
3530.897524,0.000000,518.144159,9696.697840
3530.897838,153.219100,-0.000000,9474.636058
3530.898152,-459.657299,-0.000000,9252.574275
3530.898466,383.047749,296.082377,9992.780217
3530.898780,0.000000,-0.000000,9696.697840
3530.899094,0.000000,-0.000000,10140.821405
3530.899408,0.000000,-0.000000,9992.780217
3530.899722,0.000000,222.061783,9696.697840
3530.900037,76.609550,296.082377,9844.739029
3530.900351,153.219100,370.102971,9696.697840
3530.900665,306.438199,370.102971,9474.636058
3530.900979,383.047749,296.082377,9622.677246
3530.901293,766.095498,-0.000000,9252.574275
3530.901607,383.047749,296.082377,9548.656652
3530.901921,612.876398,-0.000000,9548.656652
3530.902235,459.657299,-0.000000,9622.677246
3530.902549,383.047749,-444.123565,9992.780217
3530.902864,459.657299,-0.000000,9844.739029
3530.903178,383.047749,-0.000000,9696.697840
3530.903492,153.219100,-0.000000,9548.656652
3530.903806,153.219100,-0.000000,9844.739029
3530.904120,76.609550,-296.082377,9474.636058
3530.904434,612.876398,518.144159,9474.636058
3530.904748,536.266849,444.123565,9474.636058
3530.905062,536.266849,444.123565,9474.636058
3530.905376,536.266849,444.123565,9696.697840
3530.905691,689.485948,148.041188,9474.636058
3530.906005,766.095498,444.123565,9400.615463
3530.906319,306.438199,296.082377,9474.636058
3530.906633,229.828649,296.082377,9474.636058
3530.906947,0.000000,148.041188,9474.636058
3530.907261,0.000000,-0.000000,9178.553681
3530.907575,0.000000,-0.000000,9622.677246
3530.907889,76.609550,222.061783,9622.677246
3530.908203,76.609550,148.041188,9548.656652
3530.908518,229.828649,-0.000000,9474.636058
3530.908832,0.000000,222.061783,9400.615463
3530.909146,229.828649,370.102971,9622.677246
3530.909460,76.609550,592.164754,9474.636058
3530.909774,229.828649,592.164754,9770.718434
3530.910088,76.609550,444.123565,9696.697840
3530.910402,0.000000,444.123565,9548.656652
3530.910716,76.609550,592.164754,9770.718434
3530.911030,-76.609550,296.082377,9918.759623
3530.911344,0.000000,-0.000000,9992.780217
3530.911659,0.000000,-0.000000,9992.780217
3530.911973,-153.219100,-148.041188,9770.718434
3530.912287,0.000000,-0.000000,9992.780217
3530.912601,-229.828649,222.061783,9992.780217
3530.912915,-229.828649,-0.000000,9992.780217
3530.913229,-383.047749,-0.000000,9770.718434
3530.913543,0.000000,-0.000000,9992.780217
3530.913857,-229.828649,-74.020594,9622.677246
3530.914171,0.000000,-0.000000,9696.697840
3530.914486,0.000000,-0.000000,9622.677246
3530.914800,0.000000,-0.000000,9548.656652
3530.915114,0.000000,-0.000000,9548.656652
3530.915428,0.000000,-0.000000,9548.656652
3530.915742,0.000000,-0.000000,9474.636058
3530.916056,229.828649,222.061783,9622.677246
3530.916370,0.000000,-0.000000,9400.615463
3530.916684,76.609550,-148.041188,9326.594869
3530.916998,229.828649,222.061783,9770.718434
3530.917313,0.000000,-148.041188,9696.697840
3530.917627,0.000000,-0.000000,9622.677246
3530.917941,229.828649,-0.000000,9326.594869
3530.918255,459.657299,-74.020594,9030.512492
3530.918569,459.657299,74.020594,9252.574275
3530.918883,383.047749,296.082377,9252.574275
3530.919197,766.095498,296.082377,8734.430116
3530.919511,0.000000,-0.000000,9178.553681
3530.919825,766.095498,296.082377,9474.636058
3530.920140,536.266849,296.082377,9474.636058
3530.920454,536.266849,222.061783,9474.636058
3530.920768,229.828649,-0.000000,9622.677246
3530.921082,229.828649,-74.020594,9548.656652
3530.921396,383.047749,-0.000000,9992.780217
3530.921710,153.219100,-0.000000,9918.759623
3530.922024,229.828649,-0.000000,9918.759623
3530.922338,383.047749,370.102971,9696.697840
3530.922652,153.219100,-74.020594,9474.636058
3530.922967,383.047749,-0.000000,9696.697840
3530.923281,-306.438199,222.061783,9696.697840
3530.923595,229.828649,-0.000000,9918.759623
3530.923909,76.609550,-0.000000,9622.677246
3530.924223,306.438199,-148.041188,9622.677246
3530.924537,306.438199,74.020594,9770.718434
3530.924851,229.828649,-0.000000,9844.739029
3530.925165,0.000000,-296.082377,9696.697840
3530.925479,0.000000,-0.000000,9474.636058
3530.925794,153.219100,592.164754,9548.656652
3530.926108,0.000000,-0.000000,9178.553681
3530.926422,0.000000,296.082377,9474.636058
3530.926736,229.828649,222.061783,9918.759623
3530.927050,0.000000,370.102971,9844.739029
3530.927364,536.266849,-0.000000,9770.718434
3530.927678,0.000000,444.123565,9548.656652
3530.927992,76.609550,222.061783,9918.759623
3530.928306,0.000000,148.041188,10066.800811
3530.928620,0.000000,-0.000000,9400.615463
3530.928935,76.609550,-0.000000,9474.636058
3530.929249,76.609550,222.061783,9696.697840
3530.929563,153.219100,-0.000000,9918.759623
3530.929877,76.609550,370.102971,9252.574275
3530.930191,-229.828649,444.123565,9030.512492
3530.930505,536.266849,222.061783,9918.759623
3530.930819,-229.828649,370.102971,9770.718434
3530.931133,153.219100,-0.000000,9548.656652
3530.931447,0.000000,-74.020594,9622.677246
3530.931762,229.828649,296.082377,9400.615463
3530.932076,0.000000,-0.000000,9474.636058
3530.932390,0.000000,296.082377,9770.718434
3530.932704,0.000000,-0.000000,9474.636058
3530.933018,0.000000,296.082377,9178.553681
3530.933332,-229.828649,222.061783,9104.533087
3530.933646,-229.828649,444.123565,9696.697840
3530.933960,-689.485948,-222.061783,10066.800811
3530.934274,-612.876398,-370.102971,9992.780217
3530.934589,-383.047749,-592.164754,10066.800811
3530.934903,-306.438199,-222.061783,10658.965565
3530.935217,-229.828649,-370.102971,10214.842000
3530.935531,-229.828649,-0.000000,10140.821405
3530.935845,229.828649,148.041188,9918.759623
3530.936159,612.876398,370.102971,8882.471304
3530.936473,1225.752797,518.144159,8956.491898
3530.936787,1225.752797,370.102971,8956.491898
3530.937101,1149.143247,-0.000000,8734.430116
3530.937416,1072.533697,-74.020594,8956.491898
3530.937730,689.485948,-222.061783,9178.553681
3530.938044,459.657299,-592.164754,10214.842000
3530.938358,0.000000,-444.123565,9622.677246
3530.938672,-76.609550,-592.164754,9770.718434
3530.938986,-536.266849,-444.123565,10362.883188
3530.939300,0.000000,-148.041188,9918.759623
3530.939614,-306.438199,370.102971,10066.800811
3530.939928,383.047749,296.082377,9696.697840
3530.940243,766.095498,592.164754,9548.656652
3530.940557,842.705048,592.164754,8882.471304
3530.940871,1149.143247,1036.288319,8660.409521
3530.941185,1072.533697,814.226536,9474.636058
3530.941499,995.924147,740.205942,9474.636058
3530.941813,612.876398,444.123565,9770.718434
3530.942127,306.438199,444.123565,9622.677246
3530.942441,0.000000,-0.000000,9992.780217
3530.942755,-229.828649,296.082377,10066.800811
3530.943069,-459.657299,-148.041188,9918.759623
3530.943384,-306.438199,-74.020594,9844.739029
3530.943698,-153.219100,296.082377,9622.677246
3530.944012,153.219100,444.123565,9696.697840
3530.944326,383.047749,444.123565,9622.677246
3530.944640,536.266849,814.226536,9474.636058
3530.944954,306.438199,592.164754,9252.574275
3530.945268,306.438199,888.247130,9474.636058
3530.945582,766.095498,592.164754,9474.636058
3530.945896,229.828649,444.123565,9696.697840
3530.946211,76.609550,592.164754,10066.800811
3530.946525,-153.219100,222.061783,10066.800811
3530.946839,-536.266849,148.041188,10214.842000
3530.947153,-459.657299,222.061783,10066.800811
3530.947467,-536.266849,444.123565,10066.800811
3530.947781,-306.438199,-0.000000,9918.759623
3530.948095,-459.657299,74.020594,9844.739029
3530.948409,-229.828649,-0.000000,9548.656652
3530.948723,0.000000,-0.000000,9696.697840
3530.949038,0.000000,-0.000000,9474.636058
3530.949352,229.828649,296.082377,9104.533087
3530.949666,0.000000,222.061783,9622.677246
3530.949980,153.219100,-0.000000,9178.553681
3530.950294,0.000000,148.041188,9474.636058
3530.950608,0.000000,222.061783,9696.697840
3530.950922,0.000000,-0.000000,9770.718434
3530.951236,-612.876398,-0.000000,9696.697840
3530.951550,-306.438199,-148.041188,9400.615463
3530.951865,0.000000,-0.000000,10214.842000
3530.952179,76.609550,296.082377,9770.718434
3530.952493,0.000000,222.061783,9622.677246
3530.952807,229.828649,148.041188,9400.615463
3530.953121,76.609550,-0.000000,9400.615463
3530.953435,383.047749,296.082377,9474.636058
3530.953749,459.657299,-0.000000,9474.636058
3530.954063,383.047749,-0.000000,9252.574275
3530.954377,536.266849,296.082377,9252.574275
3530.954691,306.438199,148.041188,9104.533087
3530.955005,459.657299,-0.000000,9474.636058
3530.955319,459.657299,-0.000000,9400.615463
3530.955633,383.047749,-148.041188,9474.636058
3530.955947,459.657299,-370.102971,9474.636058
3530.956261,153.219100,-296.082377,9622.677246
3530.956575,536.266849,-148.041188,9326.594869
3530.956889,383.047749,-0.000000,9178.553681
3530.957203,306.438199,-74.020594,9474.636058
3530.957517,229.828649,-0.000000,9474.636058
3530.957831,383.047749,-0.000000,9474.636058
3530.958145,0.000000,-0.000000,9474.636058
3530.958459,153.219100,-74.020594,9844.739029
3530.958773,306.438199,-0.000000,10066.800811
3530.959087,306.438199,-222.061783,9696.697840
3530.959401,383.047749,-444.123565,9474.636058
3530.959715,306.438199,-0.000000,9474.636058
3530.960029,153.219100,-0.000000,9474.636058
3530.960343,229.828649,-74.020594,9326.594869
3530.960657,229.828649,-74.020594,9474.636058
3530.960971,153.219100,-222.061783,9696.697840
3530.961286,0.000000,-222.061783,9474.636058
3530.961600,229.828649,-0.000000,9770.718434
3530.961914,76.609550,-74.020594,10066.800811
3530.962228,0.000000,296.082377,9696.697840
3530.962542,306.438199,-0.000000,9992.780217
3530.962856,0.000000,74.020594,9918.759623
3530.963170,76.609550,222.061783,9992.780217
3530.963484,0.000000,296.082377,9918.759623
3530.963798,0.000000,370.102971,9696.697840
3530.964112,306.438199,222.061783,9326.594869
3530.964426,0.000000,148.041188,9548.656652
3530.964740,-229.828649,-0.000000,9696.697840
3530.965054,-383.047749,518.144159,9696.697840
3530.965368,0.000000,-0.000000,9770.718434
3530.965682,-383.047749,148.041188,9474.636058
3530.965996,-306.438199,222.061783,9992.780217
3530.966310,-383.047749,148.041188,10066.800811
3530.966624,-306.438199,-0.000000,9400.615463
3530.966938,-383.047749,370.102971,9474.636058
3530.967252,0.000000,518.144159,9696.697840
3530.967566,-229.828649,296.082377,9474.636058
3530.967880,0.000000,222.061783,9400.615463
3530.968194,-306.438199,-0.000000,9474.636058
3530.968508,0.000000,296.082377,9918.759623
3530.968822,0.000000,370.102971,9474.636058
3530.969136,-383.047749,-148.041188,9992.780217
3530.969450,0.000000,-0.000000,10140.821405
3530.969764,-306.438199,-148.041188,9770.718434
3530.970078,229.828649,-296.082377,9918.759623
3530.970392,306.438199,-0.000000,10214.842000
3530.970706,306.438199,-0.000000,9548.656652
3530.971020,76.609550,370.102971,9030.512492
3530.971334,383.047749,296.082377,9030.512492
3530.971648,229.828649,296.082377,9474.636058
3530.971962,689.485948,222.061783,9030.512492
3530.972276,919.314598,222.061783,9252.574275
3530.972590,612.876398,-0.000000,9474.636058
3530.972905,842.705048,-0.000000,9474.636058
3530.973219,306.438199,-444.123565,9622.677246
3530.973533,0.000000,-222.061783,9992.780217
3530.973847,76.609550,-296.082377,10066.800811
3530.974161,76.609550,-0.000000,9770.718434
3530.974475,0.000000,444.123565,9696.697840
3530.974789,76.609550,222.061783,9548.656652
3530.975103,536.266849,370.102971,9474.636058
3530.975417,612.876398,296.082377,9474.636058
3530.975731,536.266849,370.102971,9326.594869
3530.976045,612.876398,666.185348,9622.677246
3530.976359,689.485948,444.123565,9252.574275
3530.976673,536.266849,222.061783,9622.677246
3530.976987,306.438199,148.041188,9696.697840
3530.977301,0.000000,-0.000000,9548.656652
3530.977615,0.000000,-0.000000,9474.636058
3530.977929,229.828649,-74.020594,9622.677246
3530.978243,76.609550,148.041188,9844.739029
3530.978557,0.000000,-0.000000,9252.574275
3530.978871,153.219100,-74.020594,9622.677246
3530.979185,0.000000,-0.000000,9844.739029
3530.979499,153.219100,370.102971,9474.636058
3530.979813,536.266849,518.144159,9622.677246
3530.980127,689.485948,592.164754,9474.636058
3530.980441,306.438199,444.123565,9622.677246
3530.980755,383.047749,444.123565,9474.636058
3530.981069,383.047749,-0.000000,9992.780217
3530.981383,0.000000,444.123565,9696.697840
3530.981697,-383.047749,296.082377,9770.718434
3530.982011,-306.438199,-0.000000,9696.697840
3530.982325,-229.828649,-0.000000,9696.697840
3530.982639,76.609550,-0.000000,9770.718434
3530.982953,-229.828649,-0.000000,10214.842000
3530.983267,0.000000,-0.000000,10066.800811
3530.983581,0.000000,-0.000000,9770.718434
3530.983895,0.000000,148.041188,9548.656652
3530.984209,0.000000,296.082377,9474.636058
3530.984524,153.219100,296.082377,9696.697840
3530.984838,76.609550,222.061783,9474.636058
3530.985152,76.609550,222.061783,9474.636058
3530.985466,0.000000,444.123565,9474.636058
3530.985780,153.219100,-0.000000,9770.718434
3530.986094,0.000000,148.041188,9548.656652
3530.986408,0.000000,370.102971,9844.739029
3530.986722,0.000000,222.061783,10140.821405
3530.987036,-153.219100,-0.000000,9474.636058
3530.987350,0.000000,-222.061783,9474.636058
3530.987664,0.000000,-0.000000,9770.718434
3530.987978,0.000000,-0.000000,9548.656652
3530.988292,153.219100,-0.000000,9474.636058
3530.988606,0.000000,-0.000000,9474.636058
3530.988920,383.047749,-222.061783,9474.636058
3530.989234,306.438199,296.082377,9252.574275
3530.989548,229.828649,-0.000000,9400.615463
3530.989862,153.219100,-0.000000,9474.636058
3530.990176,229.828649,-0.000000,9252.574275
3530.990490,536.266849,-0.000000,9400.615463
3530.990804,536.266849,-0.000000,9474.636058
3530.991118,536.266849,-74.020594,9474.636058
3530.991432,383.047749,-0.000000,9400.615463
3530.991746,306.438199,296.082377,9696.697840
3530.992060,306.438199,-0.000000,9696.697840
3530.992374,76.609550,-0.000000,9696.697840
3530.992688,76.609550,-0.000000,9696.697840
3530.993002,76.609550,-222.061783,9252.574275
3530.993316,229.828649,-0.000000,9696.697840
3530.993630,459.657299,-0.000000,9992.780217
3530.993944,536.266849,-0.000000,9696.697840
3530.994258,229.828649,148.041188,9622.677246
3530.994572,383.047749,-0.000000,9400.615463
3530.994886,383.047749,148.041188,9770.718434
3530.995200,459.657299,-0.000000,9696.697840
3530.995514,76.609550,518.144159,9622.677246
3530.995828,229.828649,444.123565,9326.594869
3530.996143,0.000000,222.061783,9474.636058
3530.996457,383.047749,518.144159,9770.718434
3530.996771,0.000000,-0.000000,10140.821405
3530.997085,0.000000,222.061783,9918.759623
3530.997399,0.000000,296.082377,9992.780217
3530.997713,0.000000,222.061783,9770.718434
3530.998027,0.000000,370.102971,9770.718434
3530.998341,0.000000,-0.000000,9918.759623
3530.998655,-306.438199,-0.000000,9696.697840
3530.998969,0.000000,296.082377,9474.636058
3530.999283,-229.828649,444.123565,9548.656652
3530.999597,0.000000,-0.000000,9992.780217
3530.999911,0.000000,222.061783,9548.656652
3531.000225,0.000000,-0.000000,9400.615463
3531.000539,0.000000,-0.000000,10066.800811
3531.000853,0.000000,148.041188,9696.697840
3531.001167,0.000000,-74.020594,9844.739029
3531.001481,-306.438199,-0.000000,9696.697840
3531.001795,0.000000,-148.041188,9326.594869
3531.002109,76.609550,-0.000000,9400.615463
3531.002423,0.000000,-0.000000,9326.594869
3531.002737,306.438199,-0.000000,9770.718434
3531.003051,-153.219100,-0.000000,9474.636058
3531.003365,76.609550,222.061783,9326.594869
3531.003679,0.000000,-0.000000,9252.574275
3531.003993,0.000000,-0.000000,9326.594869
3531.004307,-229.828649,-518.144159,9548.656652
3531.004621,-306.438199,-296.082377,9844.739029
3531.004935,-689.485948,-518.144159,10066.800811
3531.005249,-459.657299,-296.082377,10288.862594
3531.005563,0.000000,-296.082377,10584.944971
3531.005877,0.000000,-148.041188,10510.924376
3531.006191,0.000000,370.102971,9992.780217
3531.006505,306.438199,592.164754,9696.697840
3531.006819,459.657299,740.205942,9104.533087
3531.007133,1072.533697,444.123565,8734.430116
3531.007447,1378.971896,444.123565,8734.430116
3531.007762,1072.533697,296.082377,8290.306550
3531.008076,766.095498,-74.020594,9030.512492
3531.008390,689.485948,-222.061783,9326.594869
3531.008704,76.609550,-518.144159,9622.677246
3531.009018,0.000000,-518.144159,9918.759623
3531.009332,-306.438199,-444.123565,9696.697840
3531.009646,-383.047749,-666.185348,9918.759623
3531.009960,-306.438199,-148.041188,9844.739029
3531.010274,0.000000,-0.000000,10288.862594
3531.010588,383.047749,222.061783,9622.677246
3531.010902,1072.533697,740.205942,8956.491898
3531.011216,1072.533697,518.144159,9252.574275
3531.011530,1072.533697,740.205942,8808.450710
3531.011844,1378.971896,740.205942,9178.553681
3531.012158,919.314598,814.226536,9178.553681
3531.012472,689.485948,518.144159,9326.594869
3531.012786,306.438199,222.061783,9474.636058
3531.013100,76.609550,-0.000000,9992.780217
3531.013414,-306.438199,-0.000000,10140.821405
3531.013728,-536.266849,-444.123565,10066.800811
3531.014042,-306.438199,-148.041188,9918.759623
3531.014356,0.000000,-0.000000,9548.656652
3531.014670,0.000000,370.102971,9770.718434
3531.014984,383.047749,592.164754,9696.697840
3531.015298,459.657299,592.164754,9400.615463
3531.015612,612.876398,740.205942,9252.574275
3531.015926,536.266849,962.267725,9252.574275
3531.016240,229.828649,1036.288319,9474.636058
3531.016554,153.219100,814.226536,10214.842000
3531.016868,0.000000,814.226536,10066.800811
3531.017182,-153.219100,518.144159,9992.780217
3531.017496,-689.485948,148.041188,10362.883188
3531.017810,-612.876398,-0.000000,10288.862594
3531.018124,-383.047749,222.061783,10066.800811
3531.018438,-459.657299,370.102971,9770.718434
3531.018752,-229.828649,444.123565,9918.759623
3531.019066,0.000000,-0.000000,9770.718434
3531.019381,0.000000,518.144159,9622.677246
3531.019695,-153.219100,296.082377,9548.656652
3531.020009,0.000000,296.082377,9474.636058
3531.020323,153.219100,666.185348,9622.677246
3531.020637,-459.657299,296.082377,9474.636058
3531.020951,0.000000,-148.041188,9770.718434
3531.021265,0.000000,-0.000000,9918.759623
3531.021579,-229.828649,-0.000000,9474.636058
3531.021893,-306.438199,148.041188,9548.656652
3531.022207,0.000000,-0.000000,9696.697840
3531.022521,0.000000,148.041188,9622.677246
3531.022835,306.438199,-74.020594,9326.594869
3531.023149,153.219100,-0.000000,9474.636058
3531.023463,0.000000,-0.000000,9474.636058
3531.023777,536.266849,370.102971,9474.636058
3531.024091,383.047749,-518.144159,9696.697840
3531.024405,306.438199,-148.041188,9474.636058
3531.024719,383.047749,-222.061783,9178.553681
3531.025033,459.657299,-222.061783,9178.553681
3531.025347,459.657299,-0.000000,9474.636058
3531.025661,536.266849,-148.041188,9400.615463
3531.025975,306.438199,-148.041188,9622.677246
3531.026289,383.047749,-222.061783,9696.697840
3531.026603,536.266849,-222.061783,9326.594869
3531.026917,612.876398,-0.000000,9178.553681
3531.027231,306.438199,-0.000000,9548.656652
3531.027545,306.438199,-74.020594,9400.615463
3531.027859,383.047749,-74.020594,9622.677246
3531.028173,76.609550,-0.000000,9474.636058
3531.028487,229.828649,-0.000000,9696.697840
3531.028801,76.609550,296.082377,9696.697840
3531.029115,229.828649,-0.000000,9770.718434
3531.029429,76.609550,-0.000000,9548.656652
3531.029743,229.828649,-0.000000,9918.759623
3531.030057,536.266849,-222.061783,10066.800811
3531.030371,0.000000,-74.020594,9548.656652
3531.030685,153.219100,148.041188,9696.697840
3531.030999,0.000000,-0.000000,9622.677246
3531.031314,229.828649,-0.000000,9474.636058
3531.031628,-306.438199,-444.123565,9622.677246
3531.031942,0.000000,-74.020594,9622.677246
3531.032256,-306.438199,-0.000000,9770.718434
3531.032570,-306.438199,-0.000000,9844.739029
3531.032884,0.000000,-0.000000,9770.718434
3531.033198,0.000000,444.123565,10066.800811
3531.033512,76.609550,-0.000000,9622.677246
3531.033826,0.000000,370.102971,9622.677246
3531.034140,76.609550,370.102971,9474.636058
3531.034454,0.000000,444.123565,9696.697840
3531.034768,0.000000,-0.000000,9548.656652
3531.035082,0.000000,-0.000000,9696.697840
3531.035396,0.000000,-0.000000,9844.739029
3531.035710,76.609550,222.061783,9474.636058
3531.036024,76.609550,370.102971,9992.780217
3531.036338,0.000000,-0.000000,10066.800811
3531.036652,76.609550,-0.000000,9474.636058
3531.036966,-306.438199,148.041188,9992.780217
3531.037280,0.000000,370.102971,9622.677246
3531.037594,0.000000,444.123565,9696.697840
3531.037908,306.438199,148.041188,9548.656652
3531.038222,0.000000,222.061783,9770.718434
3531.038536,229.828649,222.061783,9474.636058
3531.038850,153.219100,222.061783,9252.574275
3531.039164,0.000000,370.102971,9548.656652
3531.039478,-383.047749,222.061783,9770.718434
3531.039792,0.000000,370.102971,9696.697840
3531.040106,0.000000,-0.000000,9474.636058
3531.040420,-229.828649,-74.020594,9918.759623
3531.040734,76.609550,148.041188,10362.883188
3531.041048,0.000000,-0.000000,9918.759623
3531.041362,0.000000,296.082377,9844.739029
3531.041676,76.609550,370.102971,9622.677246
3531.041990,536.266849,296.082377,8882.471304
3531.042304,842.705048,-0.000000,9030.512492
3531.042618,842.705048,444.123565,9252.574275
3531.042933,306.438199,-0.000000,8808.450710
3531.043247,536.266849,-74.020594,9030.512492
3531.043561,0.000000,-0.000000,9474.636058
3531.043875,459.657299,-0.000000,9696.697840
3531.044189,306.438199,-74.020594,9696.697840
3531.044503,76.609550,-74.020594,9696.697840
3531.044817,76.609550,-0.000000,9474.636058
3531.045131,153.219100,148.041188,9696.697840
3531.045445,612.876398,-148.041188,9918.759623
3531.045759,766.095498,-0.000000,9326.594869
3531.046073,689.485948,370.102971,9400.615463
3531.046387,383.047749,444.123565,9178.553681
3531.046701,612.876398,222.061783,9400.615463
3531.047015,766.095498,222.061783,9844.739029
3531.047329,612.876398,296.082377,9622.677246
3531.047643,153.219100,296.082377,9400.615463
3531.047957,229.828649,296.082377,9696.697840
3531.048271,76.609550,296.082377,10066.800811
3531.048585,76.609550,-296.082377,9770.718434
3531.048899,0.000000,-74.020594,9548.656652
3531.049213,0.000000,-0.000000,9992.780217
3531.049527,0.000000,370.102971,9622.677246
3531.049841,0.000000,518.144159,9696.697840
3531.050155,0.000000,370.102971,9844.739029
3531.050469,0.000000,444.123565,9918.759623
3531.050783,0.000000,592.164754,9474.636058
3531.051097,76.609550,444.123565,9770.718434
3531.051411,153.219100,370.102971,10066.800811
3531.051725,0.000000,-0.000000,9622.677246
3531.052039,76.609550,148.041188,9548.656652
3531.052353,-153.219100,518.144159,9844.739029
3531.052667,-229.828649,222.061783,9548.656652
3531.052981,-229.828649,444.123565,9474.636058
3531.053295,-153.219100,-0.000000,9622.677246
3531.053609,-229.828649,-0.000000,9992.780217
3531.053923,-306.438199,-74.020594,9474.636058
3531.054237,0.000000,-0.000000,9548.656652
3531.054551,0.000000,222.061783,9474.636058
3531.054865,0.000000,-222.061783,9474.636058
3531.055179,383.047749,296.082377,9548.656652
3531.055493,383.047749,296.082377,9474.636058
3531.055807,689.485948,370.102971,9474.636058
3531.056121,306.438199,296.082377,9326.594869
3531.056435,0.000000,-222.061783,9474.636058
3531.056749,0.000000,-74.020594,9770.718434
3531.057063,0.000000,-0.000000,9918.759623
3531.057377,76.609550,-148.041188,9770.718434
3531.057690,0.000000,-0.000000,9844.739029
3531.058004,-153.219100,-0.000000,9696.697840
3531.058318,0.000000,-74.020594,9548.656652
3531.058632,0.000000,370.102971,9474.636058
3531.058946,153.219100,148.041188,9770.718434
3531.059260,459.657299,370.102971,9474.636058
3531.059574,459.657299,666.185348,9474.636058
3531.059888,383.047749,222.061783,9474.636058
3531.060202,306.438199,222.061783,9252.574275
3531.060516,459.657299,296.082377,9474.636058
3531.060830,306.438199,-0.000000,9474.636058
3531.061144,-153.219100,-0.000000,10066.800811
3531.061458,0.000000,74.020594,9622.677246
3531.061772,76.609550,-0.000000,9474.636058
3531.062086,153.219100,222.061783,9844.739029
3531.062400,76.609550,-0.000000,9548.656652
3531.062714,229.828649,-0.000000,9696.697840
3531.063027,153.219100,-0.000000,9474.636058
3531.063341,306.438199,370.102971,9474.636058
3531.063655,383.047749,148.041188,9178.553681
3531.063969,383.047749,518.144159,9474.636058
3531.064283,76.609550,444.123565,9548.656652
3531.064597,0.000000,148.041188,9474.636058
3531.064911,0.000000,-0.000000,9474.636058
3531.065225,76.609550,-0.000000,9474.636058
3531.065539,229.828649,-0.000000,9548.656652
3531.065853,383.047749,-0.000000,10066.800811
3531.066167,0.000000,-0.000000,9474.636058
3531.066481,306.438199,-0.000000,9992.780217
3531.066795,76.609550,-0.000000,9622.677246
3531.067109,0.000000,-74.020594,9252.574275
3531.067423,153.219100,222.061783,10066.800811
3531.067737,0.000000,-0.000000,9252.574275
3531.068051,0.000000,-0.000000,9400.615463
3531.068364,0.000000,370.102971,9992.780217
3531.068678,0.000000,-0.000000,10066.800811
3531.068992,76.609550,-0.000000,9844.739029
3531.069306,-153.219100,296.082377,9252.574275
3531.069620,153.219100,222.061783,10066.800811
3531.069934,0.000000,-0.000000,9844.739029
3531.070248,153.219100,296.082377,9844.739029
3531.070562,-306.438199,-0.000000,9844.739029
3531.070876,-229.828649,-0.000000,9548.656652
3531.071190,0.000000,74.020594,9992.780217
3531.071504,76.609550,296.082377,9696.697840
3531.071818,0.000000,-0.000000,9992.780217
3531.072132,459.657299,-296.082377,9918.759623
3531.072446,-229.828649,222.061783,9474.636058
3531.072760,76.609550,222.061783,9548.656652
3531.073074,0.000000,296.082377,9622.677246
3531.073387,0.000000,-0.000000,9622.677246
3531.073701,0.000000,222.061783,9252.574275
3531.074015,0.000000,222.061783,9104.533087
3531.074329,-76.609550,222.061783,9178.553681
3531.074643,-229.828649,-0.000000,9326.594869
3531.074957,-306.438199,-0.000000,9474.636058
3531.075271,-689.485948,-518.144159,9474.636058
3531.075585,-459.657299,-518.144159,9770.718434
3531.075899,-459.657299,-370.102971,10066.800811
3531.076213,-383.047749,-592.164754,9992.780217
3531.076527,76.609550,-148.041188,10436.903782
3531.076841,0.000000,-296.082377,9992.780217
3531.077155,612.876398,370.102971,9474.636058
3531.077469,919.314598,518.144159,9030.512492
3531.077783,842.705048,370.102971,8586.388927
3531.078097,1149.143247,518.144159,8734.430116
3531.078411,1302.362347,148.041188,8808.450710
3531.078724,1072.533697,-74.020594,8956.491898
3531.079038,919.314598,-296.082377,9326.594869
3531.079352,612.876398,-444.123565,9548.656652
3531.079666,229.828649,-666.185348,9844.739029
3531.079980,-383.047749,-814.226536,9548.656652
3531.080294,-229.828649,-444.123565,10584.944971
3531.080608,-306.438199,-222.061783,10362.883188
3531.080922,229.828649,148.041188,10214.842000
3531.081236,383.047749,296.082377,9622.677246
3531.081550,306.438199,592.164754,9326.594869
3531.081864,1072.533697,814.226536,9622.677246
3531.082178,995.924147,888.247130,9622.677246
3531.082492,1149.143247,592.164754,9400.615463
3531.082806,919.314598,666.185348,9326.594869
3531.083120,689.485948,740.205942,9696.697840
3531.083434,229.828649,592.164754,9622.677246
3531.083748,0.000000,444.123565,9918.759623
3531.084061,-306.438199,-0.000000,10066.800811
3531.084375,-383.047749,296.082377,10436.903782
3531.084689,-306.438199,-0.000000,9770.718434
3531.085003,-306.438199,-0.000000,9474.636058
3531.085317,0.000000,370.102971,9696.697840
3531.085631,0.000000,444.123565,9474.636058
3531.085945,536.266849,518.144159,9400.615463
3531.086259,76.609550,962.267725,9474.636058
3531.086573,76.609550,814.226536,9326.594869
3531.086887,76.609550,1110.308913,9252.574275
3531.087201,153.219100,666.185348,9548.656652
3531.087515,229.828649,888.247130,9622.677246
3531.087829,0.000000,518.144159,10066.800811
3531.088143,-306.438199,444.123565,9622.677246
3531.088457,-459.657299,296.082377,9622.677246
3531.088771,-459.657299,370.102971,9992.780217
3531.089085,-229.828649,148.041188,9770.718434
3531.089398,-229.828649,-0.000000,9770.718434
3531.089712,-383.047749,370.102971,9622.677246
3531.090026,76.609550,296.082377,9770.718434
3531.090340,0.000000,-0.000000,9400.615463
3531.090654,229.828649,444.123565,9474.636058
3531.090968,0.000000,148.041188,9400.615463
3531.091282,76.609550,-0.000000,9622.677246
3531.091596,153.219100,-0.000000,10214.842000
3531.091910,0.000000,-0.000000,9918.759623
3531.092224,0.000000,-0.000000,9992.780217
3531.092538,-306.438199,296.082377,10066.800811
3531.092852,-383.047749,-0.000000,9992.780217
3531.093166,0.000000,-148.041188,10066.800811
3531.093480,536.266849,148.041188,9622.677246
3531.093794,0.000000,-0.000000,9548.656652
3531.094108,0.000000,-0.000000,9696.697840
3531.094421,459.657299,-0.000000,9770.718434
3531.094735,229.828649,-0.000000,9622.677246
3531.095049,229.828649,-74.020594,9252.574275
3531.095363,459.657299,-0.000000,9252.574275
3531.095677,459.657299,-0.000000,9104.533087
3531.095991,459.657299,-0.000000,9252.574275
3531.096305,383.047749,-0.000000,9474.636058
3531.096619,383.047749,-148.041188,9030.512492
3531.096933,383.047749,-0.000000,9252.574275
3531.097247,229.828649,-74.020594,9326.594869
3531.097561,612.876398,-74.020594,9326.594869
3531.097875,536.266849,-148.041188,9474.636058
3531.098189,842.705048,-148.041188,9474.636058
3531.098503,766.095498,-0.000000,9474.636058
3531.098817,612.876398,-0.000000,9252.574275
3531.099131,306.438199,-0.000000,9178.553681
3531.099445,0.000000,-148.041188,9326.594869
3531.099758,229.828649,-0.000000,9400.615463
3531.100072,0.000000,-0.000000,9770.718434
3531.100386,306.438199,-0.000000,9696.697840
3531.100700,153.219100,-148.041188,9622.677246
3531.101014,229.828649,-74.020594,9548.656652
3531.101328,383.047749,-0.000000,9474.636058
3531.101642,306.438199,-222.061783,9696.697840
3531.101956,459.657299,-0.000000,9770.718434
3531.102270,229.828649,-0.000000,9844.739029
3531.102584,76.609550,-0.000000,10066.800811
3531.102898,0.000000,-296.082377,9696.697840
3531.103212,-229.828649,-148.041188,9844.739029
3531.103526,-153.219100,-74.020594,9918.759623
3531.103840,-153.219100,-0.000000,10066.800811
3531.104154,0.000000,296.082377,9992.780217
3531.104468,76.609550,148.041188,9696.697840
3531.104782,0.000000,444.123565,9696.697840
3531.105095,306.438199,444.123565,9770.718434
3531.105409,0.000000,148.041188,9918.759623
3531.105723,-383.047749,222.061783,9474.636058
3531.106037,153.219100,370.102971,9770.718434
3531.106351,0.000000,-222.061783,9474.636058
3531.106665,0.000000,-0.000000,9696.697840
3531.106979,-229.828649,222.061783,9918.759623
3531.107293,-383.047749,-0.000000,9844.739029
3531.107607,0.000000,-0.000000,9696.697840
3531.107921,229.828649,444.123565,9622.677246
3531.108235,0.000000,222.061783,9474.636058
3531.108549,76.609550,296.082377,9548.656652
3531.108863,-229.828649,296.082377,9178.553681
3531.109177,-153.219100,296.082377,9474.636058
3531.109491,153.219100,518.144159,9252.574275
3531.109805,0.000000,518.144159,9178.553681
3531.110119,0.000000,296.082377,9178.553681
3531.110432,-229.828649,296.082377,9474.636058
3531.110746,0.000000,-74.020594,9548.656652
3531.111060,229.828649,-0.000000,9844.739029
3531.111374,0.000000,-0.000000,9770.718434
3531.111688,-229.828649,-74.020594,10066.800811
3531.112002,76.609550,296.082377,9844.739029
3531.112316,0.000000,296.082377,9844.739029
3531.112630,229.828649,518.144159,9474.636058
3531.112944,766.095498,518.144159,9548.656652
3531.113258,612.876398,740.205942,9474.636058
3531.113572,689.485948,444.123565,9252.574275
3531.113886,842.705048,-0.000000,9474.636058
3531.114200,612.876398,-0.000000,9326.594869
3531.114514,459.657299,-0.000000,9548.656652
3531.114828,383.047749,-74.020594,9918.759623
3531.115142,306.438199,-0.000000,9770.718434
3531.115455,0.000000,-0.000000,9844.739029
3531.115769,0.000000,-0.000000,9992.780217
3531.116083,153.219100,222.061783,9844.739029
3531.116397,306.438199,296.082377,9622.677246
3531.116711,766.095498,-0.000000,9770.718434
3531.117025,766.095498,222.061783,9844.739029
3531.117339,842.705048,444.123565,9770.718434
3531.117653,766.095498,666.185348,9400.615463
3531.117967,612.876398,222.061783,9400.615463
3531.118281,536.266849,444.123565,9696.697840
3531.118595,153.219100,370.102971,9400.615463
3531.118909,0.000000,296.082377,9474.636058
3531.119223,0.000000,148.041188,9918.759623
3531.119537,76.609550,-0.000000,9474.636058
3531.119851,76.609550,296.082377,9696.697840
3531.120165,0.000000,-74.020594,9548.656652
3531.120479,0.000000,-0.000000,9696.697840
3531.120792,0.000000,-0.000000,9400.615463
3531.121106,383.047749,222.061783,9474.636058
3531.121420,0.000000,370.102971,9474.636058
3531.121734,76.609550,518.144159,9326.594869
3531.122048,153.219100,296.082377,9474.636058
3531.122362,0.000000,148.041188,9548.656652
3531.122676,76.609550,-0.000000,9918.759623
3531.122990,0.000000,296.082377,9548.656652
3531.123304,0.000000,-0.000000,9770.718434
3531.123618,0.000000,296.082377,10140.821405
3531.123932,0.000000,-0.000000,9844.739029
3531.124246,229.828649,148.041188,9696.697840
3531.124560,153.219100,-0.000000,9770.718434
3531.124874,-383.047749,-0.000000,9918.759623
3531.125188,-306.438199,-74.020594,9844.739029
3531.125502,-229.828649,-0.000000,9696.697840
3531.125816,153.219100,-0.000000,9918.759623
3531.126129,-153.219100,-74.020594,9474.636058
3531.126443,0.000000,-0.000000,9992.780217
3531.126757,0.000000,-0.000000,10140.821405
3531.127071,0.000000,-0.000000,9696.697840
3531.127385,-459.657299,-0.000000,9770.718434
3531.127699,-76.609550,148.041188,9548.656652
3531.128013,306.438199,-0.000000,9844.739029
3531.128327,76.609550,-0.000000,9474.636058
3531.128641,153.219100,-0.000000,9400.615463
3531.128955,612.876398,-148.041188,9696.697840
3531.129269,0.000000,222.061783,9400.615463
3531.129583,383.047749,-0.000000,9474.636058
3531.129897,229.828649,222.061783,9474.636058
3531.130211,383.047749,-148.041188,9474.636058
3531.130525,0.000000,-222.061783,9474.636058
3531.130839,306.438199,-0.000000,9474.636058
3531.131152,306.438199,-0.000000,9548.656652
3531.131466,306.438199,-0.000000,9030.512492
3531.131780,689.485948,-0.000000,9474.636058
3531.132094,383.047749,148.041188,9178.553681
3531.132408,612.876398,222.061783,9178.553681
3531.132722,689.485948,296.082377,9400.615463
3531.133036,612.876398,-0.000000,9474.636058
3531.133350,536.266849,222.061783,9474.636058
3531.133664,306.438199,-0.000000,9104.533087
3531.133978,153.219100,-0.000000,9474.636058
3531.134292,76.609550,-0.000000,10066.800811
3531.134606,0.000000,296.082377,9918.759623
3531.134920,0.000000,-0.000000,9992.780217
3531.135234,0.000000,148.041188,9770.718434
3531.135548,153.219100,222.061783,9770.718434
3531.135862,153.219100,-0.000000,9548.656652
3531.136176,459.657299,370.102971,9696.697840
3531.136489,383.047749,222.061783,9548.656652
3531.136803,229.828649,296.082377,9548.656652
3531.137117,153.219100,370.102971,9474.636058
3531.137431,0.000000,-0.000000,9770.718434
3531.137745,0.000000,148.041188,9918.759623
3531.138059,0.000000,-0.000000,9992.780217
3531.138373,0.000000,-0.000000,9992.780217
3531.138687,0.000000,-0.000000,10214.842000
3531.139001,0.000000,-0.000000,9770.718434
3531.139315,-306.438199,-0.000000,9622.677246
3531.139629,76.609550,222.061783,9918.759623
3531.139943,-306.438199,296.082377,9474.636058
3531.140257,0.000000,370.102971,9696.697840
3531.140571,-153.219100,296.082377,9474.636058
3531.140885,76.609550,-0.000000,9622.677246
3531.141199,383.047749,296.082377,9400.615463
3531.141513,0.000000,296.082377,9326.594869
3531.141826,0.000000,148.041188,9992.780217
3531.142140,0.000000,222.061783,9696.697840
3531.142454,0.000000,222.061783,9326.594869
3531.142768,76.609550,-0.000000,9400.615463
3531.143082,153.219100,-0.000000,9400.615463
3531.143396,0.000000,370.102971,9474.636058
3531.143710,0.000000,370.102971,9474.636058
3531.144024,0.000000,-0.000000,9548.656652
3531.144338,0.000000,148.041188,9252.574275
3531.144652,-229.828649,148.041188,9252.574275
3531.144966,0.000000,-0.000000,9622.677246
3531.145280,-383.047749,-0.000000,9474.636058
3531.145594,-229.828649,-0.000000,9400.615463
3531.145908,-306.438199,-222.061783,9474.636058
3531.146222,-306.438199,-592.164754,10362.883188
3531.146536,-153.219100,-222.061783,10140.821405
3531.146850,-536.266849,-148.041188,9918.759623
3531.147163,-229.828649,-0.000000,10510.924376
3531.147477,0.000000,-222.061783,10214.842000
3531.147791,459.657299,592.164754,9548.656652
3531.148105,383.047749,296.082377,9474.636058
3531.148419,612.876398,518.144159,9104.533087
3531.148733,1149.143247,370.102971,8882.471304
3531.149047,995.924147,-0.000000,8660.409521
3531.149361,1072.533697,-370.102971,9400.615463
3531.149675,766.095498,-518.144159,9252.574275
3531.149989,306.438199,-740.205942,9252.574275
3531.150303,0.000000,-666.185348,9770.718434
3531.150617,76.609550,-740.205942,9992.780217
3531.150931,-229.828649,-370.102971,9992.780217
3531.151245,0.000000,-296.082377,9844.739029
3531.151559,383.047749,-74.020594,10066.800811
3531.151873,383.047749,-0.000000,9548.656652
3531.152186,842.705048,370.102971,9400.615463
3531.152500,995.924147,296.082377,9474.636058
3531.152814,1149.143247,740.205942,9030.512492
3531.153128,1149.143247,666.185348,9104.533087
3531.153442,842.705048,740.205942,8882.471304
3531.153756,1302.362347,370.102971,9474.636058
3531.154070,689.485948,444.123565,9548.656652
3531.154384,229.828649,296.082377,9770.718434
3531.154698,0.000000,-0.000000,9844.739029
3531.155012,0.000000,222.061783,9696.697840
3531.155326,0.000000,-74.020594,9622.677246
3531.155640,0.000000,-0.000000,9918.759623
3531.155954,0.000000,370.102971,9770.718434
3531.156268,153.219100,814.226536,9474.636058
3531.156582,306.438199,666.185348,9178.553681
3531.156896,153.219100,740.205942,9326.594869
3531.157210,459.657299,740.205942,9252.574275
3531.157524,306.438199,1036.288319,9400.615463
3531.157838,0.000000,740.205942,9844.739029
3531.158152,0.000000,444.123565,9918.759623
3531.158466,0.000000,296.082377,10288.862594
3531.158780,-689.485948,222.061783,10288.862594
3531.159094,0.000000,370.102971,10214.842000
3531.159408,-383.047749,222.061783,10066.800811
3531.159722,-383.047749,-0.000000,9992.780217
3531.160036,229.828649,-444.123565,10214.842000
3531.160350,0.000000,370.102971,9696.697840
3531.160664,-229.828649,296.082377,9400.615463
3531.160978,-229.828649,370.102971,9326.594869
3531.161292,0.000000,222.061783,9474.636058
3531.161605,306.438199,666.185348,9844.739029
3531.161919,229.828649,518.144159,9548.656652
3531.162233,76.609550,-0.000000,9474.636058
3531.162547,0.000000,296.082377,9918.759623
3531.162861,0.000000,148.041188,9844.739029
3531.163175,-153.219100,-0.000000,9696.697840
3531.163489,-153.219100,-74.020594,9770.718434
3531.163803,0.000000,-0.000000,9770.718434
3531.164117,0.000000,-0.000000,9252.574275
3531.164431,536.266849,-74.020594,9474.636058
3531.164745,536.266849,-74.020594,9770.718434
3531.165059,229.828649,222.061783,9622.677246
3531.165373,306.438199,222.061783,9474.636058
3531.165687,153.219100,-0.000000,8956.491898
3531.166001,229.828649,296.082377,9474.636058
3531.166315,536.266849,-0.000000,9474.636058
3531.166629,153.219100,-74.020594,9252.574275
3531.166943,383.047749,-0.000000,9474.636058
3531.167257,383.047749,-0.000000,9252.574275
3531.167571,536.266849,148.041188,9474.636058
3531.167885,76.609550,-444.123565,9400.615463
3531.168199,383.047749,-0.000000,9400.615463
3531.168513,306.438199,-148.041188,9326.594869
3531.168827,306.438199,-0.000000,9400.615463
3531.169141,383.047749,-74.020594,9474.636058
3531.169455,76.609550,-0.000000,9770.718434
3531.169769,153.219100,-148.041188,9622.677246
3531.170083,76.609550,-74.020594,9622.677246
3531.170397,153.219100,-74.020594,9696.697840
3531.170711,76.609550,-0.000000,9844.739029
3531.171025,0.000000,-148.041188,9844.739029
3531.171339,383.047749,-0.000000,9252.574275
3531.171653,76.609550,-0.000000,9104.533087
3531.171967,76.609550,-0.000000,9326.594869
3531.172280,229.828649,-74.020594,9474.636058
3531.172594,229.828649,-222.061783,9622.677246
3531.172908,0.000000,-0.000000,9474.636058
3531.173222,0.000000,-0.000000,9696.697840
3531.173536,0.000000,-0.000000,9696.697840
3531.173850,0.000000,-222.061783,10066.800811
3531.174164,-229.828649,-370.102971,9992.780217
3531.174478,-383.047749,-222.061783,9918.759623
3531.174792,0.000000,-0.000000,9548.656652
3531.175106,0.000000,-0.000000,9474.636058
3531.175420,459.657299,-0.000000,10066.800811
3531.175734,229.828649,296.082377,9622.677246
3531.176048,0.000000,296.082377,9474.636058
3531.176362,153.219100,444.123565,9400.615463
3531.176676,0.000000,592.164754,9474.636058
3531.176990,153.219100,-0.000000,9474.636058
3531.177304,-229.828649,296.082377,9696.697840
3531.177618,-536.266849,148.041188,9622.677246
3531.177932,-612.876398,370.102971,9622.677246
3531.178246,-306.438199,-0.000000,9770.718434
3531.178560,0.000000,-0.000000,9918.759623
3531.178874,0.000000,518.144159,9696.697840
3531.179188,-229.828649,296.082377,9474.636058
3531.179502,0.000000,444.123565,9548.656652
3531.179816,229.828649,518.144159,9474.636058
3531.180130,76.609550,888.247130,9770.718434
3531.180444,0.000000,518.144159,9400.615463
3531.180758,0.000000,370.102971,9474.636058
3531.181072,-76.609550,-0.000000,9622.677246
3531.181386,0.000000,-74.020594,9770.718434
3531.181700,-153.219100,-0.000000,9770.718434
3531.182014,0.000000,-74.020594,9770.718434
3531.182328,-229.828649,-74.020594,9844.739029
3531.182641,0.000000,-0.000000,9770.718434
3531.182955,153.219100,296.082377,9696.697840
3531.183269,536.266849,222.061783,9252.574275
3531.183583,842.705048,296.082377,9178.553681
3531.183897,766.095498,296.082377,9178.553681
3531.184211,612.876398,222.061783,9178.553681
3531.184525,306.438199,-370.102971,9178.553681
3531.184839,306.438199,-296.082377,9474.636058
3531.185153,383.047749,-222.061783,9770.718434
3531.185467,0.000000,-222.061783,9918.759623
3531.185781,306.438199,-0.000000,9770.718434
3531.186095,383.047749,148.041188,9622.677246
3531.186409,306.438199,-0.000000,9844.739029
3531.186723,153.219100,-0.000000,9844.739029
3531.187037,153.219100,-0.000000,9400.615463
3531.187351,536.266849,-0.000000,9696.697840
3531.187665,536.266849,370.102971,9474.636058
3531.187979,459.657299,-0.000000,9622.677246
3531.188293,689.485948,518.144159,9548.656652
3531.188607,459.657299,222.061783,9400.615463
3531.188921,536.266849,592.164754,9548.656652
3531.189235,229.828649,444.123565,9622.677246
3531.189549,689.485948,-0.000000,9992.780217
3531.189863,0.000000,-0.000000,9474.636058
3531.190177,0.000000,-0.000000,9622.677246
3531.190491,0.000000,296.082377,9918.759623
3531.190805,0.000000,-0.000000,9696.697840
3531.191119,0.000000,-148.041188,9844.739029
3531.191433,-229.828649,148.041188,9474.636058
3531.191747,229.828649,296.082377,9400.615463
3531.192061,153.219100,296.082377,9474.636058
3531.192375,383.047749,296.082377,9548.656652
3531.192689,306.438199,-0.000000,9622.677246
3531.193003,76.609550,-0.000000,9326.594869
3531.193316,229.828649,370.102971,9400.615463
3531.193630,0.000000,222.061783,9548.656652
3531.193944,229.828649,296.082377,9696.697840
3531.194258,0.000000,-74.020594,9622.677246
3531.194572,0.000000,-0.000000,9548.656652
3531.194886,-229.828649,-74.020594,9474.636058
3531.195200,-306.438199,-148.041188,9696.697840
3531.195514,-766.095498,-222.061783,10066.800811
3531.195828,0.000000,-148.041188,9548.656652
3531.196142,-383.047749,-0.000000,9474.636058
3531.196456,-383.047749,-148.041188,9696.697840
3531.196770,0.000000,-0.000000,9622.677246
3531.197084,383.047749,-74.020594,9400.615463
3531.197398,0.000000,-0.000000,9400.615463
3531.197712,76.609550,-0.000000,9178.553681
3531.198026,0.000000,222.061783,9622.677246
3531.198340,153.219100,222.061783,9548.656652
3531.198654,76.609550,-0.000000,9918.759623
3531.198968,0.000000,-0.000000,10066.800811
3531.199282,-229.828649,-0.000000,9696.697840
3531.199596,0.000000,222.061783,9548.656652
3531.199910,0.000000,222.061783,9844.739029
3531.200224,229.828649,222.061783,10066.800811
3531.200538,229.828649,296.082377,9104.533087
3531.200852,306.438199,148.041188,9104.533087
3531.201166,459.657299,-0.000000,9400.615463
3531.201480,153.219100,296.082377,9178.553681
3531.201794,383.047749,-0.000000,9474.636058
3531.202108,0.000000,-0.000000,9400.615463
3531.202422,306.438199,148.041188,9474.636058
3531.202736,306.438199,-0.000000,9178.553681
3531.203050,153.219100,-0.000000,9622.677246
3531.203364,229.828649,-0.000000,9622.677246
3531.203678,76.609550,-0.000000,9474.636058
3531.203991,306.438199,-0.000000,9474.636058
3531.204305,153.219100,222.061783,9474.636058
3531.204619,766.095498,222.061783,9326.594869
3531.204933,536.266849,518.144159,9474.636058
3531.205247,766.095498,370.102971,9400.615463
3531.205561,766.095498,222.061783,9474.636058
3531.205875,306.438199,-0.000000,9400.615463
3531.206189,153.219100,-74.020594,9844.739029
3531.206503,76.609550,-0.000000,9844.739029
3531.206817,76.609550,-0.000000,9548.656652
3531.207131,76.609550,-74.020594,9696.697840
3531.207445,383.047749,-0.000000,9844.739029
3531.207759,229.828649,148.041188,9548.656652
3531.208073,0.000000,148.041188,9474.636058
3531.208387,229.828649,370.102971,9400.615463
3531.208701,153.219100,222.061783,9622.677246
3531.209015,995.924147,296.082377,10066.800811
3531.209329,306.438199,-0.000000,9696.697840
3531.209643,0.000000,148.041188,9992.780217
3531.209957,0.000000,296.082377,9770.718434
3531.210271,0.000000,296.082377,9992.780217
3531.210585,-306.438199,518.144159,9992.780217
3531.210899,-229.828649,518.144159,10362.883188
3531.211213,-153.219100,296.082377,9696.697840
3531.211527,-153.219100,222.061783,9474.636058
3531.211841,0.000000,222.061783,9770.718434
3531.212155,0.000000,370.102971,9622.677246
3531.212469,0.000000,296.082377,9474.636058
3531.212783,-153.219100,296.082377,9474.636058
3531.213097,-153.219100,148.041188,9474.636058
3531.213411,-153.219100,-0.000000,9474.636058
3531.213725,0.000000,148.041188,9696.697840
3531.214039,-229.828649,-0.000000,9696.697840
3531.214352,-229.828649,-0.000000,9474.636058
3531.214666,0.000000,222.061783,9548.656652
3531.214980,153.219100,222.061783,9474.636058
3531.215294,153.219100,222.061783,9400.615463
3531.215608,0.000000,370.102971,9326.594869
3531.215922,0.000000,296.082377,9326.594869
3531.216236,-229.828649,-0.000000,9622.677246
3531.216550,-229.828649,-666.185348,9104.533087
3531.216864,-536.266849,-592.164754,9622.677246
3531.217178,-612.876398,-740.205942,10436.903782
3531.217492,-612.876398,-740.205942,10140.821405
3531.217806,-306.438199,-518.144159,10140.821405
3531.218120,0.000000,-74.020594,10362.883188
3531.218434,153.219100,-0.000000,9696.697840
3531.218748,612.876398,444.123565,9178.553681
3531.219062,995.924147,740.205942,8734.430116
3531.219376,1072.533697,370.102971,9030.512492
3531.219690,1225.752797,-0.000000,8660.409521
3531.220004,1149.143247,-0.000000,8882.471304
3531.220318,766.095498,-222.061783,9252.574275
3531.220632,383.047749,-370.102971,9474.636058
3531.220946,229.828649,-370.102971,9696.697840
3531.221260,153.219100,-592.164754,10214.842000
3531.221574,0.000000,-444.123565,10362.883188
3531.221888,0.000000,-74.020594,10066.800811
3531.222202,-153.219100,-148.041188,9770.718434
3531.222516,306.438199,296.082377,9548.656652
3531.222830,459.657299,222.061783,9474.636058
3531.223144,536.266849,518.144159,9400.615463
3531.223458,612.876398,592.164754,8956.491898
3531.223772,1149.143247,666.185348,8956.491898
3531.224086,1225.752797,592.164754,8956.491898
3531.224400,766.095498,740.205942,9844.739029
3531.224714,766.095498,518.144159,9548.656652
3531.225027,0.000000,-0.000000,9474.636058
3531.225341,0.000000,148.041188,9548.656652
3531.225655,-689.485948,444.123565,9844.739029
3531.225969,-306.438199,-0.000000,10214.842000
3531.226283,0.000000,-0.000000,9696.697840
3531.226597,76.609550,370.102971,9474.636058
3531.226911,229.828649,518.144159,9696.697840
3531.227225,306.438199,666.185348,9474.636058
3531.227539,306.438199,370.102971,9030.512492
3531.227853,383.047749,592.164754,9622.677246
3531.228167,459.657299,592.164754,9474.636058
3531.228481,536.266849,740.205942,9474.636058
3531.228795,842.705048,-0.000000,9474.636058
3531.229109,0.000000,370.102971,10140.821405
3531.229423,0.000000,592.164754,10066.800811
3531.229737,-229.828649,592.164754,9622.677246
