#time,accel_x,accel_y,accel_z
3566.997360,1838.629195,962.267725,7624.121203
3566.997674,1838.629195,1480.411884,8586.388927
3566.997989,1685.410096,1406.391290,8956.491898
3566.998303,1608.800546,1406.391290,8808.450710
3566.998618,1685.410096,1554.432478,9104.533087
3566.998932,919.314598,740.205942,9326.594869
3566.999246,766.095498,888.247130,9178.553681
3566.999561,612.876398,814.226536,9252.574275
3566.999875,153.219100,370.102971,9844.739029
3567.000190,0.000000,370.102971,9474.636058
3567.000504,-459.657299,296.082377,9030.512492
3567.000819,-306.438199,-0.000000,9030.512492
3567.001133,229.828649,-592.164754,9474.636058
3567.001448,-383.047749,-740.205942,9474.636058
3567.001762,-689.485948,-1110.308913,9252.574275
3567.002077,-306.438199,-1036.288319,9696.697840
3567.002391,-459.657299,-814.226536,9696.697840
3567.002706,-842.705048,-740.205942,9400.615463
3567.003020,-612.876398,-740.205942,9622.677246
3567.003335,-766.095498,-962.267725,9400.615463
3567.003649,-306.438199,-592.164754,9400.615463
3567.003964,0.000000,-666.185348,9400.615463
3567.004278,0.000000,-740.205942,9474.636058
3567.004593,-459.657299,-740.205942,9252.574275
3567.004907,-612.876398,-370.102971,9474.636058
3567.005221,-229.828649,-666.185348,9474.636058
3567.005536,-383.047749,-740.205942,9844.739029
3567.005850,-306.438199,-962.267725,9992.780217
3567.006165,-536.266849,-1406.391290,9474.636058
3567.006479,-766.095498,-1258.350101,10288.862594
3567.006794,-766.095498,-1332.370696,9992.780217
3567.007108,-689.485948,-962.267725,10140.821405
3567.007423,-383.047749,-962.267725,10214.842000
3567.007737,-306.438199,-592.164754,9696.697840
3567.008052,153.219100,-74.020594,9178.553681
3567.008366,842.705048,-0.000000,8882.471304
3567.008681,919.314598,148.041188,8956.491898
3567.008995,1149.143247,592.164754,9104.533087
3567.009310,1225.752797,-0.000000,8808.450710
3567.009624,1149.143247,-148.041188,8956.491898
3567.009939,1149.143247,-296.082377,8956.491898
3567.010253,995.924147,-0.000000,9252.574275
3567.010567,689.485948,-0.000000,9548.656652
3567.010882,689.485948,-222.061783,9474.636058
3567.011196,459.657299,370.102971,9252.574275
3567.011511,536.266849,370.102971,8956.491898
3567.011825,766.095498,518.144159,9104.533087
3567.012140,1072.533697,814.226536,9474.636058
3567.012454,1225.752797,888.247130,8660.409521
3567.012769,1072.533697,962.267725,9030.512492
3567.013083,1149.143247,1110.308913,9104.533087
3567.013398,1149.143247,1332.370696,9474.636058
3567.013712,1532.190996,1184.329507,9622.677246
3567.014027,536.266849,1406.391290,9548.656652
3567.014341,459.657299,1480.411884,9548.656652
3567.014656,383.047749,1110.308913,9548.656652
3567.014970,306.438199,1110.308913,9844.739029
3567.015285,0.000000,962.267725,9844.739029
3567.015599,0.000000,888.247130,9770.718434
3567.015914,-229.828649,888.247130,9992.780217
3567.016228,-229.828649,814.226536,10436.903782
3567.016542,0.000000,740.205942,11103.089130
3567.016857,383.047749,518.144159,10955.047942
3567.017171,-612.876398,740.205942,11029.068536
3567.017486,-383.047749,1110.308913,10807.006753
3567.017800,-229.828649,1184.329507,10732.986159
3567.018115,-229.828649,740.205942,10807.006753
3567.018429,0.000000,1036.288319,10584.944971
3567.018744,0.000000,962.267725,10362.883188
3567.019058,0.000000,592.164754,9992.780217
3567.019373,76.609550,666.185348,10214.842000
3567.019687,229.828649,296.082377,10288.862594
3567.020002,-383.047749,-0.000000,10510.924376
3567.020316,0.000000,222.061783,10362.883188
3567.020631,0.000000,-0.000000,10214.842000
3567.020945,76.609550,-0.000000,10066.800811
3567.021260,0.000000,-0.000000,9474.636058
3567.021574,0.000000,-0.000000,9548.656652
3567.021888,0.000000,-0.000000,9400.615463
3567.022203,0.000000,-0.000000,9474.636058
3567.022517,383.047749,148.041188,9252.574275
3567.022832,536.266849,-370.102971,9326.594869
3567.023146,612.876398,-74.020594,9252.574275
3567.023461,76.609550,-296.082377,9178.553681
3567.023775,459.657299,-0.000000,9104.533087
3567.024090,229.828649,-370.102971,8882.471304
3567.024404,383.047749,-444.123565,8734.430116
3567.024719,229.828649,-222.061783,8956.491898
3567.025033,153.219100,-222.061783,9030.512492
3567.025348,229.828649,-296.082377,8808.450710
3567.025662,153.219100,-296.082377,8808.450710
3567.025977,153.219100,-222.061783,9178.553681
3567.026291,612.876398,-888.247130,9326.594869
3567.026606,459.657299,-592.164754,8586.388927
3567.026920,229.828649,-740.205942,9104.533087
3567.027234,153.219100,-592.164754,9696.697840
3567.027549,153.219100,-666.185348,9252.574275
3567.027863,153.219100,-518.144159,9400.615463
3567.028178,153.219100,-518.144159,9400.615463
3567.028492,0.000000,-518.144159,9622.677246
3567.028807,-76.609550,-444.123565,9326.594869
3567.029121,0.000000,-296.082377,9252.574275
3567.029436,0.000000,-666.185348,9474.636058
3567.029750,76.609550,-518.144159,9474.636058
3567.030065,0.000000,-222.061783,9770.718434
3567.030379,-306.438199,-518.144159,9696.697840
3567.030694,-153.219100,-666.185348,9992.780217
3567.031008,-383.047749,-444.123565,9844.739029
3567.031323,-229.828649,-518.144159,9918.759623
3567.031637,-153.219100,-148.041188,10140.821405
3567.031952,0.000000,-74.020594,9918.759623
3567.032266,-229.828649,-296.082377,9622.677246
3567.032581,153.219100,-0.000000,10214.842000
3567.032895,0.000000,148.041188,9770.718434
3567.033209,-229.828649,222.061783,9918.759623
3567.033524,-229.828649,222.061783,10066.800811
3567.033838,229.828649,296.082377,9548.656652
3567.034152,306.438199,444.123565,9696.697840
3567.034466,306.438199,518.144159,9548.656652
3567.034780,306.438199,518.144159,9622.677246
3567.035095,229.828649,518.144159,9548.656652
3567.035409,612.876398,444.123565,9474.636058
3567.035723,76.609550,592.164754,9474.636058
3567.036037,153.219100,740.205942,9622.677246
3567.036351,536.266849,962.267725,9622.677246
3567.036665,383.047749,962.267725,9400.615463
3567.036979,153.219100,740.205942,9696.697840
3567.037293,229.828649,1184.329507,9326.594869
3567.037608,383.047749,1110.308913,9178.553681
3567.037922,459.657299,1036.288319,9992.780217
3567.038236,612.876398,962.267725,9474.636058
3567.038550,536.266849,814.226536,9474.636058
3567.038864,76.609550,740.205942,9400.615463
3567.039178,229.828649,518.144159,9548.656652
3567.039492,459.657299,962.267725,9548.656652
3567.039807,76.609550,888.247130,9474.636058
3567.040121,0.000000,814.226536,9918.759623
3567.040435,0.000000,814.226536,9844.739029
3567.040749,153.219100,666.185348,9770.718434
3567.041063,0.000000,370.102971,9844.739029
3567.041377,0.000000,296.082377,10140.821405
3567.041691,0.000000,296.082377,10214.842000
3567.042005,0.000000,-222.061783,9622.677246
3567.042320,0.000000,-74.020594,10288.862594
3567.042634,0.000000,-518.144159,9992.780217
3567.042948,0.000000,-222.061783,9696.697840
3567.043262,0.000000,-148.041188,9622.677246
3567.043576,153.219100,-222.061783,9844.739029
3567.043890,0.000000,-370.102971,9918.759623
3567.044204,0.000000,-148.041188,9548.656652
3567.044518,153.219100,-148.041188,9548.656652
3567.044833,459.657299,-296.082377,9548.656652
3567.045147,229.828649,-222.061783,9548.656652
3567.045461,76.609550,-444.123565,9770.718434
3567.045775,229.828649,-444.123565,9548.656652
3567.046089,153.219100,-296.082377,9326.594869
3567.046403,0.000000,-148.041188,8956.491898
3567.046717,0.000000,-370.102971,9326.594869
3567.047032,0.000000,-148.041188,9548.656652
3567.047346,0.000000,-74.020594,9400.615463
3567.047660,0.000000,-370.102971,9400.615463
3567.047974,0.000000,148.041188,9474.636058
3567.048288,0.000000,-74.020594,9400.615463
3567.048602,306.438199,-74.020594,9326.594869
3567.048916,383.047749,-0.000000,9252.574275
3567.049230,0.000000,-0.000000,9178.553681
3567.049545,0.000000,296.082377,9252.574275
3567.049859,-536.266849,-0.000000,9252.574275
3567.050173,76.609550,296.082377,9178.553681
3567.050487,229.828649,370.102971,9178.553681
3567.050801,229.828649,148.041188,9326.594869
3567.051115,306.438199,-0.000000,9400.615463
3567.051429,76.609550,-0.000000,9622.677246
3567.051743,153.219100,-0.000000,9548.656652
3567.052058,153.219100,-0.000000,9400.615463
3567.052372,76.609550,148.041188,9622.677246
3567.052686,153.219100,-0.000000,9474.636058
3567.053000,306.438199,-0.000000,9844.739029
3567.053314,153.219100,-0.000000,9548.656652
3567.053628,0.000000,222.061783,9844.739029
3567.053942,229.828649,-0.000000,9622.677246
3567.054257,153.219100,296.082377,9918.759623
3567.054571,0.000000,-0.000000,10066.800811
3567.054885,-383.047749,296.082377,10066.800811
3567.055199,536.266849,444.123565,9844.739029
3567.055513,76.609550,370.102971,9696.697840
3567.055827,229.828649,444.123565,9918.759623
3567.056141,0.000000,-0.000000,10436.903782
3567.056455,0.000000,296.082377,10362.883188
3567.056770,153.219100,518.144159,10066.800811
3567.057084,76.609550,592.164754,9844.739029
3567.057398,0.000000,518.144159,10288.862594
3567.057712,229.828649,666.185348,10288.862594
3567.058026,0.000000,666.185348,10140.821405
3567.058340,153.219100,518.144159,9844.739029
3567.058654,383.047749,740.205942,9844.739029
3567.058968,612.876398,592.164754,9696.697840
3567.059283,306.438199,740.205942,9696.697840
3567.059597,0.000000,740.205942,9844.739029
3567.059911,153.219100,592.164754,9844.739029
3567.060225,0.000000,888.247130,9770.718434
3567.060539,306.438199,814.226536,9696.697840
3567.060853,76.609550,888.247130,9622.677246
3567.061167,229.828649,814.226536,9918.759623
3567.061482,0.000000,518.144159,9474.636058
3567.061796,0.000000,814.226536,9474.636058
3567.062110,0.000000,-0.000000,9696.697840
3567.062424,229.828649,370.102971,9474.636058
3567.062738,383.047749,518.144159,9474.636058
3567.063052,229.828649,-0.000000,9400.615463
3567.063366,306.438199,-0.000000,9400.615463
3567.063680,0.000000,-0.000000,9474.636058
3567.063995,383.047749,-0.000000,9474.636058
3567.064309,229.828649,-74.020594,9252.574275
3567.064623,306.438199,-0.000000,9400.615463
3567.064937,229.828649,-0.000000,9400.615463
3567.065251,76.609550,-0.000000,9474.636058
3567.065565,459.657299,-0.000000,9474.636058
3567.065879,459.657299,-370.102971,9400.615463
3567.066193,229.828649,-0.000000,8882.471304
3567.066508,306.438199,-0.000000,9622.677246
3567.066822,612.876398,-74.020594,9696.697840
3567.067136,153.219100,-222.061783,9770.718434
3567.067450,229.828649,-148.041188,9844.739029
3567.067764,76.609550,-370.102971,9548.656652
3567.068078,0.000000,-370.102971,9474.636058
3567.068392,383.047749,-592.164754,9548.656652
3567.068707,0.000000,-222.061783,9696.697840
3567.069021,153.219100,-370.102971,9474.636058
3567.069335,0.000000,-222.061783,9400.615463
3567.069649,0.000000,-74.020594,9474.636058
3567.069963,153.219100,-370.102971,9326.594869
3567.070277,0.000000,-148.041188,9474.636058
3567.070591,0.000000,-0.000000,9844.739029
3567.070905,-306.438199,-148.041188,9548.656652
3567.071220,76.609550,-74.020594,9474.636058
3567.071534,0.000000,-0.000000,9696.697840
3567.071848,0.000000,148.041188,9844.739029
3567.072162,0.000000,-0.000000,9474.636058
3567.072476,0.000000,222.061783,9400.615463
3567.072790,229.828649,-0.000000,9622.677246
3567.073104,153.219100,296.082377,9622.677246
3567.073418,153.219100,222.061783,9474.636058
3567.073733,0.000000,-0.000000,9400.615463
3567.074047,0.000000,370.102971,9252.574275
3567.074361,153.219100,-0.000000,9474.636058
3567.074675,153.219100,-0.000000,9474.636058
3567.074989,0.000000,222.061783,9474.636058
3567.075303,0.000000,296.082377,9326.594869
3567.075617,153.219100,518.144159,9400.615463
3567.075932,383.047749,-0.000000,9252.574275
3567.076246,153.219100,296.082377,9918.759623
3567.076560,536.266849,370.102971,9992.780217
3567.076874,153.219100,592.164754,9474.636058
3567.077188,383.047749,518.144159,9844.739029
3567.077502,229.828649,370.102971,9622.677246
3567.077816,842.705048,-370.102971,9622.677246
3567.078130,153.219100,296.082377,9844.739029
3567.078445,306.438199,370.102971,9622.677246
3567.078759,306.438199,518.144159,9844.739029
3567.079073,229.828649,444.123565,10140.821405
3567.079387,76.609550,222.061783,9844.739029
3567.079701,229.828649,222.061783,9696.697840
3567.080015,76.609550,518.144159,9622.677246
3567.080329,229.828649,444.123565,10288.862594
3567.080643,306.438199,370.102971,10066.800811
3567.080958,306.438199,222.061783,9770.718434
3567.081272,0.000000,296.082377,9844.739029
3567.081586,0.000000,148.041188,9696.697840
3567.081900,0.000000,518.144159,9770.718434
3567.082214,306.438199,222.061783,9770.718434
3567.082528,76.609550,222.061783,9992.780217
3567.082842,0.000000,296.082377,9622.677246
3567.083157,-76.609550,148.041188,9474.636058
3567.083471,-153.219100,74.020594,9770.718434
3567.083785,0.000000,-74.020594,9548.656652
3567.084099,0.000000,370.102971,9622.677246
3567.084413,0.000000,-0.000000,9474.636058
3567.084727,-229.828649,-0.000000,9474.636058
3567.085041,76.609550,-0.000000,9474.636058
3567.085355,459.657299,-0.000000,9474.636058
3567.085670,153.219100,-370.102971,9326.594869
3567.085984,153.219100,-0.000000,9252.574275
3567.086298,229.828649,-0.000000,9548.656652
3567.086612,76.609550,-0.000000,9474.636058
3567.086926,229.828649,-148.041188,9548.656652
3567.087240,459.657299,-148.041188,9252.574275
3567.087554,0.000000,-0.000000,9252.574275
3567.087868,229.828649,-370.102971,9622.677246
3567.088183,0.000000,-0.000000,9178.553681
3567.088497,0.000000,-518.144159,9252.574275
3567.088811,-229.828649,-296.082377,9474.636058
3567.089125,0.000000,-296.082377,9252.574275
3567.089439,153.219100,-74.020594,9474.636058
3567.089753,229.828649,-74.020594,9622.677246
3567.090067,306.438199,-148.041188,9622.677246
3567.090382,306.438199,-222.061783,8956.491898
3567.090696,0.000000,-148.041188,9178.553681
3567.091010,0.000000,-74.020594,9696.697840
3567.091324,76.609550,-222.061783,9918.759623
3567.091638,76.609550,-444.123565,9770.718434
3567.091952,229.828649,-148.041188,9548.656652
3567.092266,0.000000,-0.000000,9474.636058
3567.092580,76.609550,370.102971,9548.656652
3567.092895,76.609550,-0.000000,9770.718434
3567.093209,0.000000,-0.000000,9770.718434
3567.093523,0.000000,-148.041188,9622.677246
3567.093837,0.000000,296.082377,9474.636058
3567.094151,0.000000,296.082377,9548.656652
3567.094465,0.000000,296.082377,9770.718434
3567.094779,0.000000,-0.000000,9770.718434
3567.095093,-306.438199,148.041188,9474.636058
3567.095408,-383.047749,518.144159,9548.656652
3567.095722,0.000000,-0.000000,9474.636058
3567.096036,229.828649,370.102971,9770.718434
3567.096350,0.000000,222.061783,9696.697840
3567.096664,0.000000,222.061783,9474.636058
3567.096978,-153.219100,296.082377,9622.677246
3567.097292,0.000000,444.123565,9622.677246
3567.097607,76.609550,518.144159,9696.697840
3567.097921,229.828649,518.144159,9918.759623
3567.098235,0.000000,-0.000000,9474.636058
3567.098549,76.609550,-0.000000,9844.739029
3567.098863,0.000000,222.061783,9622.677246
3567.099177,0.000000,296.082377,9474.636058
3567.099491,689.485948,592.164754,9696.697840
3567.099805,-153.219100,222.061783,9696.697840
3567.100120,0.000000,296.082377,9696.697840
3567.100434,0.000000,370.102971,9844.739029
3567.100748,229.828649,444.123565,9696.697840
3567.101062,383.047749,296.082377,9474.636058
3567.101376,536.266849,592.164754,9622.677246
3567.101690,536.266849,518.144159,9622.677246
3567.102004,459.657299,222.061783,9474.636058
3567.102318,229.828649,370.102971,9844.739029
3567.102633,0.000000,-74.020594,9696.697840
3567.102947,0.000000,222.061783,9474.636058
3567.103261,76.609550,-0.000000,9696.697840
3567.103575,229.828649,222.061783,9622.677246
3567.103889,0.000000,148.041188,9770.718434
3567.104203,306.438199,222.061783,9770.718434
3567.104517,76.609550,296.082377,9400.615463
3567.104832,0.000000,74.020594,9400.615463
3567.105146,0.000000,666.185348,9844.739029
3567.105460,76.609550,-0.000000,9696.697840
3567.105774,0.000000,-0.000000,9548.656652
3567.106088,229.828649,-0.000000,9474.636058
3567.106402,153.219100,-0.000000,9326.594869
3567.106716,306.438199,-0.000000,9400.615463
3567.107030,229.828649,-296.082377,9400.615463
3567.107345,0.000000,-0.000000,9548.656652
3567.107659,0.000000,-0.000000,9474.636058
3567.107973,459.657299,148.041188,9474.636058
3567.108287,229.828649,-74.020594,9548.656652
3567.108601,0.000000,222.061783,9696.697840
3567.108915,0.000000,-74.020594,9474.636058
3567.109229,383.047749,-148.041188,9696.697840
3567.109543,229.828649,-0.000000,9474.636058
3567.109858,0.000000,-0.000000,9474.636058
3567.110172,229.828649,-148.041188,9252.574275
3567.110486,0.000000,-296.082377,9400.615463
3567.110800,153.219100,-296.082377,9474.636058
3567.111114,0.000000,-148.041188,9770.718434
3567.111428,76.609550,-0.000000,9474.636058
3567.111742,76.609550,-0.000000,9696.697840
3567.112057,76.609550,-0.000000,9474.636058
3567.112371,-76.609550,-0.000000,9474.636058
3567.112685,76.609550,-0.000000,9474.636058
3567.112999,76.609550,-0.000000,9696.697840
3567.113313,153.219100,222.061783,9622.677246
3567.113627,0.000000,148.041188,9696.697840
3567.113941,0.000000,592.164754,9844.739029
3567.114255,153.219100,-0.000000,9474.636058
3567.114570,153.219100,74.020594,9548.656652
3567.114884,0.000000,222.061783,9474.636058
3567.115198,0.000000,222.061783,9770.718434
3567.115512,-153.219100,518.144159,9622.677246
3567.115826,153.219100,-0.000000,9622.677246
3567.116140,153.219100,-0.000000,9548.656652
3567.116454,0.000000,222.061783,9474.636058
3567.116768,-229.828649,148.041188,9474.636058
3567.117083,383.047749,-0.000000,9326.594869
3567.117397,76.609550,148.041188,9992.780217
3567.117711,0.000000,296.082377,9474.636058
3567.118025,229.828649,296.082377,9622.677246
3567.118339,0.000000,370.102971,9770.718434
3567.118653,76.609550,-0.000000,9474.636058
3567.118967,229.828649,148.041188,9622.677246
3567.119282,383.047749,148.041188,9696.697840
3567.119596,459.657299,-0.000000,9400.615463
3567.119910,153.219100,222.061783,9104.533087
3567.120224,306.438199,296.082377,9474.636058
3567.120538,383.047749,148.041188,9918.759623
3567.120852,76.609550,-0.000000,9548.656652
3567.121166,0.000000,296.082377,9622.677246
3567.121480,76.609550,-0.000000,9548.656652
3567.121795,0.000000,-296.082377,9844.739029
3567.122109,306.438199,-0.000000,9992.780217
3567.122423,229.828649,-0.000000,9622.677246
3567.122737,76.609550,-0.000000,9548.656652
3567.123051,459.657299,-0.000000,9326.594869
3567.123365,459.657299,-0.000000,9548.656652
3567.123679,229.828649,-0.000000,10214.842000
3567.123993,0.000000,-0.000000,9770.718434
3567.124308,0.000000,-0.000000,9844.739029
3567.124622,0.000000,222.061783,9622.677246
3567.124936,229.828649,-0.000000,9622.677246
3567.125250,153.219100,-0.000000,9548.656652
3567.125564,229.828649,-0.000000,9696.697840
3567.125878,76.609550,222.061783,9844.739029
3567.126192,0.000000,222.061783,9400.615463
3567.126507,76.609550,-74.020594,9474.636058
3567.126821,-306.438199,222.061783,9252.574275
3567.127135,0.000000,-0.000000,9474.636058
3567.127449,0.000000,-74.020594,9474.636058
3567.127763,0.000000,-0.000000,9474.636058
3567.128077,459.657299,-74.020594,9770.718434
3567.128391,153.219100,222.061783,9400.615463
3567.128705,0.000000,-0.000000,9178.553681
3567.129020,76.609550,-0.000000,9400.615463
3567.129334,229.828649,-0.000000,9326.594869
3567.129648,229.828649,-74.020594,9178.553681
3567.129962,0.000000,-74.020594,9400.615463
3567.130276,153.219100,-148.041188,9474.636058
3567.130590,306.438199,-0.000000,9400.615463
3567.130904,383.047749,-0.000000,9326.594869
3567.131218,612.876398,-222.061783,9844.739029
3567.131533,76.609550,-148.041188,9474.636058
3567.131847,76.609550,-0.000000,9474.636058
3567.132161,76.609550,-74.020594,9474.636058
3567.132475,153.219100,-74.020594,9548.656652
3567.132789,459.657299,-148.041188,10066.800811
3567.133103,306.438199,-222.061783,9918.759623
3567.133417,76.609550,-0.000000,9770.718434
3567.133732,383.047749,-74.020594,9474.636058
3567.134046,153.219100,148.041188,9474.636058
3567.134360,612.876398,-148.041188,9030.512492
3567.134674,153.219100,222.061783,9844.739029
3567.134988,153.219100,148.041188,9770.718434
3567.135302,0.000000,370.102971,9696.697840
3567.135616,0.000000,370.102971,9548.656652
3567.135930,383.047749,296.082377,9770.718434
3567.136244,0.000000,370.102971,10214.842000
3567.136558,0.000000,148.041188,9918.759623
3567.136872,0.000000,148.041188,9918.759623
3567.137186,76.609550,222.061783,9844.739029
3567.137500,766.095498,148.041188,9622.677246
3567.137814,-76.609550,444.123565,9770.718434
3567.138128,0.000000,222.061783,9474.636058
3567.138442,0.000000,296.082377,9474.636058
3567.138757,0.000000,222.061783,9548.656652
3567.139071,229.828649,-0.000000,9548.656652
3567.139385,-229.828649,74.020594,9252.574275
3567.139699,0.000000,296.082377,9622.677246
3567.140013,0.000000,370.102971,9326.594869
3567.140327,229.828649,296.082377,9474.636058
3567.140641,-229.828649,296.082377,9696.697840
3567.140955,0.000000,222.061783,9474.636058
3567.141269,0.000000,296.082377,9400.615463
3567.141583,0.000000,296.082377,9474.636058
3567.141897,229.828649,-0.000000,9474.636058
3567.142211,383.047749,-0.000000,9770.718434
3567.142525,229.828649,-0.000000,9400.615463
3567.142839,383.047749,-0.000000,9548.656652
3567.143153,306.438199,-0.000000,9770.718434
3567.143467,229.828649,148.041188,9696.697840
3567.143781,995.924147,-0.000000,9918.759623
3567.144096,306.438199,-0.000000,9622.677246
3567.144410,76.609550,74.020594,9548.656652
3567.144724,229.828649,-0.000000,9696.697840
3567.145038,153.219100,148.041188,9918.759623
3567.145352,-766.095498,-0.000000,9844.739029
3567.145666,-229.828649,444.123565,9548.656652
3567.145980,229.828649,296.082377,9474.636058
3567.146294,229.828649,222.061783,10066.800811
3567.146608,229.828649,-0.000000,9918.759623
3567.146922,153.219100,-0.000000,10510.924376
3567.147236,229.828649,296.082377,9844.739029
3567.147550,536.266849,444.123565,9770.718434
3567.147864,689.485948,666.185348,9918.759623
3567.148178,689.485948,666.185348,9252.574275
3567.148492,536.266849,222.061783,9178.553681
3567.148806,612.876398,962.267725,8808.450710
3567.149121,919.314598,592.164754,8734.430116
3567.149435,383.047749,444.123565,8734.430116
3567.149749,459.657299,222.061783,9178.553681
3567.150063,153.219100,-148.041188,9918.759623
3567.150377,0.000000,-0.000000,9622.677246
3567.150691,-229.828649,-0.000000,9918.759623
3567.151005,-306.438199,148.041188,9770.718434
3567.151319,536.266849,518.144159,9992.780217
3567.151633,842.705048,518.144159,9992.780217
3567.151947,612.876398,666.185348,9474.636058
3567.152261,919.314598,962.267725,9548.656652
3567.152575,1378.971896,1258.350101,9178.553681
3567.152889,1532.190996,962.267725,8882.471304
3567.153203,1378.971896,1480.411884,8956.491898
3567.153517,1225.752797,1184.329507,9104.533087
3567.153831,1225.752797,1036.288319,9104.533087
3567.154145,1149.143247,814.226536,9030.512492
3567.154460,766.095498,444.123565,9548.656652
3567.154774,459.657299,148.041188,9918.759623
3567.155088,0.000000,296.082377,10140.821405
3567.155402,76.609550,370.102971,10510.924376
3567.155716,0.000000,296.082377,10140.821405
3567.156030,306.438199,592.164754,10436.903782
3567.156344,919.314598,1036.288319,9918.759623
3567.156658,1225.752797,1332.370696,9400.615463
3567.156972,1532.190996,1776.494261,9474.636058
3567.157286,1685.410096,1998.556043,9326.594869
3567.157600,1225.752797,1776.494261,9622.677246
3567.157914,1378.971896,888.247130,9326.594869
3567.158228,1072.533697,1332.370696,9548.656652
3567.158542,612.876398,1036.288319,10214.842000
3567.158856,0.000000,962.267725,10288.862594
3567.159170,-153.219100,740.205942,10584.944971
3567.159484,-383.047749,518.144159,10362.883188
3567.159799,0.000000,666.185348,10288.862594
3567.160113,76.609550,962.267725,9548.656652
3567.160427,536.266849,1258.350101,9326.594869
3567.160741,995.924147,1332.370696,9474.636058
3567.161055,919.314598,1480.411884,8660.409521
3567.161369,1378.971896,1924.535449,9030.512492
3567.161683,1455.581446,1924.535449,8882.471304
3567.161997,1302.362347,1628.453072,8512.368333
3567.162311,1072.533697,1628.453072,9474.636058
3567.162625,766.095498,1480.411884,9400.615463
3567.162939,612.876398,1110.308913,9622.677246
3567.163253,76.609550,814.226536,9770.718434
3567.163567,-229.828649,444.123565,9622.677246
3567.163881,-229.828649,666.185348,9918.759623
3567.164195,-229.828649,814.226536,9622.677246
3567.164509,0.000000,518.144159,9622.677246
3567.164823,153.219100,666.185348,9474.636058
3567.165138,306.438199,888.247130,9474.636058
3567.165452,383.047749,666.185348,9252.574275
3567.165766,0.000000,1036.288319,9474.636058
3567.166080,153.219100,962.267725,9918.759623
3567.166394,-306.438199,814.226536,9770.718434
3567.166708,-229.828649,592.164754,9770.718434
3567.167022,-383.047749,740.205942,10140.821405
3567.167336,-766.095498,-222.061783,9992.780217
3567.167650,-995.924147,-444.123565,10140.821405
3567.167964,-1378.971896,-666.185348,10584.944971
3567.168278,-1225.752797,-1036.288319,10881.027347
3567.168592,-995.924147,-962.267725,10658.965565
3567.168906,-995.924147,-740.205942,10214.842000
3567.169220,-995.924147,-518.144159,10288.862594
3567.169534,-766.095498,-296.082377,10288.862594
3567.169848,-766.095498,-148.041188,10140.821405
3567.170163,0.000000,-148.041188,9770.718434
3567.170477,383.047749,-0.000000,9030.512492
3567.170791,842.705048,-0.000000,8882.471304
3567.171105,689.485948,-222.061783,8956.491898
3567.171419,919.314598,-666.185348,9104.533087
3567.171733,383.047749,-1036.288319,9178.553681
3567.172047,153.219100,-1258.350101,8956.491898
3567.172361,153.219100,-1258.350101,9326.594869
3567.172675,-383.047749,-1554.432478,9696.697840
3567.172989,-383.047749,-1776.494261,9548.656652
3567.173303,-229.828649,-1924.535449,9844.739029
3567.173617,-383.047749,-1406.391290,9918.759623
3567.173931,229.828649,-1036.288319,9622.677246
3567.174245,383.047749,-740.205942,9326.594869
3567.174559,229.828649,-1036.288319,9474.636058
3567.174873,842.705048,-370.102971,8512.368333
3567.175187,1149.143247,-148.041188,8364.327145
3567.175502,1532.190996,-0.000000,8734.430116
3567.175816,1378.971896,-222.061783,8882.471304
3567.176130,1455.581446,-370.102971,8586.388927
3567.176444,766.095498,-666.185348,9104.533087
3567.176758,229.828649,-814.226536,9400.615463
3567.177072,153.219100,-1258.350101,9474.636058
3567.177386,0.000000,-888.247130,9992.780217
3567.177700,-383.047749,-1036.288319,9474.636058
3567.178014,0.000000,-592.164754,9400.615463
3567.178328,76.609550,-444.123565,9178.553681
3567.178642,0.000000,-370.102971,9178.553681
3567.178956,153.219100,-148.041188,9474.636058
3567.179270,306.438199,-0.000000,9400.615463
3567.179584,0.000000,-0.000000,9400.615463
3567.179898,0.000000,296.082377,9104.533087
3567.180212,153.219100,592.164754,9918.759623
3567.180526,0.000000,296.082377,10066.800811
3567.180841,-153.219100,666.185348,9992.780217
3567.181155,0.000000,814.226536,9992.780217
3567.181469,-229.828649,888.247130,9770.718434
3567.181783,459.657299,814.226536,9992.780217
3567.182097,0.000000,666.185348,9548.656652
3567.182411,-689.485948,370.102971,9548.656652
3567.182725,-689.485948,222.061783,9770.718434
3567.183039,-306.438199,370.102971,9844.739029
3567.183353,-536.266849,518.144159,10362.883188
3567.183667,-229.828649,814.226536,10436.903782
3567.183981,-229.828649,814.226536,10288.862594
3567.184295,-153.219100,1110.308913,10140.821405
3567.184609,76.609550,1554.432478,10362.883188
3567.184923,0.000000,1776.494261,10066.800811
3567.185237,0.000000,1480.411884,9770.718434
3567.185551,536.266849,1776.494261,9696.697840
3567.185866,536.266849,1332.370696,9474.636058
3567.186180,383.047749,1110.308913,9918.759623
3567.186494,612.876398,1184.329507,10214.842000
3567.186808,459.657299,1110.308913,9696.697840
3567.187122,153.219100,962.267725,10140.821405
3567.187436,229.828649,814.226536,9770.718434
3567.187750,0.000000,666.185348,10066.800811
3567.188064,459.657299,592.164754,10510.924376
3567.188378,306.438199,740.205942,9918.759623
3567.188692,306.438199,740.205942,9918.759623
3567.189006,459.657299,1036.288319,9696.697840
3567.189320,536.266849,1036.288319,9474.636058
3567.189634,1072.533697,1036.288319,9030.512492
3567.189948,1225.752797,1110.308913,8882.471304
3567.190262,1072.533697,1036.288319,9104.533087
3567.190576,459.657299,740.205942,8808.450710
3567.190890,383.047749,740.205942,9400.615463
3567.191205,0.000000,-0.000000,9548.656652
3567.191519,-306.438199,-296.082377,10066.800811
3567.191833,-612.876398,-370.102971,10436.903782
3567.192147,-842.705048,-814.226536,10510.924376
3567.192461,-1072.533697,-592.164754,11029.068536
3567.192775,-383.047749,-74.020594,9992.780217
3567.193089,-153.219100,-0.000000,9548.656652
3567.193403,306.438199,296.082377,9474.636058
3567.193717,842.705048,518.144159,8808.450710
3567.194031,1302.362347,222.061783,8364.327145
3567.194345,1149.143247,370.102971,8438.347739
3567.194659,1149.143247,-0.000000,8216.285956
3567.194973,1072.533697,-74.020594,8290.306550
3567.195287,842.705048,-666.185348,8882.471304
3567.195601,229.828649,-370.102971,9770.718434
3567.195915,-766.095498,-1036.288319,9474.636058
3567.196229,-766.095498,-1258.350101,10140.821405
3567.196544,-766.095498,-1332.370696,9992.780217
3567.196858,-536.266849,-1184.329507,9844.739029
3567.197172,-383.047749,-666.185348,10066.800811
3567.197486,0.000000,-518.144159,9696.697840
3567.197800,76.609550,-222.061783,9770.718434
3567.198114,842.705048,-0.000000,8808.450710
3567.198428,1072.533697,296.082377,8734.430116
3567.198742,689.485948,592.164754,9104.533087
3567.199056,536.266849,296.082377,9252.574275
3567.199370,229.828649,-0.000000,9178.553681
3567.199684,0.000000,-370.102971,9474.636058
3567.199998,0.000000,-1036.288319,9770.718434
3567.200312,-766.095498,-740.205942,10214.842000
3567.200626,-995.924147,-888.247130,9918.759623
3567.200940,-1149.143247,-962.267725,10214.842000
3567.201254,-919.314598,-814.226536,10066.800811
3567.201568,-842.705048,-370.102971,9622.677246
3567.201883,-689.485948,-222.061783,9400.615463
3567.202197,-459.657299,-74.020594,9622.677246
3567.202511,-229.828649,-74.020594,9326.594869
3567.202825,0.000000,-74.020594,9474.636058
3567.203139,0.000000,-370.102971,9696.697840
3567.203453,0.000000,-0.000000,9844.739029
3567.203767,-383.047749,222.061783,10214.842000
3567.204081,-459.657299,-0.000000,10066.800811
3567.204395,-306.438199,222.061783,10288.862594
3567.204709,0.000000,-0.000000,9992.780217
3567.205023,-229.828649,-0.000000,9696.697840
3567.205337,0.000000,-0.000000,9400.615463
3567.205651,0.000000,-0.000000,8882.471304
3567.205965,0.000000,-0.000000,8956.491898
3567.206279,76.609550,-444.123565,9474.636058
3567.206593,76.609550,-518.144159,9400.615463
3567.206908,76.609550,-222.061783,9548.656652
3567.207222,229.828649,-0.000000,9696.697840
3567.207536,229.828649,-0.000000,9770.718434
3567.207850,306.438199,592.164754,9918.759623
3567.208164,842.705048,740.205942,9918.759623
3567.208478,995.924147,518.144159,9548.656652
3567.208792,919.314598,814.226536,9252.574275
3567.209106,689.485948,1110.308913,9474.636058
3567.209420,1685.410096,1110.308913,8956.491898
3567.209734,1532.190996,962.267725,9104.533087
3567.210048,1225.752797,962.267725,9326.594869
3567.210362,995.924147,814.226536,9252.574275
3567.210676,842.705048,666.185348,9474.636058
3567.210990,536.266849,740.205942,9548.656652
3567.211304,229.828649,666.185348,9918.759623
3567.211618,306.438199,370.102971,9992.780217
3567.211932,153.219100,666.185348,9474.636058
3567.212247,536.266849,740.205942,9696.697840
3567.212561,612.876398,1184.329507,9622.677246
3567.212875,842.705048,1332.370696,9474.636058
3567.213189,842.705048,1628.453072,9030.512492
3567.213503,766.095498,1628.453072,8956.491898
3567.213817,612.876398,1702.473667,9030.512492
3567.214131,306.438199,1554.432478,9104.533087
3567.214445,306.438199,1258.350101,9622.677246
3567.214759,-306.438199,592.164754,9770.718434
3567.215073,-919.314598,592.164754,10140.821405
3567.215387,-1072.533697,222.061783,10732.986159
3567.215701,-1302.362347,-296.082377,10881.027347
3567.216015,-919.314598,222.061783,11473.192101
3567.216329,-919.314598,666.185348,10658.965565
3567.216643,-536.266849,962.267725,9770.718434
3567.216957,0.000000,888.247130,9844.739029
3567.217271,459.657299,962.267725,9696.697840
3567.217586,842.705048,740.205942,8882.471304
3567.217900,536.266849,962.267725,8660.409521
3567.218214,689.485948,444.123565,8956.491898
3567.218528,383.047749,-0.000000,9474.636058
3567.218842,0.000000,-370.102971,9770.718434
3567.219156,-612.876398,-740.205942,9474.636058
3567.219470,-766.095498,-740.205942,9992.780217
3567.219784,-995.924147,-740.205942,10732.986159
3567.220098,-536.266849,-666.185348,10288.862594
3567.220412,-842.705048,-370.102971,10510.924376
3567.220726,-689.485948,-518.144159,10214.842000
3567.221040,-459.657299,-296.082377,9696.697840
3567.221354,153.219100,-0.000000,9474.636058
3567.221668,612.876398,-0.000000,9548.656652
3567.221982,919.314598,-0.000000,9400.615463
3567.222296,1149.143247,-0.000000,8882.471304
3567.222611,919.314598,-0.000000,8882.471304
3567.222925,459.657299,-148.041188,9252.574275
3567.223239,612.876398,-148.041188,9548.656652
3567.223553,-306.438199,-740.205942,9474.636058
3567.223867,-383.047749,-888.247130,9844.739029
3567.224181,-459.657299,-1184.329507,9252.574275
3567.224495,-612.876398,-1110.308913,9400.615463
3567.224809,-536.266849,-1036.288319,9622.677246
3567.225123,-383.047749,-888.247130,9030.512492
3567.225437,0.000000,-888.247130,8734.430116
3567.225751,229.828649,-296.082377,8808.450710
3567.226065,536.266849,-148.041188,8808.450710
3567.226379,766.095498,-296.082377,8734.430116
3567.226693,689.485948,-444.123565,9104.533087
3567.227007,459.657299,-74.020594,9474.636058
3567.227321,229.828649,-0.000000,10066.800811
3567.227635,0.000000,-74.020594,9622.677246
3567.227950,0.000000,-740.205942,9770.718434
3567.228264,-229.828649,-296.082377,9770.718434
3567.228578,0.000000,-296.082377,9474.636058
3567.228892,0.000000,-592.164754,9178.553681
3567.229206,153.219100,-888.247130,9326.594869
3567.229520,229.828649,-1036.288319,9252.574275
3567.229834,229.828649,-888.247130,8956.491898
3567.230148,612.876398,-370.102971,9252.574275
3567.230462,459.657299,-444.123565,9696.697840
3567.230776,306.438199,-592.164754,10066.800811
3567.231090,459.657299,-222.061783,9992.780217
3567.231404,153.219100,-74.020594,9918.759623
3567.231718,229.828649,222.061783,9992.780217
3567.232032,306.438199,444.123565,9918.759623
3567.232346,612.876398,148.041188,9696.697840
3567.232660,766.095498,666.185348,9992.780217
3567.232974,612.876398,666.185348,9474.636058
3567.233289,536.266849,592.164754,9622.677246
3567.233603,689.485948,370.102971,9770.718434
3567.233917,383.047749,592.164754,9918.759623
3567.234231,76.609550,518.144159,9918.759623
3567.234545,0.000000,666.185348,9622.677246
3567.234859,0.000000,592.164754,9696.697840
3567.235173,0.000000,518.144159,9992.780217
3567.235487,0.000000,740.205942,9770.718434
3567.235801,0.000000,888.247130,9770.718434
3567.236115,306.438199,1184.329507,9326.594869
3567.236429,306.438199,1480.411884,9400.615463
3567.236743,919.314598,1184.329507,9474.636058
3567.237057,536.266849,1110.308913,9326.594869
3567.237371,153.219100,1554.432478,9030.512492
3567.237685,306.438199,1702.473667,9030.512492
3567.237999,76.609550,962.267725,9548.656652
3567.238313,-459.657299,814.226536,9548.656652
3567.238627,-612.876398,592.164754,9844.739029
3567.238942,-766.095498,444.123565,10732.986159
3567.239256,-1225.752797,592.164754,10955.047942
3567.239570,-919.314598,296.082377,11029.068536
3567.239884,-689.485948,888.247130,10955.047942
3567.240198,0.000000,1036.288319,10288.862594
3567.240512,383.047749,1406.391290,9770.718434
3567.240826,995.924147,1258.350101,8956.491898
3567.241140,1302.362347,1258.350101,9104.533087
3567.241454,1455.581446,888.247130,8808.450710
3567.241768,1378.971896,814.226536,8956.491898
3567.242082,919.314598,518.144159,9178.553681
3567.242396,459.657299,-74.020594,9252.574275
3567.242710,-153.219100,-296.082377,9992.780217
3567.243024,-612.876398,-592.164754,10436.903782
3567.243338,-306.438199,-666.185348,10881.027347
3567.243652,-766.095498,-444.123565,10732.986159
3567.243966,-536.266849,-296.082377,10362.883188
3567.244280,0.000000,-296.082377,10066.800811
3567.244595,612.876398,-148.041188,9770.718434
3567.244909,689.485948,370.102971,9474.636058
3567.245223,1072.533697,444.123565,8882.471304
3567.245537,1378.971896,740.205942,8808.450710
3567.245851,1149.143247,666.185348,8438.347739
3567.246165,1225.752797,370.102971,8882.471304
3567.246479,689.485948,-0.000000,9474.636058
3567.246793,306.438199,-444.123565,9696.697840
3567.247107,-153.219100,-370.102971,9770.718434
3567.247421,-459.657299,-888.247130,9622.677246
3567.247735,-459.657299,-888.247130,9918.759623
3567.248049,-766.095498,-962.267725,9474.636058
3567.248363,-612.876398,-888.247130,9030.512492
3567.248677,-229.828649,-592.164754,9030.512492
3567.248991,229.828649,-74.020594,8956.491898
3567.249305,229.828649,-518.144159,8512.368333
3567.249619,306.438199,-0.000000,8438.347739
3567.249933,153.219100,-74.020594,9326.594869
3567.250248,0.000000,-74.020594,9474.636058
3567.250562,-153.219100,-148.041188,9844.739029
3567.250876,0.000000,-518.144159,10288.862594
3567.251190,-459.657299,-444.123565,10140.821405
3567.251504,-536.266849,-222.061783,9992.780217
3567.251818,-536.266849,-518.144159,9696.697840
3567.252132,0.000000,-592.164754,9400.615463
3567.252446,0.000000,-666.185348,9696.697840
3567.252760,0.000000,-370.102971,9326.594869
3567.253074,0.000000,-444.123565,9474.636058
3567.253388,-153.219100,-814.226536,9400.615463
3567.253702,0.000000,-888.247130,9548.656652
3567.254016,0.000000,-1036.288319,9918.759623
3567.254330,-229.828649,-592.164754,10214.842000
3567.254644,-306.438199,-518.144159,9918.759623
3567.254958,-306.438199,-74.020594,10066.800811
3567.255272,229.828649,-148.041188,9992.780217
3567.255586,0.000000,296.082377,9844.739029
3567.255901,76.609550,518.144159,9844.739029
3567.256215,383.047749,222.061783,9548.656652
3567.256529,766.095498,370.102971,9326.594869
3567.256843,919.314598,222.061783,9400.615463
3567.257157,766.095498,-0.000000,9104.533087
3567.257471,459.657299,-0.000000,9474.636058
3567.257785,229.828649,-0.000000,9918.759623
3567.258099,306.438199,-0.000000,9400.615463
3567.258413,229.828649,-0.000000,9918.759623
3567.258727,0.000000,-0.000000,9696.697840
3567.259041,229.828649,148.041188,9474.636058
3567.259355,306.438199,444.123565,9252.574275
3567.259669,383.047749,1184.329507,9104.533087
3567.259983,919.314598,1554.432478,9252.574275
3567.260297,1149.143247,1110.308913,8734.430116
3567.260611,1149.143247,1406.391290,8290.306550
3567.260925,536.266849,1184.329507,8290.306550
3567.261239,612.876398,1480.411884,8438.347739
3567.261554,383.047749,1184.329507,9326.594869
3567.261868,0.000000,888.247130,9844.739029
3567.262182,-536.266849,666.185348,10288.862594
3567.262496,-766.095498,148.041188,10066.800811
3567.262810,-919.314598,222.061783,10807.006753
3567.263124,-689.485948,-0.000000,11251.130318
3567.263438,-536.266849,592.164754,10436.903782
3567.263752,-229.828649,1036.288319,10214.842000
3567.264066,0.000000,1184.329507,9622.677246
3567.264380,766.095498,1406.391290,9474.636058
3567.264694,1149.143247,1480.411884,9178.553681
3567.265008,1072.533697,1258.350101,8882.471304
3567.265322,1149.143247,1110.308913,8882.471304
3567.265636,766.095498,518.144159,9030.512492
3567.265950,229.828649,148.041188,9696.697840
3567.266264,306.438199,-222.061783,10140.821405
3567.266578,-536.266849,-444.123565,10362.883188
3567.266892,-919.314598,-444.123565,10881.027347
3567.267207,-919.314598,-370.102971,10732.986159
3567.267521,-766.095498,-444.123565,10955.047942
3567.267835,-689.485948,-666.185348,9992.780217
3567.268149,0.000000,-0.000000,9844.739029
3567.268463,306.438199,444.123565,9474.636058
3567.268777,766.095498,444.123565,8882.471304
3567.269091,995.924147,592.164754,8956.491898
3567.269405,1225.752797,666.185348,9178.553681
3567.269719,995.924147,814.226536,9030.512492
3567.270033,612.876398,518.144159,8882.471304
3567.270347,153.219100,148.041188,9104.533087
3567.270661,229.828649,-518.144159,9918.759623
3567.270975,-1072.533697,-1036.288319,10140.821405
3567.271289,-995.924147,-518.144159,9622.677246
3567.271603,-842.705048,-740.205942,9548.656652
3567.271917,-689.485948,-592.164754,9400.615463
3567.272231,-76.609550,-296.082377,9326.594869
3567.272545,76.609550,-74.020594,9030.512492
3567.272860,229.828649,222.061783,8956.491898
3567.273174,383.047749,222.061783,8660.409521
3567.273488,459.657299,222.061783,8586.388927
3567.273802,306.438199,-0.000000,9400.615463
3567.274116,229.828649,-222.061783,9548.656652
3567.274430,-306.438199,-222.061783,9770.718434
3567.274744,-383.047749,-370.102971,9844.739029
3567.275058,-153.219100,-370.102971,10066.800811
3567.275372,-459.657299,-518.144159,9844.739029
3567.275686,-383.047749,-740.205942,9844.739029
3567.276000,-306.438199,-740.205942,9474.636058
3567.276314,0.000000,-814.226536,9326.594869
3567.276628,0.000000,-740.205942,9474.636058
3567.276942,229.828649,-1036.288319,9474.636058
3567.277256,0.000000,-962.267725,9622.677246
3567.277570,0.000000,-888.247130,9844.739029
3567.277884,306.438199,-518.144159,9844.739029
3567.278198,306.438199,-814.226536,10066.800811
3567.278513,0.000000,-666.185348,10214.842000
3567.278827,306.438199,-296.082377,9770.718434
3567.279141,153.219100,-370.102971,9696.697840
3567.279455,536.266849,-0.000000,9622.677246
3567.279769,459.657299,-148.041188,9400.615463
3567.280083,1072.533697,-148.041188,9474.636058
3567.280397,995.924147,-0.000000,9178.553681
3567.280711,995.924147,-0.000000,9252.574275
3567.281025,766.095498,-0.000000,9474.636058
3567.281339,536.266849,-74.020594,9696.697840
3567.281653,306.438199,-74.020594,9696.697840
3567.281967,0.000000,-0.000000,9548.656652
3567.282281,229.828649,222.061783,9474.636058
3567.282595,383.047749,296.082377,9548.656652
3567.282909,612.876398,592.164754,9474.636058
3567.283223,229.828649,962.267725,9178.553681
3567.283537,536.266849,1110.308913,8956.491898
3567.283851,919.314598,1258.350101,8586.388927
3567.284166,1072.533697,1554.432478,8808.450710
3567.284480,612.876398,1258.350101,8808.450710
3567.284794,306.438199,1332.370696,9178.553681
3567.285108,76.609550,888.247130,9326.594869
3567.285422,-459.657299,740.205942,9770.718434
3567.285736,-919.314598,518.144159,10288.862594
3567.286050,-1149.143247,148.041188,10510.924376
3567.286364,-842.705048,666.185348,11251.130318
3567.286678,-766.095498,666.185348,10658.965565
3567.286992,-842.705048,666.185348,10510.924376
3567.287306,-306.438199,962.267725,10436.903782
3567.287620,459.657299,962.267725,9844.739029
3567.287934,459.657299,1480.411884,9548.656652
3567.288248,766.095498,1332.370696,9104.533087
3567.288562,919.314598,1036.288319,8882.471304
3567.288876,1149.143247,666.185348,8660.409521
3567.289190,766.095498,444.123565,9400.615463
3567.289504,229.828649,148.041188,10140.821405
3567.289819,-306.438199,-370.102971,9992.780217
3567.290133,-612.876398,-222.061783,10584.944971
3567.290447,-689.485948,-592.164754,10658.965565
3567.290761,-689.485948,-444.123565,11251.130318
3567.291075,-536.266849,-370.102971,10955.047942
3567.291389,-459.657299,-74.020594,10436.903782
3567.291703,229.828649,370.102971,9918.759623
3567.292017,612.876398,814.226536,9474.636058
3567.292331,1072.533697,370.102971,9400.615463
3567.292645,1072.533697,962.267725,9400.615463
3567.292959,1225.752797,888.247130,8808.450710
3567.293273,995.924147,592.164754,9030.512492
3567.293587,1225.752797,370.102971,9252.574275
3567.293901,689.485948,74.020594,9326.594869
3567.294215,0.000000,-74.020594,9548.656652
3567.294529,0.000000,-370.102971,9548.656652
3567.294843,-459.657299,-296.082377,9770.718434
3567.295157,-459.657299,-518.144159,9548.656652
3567.295471,-383.047749,-222.061783,9400.615463
3567.295786,0.000000,-0.000000,9030.512492
3567.296100,0.000000,-0.000000,8512.368333
3567.296414,153.219100,-0.000000,8882.471304
3567.296728,0.000000,222.061783,9252.574275
3567.297042,229.828649,148.041188,9400.615463
3567.297356,229.828649,296.082377,9252.574275
3567.297670,76.609550,-0.000000,9326.594869
3567.297984,76.609550,-148.041188,10066.800811
3567.298298,-153.219100,148.041188,9918.759623
3567.298612,-383.047749,-0.000000,9770.718434
3567.298926,-459.657299,-148.041188,9622.677246
3567.299240,-306.438199,-518.144159,9326.594869
3567.299554,0.000000,-666.185348,8808.450710
3567.299868,-153.219100,-962.267725,8808.450710
3567.300182,-153.219100,-888.247130,9548.656652
3567.300496,-229.828649,-1036.288319,9474.636058
3567.300810,0.000000,-1036.288319,9696.697840
3567.301124,-383.047749,-1036.288319,10436.903782
3567.301439,0.000000,-888.247130,10066.800811
3567.301753,76.609550,-444.123565,10436.903782
3567.302067,229.828649,-518.144159,10066.800811
3567.302381,229.828649,-222.061783,9918.759623
3567.302695,153.219100,-0.000000,9548.656652
3567.303009,153.219100,-148.041188,9696.697840
3567.303323,383.047749,-0.000000,9844.739029
3567.303637,689.485948,-0.000000,9474.636058
3567.303951,383.047749,-74.020594,9474.636058
3567.304265,612.876398,-0.000000,9918.759623
3567.304579,306.438199,-148.041188,9918.759623
3567.304893,153.219100,-74.020594,9548.656652
3567.305207,76.609550,-74.020594,9548.656652
3567.305521,0.000000,-0.000000,9696.697840
3567.305835,-459.657299,-74.020594,9844.739029
3567.306149,76.609550,370.102971,9844.739029
3567.306463,153.219100,740.205942,9548.656652
3567.306777,612.876398,962.267725,8808.450710
3567.307092,536.266849,1110.308913,8660.409521
3567.307406,995.924147,1554.432478,9030.512492
3567.307720,766.095498,1036.288319,9252.574275
3567.308034,383.047749,1036.288319,8882.471304
3567.308348,76.609550,1184.329507,8734.430116
3567.308662,-153.219100,1110.308913,9030.512492
3567.308976,-459.657299,518.144159,9622.677246
3567.309290,-766.095498,296.082377,9770.718434
3567.309604,-995.924147,-0.000000,10214.842000
3567.309918,-919.314598,148.041188,10584.944971
3567.310232,-612.876398,444.123565,10732.986159
3567.310546,-383.047749,740.205942,10362.883188
3567.310860,-306.438199,814.226536,10066.800811
3567.311174,0.000000,962.267725,9918.759623
3567.311488,612.876398,1258.350101,9474.636058
3567.311802,1225.752797,1554.432478,8956.491898
3567.312116,995.924147,1332.370696,9178.553681
3567.312430,1455.581446,1110.308913,9104.533087
3567.312745,919.314598,296.082377,9474.636058
3567.313059,536.266849,-0.000000,9622.677246
3567.313373,383.047749,-592.164754,9992.780217
3567.313687,-153.219100,-518.144159,10584.944971
3567.314001,-536.266849,-444.123565,10807.006753
3567.314315,-383.047749,-518.144159,10732.986159
3567.314629,-612.876398,-444.123565,10584.944971
3567.314943,383.047749,-0.000000,10436.903782
3567.315257,536.266849,296.082377,9918.759623
3567.315571,536.266849,666.185348,9400.615463
3567.315885,1225.752797,1110.308913,9326.594869
3567.316199,1455.581446,962.267725,9104.533087
3567.316513,1762.019645,888.247130,9030.512492
3567.316827,1225.752797,1110.308913,9696.697840
3567.317141,919.314598,814.226536,9474.636058
3567.317455,306.438199,370.102971,9474.636058
3567.317769,0.000000,-0.000000,9844.739029
3567.318083,0.000000,-148.041188,9992.780217
3567.318398,-689.485948,-222.061783,9770.718434
3567.318712,-689.485948,-148.041188,9622.677246
3567.319026,-459.657299,-74.020594,9622.677246
3567.319340,-459.657299,-0.000000,8956.491898
3567.319654,0.000000,-0.000000,8734.430116
3567.319968,-153.219100,296.082377,8734.430116
3567.320282,0.000000,444.123565,8586.388927
3567.320596,306.438199,296.082377,9030.512492
3567.320910,0.000000,222.061783,9326.594869
3567.321224,229.828649,370.102971,9844.739029
3567.321538,-76.609550,222.061783,9696.697840
3567.321852,-612.876398,-222.061783,9622.677246
3567.322166,-766.095498,-370.102971,9696.697840
3567.322480,-995.924147,-370.102971,9918.759623
3567.322794,-383.047749,-518.144159,9622.677246
3567.323108,-383.047749,-518.144159,9474.636058
3567.323422,-153.219100,-740.205942,9400.615463
3567.323736,0.000000,-888.247130,9252.574275
3567.324051,0.000000,-814.226536,9474.636058
3567.324365,76.609550,-888.247130,9770.718434
3567.324679,0.000000,-962.267725,10066.800811
3567.324993,0.000000,-888.247130,9844.739029
3567.325307,0.000000,-740.205942,9992.780217
3567.325621,-459.657299,-592.164754,9992.780217
3567.325935,76.609550,-666.185348,10510.924376
3567.326249,229.828649,-296.082377,10214.842000
3567.326563,689.485948,-296.082377,9622.677246
3567.326877,306.438199,-296.082377,9548.656652
3567.327191,842.705048,-74.020594,9252.574275
3567.327505,766.095498,-74.020594,9548.656652
3567.327819,459.657299,-0.000000,9474.636058
3567.328133,459.657299,-296.082377,9474.636058
3567.328447,229.828649,-74.020594,9474.636058
3567.328761,229.828649,-222.061783,9844.739029
3567.329075,0.000000,-222.061783,9696.697840
3567.329389,76.609550,-0.000000,9474.636058
3567.329704,229.828649,-0.000000,9844.739029
3567.330018,306.438199,148.041188,9474.636058
3567.330332,153.219100,740.205942,9400.615463
3567.330646,306.438199,888.247130,9104.533087
3567.330960,766.095498,1184.329507,8660.409521
3567.331274,842.705048,1332.370696,8512.368333
3567.331588,383.047749,962.267725,8364.327145
3567.331902,229.828649,888.247130,8512.368333
3567.332216,229.828649,740.205942,8808.450710
3567.332530,-229.828649,444.123565,9252.574275
3567.332844,-766.095498,444.123565,9548.656652
3567.333158,-766.095498,148.041188,10140.821405
3567.333472,-766.095498,296.082377,10658.965565
3567.333786,-766.095498,148.041188,10658.965565
3567.334100,-612.876398,592.164754,10510.924376
3567.334414,0.000000,740.205942,9770.718434
3567.334728,383.047749,962.267725,9992.780217
3567.335042,919.314598,1110.308913,9474.636058
3567.335357,1378.971896,962.267725,8956.491898
3567.335671,1302.362347,962.267725,8956.491898
3567.335985,1149.143247,814.226536,8808.450710
3567.336299,766.095498,444.123565,8956.491898
3567.336613,766.095498,444.123565,9844.739029
3567.336927,153.219100,-0.000000,10510.924376
3567.337241,-612.876398,-444.123565,11029.068536
3567.337555,-919.314598,-444.123565,10881.027347
3567.337869,-919.314598,-148.041188,10881.027347
3567.338183,-689.485948,-0.000000,11103.089130
3567.338497,0.000000,370.102971,10807.006753
3567.338811,76.609550,592.164754,9992.780217
3567.339126,0.000000,1110.308913,9918.759623
3567.339440,842.705048,1110.308913,9474.636058
3567.339754,1302.362347,1480.411884,9030.512492
3567.340068,1225.752797,1628.453072,9104.533087
3567.340382,1149.143247,1480.411884,9252.574275
3567.340696,995.924147,666.185348,9548.656652
3567.341010,153.219100,444.123565,9844.739029
3567.341325,-536.266849,-0.000000,10140.821405
3567.341639,-612.876398,-0.000000,10140.821405
3567.341953,-612.876398,-74.020594,9844.739029
3567.342267,-536.266849,-74.020594,9918.759623
3567.342581,0.000000,-0.000000,9400.615463
3567.342895,-306.438199,296.082377,9030.512492
3567.343210,0.000000,148.041188,8438.347739
3567.343524,229.828649,592.164754,8216.285956
3567.343838,306.438199,888.247130,8586.388927
3567.344152,536.266849,592.164754,8882.471304
3567.344466,306.438199,296.082377,9178.553681
3567.344780,153.219100,148.041188,9474.636058
3567.345095,229.828649,-74.020594,9696.697840
3567.345409,-153.219100,-0.000000,9992.780217
3567.345723,-306.438199,-370.102971,9992.780217
3567.346037,-229.828649,-370.102971,9622.677246
3567.346351,-229.828649,-444.123565,9474.636058
3567.346665,536.266849,-1036.288319,9030.512492
3567.346980,153.219100,-888.247130,9400.615463
3567.347294,0.000000,-518.144159,9548.656652
3567.347608,229.828649,-888.247130,9326.594869
3567.347922,153.219100,-1036.288319,9474.636058
3567.348236,229.828649,-814.226536,9622.677246
3567.348550,0.000000,-814.226536,10288.862594
3567.348865,306.438199,-592.164754,10066.800811
3567.349179,76.609550,-296.082377,10288.862594
3567.349493,383.047749,-518.144159,10140.821405
3567.349807,612.876398,-518.144159,10066.800811
3567.350121,383.047749,-222.061783,9548.656652
3567.350435,612.876398,-370.102971,9474.636058
3567.350750,766.095498,-296.082377,9548.656652
3567.351064,459.657299,-222.061783,9252.574275
3567.351378,919.314598,-518.144159,9474.636058
3567.351692,459.657299,-370.102971,9474.636058
3567.352006,229.828649,-296.082377,9696.697840
3567.352320,76.609550,-370.102971,9696.697840
3567.352635,383.047749,-444.123565,9474.636058
3567.352949,0.000000,-370.102971,9474.636058
3567.353263,229.828649,-74.020594,9326.594869
3567.353577,536.266849,444.123565,9178.553681
3567.353891,306.438199,592.164754,8882.471304
3567.354205,459.657299,814.226536,8734.430116
3567.354519,689.485948,1036.288319,8660.409521
3567.354834,842.705048,888.247130,8364.327145
3567.355148,383.047749,888.247130,8512.368333
3567.355462,536.266849,888.247130,8734.430116
3567.355776,-229.828649,666.185348,9104.533087
3567.356090,0.000000,370.102971,9622.677246
3567.356404,-689.485948,518.144159,9918.759623
3567.356719,-766.095498,-0.000000,10362.883188
3567.357033,-919.314598,-0.000000,10584.944971
3567.357347,-1072.533697,296.082377,10436.903782
3567.357661,0.000000,-0.000000,10510.924376
3567.357975,-229.828649,962.267725,10288.862594
3567.358289,459.657299,1406.391290,9548.656652
3567.358604,919.314598,1406.391290,9030.512492
3567.358918,995.924147,1406.391290,8660.409521
3567.359232,766.095498,1480.411884,9474.636058
3567.359546,1149.143247,1110.308913,9326.594869
3567.359860,766.095498,370.102971,9474.636058
3567.360174,0.000000,-0.000000,10140.821405
3567.360489,-689.485948,-444.123565,10510.924376
3567.360803,-689.485948,-222.061783,10881.027347
3567.361117,-995.924147,-296.082377,11251.130318
3567.361431,-1149.143247,-222.061783,11251.130318
3567.361745,-766.095498,-0.000000,10584.944971
3567.362059,-306.438199,-0.000000,10362.883188
3567.362374,0.000000,370.102971,9992.780217
3567.362688,612.876398,1036.288319,9770.718434
3567.363002,1072.533697,1184.329507,9474.636058
3567.363316,1072.533697,962.267725,9326.594869
3567.363630,842.705048,1110.308913,9252.574275
3567.363944,995.924147,888.247130,8956.491898
3567.364259,536.266849,888.247130,9400.615463
3567.364573,229.828649,370.102971,9696.697840
3567.364887,-612.876398,-74.020594,9548.656652
3567.365201,-153.219100,-74.020594,9696.697840
3567.365515,-842.705048,-148.041188,9770.718434
3567.365829,-536.266849,-0.000000,9770.718434
3567.366144,-459.657299,-222.061783,9474.636058
3567.366458,-229.828649,-0.000000,9178.553681
3567.366772,383.047749,1184.329507,9252.574275
3567.367086,536.266849,814.226536,8438.347739
3567.367400,766.095498,666.185348,8364.327145
3567.367714,612.876398,518.144159,8882.471304
3567.368028,612.876398,296.082377,8882.471304
3567.368343,229.828649,-296.082377,9326.594869
3567.368657,-229.828649,-296.082377,9622.677246
3567.368971,-306.438199,-222.061783,10288.862594
3567.369285,-229.828649,-148.041188,9992.780217
3567.369599,-383.047749,-148.041188,9548.656652
3567.369913,-153.219100,-444.123565,9474.636058
3567.370228,0.000000,-518.144159,9992.780217
3567.370542,76.609550,-592.164754,9548.656652
3567.370856,153.219100,-444.123565,9400.615463
3567.371170,0.000000,-592.164754,9474.636058
3567.371484,76.609550,-814.226536,9400.615463
3567.371798,0.000000,-666.185348,10288.862594
3567.372113,153.219100,-1036.288319,10140.821405
3567.372427,0.000000,-666.185348,10140.821405
3567.372741,-459.657299,-444.123565,10362.883188
3567.373055,0.000000,-370.102971,10436.903782
3567.373369,153.219100,-148.041188,10362.883188
3567.373683,153.219100,-444.123565,9992.780217
3567.373998,76.609550,-222.061783,9622.677246
3567.374312,459.657299,-444.123565,9400.615463
3567.374626,459.657299,-148.041188,9622.677246
3567.374940,383.047749,-518.144159,9252.574275
3567.375254,306.438199,-370.102971,9400.615463
3567.375568,383.047749,-74.020594,9178.553681
3567.375883,383.047749,-296.082377,9474.636058
3567.376197,153.219100,-222.061783,9844.739029
3567.376511,76.609550,-296.082377,9622.677246
3567.376825,0.000000,-74.020594,9474.636058
3567.377139,0.000000,148.041188,9326.594869
3567.377453,383.047749,-148.041188,9178.553681
3567.377768,536.266849,444.123565,8882.471304
3567.378082,459.657299,370.102971,8364.327145
3567.378396,689.485948,814.226536,8290.306550
3567.378710,459.657299,962.267725,8438.347739
3567.379024,229.828649,962.267725,8660.409521
3567.379338,0.000000,518.144159,9104.533087
3567.379653,-306.438199,296.082377,9252.574275
3567.379967,-766.095498,296.082377,9992.780217
3567.380281,-536.266849,-0.000000,10288.862594
3567.380595,-1072.533697,-0.000000,10436.903782
3567.380909,-766.095498,148.041188,10510.924376
3567.381223,-536.266849,666.185348,10732.986159
3567.381538,-459.657299,962.267725,10066.800811
3567.381852,536.266849,1406.391290,9474.636058
3567.382166,536.266849,1554.432478,9474.636058
3567.382480,1072.533697,1406.391290,9326.594869
3567.382794,1072.533697,1184.329507,8882.471304
3567.383108,995.924147,962.267725,9104.533087
3567.383422,612.876398,666.185348,9548.656652
3567.383737,76.609550,222.061783,9696.697840
3567.384051,-383.047749,-74.020594,10362.883188
3567.384365,-842.705048,-222.061783,10807.006753
3567.384679,-995.924147,-222.061783,10807.006753
3567.384993,-766.095498,-444.123565,10732.986159
3567.385307,-536.266849,-74.020594,10881.027347
3567.385622,0.000000,-0.000000,10584.944971
3567.385936,306.438199,518.144159,9992.780217
3567.386250,689.485948,592.164754,9474.636058
3567.386564,919.314598,962.267725,9474.636058
3567.386878,1149.143247,962.267725,8956.491898
3567.387192,1225.752797,1258.350101,9104.533087
3567.387507,1225.752797,1110.308913,9104.533087
3567.387821,612.876398,740.205942,9326.594869
3567.388135,229.828649,518.144159,9474.636058
3567.388449,0.000000,-0.000000,9474.636058
3567.388763,-536.266849,-0.000000,10436.903782
3567.389077,-995.924147,-296.082377,9696.697840
3567.389392,-306.438199,-0.000000,9474.636058
3567.389706,-306.438199,-0.000000,9474.636058
3567.390020,0.000000,-0.000000,9252.574275
3567.390334,0.000000,444.123565,8882.471304
3567.390648,153.219100,444.123565,8808.450710
3567.390962,536.266849,-0.000000,8364.327145
3567.391277,536.266849,444.123565,8808.450710
3567.391591,383.047749,444.123565,9178.553681
3567.391905,459.657299,-0.000000,9474.636058
3567.392219,0.000000,148.041188,9844.739029
3567.392533,0.000000,-0.000000,10288.862594
3567.392847,-383.047749,-0.000000,9918.759623
3567.393162,-536.266849,-296.082377,9844.739029
3567.393476,-459.657299,-222.061783,9474.636058
3567.393790,0.000000,-370.102971,9474.636058
3567.394104,-153.219100,-666.185348,9400.615463
3567.394418,-153.219100,-592.164754,9104.533087
3567.394732,0.000000,-740.205942,9400.615463
3567.395047,76.609550,-666.185348,9622.677246
3567.395361,-306.438199,-740.205942,10066.800811
3567.395675,0.000000,-444.123565,10066.800811
3567.395989,76.609550,-444.123565,9918.759623
3567.396303,0.000000,-444.123565,10140.821405
3567.396617,0.000000,-296.082377,9918.759623
3567.396931,383.047749,-296.082377,9548.656652
3567.397246,76.609550,-222.061783,9548.656652
3567.397560,306.438199,-0.000000,9178.553681
3567.397874,689.485948,-222.061783,9474.636058
3567.398188,766.095498,-74.020594,9326.594869
3567.398502,383.047749,-222.061783,9104.533087
3567.398816,536.266849,-370.102971,9178.553681
3567.399131,383.047749,-222.061783,9178.553681
3567.399445,306.438199,-370.102971,9918.759623
3567.399759,459.657299,-296.082377,9918.759623
3567.400073,153.219100,-296.082377,9548.656652
3567.400387,0.000000,-0.000000,9400.615463
3567.400701,306.438199,222.061783,9400.615463
3567.401016,689.485948,592.164754,9474.636058
3567.401330,842.705048,592.164754,9030.512492
3567.401644,1072.533697,592.164754,8882.471304
3567.401958,995.924147,740.205942,8586.388927
3567.402272,842.705048,1036.288319,8882.471304
3567.402586,383.047749,962.267725,9030.512492
3567.402901,306.438199,518.144159,9326.594869
3567.403215,-995.924147,148.041188,9400.615463
3567.403529,-306.438199,296.082377,10066.800811
3567.403843,-919.314598,74.020594,10288.862594
3567.404157,-1072.533697,222.061783,10955.047942
3567.404471,-1149.143247,444.123565,11177.109724
3567.404786,-76.609550,592.164754,10584.944971
3567.405100,-229.828649,592.164754,10214.842000
3567.405414,76.609550,1036.288319,9918.759623
3567.405728,383.047749,1258.350101,9696.697840
3567.406042,689.485948,1258.350101,8956.491898
3567.406356,766.095498,1258.350101,9030.512492
3567.406671,689.485948,666.185348,9104.533087
3567.406985,689.485948,370.102971,9326.594869
3567.407299,76.609550,222.061783,9992.780217
3567.407613,-383.047749,-0.000000,10436.903782
3567.407927,-842.705048,-370.102971,10140.821405
3567.408241,-995.924147,-296.082377,10510.924376
3567.408556,-919.314598,-222.061783,10732.986159
3567.408870,-689.485948,-0.000000,10658.965565
3567.409184,0.000000,-0.000000,10288.862594
3567.409498,76.609550,370.102971,9474.636058
3567.409812,306.438199,814.226536,9474.636058
3567.410126,842.705048,1036.288319,9474.636058
3567.410440,995.924147,962.267725,9326.594869
3567.410755,1455.581446,962.267725,9474.636058
3567.411069,842.705048,962.267725,9326.594869
3567.411383,766.095498,888.247130,9474.636058
3567.411697,612.876398,444.123565,9844.739029
3567.412011,76.609550,-0.000000,9770.718434
3567.412325,306.438199,-0.000000,9696.697840
3567.412640,-459.657299,-0.000000,9474.636058
3567.412954,-612.876398,-74.020594,9770.718434
3567.413268,-383.047749,-74.020594,9548.656652
3567.413582,0.000000,-0.000000,9326.594869
3567.413896,229.828649,-0.000000,9030.512492
3567.414210,229.828649,444.123565,8586.388927
3567.414525,459.657299,518.144159,8808.450710
3567.414839,306.438199,666.185348,9178.553681
3567.415153,459.657299,740.205942,9474.636058
3567.415467,383.047749,-0.000000,9548.656652
3567.415781,0.000000,74.020594,9770.718434
3567.416095,0.000000,74.020594,10140.821405
3567.416410,-306.438199,-0.000000,10140.821405
3567.416724,-766.095498,-222.061783,10140.821405
3567.417038,-459.657299,-740.205942,9400.615463
3567.417352,-153.219100,-592.164754,9474.636058
3567.417666,0.000000,-740.205942,9326.594869
3567.417980,0.000000,-444.123565,9400.615463
3567.418295,0.000000,-666.185348,9474.636058
3567.418609,153.219100,-888.247130,9400.615463
3567.418923,229.828649,-592.164754,9548.656652
3567.419237,459.657299,-740.205942,9622.677246
3567.419551,306.438199,-814.226536,9770.718434
3567.419865,0.000000,-444.123565,9992.780217
3567.420180,-536.266849,-740.205942,9770.718434
3567.420494,306.438199,-370.102971,10288.862594
3567.420808,383.047749,-370.102971,9474.636058
3567.421122,306.438199,-370.102971,9400.615463
3567.421436,612.876398,-296.082377,9548.656652
3567.421750,229.828649,-148.041188,9548.656652
3567.422065,306.438199,-592.164754,9474.636058
3567.422379,459.657299,-666.185348,9548.656652
3567.422693,536.266849,-444.123565,9474.636058
3567.423007,76.609550,-444.123565,9548.656652
3567.423321,153.219100,-0.000000,9474.636058
3567.423635,306.438199,-74.020594,9548.656652
3567.423950,0.000000,-0.000000,9622.677246
3567.424264,306.438199,148.041188,9326.594869
3567.424578,612.876398,518.144159,9104.533087
3567.424892,536.266849,444.123565,8956.491898
3567.425206,766.095498,666.185348,9178.553681
3567.425520,536.266849,1110.308913,8956.491898
3567.425834,383.047749,740.205942,8956.491898
3567.426149,0.000000,888.247130,9030.512492
3567.426463,0.000000,740.205942,8882.471304
3567.426777,-459.657299,592.164754,9474.636058
3567.427091,-919.314598,222.061783,9844.739029
3567.427405,-1149.143247,-74.020594,10510.924376
3567.427719,-1225.752797,-0.000000,10807.006753
3567.428034,-995.924147,222.061783,10732.986159
3567.428348,-383.047749,-0.000000,9918.759623
3567.428662,0.000000,962.267725,9844.739029
3567.428976,76.609550,962.267725,9622.677246
3567.429290,612.876398,1184.329507,9400.615463
3567.429604,919.314598,1110.308913,8734.430116
3567.429919,995.924147,888.247130,8586.388927
3567.430233,842.705048,814.226536,8956.491898
3567.430547,536.266849,444.123565,9326.594869
3567.430861,76.609550,-0.000000,9622.677246
3567.431175,0.000000,-222.061783,9992.780217
3567.431489,-229.828649,-592.164754,10584.944971
3567.431804,-1225.752797,-592.164754,10732.986159
3567.432118,-842.705048,-296.082377,11177.109724
3567.432432,-919.314598,-74.020594,10732.986159
3567.432746,-536.266849,148.041188,10214.842000
3567.433060,306.438199,740.205942,9844.739029
3567.433374,766.095498,814.226536,9696.697840
3567.433689,1149.143247,888.247130,9178.553681
3567.434003,1608.800546,1184.329507,9252.574275
3567.434317,1225.752797,1110.308913,9104.533087
3567.434631,1072.533697,814.226536,9252.574275
3567.434945,995.924147,740.205942,9696.697840
3567.435259,306.438199,444.123565,9622.677246
3567.435574,-229.828649,-0.000000,9770.718434
3567.435888,-842.705048,-0.000000,10066.800811
3567.436202,-995.924147,-0.000000,10436.903782
3567.436516,-995.924147,-222.061783,9918.759623
3567.436830,-459.657299,-0.000000,9770.718434
3567.437144,0.000000,222.061783,9104.533087
3567.437458,919.314598,444.123565,8586.388927
3567.437773,459.657299,888.247130,8734.430116
3567.438087,383.047749,666.185348,8882.471304
3567.438401,459.657299,666.185348,9030.512492
3567.438715,306.438199,518.144159,9178.553681
3567.439029,612.876398,370.102971,9918.759623
3567.439343,0.000000,222.061783,10066.800811
3567.439657,-229.828649,-74.020594,9992.780217
3567.439972,-383.047749,-222.061783,9992.780217
3567.440286,-459.657299,-0.000000,9918.759623
3567.440600,-383.047749,-74.020594,9770.718434
3567.440914,-459.657299,-814.226536,9400.615463
3567.441228,0.000000,-740.205942,9400.615463
3567.441542,0.000000,-666.185348,9178.553681
3567.441856,153.219100,-962.267725,9030.512492
3567.442171,153.219100,-666.185348,9474.636058
3567.442485,229.828649,-740.205942,9992.780217
3567.442799,153.219100,-740.205942,9696.697840
3567.443113,153.219100,-444.123565,9918.759623
3567.443427,229.828649,-444.123565,9844.739029
3567.443741,0.000000,-444.123565,9844.739029
3567.444055,383.047749,-0.000000,10066.800811
3567.444370,766.095498,-0.000000,9918.759623
3567.444684,306.438199,-222.061783,9474.636058
3567.444998,536.266849,-296.082377,9326.594869
3567.445312,306.438199,-296.082377,9770.718434
3567.445626,612.876398,-592.164754,9696.697840
3567.445940,612.876398,-296.082377,9696.697840
3567.446254,229.828649,-74.020594,9548.656652
3567.446569,459.657299,-296.082377,9400.615463
3567.446883,153.219100,-296.082377,10066.800811
3567.447197,0.000000,-148.041188,9844.739029
3567.447511,0.000000,444.123565,9622.677246
3567.447825,229.828649,444.123565,9696.697840
3567.448139,383.047749,592.164754,9252.574275
3567.448453,383.047749,888.247130,8956.491898
3567.448768,689.485948,888.247130,8734.430116
3567.449082,306.438199,814.226536,8882.471304
3567.449396,383.047749,962.267725,8808.450710
3567.449710,-153.219100,740.205942,9104.533087
3567.450024,76.609550,814.226536,9844.739029
3567.450338,-766.095498,370.102971,9696.697840
3567.450652,-1072.533697,222.061783,9770.718434
3567.450967,-1072.533697,-0.000000,10140.821405
3567.451281,-1072.533697,-0.000000,10362.883188
3567.451595,-995.924147,370.102971,11029.068536
3567.451909,-612.876398,740.205942,10362.883188
3567.452223,0.000000,962.267725,9844.739029
3567.452537,0.000000,1184.329507,9474.636058
3567.452851,1072.533697,1480.411884,9474.636058
3567.453166,842.705048,888.247130,9252.574275
3567.453480,689.485948,814.226536,8956.491898
3567.453794,919.314598,666.185348,8956.491898
3567.454108,689.485948,592.164754,9178.553681
3567.454422,459.657299,148.041188,9622.677246
3567.454736,0.000000,-222.061783,10214.842000
3567.455050,-306.438199,-370.102971,10436.903782
3567.455365,-919.314598,-444.123565,11029.068536
3567.455679,-842.705048,-296.082377,10807.006753
3567.455993,-153.219100,148.041188,10807.006753
3567.456307,0.000000,296.082377,10807.006753
3567.456621,383.047749,444.123565,10066.800811
3567.456935,842.705048,814.226536,9770.718434
3567.457249,1072.533697,1110.308913,9400.615463
3567.457564,1302.362347,740.205942,8734.430116
3567.457878,1455.581446,1110.308913,9178.553681
3567.458192,1149.143247,1332.370696,8956.491898
3567.458506,766.095498,962.267725,9326.594869
3567.458820,306.438199,296.082377,9474.636058
3567.459134,459.657299,-0.000000,9770.718434
3567.459448,-689.485948,-296.082377,9918.759623
3567.459763,-689.485948,-74.020594,9918.759623
3567.460077,-612.876398,-148.041188,9696.697840
3567.460391,-229.828649,-222.061783,9400.615463
3567.460705,0.000000,-74.020594,9622.677246
3567.461019,0.000000,370.102971,8882.471304
3567.461333,0.000000,518.144159,8512.368333
3567.461647,383.047749,740.205942,8586.388927
3567.461962,612.876398,740.205942,8956.491898
3567.462276,689.485948,592.164754,8734.430116
3567.462590,306.438199,370.102971,9178.553681
3567.462904,0.000000,-0.000000,9622.677246
3567.463218,0.000000,-0.000000,9770.718434
3567.463532,-536.266849,-74.020594,9696.697840
3567.463846,-612.876398,-370.102971,9918.759623
3567.464160,-536.266849,-592.164754,9918.759623
3567.464475,-612.876398,-370.102971,9548.656652
3567.464789,-306.438199,-592.164754,9326.594869
3567.465103,0.000000,-1184.329507,9178.553681
3567.465417,0.000000,-740.205942,9844.739029
3567.465731,76.609550,-370.102971,9622.677246
3567.466045,0.000000,-740.205942,9178.553681
3567.466359,306.438199,-444.123565,9770.718434
3567.466674,0.000000,-296.082377,10140.821405
3567.466988,153.219100,-222.061783,9770.718434
3567.467302,229.828649,-222.061783,10140.821405
3567.467616,0.000000,-444.123565,10140.821405
3567.467930,229.828649,-296.082377,9844.739029
3567.468244,229.828649,-296.082377,9770.718434
3567.468558,459.657299,-296.082377,9770.718434
3567.468873,306.438199,-0.000000,10140.821405
3567.469187,306.438199,-518.144159,9326.594869
3567.469501,536.266849,-370.102971,9326.594869
3567.469815,229.828649,-0.000000,9844.739029
3567.470129,76.609550,-148.041188,9622.677246
3567.470443,153.219100,-148.041188,9474.636058
3567.470757,76.609550,-0.000000,9622.677246
3567.471072,0.000000,-0.000000,9548.656652
3567.471386,229.828649,148.041188,9178.553681
3567.471700,919.314598,592.164754,9104.533087
3567.472014,689.485948,518.144159,9252.574275
3567.472328,306.438199,740.205942,9030.512492
3567.472642,612.876398,1184.329507,8660.409521
3567.472956,536.266849,888.247130,8512.368333
3567.473271,76.609550,666.185348,8734.430116
3567.473585,76.609550,814.226536,9104.533087
3567.473899,-229.828649,296.082377,9474.636058
3567.474213,-536.266849,-0.000000,9622.677246
3567.474527,-919.314598,-0.000000,10140.821405
3567.474841,-1149.143247,-0.000000,10732.986159
3567.475155,-995.924147,-0.000000,10584.944971
3567.475470,-536.266849,296.082377,10436.903782
3567.475784,-229.828649,666.185348,9844.739029
3567.476098,306.438199,1110.308913,9622.677246
3567.476412,1149.143247,1110.308913,9548.656652
3567.476726,995.924147,1110.308913,8808.450710
3567.477040,1378.971896,1110.308913,8364.327145
3567.477354,1149.143247,962.267725,9326.594869
3567.477669,1225.752797,296.082377,9474.636058
3567.477983,383.047749,-0.000000,9770.718434
3567.478297,76.609550,-296.082377,10140.821405
3567.478611,-612.876398,-518.144159,10732.986159
3567.478925,-919.314598,-296.082377,11177.109724
3567.479239,-842.705048,-518.144159,11473.192101
3567.479553,-919.314598,-444.123565,11325.150913
3567.479868,-229.828649,148.041188,10362.883188
3567.480182,229.828649,518.144159,9696.697840
3567.480496,689.485948,518.144159,9474.636058
3567.480810,919.314598,1110.308913,9474.636058
3567.481124,1225.752797,1258.350101,9104.533087
3567.481438,1225.752797,962.267725,8734.430116
3567.481752,1072.533697,814.226536,9252.574275
3567.482067,612.876398,666.185348,9252.574275
3567.482381,229.828649,148.041188,9326.594869
3567.482695,-459.657299,-148.041188,9992.780217
3567.483009,-612.876398,-370.102971,9918.759623
3567.483323,-1072.533697,-148.041188,10140.821405
3567.483637,-383.047749,74.020594,9696.697840
3567.483951,-459.657299,-74.020594,9474.636058
3567.484266,-383.047749,-0.000000,9178.553681
3567.484580,0.000000,222.061783,8734.430116
3567.484894,76.609550,814.226536,8586.388927
3567.485208,612.876398,592.164754,8290.306550
3567.485522,536.266849,592.164754,8734.430116
3567.485836,153.219100,666.185348,9104.533087
3567.486150,153.219100,370.102971,9844.739029
3567.486465,0.000000,148.041188,9992.780217
3567.486779,0.000000,-222.061783,9992.780217
3567.487093,-306.438199,-0.000000,9918.759623
3567.487407,-383.047749,-74.020594,9844.739029
3567.487721,0.000000,-0.000000,9548.656652
3567.488035,-229.828649,-444.123565,9252.574275
3567.488349,153.219100,-592.164754,9474.636058
3567.488664,153.219100,-444.123565,9622.677246
3567.488978,76.609550,-518.144159,9400.615463
3567.489292,229.828649,-592.164754,9548.656652
3567.489606,689.485948,-740.205942,9844.739029
3567.489920,76.609550,-592.164754,9992.780217
3567.490234,0.000000,-592.164754,10362.883188
3567.490548,153.219100,-222.061783,10362.883188
3567.490863,76.609550,-148.041188,10288.862594
3567.491177,383.047749,-592.164754,9844.739029
3567.491491,306.438199,-148.041188,10140.821405
3567.491805,383.047749,-148.041188,9844.739029
3567.492119,612.876398,-370.102971,9548.656652
3567.492433,766.095498,-148.041188,9178.553681
3567.492747,536.266849,-296.082377,9696.697840
3567.493062,383.047749,-148.041188,9622.677246
3567.493376,459.657299,-370.102971,9696.697840
3567.493690,383.047749,-444.123565,9548.656652
3567.494004,229.828649,-74.020594,9696.697840
3567.494318,0.000000,-222.061783,9770.718434
3567.494632,612.876398,-296.082377,9252.574275
3567.494946,536.266849,370.102971,9400.615463
3567.495261,689.485948,296.082377,8808.450710
3567.495575,612.876398,518.144159,8512.368333
3567.495889,689.485948,1258.350101,9104.533087
3567.496203,842.705048,1110.308913,8660.409521
3567.496517,383.047749,888.247130,8142.265362
3567.496831,229.828649,814.226536,8660.409521
3567.497145,0.000000,518.144159,8808.450710
3567.497460,-306.438199,-0.000000,9696.697840
3567.497774,-689.485948,222.061783,10066.800811
3567.498088,-1149.143247,-0.000000,10584.944971
3567.498402,-995.924147,-0.000000,10807.006753
3567.498716,-766.095498,-0.000000,10658.965565
3567.499030,-459.657299,296.082377,10140.821405
3567.499344,0.000000,814.226536,10436.903782
3567.499659,306.438199,1184.329507,9622.677246
3567.499973,612.876398,962.267725,9030.512492
3567.500287,612.876398,1258.350101,9030.512492
3567.500601,842.705048,888.247130,9178.553681
3567.500915,689.485948,592.164754,8956.491898
3567.501229,383.047749,296.082377,9326.594869
3567.501543,153.219100,-0.000000,9918.759623
3567.501858,-306.438199,-148.041188,10436.903782
3567.502172,-612.876398,-444.123565,10658.965565
3567.502486,-919.314598,-444.123565,10955.047942
3567.502800,-842.705048,-370.102971,10955.047942
3567.503114,-612.876398,-222.061783,10510.924376
3567.503428,-536.266849,-0.000000,10288.862594
3567.503742,153.219100,518.144159,10362.883188
3567.504057,842.705048,888.247130,9474.636058
3567.504371,995.924147,888.247130,9178.553681
3567.504685,919.314598,962.267725,9104.533087
3567.504999,1302.362347,1110.308913,9104.533087
3567.505313,995.924147,740.205942,9030.512492
3567.505627,536.266849,518.144159,9326.594869
3567.505941,459.657299,296.082377,9622.677246
3567.506256,-229.828649,-74.020594,9252.574275
3567.506570,-536.266849,-0.000000,9326.594869
3567.506884,-229.828649,-74.020594,10140.821405
3567.507198,-842.705048,-148.041188,9474.636058
3567.507512,-536.266849,-0.000000,9030.512492
3567.507826,-76.609550,444.123565,9030.512492
3567.508140,0.000000,222.061783,9030.512492
3567.508455,306.438199,740.205942,9030.512492
3567.508769,459.657299,740.205942,8808.450710
3567.509083,459.657299,518.144159,9400.615463
3567.509397,766.095498,592.164754,9252.574275
3567.509711,0.000000,518.144159,9548.656652
3567.510025,0.000000,444.123565,9770.718434
3567.510339,-229.828649,444.123565,10066.800811
3567.510654,-153.219100,-0.000000,10066.800811
3567.510968,-612.876398,-0.000000,10066.800811
3567.511282,-459.657299,-370.102971,9696.697840
3567.511596,-229.828649,-222.061783,9696.697840
3567.511910,0.000000,-444.123565,9252.574275
3567.512224,76.609550,-518.144159,9474.636058
3567.512538,0.000000,-814.226536,9400.615463
3567.512853,153.219100,-666.185348,9474.636058
3567.513167,0.000000,-444.123565,9548.656652
3567.513481,306.438199,-1110.308913,9844.739029
3567.513795,76.609550,-740.205942,10140.821405
3567.514109,0.000000,-148.041188,10066.800811
3567.514423,0.000000,-370.102971,10140.821405
3567.514737,76.609550,-148.041188,10066.800811
3567.515052,536.266849,-74.020594,9770.718434
3567.515366,306.438199,-74.020594,9696.697840
3567.515680,383.047749,-296.082377,9474.636058
3567.515994,536.266849,-148.041188,9474.636058
3567.516308,689.485948,-74.020594,9178.553681
3567.516622,689.485948,-222.061783,9326.594869
3567.516936,536.266849,-148.041188,9400.615463
3567.517251,383.047749,-444.123565,9474.636058
3567.517565,76.609550,-148.041188,9474.636058
3567.517879,76.609550,-74.020594,9844.739029
3567.518193,306.438199,-0.000000,9474.636058
3567.518507,76.609550,370.102971,9178.553681
3567.518821,689.485948,592.164754,9400.615463
3567.519135,842.705048,1110.308913,9252.574275
3567.519450,536.266849,1110.308913,8882.471304
3567.519764,689.485948,1036.288319,8586.388927
3567.520078,536.266849,1110.308913,8512.368333
3567.520392,459.657299,740.205942,8290.306550
3567.520706,153.219100,814.226536,8808.450710
3567.521020,0.000000,444.123565,9622.677246
3567.521334,-612.876398,296.082377,9992.780217
3567.521649,-766.095498,-0.000000,10140.821405
3567.521963,-919.314598,222.061783,10436.903782
3567.522277,-1225.752797,-74.020594,10732.986159
3567.522591,-612.876398,666.185348,10658.965565
3567.522905,0.000000,962.267725,9918.759623
3567.523219,229.828649,1110.308913,9548.656652
3567.523533,842.705048,1332.370696,9474.636058
3567.523848,1149.143247,1332.370696,9030.512492
3567.524162,1072.533697,962.267725,9030.512492
3567.524476,766.095498,518.144159,8882.471304
3567.524790,1072.533697,148.041188,9474.636058
3567.525104,306.438199,-444.123565,9474.636058
3567.525418,0.000000,-296.082377,10658.965565
3567.525732,-536.266849,-740.205942,11029.068536
3567.526047,-1072.533697,-592.164754,11103.089130
3567.526361,-766.095498,-296.082377,11325.150913
3567.526675,-536.266849,-370.102971,10955.047942
3567.526989,0.000000,-74.020594,10584.944971
3567.527303,153.219100,296.082377,10140.821405
3567.527617,766.095498,518.144159,9400.615463
3567.527931,1455.581446,814.226536,9474.636058
3567.528246,1455.581446,740.205942,8808.450710
3567.528560,919.314598,592.164754,9326.594869
3567.528874,995.924147,740.205942,9400.615463
3567.529188,536.266849,148.041188,9252.574275
3567.529502,229.828649,-0.000000,9548.656652
3567.529816,0.000000,-444.123565,9918.759623
3567.530130,-306.438199,-444.123565,10066.800811
3567.530445,-612.876398,-296.082377,9770.718434
3567.530759,-766.095498,-0.000000,9326.594869
3567.531073,-383.047749,-0.000000,9400.615463
3567.531387,0.000000,222.061783,8956.491898
3567.531701,0.000000,444.123565,8956.491898
3567.532015,689.485948,1036.288319,8660.409521
3567.532329,536.266849,814.226536,8438.347739
3567.532644,612.876398,740.205942,8882.471304
3567.532958,612.876398,444.123565,9474.636058
3567.533272,153.219100,592.164754,9992.780217
3567.533586,-153.219100,370.102971,9770.718434
3567.533900,-459.657299,148.041188,9992.780217
3567.534214,-383.047749,222.061783,10140.821405
3567.534528,-689.485948,-148.041188,9918.759623
3567.534843,-383.047749,-222.061783,9770.718434
3567.535157,-229.828649,-444.123565,9178.553681
3567.535471,-306.438199,-370.102971,9326.594869
3567.535785,0.000000,-666.185348,8808.450710
3567.536099,-459.657299,-518.144159,9400.615463
3567.536414,306.438199,-740.205942,10066.800811
3567.536728,-76.609550,-740.205942,9992.780217
3567.537042,76.609550,-518.144159,9918.759623
3567.537356,383.047749,-888.247130,10066.800811
3567.537671,459.657299,-814.226536,10140.821405
3567.537985,153.219100,-370.102971,9992.780217
3567.538299,229.828649,-0.000000,9992.780217
3567.538613,459.657299,-296.082377,9992.780217
3567.538927,459.657299,-74.020594,9696.697840
3567.539241,536.266849,-370.102971,9326.594869
3567.539555,383.047749,-296.082377,9474.636058
3567.539870,459.657299,-444.123565,9548.656652
3567.540184,229.828649,-296.082377,9622.677246
3567.540498,536.266849,-518.144159,9844.739029
3567.540812,536.266849,-74.020594,9918.759623
3567.541126,229.828649,-0.000000,9622.677246
3567.541440,306.438199,-0.000000,9178.553681
3567.541754,229.828649,296.082377,9474.636058
3567.542069,153.219100,-0.000000,9548.656652
3567.542383,689.485948,592.164754,9400.615463
3567.542697,919.314598,1110.308913,8956.491898
3567.543011,536.266849,1110.308913,8808.450710
3567.543325,612.876398,962.267725,8882.471304
3567.543639,76.609550,962.267725,9104.533087
3567.543953,76.609550,814.226536,8882.471304
3567.544268,0.000000,962.267725,8882.471304
3567.544582,-229.828649,518.144159,9474.636058
3567.544896,-536.266849,518.144159,9770.718434
3567.545210,-766.095498,296.082377,10288.862594
3567.545524,-1072.533697,370.102971,10362.883188
3567.545838,-919.314598,296.082377,10436.903782
3567.546152,-612.876398,518.144159,10584.944971
3567.546467,-229.828649,592.164754,9918.759623
3567.546781,612.876398,1110.308913,9622.677246
3567.547095,612.876398,962.267725,9104.533087
3567.547409,919.314598,962.267725,9104.533087
3567.547723,919.314598,888.247130,9104.533087
3567.548037,383.047749,888.247130,8734.430116
3567.548351,842.705048,296.082377,9178.553681
3567.548666,383.047749,-0.000000,9622.677246
3567.548980,0.000000,-296.082377,10066.800811
3567.549294,-536.266849,-740.205942,10362.883188
3567.549608,-842.705048,-666.185348,10881.027347
3567.549922,-919.314598,-444.123565,11103.089130
3567.550236,-689.485948,-370.102971,10362.883188
3567.550550,-536.266849,-592.164754,10362.883188
3567.550865,459.657299,-0.000000,9992.780217
3567.551179,842.705048,592.164754,9178.553681
3567.551493,919.314598,888.247130,9326.594869
3567.551807,1455.581446,962.267725,9178.553681
3567.552121,1608.800546,1184.329507,9030.512492
3567.552435,1149.143247,666.185348,9178.553681
3567.552749,536.266849,592.164754,9326.594869
3567.553064,229.828649,518.144159,9918.759623
3567.553378,-306.438199,222.061783,10066.800811
3567.553692,-612.876398,-148.041188,9918.759623
3567.554006,-842.705048,-592.164754,9844.739029
3567.554320,-842.705048,-222.061783,9992.780217
3567.554634,-536.266849,-222.061783,9696.697840
3567.554948,-229.828649,222.061783,9326.594869
3567.555262,0.000000,592.164754,8734.430116
3567.555577,306.438199,740.205942,8142.265362
3567.555891,536.266849,1110.308913,8734.430116
3567.556205,612.876398,1036.288319,9178.553681
3567.556519,229.828649,518.144159,8882.471304
3567.556833,229.828649,-0.000000,9178.553681
3567.557147,0.000000,-0.000000,10066.800811
3567.557461,0.000000,-0.000000,10362.883188
3567.557776,-153.219100,-74.020594,9844.739029
3567.558090,-306.438199,-74.020594,9770.718434
3567.558404,-153.219100,-74.020594,9844.739029
3567.558718,-229.828649,-296.082377,9474.636058
3567.559032,76.609550,-518.144159,9400.615463
3567.559346,229.828649,-814.226536,9400.615463
3567.559660,536.266849,-666.185348,9400.615463
3567.559975,383.047749,-888.247130,9178.553681
3567.560289,306.438199,-740.205942,9548.656652
3567.560603,306.438199,-814.226536,10288.862594
3567.560917,229.828649,-962.267725,10066.800811
3567.561231,76.609550,-592.164754,10140.821405
3567.561545,0.000000,-592.164754,9992.780217
3567.561859,76.609550,-518.144159,9918.759623
3567.562174,459.657299,-444.123565,10140.821405
3567.562488,612.876398,-370.102971,9918.759623
3567.562802,612.876398,-296.082377,9622.677246
3567.563116,383.047749,-222.061783,9178.553681
3567.563430,842.705048,-74.020594,9252.574275
3567.563744,536.266849,-296.082377,9548.656652
3567.564058,536.266849,-148.041188,9474.636058
3567.564373,383.047749,-222.061783,9474.636058
3567.564687,76.609550,-148.041188,9474.636058
3567.565001,153.219100,-0.000000,9696.697840
3567.565315,229.828649,-0.000000,9178.553681
3567.565629,383.047749,592.164754,9178.553681
3567.565943,459.657299,740.205942,9104.533087
3567.566257,306.438199,740.205942,8956.491898
3567.566572,153.219100,888.247130,8734.430116
3567.566886,306.438199,1184.329507,8734.430116
3567.567200,306.438199,1036.288319,8808.450710
3567.567514,0.000000,962.267725,8660.409521
3567.567828,0.000000,666.185348,9104.533087
3567.568142,-459.657299,148.041188,9622.677246
3567.568456,-842.705048,296.082377,10140.821405
3567.568771,-1072.533697,148.041188,9992.780217
3567.569085,-1149.143247,148.041188,10214.842000
3567.569399,-1225.752797,592.164754,10732.986159
3567.569713,0.000000,518.144159,10362.883188
3567.570027,-229.828649,1110.308913,10066.800811
3567.570341,229.828649,1184.329507,9696.697840
3567.570655,383.047749,1332.370696,9400.615463
3567.570970,1072.533697,1036.288319,8882.471304
3567.571284,995.924147,666.185348,9030.512492
3567.571598,842.705048,518.144159,9178.553681
3567.571912,536.266849,222.061783,9252.574275
3567.572226,76.609550,148.041188,9770.718434
3567.572540,229.828649,-74.020594,10288.862594
3567.572854,-536.266849,-518.144159,10732.986159
3567.573169,-536.266849,-370.102971,10955.047942
3567.573483,-689.485948,-444.123565,11029.068536
3567.573797,-612.876398,-0.000000,10732.986159
3567.574111,0.000000,370.102971,10584.944971
3567.574425,76.609550,444.123565,10066.800811
3567.574739,536.266849,888.247130,9770.718434
3567.575053,995.924147,962.267725,9326.594869
3567.575367,1455.581446,1110.308913,9474.636058
3567.575682,1455.581446,888.247130,9178.553681
3567.575996,1149.143247,592.164754,9030.512492
3567.576310,995.924147,666.185348,9104.533087
3567.576624,153.219100,296.082377,9400.615463
3567.576938,0.000000,-148.041188,9918.759623
3567.577252,0.000000,-222.061783,10214.842000
3567.577566,-689.485948,-148.041188,9844.739029
3567.577881,-536.266849,-148.041188,9844.739029
3567.578195,0.000000,-0.000000,9474.636058
3567.578509,76.609550,-0.000000,9104.533087
3567.578823,536.266849,444.123565,8290.306550
3567.579137,383.047749,592.164754,8512.368333
3567.579451,459.657299,814.226536,9178.553681
3567.579765,383.047749,444.123565,8438.347739
3567.580080,536.266849,592.164754,8956.491898
3567.580394,0.000000,-0.000000,9622.677246
3567.580708,0.000000,-0.000000,9548.656652
3567.581022,-383.047749,-0.000000,10140.821405
3567.581336,-459.657299,-148.041188,9918.759623
3567.581650,-459.657299,-370.102971,9844.739029
3567.581964,0.000000,-370.102971,9622.677246
3567.582279,-459.657299,-814.226536,9326.594869
3567.582593,-306.438199,-740.205942,9400.615463
3567.582907,0.000000,-592.164754,9178.553681
3567.583221,153.219100,-888.247130,9400.615463
3567.583535,306.438199,-666.185348,9770.718434
3567.583849,229.828649,-740.205942,9770.718434
3567.584163,76.609550,-888.247130,9770.718434
3567.584478,0.000000,-888.247130,9918.759623
3567.584792,153.219100,-666.185348,10362.883188
3567.585106,0.000000,-740.205942,10436.903782
3567.585420,153.219100,-370.102971,10362.883188
3567.585734,612.876398,-222.061783,9918.759623
3567.586048,459.657299,-148.041188,9474.636058
3567.586362,153.219100,-74.020594,9844.739029
3567.586677,76.609550,-518.144159,9400.615463
3567.586991,383.047749,-296.082377,9770.718434
3567.587305,229.828649,-148.041188,9696.697840
3567.587619,-76.609550,-296.082377,9474.636058
3567.587933,76.609550,-444.123565,9918.759623
3567.588247,612.876398,-74.020594,9696.697840
3567.588561,-229.828649,-222.061783,9696.697840
3567.588876,0.000000,-0.000000,9622.677246
3567.589190,383.047749,518.144159,9400.615463
3567.589504,383.047749,888.247130,8734.430116
3567.589818,919.314598,1258.350101,8438.347739
3567.590132,536.266849,1258.350101,8882.471304
3567.590446,459.657299,1036.288319,8734.430116
3567.590760,536.266849,962.267725,8586.388927
3567.591075,76.609550,1110.308913,8882.471304
3567.591389,0.000000,222.061783,9104.533087
3567.591703,-536.266849,444.123565,9548.656652
3567.592017,-995.924147,592.164754,9992.780217
3567.592331,-766.095498,148.041188,10362.883188
3567.592645,-612.876398,-0.000000,10584.944971
3567.592959,-766.095498,370.102971,10510.924376
3567.593273,-383.047749,370.102971,10510.924376
3567.593588,-229.828649,814.226536,10140.821405
3567.593902,76.609550,962.267725,9474.636058
3567.594216,459.657299,1110.308913,9474.636058
3567.594530,1302.362347,1480.411884,9474.636058
3567.594844,1302.362347,1184.329507,9178.553681
3567.595158,1149.143247,814.226536,9178.553681
3567.595472,919.314598,370.102971,9474.636058
3567.595787,612.876398,-0.000000,9770.718434
3567.596101,76.609550,-444.123565,10510.924376
3567.596415,-306.438199,-370.102971,10955.047942
3567.596729,-536.266849,-666.185348,11029.068536
3567.597043,-689.485948,-370.102971,10881.027347
3567.597357,-459.657299,-0.000000,11103.089130
3567.597671,-306.438199,-0.000000,10658.965565
3567.597986,0.000000,370.102971,9918.759623
3567.598300,612.876398,740.205942,9474.636058
3567.598614,1149.143247,1184.329507,9104.533087
3567.598928,1532.190996,740.205942,9326.594869
3567.599242,1072.533697,962.267725,9252.574275
3567.599556,842.705048,1036.288319,9178.553681
3567.599870,689.485948,740.205942,9178.553681
3567.600185,229.828649,296.082377,9326.594869
3567.600499,0.000000,-148.041188,9918.759623
3567.600813,-536.266849,-148.041188,9918.759623
3567.601127,-1149.143247,-444.123565,9992.780217
3567.601441,-842.705048,-74.020594,9918.759623
3567.601755,-689.485948,-0.000000,9622.677246
3567.602069,-306.438199,-0.000000,9326.594869
3567.602384,0.000000,296.082377,8882.471304
3567.602698,153.219100,444.123565,8364.327145
3567.603012,612.876398,518.144159,8364.327145
3567.603326,459.657299,592.164754,8512.368333
3567.603640,229.828649,518.144159,9252.574275
3567.603954,229.828649,444.123565,9474.636058
3567.604268,153.219100,-0.000000,9696.697840
3567.604583,0.000000,-148.041188,9622.677246
3567.604897,-459.657299,-222.061783,9992.780217
3567.605211,0.000000,-592.164754,10214.842000
3567.605525,-536.266849,-296.082377,9696.697840
3567.605839,-153.219100,-592.164754,9622.677246
3567.606153,-76.609550,-666.185348,9326.594869
3567.606467,0.000000,-592.164754,9104.533087
3567.606782,76.609550,-592.164754,9622.677246
3567.607096,-229.828649,-518.144159,9622.677246
3567.607410,229.828649,-740.205942,9622.677246
3567.607724,0.000000,-592.164754,9918.759623
3567.608038,0.000000,-888.247130,10362.883188
3567.608352,76.609550,-962.267725,10436.903782
3567.608666,0.000000,-444.123565,9992.780217
3567.608981,0.000000,-444.123565,10510.924376
3567.609295,306.438199,-74.020594,9992.780217
3567.609609,842.705048,-148.041188,9844.739029
3567.609923,612.876398,-296.082377,9474.636058
3567.610237,306.438199,-296.082377,9548.656652
3567.610551,459.657299,-222.061783,9400.615463
3567.610865,459.657299,-222.061783,9178.553681
3567.611180,612.876398,-222.061783,9400.615463
3567.611494,306.438199,-222.061783,9400.615463
3567.611808,229.828649,-148.041188,9326.594869
3567.612122,153.219100,-148.041188,9474.636058
3567.612436,0.000000,222.061783,9474.636058
3567.612750,306.438199,-0.000000,9474.636058
3567.613064,536.266849,814.226536,9326.594869
3567.613378,383.047749,888.247130,8956.491898
3567.613693,766.095498,962.267725,8734.430116
3567.614007,842.705048,1332.370696,8660.409521
3567.614321,766.095498,962.267725,8586.388927
3567.614635,229.828649,1258.350101,8290.306550
3567.614949,76.609550,1036.288319,9030.512492
3567.615263,0.000000,592.164754,9178.553681
3567.615577,-689.485948,592.164754,9548.656652
3567.615892,-766.095498,370.102971,10807.006753
3567.616206,-689.485948,296.082377,10807.006753
3567.616520,-995.924147,-0.000000,10658.965565
3567.616834,-536.266849,296.082377,10807.006753
3567.617148,-383.047749,814.226536,10066.800811
3567.617462,689.485948,740.205942,9474.636058
3567.617776,536.266849,1184.329507,9548.656652
3567.618091,919.314598,1110.308913,9104.533087
3567.618405,766.095498,1110.308913,8956.491898
3567.618719,1378.971896,814.226536,9030.512492
3567.619033,919.314598,814.226536,9326.594869
3567.619347,383.047749,-0.000000,9844.739029
3567.619661,0.000000,-296.082377,10362.883188
3567.619975,-612.876398,-592.164754,11029.068536
3567.620290,-995.924147,-666.185348,11029.068536
3567.620604,-995.924147,-666.185348,11325.150913
3567.620918,-919.314598,-370.102971,11029.068536
3567.621232,-383.047749,-0.000000,10510.924376
3567.621546,0.000000,-0.000000,10214.842000
3567.621860,536.266849,370.102971,9622.677246
3567.622174,689.485948,888.247130,9252.574275
3567.622489,842.705048,888.247130,8882.471304
3567.622803,689.485948,962.267725,9104.533087
3567.623117,1225.752797,518.144159,8956.491898
3567.623431,842.705048,518.144159,9104.533087
3567.623745,383.047749,-0.000000,9400.615463
3567.624059,0.000000,-74.020594,9548.656652
3567.624373,-459.657299,-370.102971,9696.697840
3567.624688,-689.485948,-296.082377,9548.656652
3567.625002,-842.705048,-0.000000,9622.677246
3567.625316,-536.266849,-0.000000,9326.594869
3567.625630,-383.047749,148.041188,9252.574275
3567.625944,229.828649,296.082377,8586.388927
3567.626258,459.657299,370.102971,8290.306550
3567.626572,383.047749,518.144159,8734.430116
3567.626887,689.485948,370.102971,9030.512492
3567.627201,383.047749,444.123565,8882.471304
3567.627515,229.828649,296.082377,9178.553681
3567.627829,-229.828649,518.144159,10214.842000
3567.628143,0.000000,-0.000000,9992.780217
3567.628457,-383.047749,-148.041188,10436.903782
3567.628771,-459.657299,-222.061783,9992.780217
3567.629086,-459.657299,-222.061783,9622.677246
3567.629400,0.000000,-666.185348,9918.759623
3567.629714,306.438199,-444.123565,9548.656652
3567.630028,0.000000,-444.123565,9622.677246
3567.630342,153.219100,-518.144159,9326.594869
3567.630656,229.828649,-740.205942,9548.656652
3567.630970,153.219100,-1036.288319,9696.697840
3567.631285,0.000000,-592.164754,10288.862594
3567.631599,0.000000,-592.164754,10288.862594
3567.631913,229.828649,-444.123565,10140.821405
3567.632227,229.828649,-444.123565,10140.821405
3567.632541,383.047749,-222.061783,9918.759623
3567.632855,153.219100,-74.020594,9844.739029
3567.633169,229.828649,-222.061783,9696.697840
3567.633483,459.657299,-222.061783,9548.656652
3567.633798,383.047749,-370.102971,9474.636058
3567.634112,689.485948,-444.123565,9474.636058
3567.634426,383.047749,-296.082377,9696.697840
3567.634740,153.219100,-444.123565,9474.636058
3567.635054,306.438199,-74.020594,9548.656652
3567.635368,76.609550,-148.041188,9622.677246
3567.635682,306.438199,296.082377,9474.636058
3567.635997,0.000000,-0.000000,9474.636058
3567.636311,229.828649,592.164754,9548.656652
3567.636625,459.657299,592.164754,9030.512492
3567.636939,459.657299,962.267725,8956.491898
3567.637253,689.485948,962.267725,8660.409521
3567.637567,842.705048,1184.329507,8882.471304
3567.637881,459.657299,962.267725,8586.388927
3567.638196,306.438199,962.267725,8290.306550
3567.638510,153.219100,888.247130,9030.512492
3567.638824,0.000000,370.102971,9548.656652
3567.639138,-919.314598,518.144159,9918.759623
3567.639452,-1072.533697,-0.000000,10436.903782
3567.639766,-995.924147,222.061783,10584.944971
3567.640081,-995.924147,370.102971,10732.986159
3567.640395,-766.095498,370.102971,10510.924376
3567.640709,-536.266849,888.247130,10362.883188
3567.641023,76.609550,1036.288319,9918.759623
3567.641338,612.876398,1332.370696,9474.636058
3567.641652,1225.752797,1628.453072,9326.594869
3567.641966,1072.533697,592.164754,9252.574275
3567.642280,459.657299,518.144159,9104.533087
3567.642595,229.828649,666.185348,9178.553681
3567.642909,153.219100,-0.000000,9474.636058
3567.643223,-459.657299,-148.041188,10140.821405
3567.643537,-459.657299,-444.123565,10807.006753
3567.643852,-612.876398,-666.185348,11103.089130
3567.644166,-842.705048,-814.226536,10807.006753
3567.644480,-995.924147,-296.082377,10881.027347
3567.644794,-766.095498,-0.000000,10436.903782
3567.645108,306.438199,-0.000000,10436.903782
3567.645423,689.485948,740.205942,9770.718434
3567.645737,842.705048,962.267725,9474.636058
3567.646051,1072.533697,962.267725,9178.553681
3567.646365,1455.581446,1258.350101,9326.594869
3567.646680,1149.143247,888.247130,8956.491898
3567.646994,612.876398,222.061783,9104.533087
3567.647308,76.609550,296.082377,9474.636058
3567.647622,76.609550,-74.020594,9622.677246
3567.647937,-153.219100,-148.041188,9918.759623
3567.648251,-229.828649,-74.020594,9770.718434
3567.648565,-383.047749,-0.000000,9770.718434
3567.648879,-229.828649,222.061783,9326.594869
3567.649194,0.000000,296.082377,8882.471304
3567.649508,306.438199,148.041188,8660.409521
3567.649822,383.047749,592.164754,9104.533087
3567.650136,306.438199,666.185348,8734.430116
3567.650451,459.657299,666.185348,8734.430116
3567.650765,229.828649,592.164754,9326.594869
3567.651079,229.828649,296.082377,9548.656652
3567.651393,-306.438199,-0.000000,9918.759623
3567.651708,-612.876398,-222.061783,10362.883188
3567.652022,-459.657299,-0.000000,10140.821405
3567.652336,-536.266849,-74.020594,9992.780217
3567.652650,306.438199,-518.144159,9622.677246
3567.652965,-459.657299,-444.123565,9474.636058
3567.653279,-229.828649,-740.205942,9326.594869
3567.653593,0.000000,-740.205942,9178.553681
3567.653907,76.609550,-740.205942,9326.594869
3567.654222,383.047749,-1110.308913,9770.718434
3567.654536,0.000000,-962.267725,9770.718434
3567.654850,153.219100,-888.247130,10066.800811
3567.655164,0.000000,-1184.329507,9992.780217
3567.655479,0.000000,-592.164754,10214.842000
3567.655793,229.828649,-740.205942,10140.821405
3567.656107,0.000000,-444.123565,10214.842000
3567.656421,229.828649,-370.102971,9992.780217
3567.656736,766.095498,-296.082377,9548.656652
3567.657050,842.705048,-222.061783,9548.656652
3567.657364,689.485948,-222.061783,9622.677246
3567.657678,612.876398,-222.061783,8882.471304
3567.657993,612.876398,-222.061783,8808.450710
3567.658307,612.876398,-222.061783,9178.553681
3567.658621,383.047749,-370.102971,9474.636058
3567.658935,306.438199,-74.020594,9622.677246
3567.659250,459.657299,-148.041188,9696.697840
3567.659564,153.219100,-0.000000,9844.739029
3567.659878,306.438199,-0.000000,9326.594869
3567.660192,842.705048,222.061783,9030.512492
3567.660507,842.705048,962.267725,9178.553681
3567.660821,689.485948,1036.288319,8882.471304
3567.661135,536.266849,1110.308913,8512.368333
3567.661449,766.095498,1406.391290,8364.327145
3567.661764,383.047749,1332.370696,9030.512492
3567.662078,229.828649,1036.288319,9030.512492
3567.662392,-383.047749,740.205942,9252.574275
3567.662706,-689.485948,666.185348,9844.739029
3567.663021,-919.314598,-0.000000,10140.821405
3567.663335,-689.485948,222.061783,10658.965565
3567.663649,-1455.581446,370.102971,11029.068536
3567.663963,-1072.533697,666.185348,10732.986159
3567.664278,-383.047749,888.247130,10288.862594
3567.664592,0.000000,1110.308913,9696.697840
3567.664906,153.219100,1332.370696,9622.677246
3567.665220,842.705048,1184.329507,8808.450710
3567.665535,612.876398,1258.350101,8660.409521
3567.665849,459.657299,888.247130,9178.553681
3567.666163,612.876398,592.164754,9400.615463
3567.666477,689.485948,-148.041188,9696.697840
3567.666792,0.000000,-148.041188,10140.821405
3567.667106,-153.219100,-222.061783,10658.965565
3567.667420,-766.095498,-518.144159,10881.027347
3567.667734,-689.485948,-74.020594,10807.006753
3567.668049,-536.266849,-74.020594,11399.171507
3567.668363,-383.047749,-0.000000,10658.965565
3567.668677,0.000000,444.123565,10140.821405
3567.668991,459.657299,592.164754,9548.656652
3567.669306,1149.143247,444.123565,9548.656652
3567.669620,1302.362347,740.205942,9474.636058
3567.669934,1378.971896,1110.308913,9104.533087
3567.670248,1608.800546,888.247130,9474.636058
3567.670562,919.314598,518.144159,9178.553681
3567.670877,153.219100,370.102971,9400.615463
3567.671191,306.438199,296.082377,9474.636058
3567.671505,0.000000,-0.000000,9918.759623
3567.671819,-536.266849,-222.061783,9770.718434
3567.672134,-612.876398,-0.000000,9474.636058
3567.672448,-459.657299,222.061783,9400.615463
3567.672762,-306.438199,222.061783,9326.594869
3567.673076,-383.047749,296.082377,9030.512492
3567.673391,0.000000,296.082377,8586.388927
3567.673705,153.219100,444.123565,8882.471304
3567.674019,612.876398,592.164754,9030.512492
3567.674333,229.828649,370.102971,9252.574275
3567.674648,0.000000,222.061783,9474.636058
3567.674962,-153.219100,-0.000000,9548.656652
3567.675276,-383.047749,-74.020594,9918.759623
3567.675590,0.000000,-148.041188,9844.739029
3567.675905,-306.438199,-0.000000,10140.821405
3567.676219,-229.828649,-148.041188,9474.636058
3567.676533,0.000000,-444.123565,8734.430116
3567.676847,0.000000,-666.185348,8956.491898
3567.677162,0.000000,-1036.288319,9400.615463
3567.677476,0.000000,-888.247130,9400.615463
3567.677790,306.438199,-1036.288319,9474.636058
3567.678104,0.000000,-814.226536,9844.739029
3567.678419,689.485948,-666.185348,9992.780217
3567.678733,0.000000,-962.267725,10140.821405
3567.679047,0.000000,-888.247130,10510.924376
3567.679361,76.609550,-518.144159,10510.924376
3567.679676,0.000000,-370.102971,9696.697840
3567.679990,612.876398,-518.144159,9622.677246
3567.680304,536.266849,-148.041188,9844.739029
3567.680618,766.095498,-222.061783,9622.677246
3567.680933,689.485948,-518.144159,9104.533087
3567.681247,459.657299,-222.061783,9400.615463
3567.681561,612.876398,-74.020594,9474.636058
3567.681875,459.657299,-296.082377,9548.656652
3567.682190,306.438199,-222.061783,9696.697840
3567.682504,229.828649,-74.020594,9770.718434
3567.682818,306.438199,-148.041188,9622.677246
3567.683132,76.609550,-0.000000,9548.656652
3567.683447,153.219100,666.185348,9622.677246
3567.683761,383.047749,444.123565,9474.636058
3567.684075,459.657299,814.226536,9104.533087
3567.684389,689.485948,888.247130,8956.491898
3567.684704,766.095498,1184.329507,8808.450710
3567.685018,766.095498,1332.370696,8808.450710
3567.685332,306.438199,1110.308913,8956.491898
3567.685646,0.000000,-0.000000,8808.450710
3567.685961,0.000000,-0.000000,9400.615463
3567.686275,-536.266849,296.082377,9474.636058
3567.686589,-995.924147,518.144159,10066.800811
3567.686903,-995.924147,-0.000000,10658.965565
3567.687218,-1149.143247,148.041188,10510.924376
3567.687532,-842.705048,370.102971,10140.821405
3567.687846,-459.657299,814.226536,10436.903782
3567.688160,0.000000,962.267725,9770.718434
3567.688475,766.095498,1332.370696,9696.697840
3567.688789,1072.533697,1110.308913,8808.450710
3567.689103,919.314598,1110.308913,8956.491898
3567.689417,919.314598,740.205942,8956.491898
3567.689732,766.095498,592.164754,9252.574275
3567.690046,383.047749,222.061783,9844.739029
3567.690360,-229.828649,-222.061783,10140.821405
3567.690674,-383.047749,-518.144159,10584.944971
3567.690989,-536.266849,-666.185348,10955.047942
3567.691303,-612.876398,-296.082377,11325.150913
3567.691617,-612.876398,-222.061783,10807.006753
3567.691931,-229.828649,-0.000000,10362.883188
3567.692246,536.266849,-0.000000,10362.883188
3567.692560,536.266849,740.205942,9918.759623
3567.692874,919.314598,814.226536,9474.636058
3567.693188,1149.143247,1036.288319,9326.594869
3567.693503,1225.752797,1184.329507,9104.533087
3567.693817,1378.971896,962.267725,9252.574275
3567.694131,612.876398,962.267725,9400.615463
3567.694445,612.876398,814.226536,9622.677246
3567.694760,76.609550,222.061783,9400.615463
3567.695074,-153.219100,-0.000000,9548.656652
3567.695388,-76.609550,222.061783,10066.800811
3567.695702,-766.095498,-370.102971,9696.697840
3567.696017,-919.314598,-0.000000,9474.636058
3567.696331,-459.657299,-0.000000,9030.512492
3567.696645,-153.219100,-0.000000,9030.512492
3567.696959,0.000000,444.123565,8512.368333
3567.697273,0.000000,444.123565,8438.347739
3567.697588,229.828649,444.123565,8956.491898
3567.697902,153.219100,518.144159,9252.574275
3567.698216,383.047749,666.185348,9400.615463
3567.698530,0.000000,444.123565,9696.697840
3567.698845,0.000000,222.061783,9770.718434
3567.699159,-306.438199,-0.000000,9770.718434
3567.699473,-459.657299,-74.020594,9548.656652
3567.699787,-766.095498,-222.061783,9844.739029
3567.700102,0.000000,-518.144159,9548.656652
3567.700416,0.000000,-444.123565,9030.512492
3567.700730,0.000000,-814.226536,9104.533087
3567.701044,0.000000,-888.247130,9400.615463
3567.701359,0.000000,-1184.329507,9622.677246
3567.701673,306.438199,-962.267725,9548.656652
3567.701987,76.609550,-888.247130,9696.697840
3567.702301,153.219100,-592.164754,9992.780217
3567.702616,229.828649,-370.102971,10140.821405
3567.702930,536.266849,-518.144159,10214.842000
3567.703244,459.657299,-444.123565,10288.862594
3567.703558,612.876398,-222.061783,10066.800811
3567.703873,459.657299,-148.041188,9770.718434
3567.704187,612.876398,-296.082377,9474.636058
3567.704501,689.485948,-0.000000,9696.697840
3567.704815,612.876398,-370.102971,9474.636058
3567.705130,689.485948,-518.144159,9622.677246
3567.705444,229.828649,-222.061783,9474.636058
3567.705758,306.438199,-370.102971,9474.636058
3567.706072,306.438199,-370.102971,9696.697840
3567.706387,306.438199,-0.000000,9844.739029
3567.706701,229.828649,-148.041188,9696.697840
3567.707015,306.438199,-0.000000,9326.594869
3567.707329,76.609550,444.123565,9326.594869
3567.707644,536.266849,370.102971,8882.471304
3567.707958,842.705048,1110.308913,8956.491898
3567.708272,689.485948,1184.329507,8216.285956
3567.708586,306.438199,1110.308913,8660.409521
3567.708901,153.219100,1110.308913,8956.491898
3567.709215,0.000000,666.185348,8882.471304
3567.709529,-153.219100,370.102971,9104.533087
3567.709843,-612.876398,370.102971,9696.697840
3567.710158,-995.924147,222.061783,9992.780217
3567.710472,-536.266849,-0.000000,10140.821405
3567.710786,-1225.752797,-0.000000,10807.006753
3567.711100,-459.657299,444.123565,10436.903782
3567.711415,-689.485948,592.164754,9548.656652
3567.711729,-229.828649,1184.329507,9696.697840
3567.712043,383.047749,962.267725,9178.553681
3567.712357,1225.752797,1480.411884,9252.574275
3567.712672,1149.143247,1258.350101,9178.553681
3567.712986,842.705048,740.205942,9104.533087
3567.713300,842.705048,518.144159,9548.656652
3567.713614,459.657299,-0.000000,9696.697840
3567.713929,0.000000,-148.041188,10362.883188
3567.714243,-459.657299,-296.082377,11103.089130
3567.714557,-612.876398,-592.164754,11251.130318
3567.714871,-1072.533697,-444.123565,11103.089130
3567.715186,-766.095498,-296.082377,10732.986159
3567.715500,-459.657299,666.185348,10881.027347
3567.715814,0.000000,592.164754,10066.800811
3567.716128,383.047749,814.226536,9696.697840
3567.716443,919.314598,740.205942,9844.739029
3567.716757,995.924147,518.144159,9326.594869
3567.717071,1302.362347,1110.308913,9178.553681
3567.717385,995.924147,962.267725,9474.636058
3567.717700,612.876398,740.205942,9474.636058
3567.718014,383.047749,370.102971,9400.615463
3567.718328,-306.438199,222.061783,9548.656652
3567.718642,-306.438199,-148.041188,10214.842000
3567.718957,-612.876398,-222.061783,9696.697840
3567.719271,-612.876398,-0.000000,9548.656652
3567.719585,-766.095498,-0.000000,9400.615463
3567.719899,-383.047749,222.061783,8882.471304
3567.720214,0.000000,444.123565,8808.450710
3567.720528,306.438199,444.123565,8512.368333
3567.720842,536.266849,222.061783,8512.368333
3567.721156,383.047749,740.205942,8586.388927
3567.721471,459.657299,444.123565,9400.615463
3567.721785,229.828649,-0.000000,9548.656652
3567.722099,0.000000,-0.000000,9696.697840
3567.722413,0.000000,-0.000000,9918.759623
3567.722727,-536.266849,-0.000000,9844.739029
3567.723042,-229.828649,-370.102971,9548.656652
3567.723356,0.000000,-222.061783,9474.636058
3567.723670,-153.219100,-666.185348,9252.574275
3567.723984,0.000000,-666.185348,9252.574275
3567.724299,0.000000,-592.164754,9030.512492
3567.724613,229.828649,-814.226536,9326.594869
3567.724927,76.609550,-740.205942,9622.677246
3567.725241,0.000000,-1110.308913,9844.739029
3567.725556,76.609550,-666.185348,9844.739029
3567.725870,76.609550,-666.185348,10140.821405
3567.726184,76.609550,-814.226536,10658.965565
3567.726498,0.000000,-148.041188,10288.862594
3567.726813,229.828649,-222.061783,10436.903782
3567.727127,153.219100,-222.061783,9548.656652
3567.727441,689.485948,-296.082377,10066.800811
3567.727755,459.657299,-148.041188,9844.739029
3567.728070,536.266849,-148.041188,9474.636058
3567.728384,459.657299,-370.102971,9400.615463
3567.728698,459.657299,-296.082377,9474.636058
3567.729012,689.485948,-370.102971,9474.636058
3567.729327,459.657299,-666.185348,9400.615463
3567.729641,229.828649,-222.061783,9918.759623
3567.729955,76.609550,-74.020594,9696.697840
3567.730269,-229.828649,-0.000000,9326.594869
3567.730584,0.000000,296.082377,9548.656652
3567.730898,459.657299,296.082377,9030.512492
3567.731212,306.438199,666.185348,8808.450710
3567.731526,919.314598,814.226536,8808.450710
3567.731841,842.705048,666.185348,8586.388927
3567.732155,919.314598,1036.288319,8586.388927
3567.732469,306.438199,888.247130,8808.450710
3567.732783,153.219100,740.205942,9252.574275
3567.733098,-229.828649,592.164754,9474.636058
3567.733412,-689.485948,444.123565,9696.697840
3567.733726,-995.924147,-0.000000,9992.780217
3567.734040,-766.095498,-0.000000,10807.006753
3567.734355,-842.705048,-0.000000,10807.006753
3567.734669,-766.095498,296.082377,10658.965565
3567.734983,-229.828649,814.226536,10510.924376
3567.735297,153.219100,1036.288319,9770.718434
3567.735612,689.485948,1184.329507,9178.553681
3567.735926,995.924147,1406.391290,9548.656652
3567.736240,1149.143247,1332.370696,9104.533087
3567.736554,1302.362347,814.226536,8586.388927
3567.736869,995.924147,370.102971,9326.594869
3567.737183,383.047749,592.164754,9770.718434
3567.737497,76.609550,-148.041188,10436.903782
3567.737811,-383.047749,-74.020594,10510.924376
3567.738126,-689.485948,-814.226536,10436.903782
3567.738440,-689.485948,-296.082377,11399.171507
3567.738754,-995.924147,-74.020594,10881.027347
3567.739068,-536.266849,296.082377,10584.944971
3567.739383,0.000000,370.102971,10288.862594
3567.739697,536.266849,370.102971,9844.739029
3567.740011,995.924147,740.205942,9252.574275
3567.740325,919.314598,1110.308913,8956.491898
3567.740639,995.924147,962.267725,9252.574275
3567.740954,1149.143247,740.205942,8956.491898
3567.741268,919.314598,666.185348,9178.553681
3567.741582,459.657299,666.185348,9548.656652
3567.741896,0.000000,-74.020594,9474.636058
3567.742210,-76.609550,-0.000000,9918.759623
3567.742525,-383.047749,-222.061783,9400.615463
3567.742839,-689.485948,-74.020594,9548.656652
3567.743153,-689.485948,-0.000000,9252.574275
3567.743467,-306.438199,-0.000000,9030.512492
3567.743781,0.000000,148.041188,8956.491898
3567.744095,306.438199,222.061783,8512.368333
3567.744410,0.000000,592.164754,8438.347739
3567.744724,536.266849,592.164754,8734.430116
3567.745038,536.266849,592.164754,9178.553681
3567.745352,383.047749,444.123565,9326.594869
3567.745666,0.000000,148.041188,9474.636058
3567.745981,-153.219100,-0.000000,10140.821405
3567.746295,-229.828649,-0.000000,10140.821405
3567.746609,-383.047749,-148.041188,10066.800811
3567.746923,-459.657299,-74.020594,9844.739029
3567.747237,-536.266849,-592.164754,9696.697840
3567.747551,-306.438199,-222.061783,9474.636058
3567.747866,-229.828649,-592.164754,9474.636058
3567.748180,76.609550,-888.247130,9696.697840
3567.748494,0.000000,-1258.350101,9770.718434
3567.748808,76.609550,-814.226536,9474.636058
3567.749122,229.828649,-666.185348,9844.739029
3567.749437,76.609550,-518.144159,10362.883188
3567.749751,229.828649,-740.205942,10214.842000
3567.750065,0.000000,-444.123565,9992.780217
3567.750379,229.828649,-74.020594,9918.759623
3567.750693,383.047749,-296.082377,9622.677246
3567.751007,459.657299,-222.061783,9548.656652
3567.751322,842.705048,-296.082377,9548.656652
3567.751636,766.095498,-222.061783,9696.697840
3567.751950,536.266849,-370.102971,9474.636058
3567.752264,689.485948,-74.020594,9326.594869
3567.752578,766.095498,-0.000000,9474.636058
3567.752892,306.438199,-370.102971,9474.636058
3567.753207,229.828649,-148.041188,9548.656652
3567.753521,76.609550,-0.000000,9696.697840
3567.753835,76.609550,-0.000000,9474.636058
3567.754149,229.828649,222.061783,9474.636058
3567.754463,153.219100,296.082377,8956.491898
3567.754778,459.657299,518.144159,8882.471304
3567.755092,766.095498,666.185348,8512.368333
3567.755406,842.705048,740.205942,8956.491898
3567.755720,766.095498,962.267725,9104.533087
3567.756034,306.438199,1036.288319,8808.450710
3567.756348,153.219100,740.205942,8956.491898
3567.756663,-229.828649,370.102971,9326.594869
3567.756977,-536.266849,296.082377,9474.636058
3567.757291,-919.314598,296.082377,10807.006753
3567.757605,-1072.533697,-0.000000,10732.986159
3567.757919,-1072.533697,148.041188,10510.924376
3567.758234,-1302.362347,592.164754,10881.027347
3567.758548,-536.266849,666.185348,10436.903782
3567.758862,-229.828649,740.205942,9918.759623
3567.759176,76.609550,1184.329507,9548.656652
3567.759490,1072.533697,1036.288319,9104.533087
3567.759804,995.924147,962.267725,8882.471304
3567.760119,689.485948,1036.288319,9030.512492
3567.760433,536.266849,444.123565,9326.594869
3567.760747,0.000000,-0.000000,9474.636058
3567.761061,-306.438199,-74.020594,10436.903782
3567.761375,-612.876398,-0.000000,10955.047942
3567.761689,-1072.533697,-444.123565,11103.089130
3567.762004,-995.924147,-370.102971,11177.109724
3567.762318,-919.314598,-444.123565,10732.986159
3567.762632,-612.876398,-148.041188,10436.903782
3567.762946,-153.219100,296.082377,10140.821405
3567.763260,612.876398,518.144159,9696.697840
3567.763575,842.705048,814.226536,9326.594869
3567.763889,1072.533697,1036.288319,9030.512492
3567.764203,842.705048,1036.288319,8882.471304
3567.764517,995.924147,888.247130,9030.512492
3567.764831,842.705048,740.205942,9326.594869
3567.765145,383.047749,592.164754,9400.615463
3567.765460,76.609550,-0.000000,9770.718434
3567.765774,0.000000,-518.144159,9770.718434
3567.766088,-383.047749,-148.041188,9696.697840
3567.766402,-153.219100,-148.041188,10066.800811
3567.766716,-459.657299,-0.000000,9474.636058
3567.767031,-153.219100,148.041188,9474.636058
3567.767345,383.047749,370.102971,8660.409521
3567.767659,536.266849,222.061783,8438.347739
3567.767973,766.095498,592.164754,8956.491898
3567.768287,766.095498,740.205942,9178.553681
3567.768601,536.266849,666.185348,9326.594869
3567.768916,229.828649,518.144159,9548.656652
3567.769230,76.609550,370.102971,9770.718434
3567.769544,0.000000,-0.000000,10066.800811
3567.769858,0.000000,148.041188,9992.780217
3567.770172,-229.828649,-74.020594,10066.800811
3567.770486,-383.047749,-444.123565,9696.697840
3567.770801,153.219100,-666.185348,9474.636058
3567.771115,0.000000,-296.082377,9548.656652
3567.771429,0.000000,-444.123565,9252.574275
3567.771743,0.000000,-592.164754,9474.636058
3567.772057,0.000000,-1036.288319,9622.677246
3567.772372,229.828649,-888.247130,9696.697840
3567.772686,76.609550,-740.205942,9844.739029
3567.773000,0.000000,-740.205942,10066.800811
3567.773314,0.000000,-666.185348,9992.780217
3567.773628,153.219100,-296.082377,10214.842000
3567.773942,306.438199,-296.082377,9992.780217
3567.774257,306.438199,-444.123565,9548.656652
3567.774571,229.828649,-222.061783,9548.656652
3567.774885,536.266849,-296.082377,9326.594869
3567.775199,689.485948,-296.082377,9622.677246
3567.775513,536.266849,-444.123565,9548.656652
3567.775828,229.828649,-518.144159,9474.636058
3567.776142,383.047749,-370.102971,9918.759623
3567.776456,76.609550,-296.082377,9770.718434
3567.776770,306.438199,-814.226536,9696.697840
3567.777084,306.438199,-0.000000,9918.759623
3567.777398,459.657299,-0.000000,9474.636058
3567.777713,383.047749,148.041188,9030.512492
3567.778027,383.047749,592.164754,8808.450710
3567.778341,153.219100,666.185348,9104.533087
3567.778655,459.657299,1036.288319,8290.306550
3567.778969,459.657299,888.247130,8660.409521
3567.779283,306.438199,740.205942,8660.409521
3567.779598,0.000000,740.205942,8586.388927
3567.779912,-76.609550,444.123565,9030.512492
3567.780226,-383.047749,518.144159,9474.636058
3567.780540,-689.485948,370.102971,10214.842000
3567.780854,-1302.362347,-0.000000,10066.800811
3567.781169,-995.924147,-0.000000,10436.903782
3567.781483,-1072.533697,148.041188,11103.089130
3567.781797,-766.095498,370.102971,10436.903782
3567.782111,-459.657299,740.205942,10140.821405
3567.782425,0.000000,962.267725,9474.636058
3567.782739,459.657299,1110.308913,9326.594869
3567.783054,1302.362347,1406.391290,9030.512492
3567.783368,1149.143247,1406.391290,8956.491898
3567.783682,1072.533697,888.247130,9178.553681
3567.783996,612.876398,444.123565,9252.574275
3567.784310,153.219100,-0.000000,9548.656652
3567.784625,0.000000,-74.020594,9918.759623
3567.784939,-459.657299,-222.061783,10436.903782
3567.785253,-612.876398,-444.123565,10807.006753
3567.785567,-612.876398,-296.082377,10510.924376
3567.785881,-995.924147,-0.000000,10881.027347
3567.786195,-229.828649,-0.000000,10732.986159
3567.786510,306.438199,-0.000000,9992.780217
3567.786824,536.266849,814.226536,10362.883188
3567.787138,1149.143247,888.247130,9474.636058
3567.787452,1532.190996,1184.329507,9178.553681
3567.787766,1608.800546,1332.370696,9252.574275
3567.788081,1378.971896,1184.329507,9178.553681
3567.788395,1378.971896,888.247130,9252.574275
3567.788709,459.657299,740.205942,9178.553681
3567.789023,383.047749,-0.000000,9992.780217
3567.789337,0.000000,-148.041188,10214.842000
3567.789651,-459.657299,-296.082377,10214.842000
3567.789966,-536.266849,-222.061783,10066.800811
3567.790280,-689.485948,-74.020594,9622.677246
3567.790594,153.219100,-74.020594,9548.656652
3567.790908,76.609550,518.144159,9030.512492
3567.791222,153.219100,592.164754,8882.471304
3567.791536,383.047749,740.205942,8882.471304
3567.791851,459.657299,814.226536,8512.368333
3567.792165,306.438199,592.164754,9400.615463
3567.792479,76.609550,518.144159,9770.718434
3567.792793,-229.828649,370.102971,9844.739029
3567.793107,-383.047749,-222.061783,9918.759623
3567.793422,-306.438199,-74.020594,9918.759623
3567.793736,0.000000,-0.000000,10140.821405
3567.794050,-383.047749,-444.123565,9770.718434
3567.794364,-383.047749,-370.102971,9622.677246
3567.794678,-229.828649,-740.205942,9252.574275
3567.794992,-383.047749,-518.144159,9252.574275
3567.795307,153.219100,-962.267725,9178.553681
3567.795621,0.000000,-1110.308913,9178.553681
3567.795935,0.000000,-962.267725,9770.718434
3567.796249,76.609550,-814.226536,9548.656652
3567.796563,76.609550,-888.247130,10066.800811
3567.796878,0.000000,-814.226536,10362.883188
3567.797192,0.000000,-592.164754,9770.718434
3567.797506,306.438199,-444.123565,9918.759623
3567.797820,76.609550,-592.164754,9770.718434
3567.798134,536.266849,-518.144159,9474.636058
3567.798448,383.047749,-296.082377,9474.636058
3567.798763,612.876398,-518.144159,9252.574275
3567.799077,459.657299,-296.082377,9474.636058
3567.799391,383.047749,-296.082377,9178.553681
3567.799705,153.219100,-370.102971,9400.615463
3567.800019,0.000000,-518.144159,9548.656652
3567.800333,153.219100,-296.082377,10214.842000
3567.800648,153.219100,-296.082377,9696.697840
3567.800962,0.000000,-74.020594,9696.697840
3567.801276,76.609550,-148.041188,9918.759623
3567.801590,612.876398,370.102971,9474.636058
3567.801904,383.047749,814.226536,8956.491898
3567.802219,919.314598,962.267725,8808.450710
3567.802533,842.705048,1332.370696,8734.430116
3567.802847,689.485948,1184.329507,8364.327145
3567.803161,536.266849,1110.308913,8512.368333
3567.803475,76.609550,592.164754,8956.491898
3567.803789,0.000000,296.082377,9548.656652
3567.804104,-612.876398,222.061783,9622.677246
3567.804418,-612.876398,-0.000000,10362.883188
3567.804732,-995.924147,-0.000000,10807.006753
3567.805046,-1302.362347,-222.061783,10362.883188
3567.805360,-612.876398,370.102971,10732.986159
3567.805675,-459.657299,1036.288319,10288.862594
3567.805989,76.609550,1554.432478,9696.697840
3567.806303,766.095498,1554.432478,9104.533087
3567.806617,1532.190996,1184.329507,8734.430116
3567.806931,1302.362347,1406.391290,9030.512492
3567.807245,919.314598,740.205942,8808.450710
3567.807560,1072.533697,740.205942,9252.574275
3567.807874,689.485948,222.061783,9918.759623
3567.808188,0.000000,-666.185348,9992.780217
3567.808502,-229.828649,-370.102971,10510.924376
