#time,accel_x,accel_y,accel_z
3768.624655,229.828649,222.061783,9770.718434
3768.624970,306.438199,-74.020594,9548.656652
3768.625285,153.219100,-0.000000,9400.615463
3768.625599,153.219100,148.041188,9918.759623
3768.625914,229.828649,-0.000000,9400.615463
3768.626229,229.828649,-74.020594,9622.677246
3768.626543,459.657299,-0.000000,9918.759623
3768.626858,0.000000,-0.000000,9548.656652
3768.627173,153.219100,-0.000000,9548.656652
3768.627488,229.828649,222.061783,9474.636058
3768.627802,306.438199,370.102971,9548.656652
3768.628117,229.828649,-0.000000,9178.553681
3768.628432,76.609550,296.082377,9104.533087
3768.628746,536.266849,296.082377,9918.759623
3768.629061,76.609550,296.082377,9770.718434
3768.629376,-229.828649,-0.000000,9474.636058
3768.629691,459.657299,222.061783,9696.697840
3768.630005,306.438199,222.061783,9474.636058
3768.630320,0.000000,444.123565,9474.636058
3768.630635,76.609550,370.102971,9696.697840
3768.630949,0.000000,148.041188,9770.718434
3768.631264,0.000000,-0.000000,9474.636058
3768.631579,0.000000,222.061783,9548.656652
3768.631894,0.000000,148.041188,9696.697840
3768.632208,153.219100,296.082377,9622.677246
3768.632523,229.828649,-0.000000,9622.677246
3768.632838,-689.485948,370.102971,9918.759623
3768.633152,76.609550,222.061783,9770.718434
3768.633467,0.000000,-74.020594,9622.677246
3768.633782,0.000000,222.061783,9252.574275
3768.634097,0.000000,-0.000000,9696.697840
3768.634411,0.000000,-0.000000,9696.697840
3768.634726,306.438199,-0.000000,9400.615463
3768.635041,153.219100,-0.000000,9622.677246
3768.635355,153.219100,-0.000000,9474.636058
3768.635670,229.828649,-0.000000,9696.697840
3768.635985,0.000000,-0.000000,9696.697840
3768.636300,0.000000,-148.041188,9918.759623
3768.636614,153.219100,-0.000000,9474.636058
3768.636929,153.219100,-0.000000,9252.574275
3768.637244,0.000000,-0.000000,9696.697840
3768.637558,76.609550,-0.000000,9622.677246
3768.637873,0.000000,-0.000000,9918.759623
3768.638188,76.609550,370.102971,9548.656652
3768.638503,229.828649,296.082377,9474.636058
3768.638817,153.219100,-0.000000,9622.677246
3768.639132,0.000000,518.144159,9326.594869
3768.639447,459.657299,-0.000000,9548.656652
3768.639761,76.609550,-0.000000,9622.677246
3768.640076,0.000000,-0.000000,9548.656652
3768.640391,-383.047749,-222.061783,9918.759623
3768.640706,153.219100,-0.000000,9548.656652
3768.641020,0.000000,222.061783,9696.697840
3768.641335,153.219100,222.061783,9622.677246
3768.641650,0.000000,222.061783,9548.656652
3768.641964,536.266849,222.061783,9474.636058
3768.642279,229.828649,296.082377,9770.718434
3768.642594,459.657299,296.082377,9474.636058
3768.642909,0.000000,370.102971,9696.697840
3768.643223,0.000000,222.061783,9770.718434
3768.643538,76.609550,-74.020594,9622.677246
3768.643853,0.000000,-0.000000,9474.636058
3768.644167,153.219100,-0.000000,9474.636058
3768.644482,0.000000,222.061783,9252.574275
3768.644797,153.219100,-74.020594,9548.656652
3768.645112,76.609550,-148.041188,9770.718434
3768.645426,0.000000,-0.000000,9844.739029
3768.645741,229.828649,-0.000000,9992.780217
3768.646056,306.438199,-0.000000,9918.759623
3768.646370,689.485948,148.041188,9918.759623
3768.646685,459.657299,444.123565,9696.697840
3768.647000,536.266849,370.102971,9770.718434
3768.647315,689.485948,444.123565,9474.636058
3768.647629,842.705048,814.226536,8882.471304
3768.647944,689.485948,592.164754,9178.553681
3768.648259,1072.533697,444.123565,9326.594869
3768.648573,919.314598,222.061783,9474.636058
3768.648888,995.924147,-0.000000,9474.636058
3768.649203,1072.533697,222.061783,9770.718434
3768.649517,153.219100,370.102971,9844.739029
3768.649832,459.657299,444.123565,9474.636058
3768.650147,536.266849,962.267725,9622.677246
3768.650462,995.924147,962.267725,9696.697840
3768.650776,1149.143247,1036.288319,9918.759623
3768.651091,1378.971896,814.226536,9992.780217
3768.651406,1608.800546,592.164754,9918.759623
3768.651720,1608.800546,1110.308913,9992.780217
3768.652035,2298.286494,1406.391290,9844.739029
3768.652350,2681.334243,1702.473667,9844.739029
3768.652665,3140.991542,2220.617826,9030.512492
3768.652979,3370.820191,2368.659014,8808.450710
3768.653294,3370.820191,2590.720797,8586.388927
3768.653609,3600.648841,2516.700203,8438.347739
3768.653923,3677.258390,1998.556043,9252.574275
3768.654238,3447.429741,2294.638420,8734.430116
3768.654553,3600.648841,2294.638420,8808.450710
3768.654868,3140.991542,2220.617826,8956.491898
3768.655182,3294.210641,2146.597232,9474.636058
3768.655497,2911.162892,2368.659014,9474.636058
3768.655812,2834.553343,2664.741391,9474.636058
3768.656126,2987.772442,3034.844362,9326.594869
3768.656441,2911.162892,3552.988522,9030.512492
3768.656756,3753.867940,3552.988522,9178.553681
3768.657071,2911.162892,3849.070898,9252.574275
3768.657385,2987.772442,3627.009116,9622.677246
3768.657700,2528.115143,3552.988522,9696.697840
3768.658015,2451.505594,3701.029710,10140.821405
3768.658329,2374.896044,3775.050304,10436.903782
3768.658644,1762.019645,3552.988522,10881.027347
3768.658959,1455.581446,3775.050304,10732.986159
3768.659274,1608.800546,3256.906145,10732.986159
3768.659588,1915.238745,3478.967927,10881.027347
3768.659903,1915.238745,3108.864956,10658.965565
3768.660218,1838.629195,3701.029710,10140.821405
3768.660532,2451.505594,3849.070898,10140.821405
3768.660847,2221.676944,4071.132681,9548.656652
3768.661162,3064.381992,4145.153275,9474.636058
3768.661477,2528.115143,3627.009116,10214.842000
3768.661791,2374.896044,3849.070898,9696.697840
3768.662106,1838.629195,3552.988522,9918.759623
3768.662421,1762.019645,3404.947333,10140.821405
3768.662735,1762.019645,2960.823768,10288.862594
3768.663050,1838.629195,2516.700203,10510.924376
3768.663365,1685.410096,2886.803174,10066.800811
3768.663680,1838.629195,3182.885551,10140.821405
3768.663994,1762.019645,3182.885551,9918.759623
3768.664309,1915.238745,2886.803174,9696.697840
3768.664624,2068.457845,2886.803174,9326.594869
3768.664938,1378.971896,3034.844362,9474.636058
3768.665253,1762.019645,2886.803174,9252.574275
3768.665568,1378.971896,2294.638420,9178.553681
3768.665883,1455.581446,1702.473667,9474.636058
3768.666197,1302.362347,1258.350101,9992.780217
3768.666512,1378.971896,962.267725,10436.903782
3768.666827,1149.143247,1332.370696,10140.821405
3768.667141,1149.143247,1554.432478,9844.739029
3768.667456,1685.410096,1332.370696,9992.780217
3768.667771,2068.457845,1554.432478,9178.553681
3768.668086,2221.676944,2146.597232,9030.512492
3768.668400,2451.505594,1850.514855,8512.368333
3768.668715,2987.772442,1924.535449,8364.327145
3768.669030,3294.210641,1554.432478,8364.327145
3768.669344,3140.991542,1406.391290,8586.388927
3768.669659,3064.381992,1406.391290,8438.347739
3768.669974,2987.772442,1110.308913,8734.430116
3768.670289,2604.724693,1258.350101,9178.553681
3768.670603,2451.505594,1036.288319,9400.615463
3768.670918,2374.896044,1184.329507,9326.594869
3768.671233,1838.629195,592.164754,9252.574275
3768.671547,1608.800546,148.041188,9622.677246
3768.671862,2068.457845,222.061783,10214.842000
3768.672177,2374.896044,296.082377,10584.944971
3768.672492,2451.505594,1184.329507,10140.821405
3768.672806,2911.162892,1850.514855,9844.739029
3768.673121,3907.087040,2294.638420,9326.594869
3768.673436,3907.087040,2590.720797,8660.409521
3768.673750,4596.572988,2664.741391,8438.347739
3768.674065,4060.306139,2368.659014,7920.203579
3768.674380,3447.429741,2294.638420,7994.224174
3768.674695,3140.991542,1406.391290,8290.306550
3768.675009,1685.410096,962.267725,8882.471304
3768.675324,1149.143247,222.061783,10214.842000
3768.675639,383.047749,-592.164754,11103.089130
3768.675953,-306.438199,-518.144159,12139.377449
3768.676268,-459.657299,-0.000000,12509.480420
3768.676583,76.609550,1036.288319,12287.418637
3768.676898,1532.190996,1702.473667,10881.027347
3768.677212,2681.334243,2886.803174,10288.862594
3768.677527,4213.525239,3997.112087,9178.553681
3768.677842,4443.353888,4959.379811,7624.121203
3768.678156,4903.011187,4885.359217,7105.977043
3768.678471,4903.011187,4367.215058,7105.977043
3768.678786,4443.353888,3330.926739,7476.080014
3768.679101,3294.210641,2072.576638,9178.553681
3768.679415,1532.190996,1184.329507,10214.842000
3768.679730,0.000000,518.144159,11695.253884
3768.680045,-1225.752797,148.041188,12361.439231
3768.680359,-1532.190996,370.102971,12435.459826
3768.680674,-842.705048,1332.370696,11843.295072
3768.680989,0.000000,2886.803174,10066.800811
3768.681304,1685.410096,3849.070898,8660.409521
3768.681618,3370.820191,4589.276840,7920.203579
3768.681933,4213.525239,4737.318029,7476.080014
3768.682248,4903.011187,4737.318029,7920.203579
3768.682562,4749.792088,4589.276840,8586.388927
3768.682877,3753.867940,3997.112087,9770.718434
3768.683192,2911.162892,3701.029710,10732.986159
3768.683507,1532.190996,3034.844362,11325.150913
3768.683821,383.047749,3108.864956,10881.027347
3768.684136,0.000000,2886.803174,10881.027347
3768.684451,689.485948,2072.576638,10584.944971
3768.684765,1072.533697,1628.453072,10584.944971
3768.685080,1838.629195,2294.638420,9326.594869
3768.685395,2298.286494,2442.679609,8364.327145
3768.685710,2451.505594,3108.864956,7920.203579
3768.686024,3370.820191,3256.906145,8438.347739
3768.686339,3294.210641,3775.050304,8142.265362
3768.686654,2911.162892,3775.050304,7920.203579
3768.686968,2528.115143,3330.926739,8882.471304
3768.687283,2145.067394,2294.638420,10584.944971
3768.687598,1378.971896,1776.494261,11177.109724
3768.687913,153.219100,1184.329507,11547.212695
3768.688227,0.000000,1480.411884,11991.336260
3768.688542,153.219100,2294.638420,11029.068536
3768.688857,459.657299,3034.844362,10288.862594
3768.689171,1685.410096,2960.823768,9326.594869
3768.689486,2145.067394,3034.844362,8438.347739
3768.689801,2757.943793,2294.638420,8290.306550
3768.690116,2451.505594,1554.432478,8808.450710
3768.690430,1685.410096,296.082377,9696.697840
3768.690745,1149.143247,-296.082377,10288.862594
3768.691060,919.314598,-74.020594,10955.047942
3768.691374,153.219100,370.102971,10436.903782
3768.691689,0.000000,1110.308913,10510.924376
3768.692004,229.828649,1258.350101,10214.842000
3768.692319,842.705048,962.267725,10288.862594
3768.692633,1072.533697,962.267725,9474.636058
3768.692948,1608.800546,666.185348,8586.388927
3768.693263,1838.629195,888.247130,8808.450710
3768.693577,2298.286494,592.164754,9400.615463
3768.693892,1838.629195,1184.329507,8586.388927
3768.694207,1532.190996,518.144159,8882.471304
3768.694521,1149.143247,-370.102971,9622.677246
3768.694836,153.219100,-666.185348,10214.842000
3768.695151,-766.095498,-1406.391290,9918.759623
3768.695465,-1225.752797,-1184.329507,10732.986159
3768.695780,-1685.410096,-1036.288319,10658.965565
3768.696094,-2068.457845,-1036.288319,10214.842000
3768.696409,-1455.581446,-962.267725,9770.718434
3768.696724,-459.657299,-814.226536,9992.780217
3768.697038,-76.609550,-444.123565,9844.739029
3768.697353,842.705048,-74.020594,8956.491898
3768.697667,1149.143247,-148.041188,8956.491898
3768.697982,1302.362347,-148.041188,9326.594869
3768.698297,919.314598,-814.226536,9104.533087
3768.698611,612.876398,-962.267725,8068.244768
3768.698926,153.219100,-1702.473667,9252.574275
3768.699240,76.609550,-1332.370696,9326.594869
3768.699555,-459.657299,-1406.391290,9770.718434
3768.699870,-1225.752797,-2220.617826,9918.759623
3768.700184,-919.314598,-1258.350101,9474.636058
3768.700499,-612.876398,-962.267725,9104.533087
3768.700813,-153.219100,-1110.308913,8586.388927
3768.701128,0.000000,-1258.350101,8882.471304
3768.701443,229.828649,-1628.453072,9252.574275
3768.701757,919.314598,-1258.350101,8734.430116
3768.702072,306.438199,-814.226536,9104.533087
3768.702386,689.485948,-666.185348,9178.553681
3768.702701,842.705048,296.082377,9178.553681
3768.703016,459.657299,370.102971,9474.636058
3768.703330,383.047749,370.102971,9770.718434
3768.703645,-229.828649,-0.000000,9548.656652
3768.703959,-995.924147,-592.164754,9474.636058
3768.704274,-689.485948,-370.102971,9918.759623
3768.704589,-459.657299,-1110.308913,8956.491898
3768.704903,-153.219100,-666.185348,9474.636058
3768.705218,0.000000,-518.144159,8882.471304
3768.705532,0.000000,-666.185348,9104.533087
3768.705847,0.000000,-740.205942,9622.677246
3768.706162,-153.219100,-370.102971,9918.759623
3768.706476,-766.095498,-148.041188,10362.883188
3768.706791,0.000000,222.061783,10140.821405
3768.707105,153.219100,1258.350101,9474.636058
3768.707420,0.000000,1184.329507,8956.491898
3768.707734,306.438199,1036.288319,9400.615463
3768.708049,842.705048,1480.411884,9104.533087
3768.708364,766.095498,1480.411884,9474.636058
3768.708678,689.485948,1258.350101,9400.615463
3768.708993,383.047749,666.185348,9400.615463
3768.709307,459.657299,148.041188,9696.697840
3768.709622,306.438199,518.144159,9326.594869
3768.709937,229.828649,-148.041188,9474.636058
3768.710251,76.609550,-0.000000,10362.883188
3768.710566,-383.047749,222.061783,10288.862594
3768.710880,-383.047749,888.247130,10066.800811
3768.711195,-612.876398,814.226536,10214.842000
3768.711510,-459.657299,962.267725,10436.903782
3768.711824,76.609550,1480.411884,9696.697840
3768.712139,1149.143247,1554.432478,9326.594869
3768.712453,1378.971896,1184.329507,9178.553681
3768.712768,1302.362347,1332.370696,9474.636058
3768.713083,1302.362347,1480.411884,9770.718434
3768.713397,689.485948,962.267725,9844.739029
3768.713712,766.095498,1110.308913,10436.903782
3768.714026,0.000000,1184.329507,10362.883188
3768.714341,-536.266849,814.226536,9622.677246
3768.714656,-536.266849,222.061783,10214.842000
3768.714970,-689.485948,222.061783,10584.944971
3768.715285,-536.266849,296.082377,10436.903782
3768.715599,-306.438199,888.247130,10140.821405
3768.715914,0.000000,814.226536,9474.636058
3768.716229,459.657299,1184.329507,9326.594869
3768.716543,1149.143247,1036.288319,9104.533087
3768.716858,1608.800546,1406.391290,9030.512492
3768.717172,919.314598,592.164754,9770.718434
3768.717487,153.219100,1258.350101,10066.800811
3768.717802,-153.219100,814.226536,9844.739029
3768.718116,0.000000,518.144159,9992.780217
3768.718431,-766.095498,814.226536,9844.739029
3768.718745,-689.485948,666.185348,9030.512492
3768.719060,-536.266849,-296.082377,9474.636058
3768.719375,-306.438199,-666.185348,9696.697840
3768.719689,-919.314598,-296.082377,10066.800811
3768.720004,-459.657299,-296.082377,9474.636058
3768.720318,-383.047749,-296.082377,9622.677246
3768.720633,0.000000,74.020594,9030.512492
3768.720948,153.219100,-0.000000,8586.388927
3768.721262,919.314598,-148.041188,9326.594869
3768.721577,536.266849,-0.000000,9326.594869
3768.721891,76.609550,222.061783,9474.636058
3768.722206,-229.828649,-0.000000,9918.759623
3768.722521,0.000000,296.082377,10066.800811
3768.722835,76.609550,-148.041188,9474.636058
3768.723150,-229.828649,-74.020594,9326.594869
3768.723464,-459.657299,-962.267725,9474.636058
3768.723779,306.438199,-962.267725,9770.718434
3768.724094,-229.828649,-962.267725,9696.697840
3768.724408,0.000000,-1184.329507,10140.821405
3768.724723,-459.657299,-1184.329507,10510.924376
3768.725037,0.000000,-592.164754,10066.800811
3768.725352,0.000000,-370.102971,9622.677246
3768.725667,0.000000,-666.185348,9696.697840
3768.725981,842.705048,-666.185348,9918.759623
3768.726296,306.438199,-518.144159,9696.697840
3768.726610,0.000000,-74.020594,9548.656652
3768.726925,383.047749,-518.144159,9474.636058
3768.727240,995.924147,-370.102971,9326.594869
3768.727554,1149.143247,-74.020594,9178.553681
3768.727869,1225.752797,-370.102971,9030.512492
3768.728183,383.047749,-1110.308913,9400.615463
3768.728498,76.609550,-1036.288319,9622.677246
3768.728813,-612.876398,-1110.308913,10140.821405
3768.729127,-459.657299,-1628.453072,10288.862594
3768.729442,-766.095498,-814.226536,10140.821405
3768.729756,-536.266849,-296.082377,9326.594869
3768.730071,-306.438199,-296.082377,9178.553681
3768.730386,153.219100,-148.041188,9252.574275
3768.730700,229.828649,-370.102971,9252.574275
3768.731015,536.266849,-0.000000,8586.388927
3768.731329,995.924147,-0.000000,9104.533087
3768.731644,995.924147,518.144159,8734.430116
3768.731959,842.705048,592.164754,8734.430116
3768.732273,229.828649,444.123565,8512.368333
3768.732588,229.828649,-0.000000,8808.450710
3768.732902,0.000000,-0.000000,9474.636058
3768.733217,-383.047749,-370.102971,9918.759623
3768.733532,-383.047749,-296.082377,9992.780217
3768.733846,-536.266849,370.102971,9474.636058
3768.734161,-153.219100,518.144159,9252.574275
3768.734475,0.000000,444.123565,9178.553681
3768.734790,306.438199,592.164754,9474.636058
3768.735105,536.266849,888.247130,9474.636058
3768.735419,689.485948,592.164754,9400.615463
3768.735734,1072.533697,740.205942,9548.656652
3768.736048,459.657299,1554.432478,9696.697840
3768.736363,306.438199,1924.535449,9918.759623
3768.736678,0.000000,1480.411884,10436.903782
3768.736992,-459.657299,1332.370696,9770.718434
3768.737307,76.609550,1110.308913,10140.821405
3768.737621,383.047749,1554.432478,10362.883188
3768.737936,0.000000,1332.370696,9992.780217
3768.738250,153.219100,1332.370696,10658.965565
3768.738565,-612.876398,1628.453072,9548.656652
3768.738880,229.828649,1406.391290,9918.759623
3768.739194,536.266849,740.205942,9548.656652
3768.739509,153.219100,1036.288319,10288.862594
3768.739823,153.219100,1332.370696,10510.924376
3768.740138,-306.438199,962.267725,10288.862594
3768.740453,-383.047749,518.144159,10584.944971
3768.740767,0.000000,1110.308913,10362.883188
3768.741082,153.219100,1480.411884,9992.780217
3768.741396,612.876398,1406.391290,9918.759623
3768.741711,536.266849,1036.288319,9770.718434
3768.742026,459.657299,1702.473667,9622.677246
3768.742340,306.438199,1184.329507,9548.656652
3768.742655,459.657299,814.226536,9474.636058
3768.742969,0.000000,296.082377,9400.615463
3768.743284,153.219100,444.123565,9030.512492
3768.743599,76.609550,-74.020594,9326.594869
3768.743913,0.000000,-370.102971,10140.821405
3768.744228,-919.314598,-592.164754,10436.903782
3768.744542,-689.485948,-518.144159,10214.842000
3768.744857,-766.095498,-740.205942,10584.944971
3768.745172,-383.047749,-222.061783,9474.636058
3768.745486,383.047749,-0.000000,9844.739029
3768.745801,536.266849,222.061783,9030.512492
3768.746115,689.485948,222.061783,8660.409521
3768.746430,1225.752797,222.061783,8734.430116
3768.746745,1378.971896,-74.020594,9400.615463
3768.747059,995.924147,-0.000000,8660.409521
3768.747374,919.314598,-222.061783,8734.430116
3768.747688,306.438199,-0.000000,8660.409521
3768.748003,306.438199,-444.123565,9104.533087
3768.748318,153.219100,-1258.350101,9622.677246
3768.748632,-459.657299,-1480.411884,10510.924376
3768.748947,-995.924147,-1480.411884,10362.883188
3768.749261,-612.876398,-1850.514855,9992.780217
3768.749576,-689.485948,-1184.329507,9622.677246
3768.749891,76.609550,-296.082377,9104.533087
3768.750205,536.266849,-74.020594,9104.533087
3768.750520,1072.533697,-74.020594,8512.368333
3768.750834,919.314598,-296.082377,8956.491898
3768.751149,919.314598,-370.102971,8882.471304
3768.751464,919.314598,-666.185348,8882.471304
3768.751778,842.705048,-222.061783,9178.553681
3768.752093,0.000000,-296.082377,9474.636058
3768.752407,-689.485948,-518.144159,9400.615463
3768.752722,-459.657299,-1258.350101,9918.759623
3768.753037,-842.705048,-1406.391290,9918.759623
3768.753351,-995.924147,-1332.370696,9696.697840
3768.753666,-536.266849,-1258.350101,10140.821405
3768.753980,76.609550,-962.267725,10140.821405
3768.754295,0.000000,-296.082377,9400.615463
3768.754610,0.000000,-222.061783,9178.553681
3768.754924,383.047749,-370.102971,9622.677246
3768.755239,459.657299,-74.020594,9548.656652
3768.755553,153.219100,-0.000000,9252.574275
3768.755868,0.000000,-222.061783,9400.615463
3768.756183,536.266849,-0.000000,10066.800811
3768.756497,0.000000,666.185348,9474.636058
3768.756812,-306.438199,-0.000000,9104.533087
3768.757126,-383.047749,-74.020594,9548.656652
3768.757441,-459.657299,-74.020594,10732.986159
3768.757756,-766.095498,-0.000000,10066.800811
3768.758070,-459.657299,-74.020594,10214.842000
3768.758385,-306.438199,-0.000000,10436.903782
3768.758699,-689.485948,370.102971,9622.677246
3768.759014,153.219100,962.267725,9178.553681
3768.759329,612.876398,1184.329507,9548.656652
3768.759643,536.266849,1110.308913,10066.800811
3768.759958,612.876398,1480.411884,9474.636058
3768.760272,76.609550,1184.329507,9622.677246
3768.760587,153.219100,888.247130,10140.821405
3768.760902,76.609550,1332.370696,9770.718434
3768.761216,76.609550,1258.350101,9326.594869
3768.761531,383.047749,1036.288319,9104.533087
3768.761845,76.609550,740.205942,9548.656652
3768.762160,0.000000,592.164754,9696.697840
3768.762475,-229.828649,296.082377,10214.842000
3768.762789,-306.438199,370.102971,9918.759623
3768.763104,0.000000,518.144159,9770.718434
3768.763418,-76.609550,1036.288319,9474.636058
3768.763733,459.657299,1036.288319,9548.656652
3768.764048,459.657299,1184.329507,9326.594869
3768.764362,919.314598,814.226536,9474.636058
3768.764677,919.314598,1406.391290,9252.574275
3768.764991,919.314598,1184.329507,9474.636058
3768.765306,1149.143247,1036.288319,8956.491898
3768.765621,995.924147,1258.350101,8512.368333
3768.765935,919.314598,888.247130,9252.574275
3768.766250,612.876398,370.102971,9104.533087
3768.766564,383.047749,148.041188,9474.636058
3768.766879,0.000000,-148.041188,10066.800811
3768.767194,0.000000,-814.226536,10510.924376
3768.767508,-306.438199,-370.102971,10510.924376
3768.767823,-536.266849,370.102971,9770.718434
3768.768137,306.438199,370.102971,10214.842000
3768.768452,459.657299,888.247130,9770.718434
3768.768766,1072.533697,444.123565,9992.780217
3768.769081,995.924147,666.185348,9622.677246
3768.769396,995.924147,962.267725,9622.677246
3768.769710,689.485948,1406.391290,8956.491898
3768.770025,766.095498,1184.329507,9326.594869
3768.770339,536.266849,1036.288319,9326.594869
3768.770654,459.657299,222.061783,9252.574275
3768.770969,0.000000,-518.144159,9474.636058
3768.771283,-689.485948,-222.061783,10214.842000
3768.771598,-459.657299,-1036.288319,10881.027347
3768.771912,-1149.143247,-370.102971,10955.047942
3768.772227,-1608.800546,-0.000000,10362.883188
3768.772542,-536.266849,-0.000000,9844.739029
3768.772856,-229.828649,-222.061783,9548.656652
3768.773171,153.219100,-370.102971,10066.800811
3768.773485,76.609550,222.061783,9918.759623
3768.773800,153.219100,222.061783,8808.450710
3768.774115,766.095498,592.164754,8660.409521
3768.774429,842.705048,296.082377,8808.450710
3768.774744,459.657299,518.144159,8438.347739
3768.775058,612.876398,-370.102971,8586.388927
3768.775373,153.219100,-814.226536,9252.574275
3768.775688,-689.485948,-814.226536,9770.718434
3768.776002,-1608.800546,-1850.514855,9770.718434
3768.776317,-1302.362347,-1998.556043,9992.780217
3768.776631,-1608.800546,-1924.535449,10732.986159
3768.776946,-1378.971896,-1480.411884,9770.718434
3768.777261,-766.095498,-1406.391290,9548.656652
3768.777575,0.000000,-962.267725,10214.842000
3768.777890,0.000000,-222.061783,9992.780217
3768.778204,229.828649,-222.061783,9178.553681
3768.778519,1149.143247,-0.000000,8882.471304
3768.778834,842.705048,296.082377,9104.533087
3768.779148,1608.800546,444.123565,9104.533087
3768.779463,919.314598,370.102971,8808.450710
3768.779777,612.876398,-370.102971,8660.409521
3768.780092,0.000000,-740.205942,9326.594869
3768.780407,-459.657299,-888.247130,9770.718434
3768.780721,-766.095498,-1628.453072,10584.944971
3768.781036,-842.705048,-1110.308913,10288.862594
3768.781350,-1072.533697,-888.247130,9548.656652
3768.781665,-612.876398,-814.226536,9474.636058
3768.781980,0.000000,-666.185348,9474.636058
3768.782294,459.657299,-74.020594,9622.677246
3768.782609,229.828649,222.061783,9474.636058
3768.782923,766.095498,740.205942,9178.553681
3768.783238,1072.533697,1036.288319,8808.450710
3768.783553,1302.362347,1406.391290,8142.265362
3768.783867,2298.286494,1776.494261,7698.141797
3768.784182,1302.362347,518.144159,9104.533087
3768.784496,459.657299,-0.000000,9622.677246
3768.784811,-153.219100,-0.000000,9770.718434
3768.785126,-536.266849,-74.020594,10362.883188
3768.785440,-612.876398,-74.020594,10436.903782
3768.785755,-689.485948,444.123565,10066.800811
3768.786069,-689.485948,370.102971,9548.656652
3768.786384,-306.438199,148.041188,9844.739029
3768.786699,383.047749,444.123565,10214.842000
3768.787013,0.000000,1036.288319,9326.594869
3768.787328,383.047749,888.247130,9474.636058
3768.787642,612.876398,1332.370696,9178.553681
3768.787957,1072.533697,1406.391290,9030.512492
3768.788272,1532.190996,1628.453072,8808.450710
3768.788586,1149.143247,1258.350101,9326.594869
3768.788901,612.876398,962.267725,9844.739029
3768.789215,0.000000,962.267725,9918.759623
3768.789530,-689.485948,814.226536,10436.903782
3768.789845,-459.657299,148.041188,10436.903782
3768.790159,-536.266849,-0.000000,11103.089130
3768.790474,-1072.533697,222.061783,10510.924376
3768.790788,-383.047749,-0.000000,10288.862594
3768.791103,0.000000,666.185348,10436.903782
3768.791418,0.000000,888.247130,10955.047942
3768.791732,0.000000,1036.288319,10362.883188
3768.792047,612.876398,1110.308913,9622.677246
3768.792361,1072.533697,1702.473667,9326.594869
3768.792676,1378.971896,1702.473667,9030.512492
3768.792991,1225.752797,962.267725,9030.512492
3768.793305,1149.143247,888.247130,9474.636058
3768.793620,76.609550,518.144159,9400.615463
3768.793934,-306.438199,-0.000000,10066.800811
3768.794249,-306.438199,-222.061783,9770.718434
3768.794564,-919.314598,-148.041188,10214.842000
3768.794879,-842.705048,-296.082377,9548.656652
3768.795193,-842.705048,-592.164754,9992.780217
3768.795508,-306.438199,-518.144159,9992.780217
3768.795823,-842.705048,-592.164754,10362.883188
3768.796137,-229.828649,370.102971,10140.821405
3768.796452,0.000000,592.164754,9992.780217
3768.796766,536.266849,814.226536,9474.636058
3768.797081,919.314598,1184.329507,9030.512492
3768.797396,1838.629195,1480.411884,8808.450710
3768.797710,1149.143247,740.205942,8364.327145
3768.798025,612.876398,148.041188,9252.574275
3768.798340,153.219100,-222.061783,9326.594869
3768.798654,153.219100,-666.185348,9252.574275
3768.798969,153.219100,-962.267725,9696.697840
3768.799283,-383.047749,-1184.329507,9844.739029
3768.799598,-536.266849,-1036.288319,9474.636058
3768.799913,0.000000,-1998.556043,9252.574275
3768.800227,-612.876398,-1628.453072,9844.739029
3768.800542,-612.876398,-1480.411884,9992.780217
3768.800857,306.438199,-814.226536,9696.697840
3768.801171,459.657299,-444.123565,9326.594869
3768.801486,1149.143247,-0.000000,9030.512492
3768.801800,1072.533697,148.041188,8512.368333
3768.802115,842.705048,-0.000000,9326.594869
3768.802430,1149.143247,222.061783,8956.491898
3768.802744,842.705048,444.123565,9104.533087
3768.803059,536.266849,148.041188,9104.533087
3768.803374,689.485948,-296.082377,9252.574275
3768.803688,0.000000,-518.144159,10214.842000
3768.804003,-766.095498,-444.123565,9622.677246
3768.804317,-919.314598,-1258.350101,9696.697840
3768.804632,-766.095498,-1110.308913,10066.800811
3768.804947,-1149.143247,-1036.288319,10214.842000
3768.805261,-383.047749,-444.123565,10288.862594
3768.805576,-383.047749,-222.061783,9918.759623
3768.805891,0.000000,-0.000000,9696.697840
3768.806205,306.438199,962.267725,9104.533087
3768.806520,689.485948,1036.288319,8142.265362
3768.806834,1072.533697,962.267725,9104.533087
3768.807149,995.924147,814.226536,9178.553681
3768.807464,229.828649,814.226536,9252.574275
3768.807778,229.828649,-0.000000,9696.697840
3768.808093,-306.438199,666.185348,9474.636058
3768.808408,-766.095498,444.123565,9400.615463
3768.808722,-842.705048,-0.000000,9474.636058
3768.809037,-1072.533697,-518.144159,10436.903782
3768.809351,-1225.752797,-518.144159,10658.965565
3768.809666,-995.924147,-740.205942,10584.944971
3768.809981,-919.314598,-370.102971,10066.800811
3768.810295,-459.657299,666.185348,9992.780217
3768.810610,0.000000,1628.453072,8956.491898
3768.810925,766.095498,1110.308913,9104.533087
3768.811239,1225.752797,1036.288319,8956.491898
3768.811554,1149.143247,1702.473667,9400.615463
3768.811868,766.095498,1258.350101,9104.533087
3768.812183,459.657299,444.123565,9918.759623
3768.812498,459.657299,222.061783,9548.656652
3768.812812,76.609550,444.123565,9474.636058
3768.813127,-229.828649,-74.020594,10214.842000
3768.813442,-536.266849,-0.000000,10214.842000
3768.813756,-612.876398,-0.000000,10807.006753
3768.814071,-766.095498,-296.082377,10584.944971
3768.814385,-229.828649,-0.000000,10436.903782
3768.814700,76.609550,518.144159,9992.780217
3768.815015,766.095498,962.267725,9104.533087
3768.815329,1149.143247,814.226536,8956.491898
3768.815644,2298.286494,296.082377,8956.491898
3768.815959,1532.190996,888.247130,9474.636058
3768.816273,1149.143247,962.267725,9326.594869
3768.816588,1072.533697,962.267725,9474.636058
3768.816902,766.095498,814.226536,9548.656652
3768.817217,0.000000,444.123565,9474.636058
3768.817532,229.828649,148.041188,9474.636058
3768.817846,76.609550,-296.082377,9474.636058
3768.818161,-153.219100,-740.205942,9918.759623
3768.818476,-306.438199,-666.185348,9918.759623
3768.818790,153.219100,-592.164754,9844.739029
3768.819105,-306.438199,222.061783,9770.718434
3768.819419,76.609550,222.061783,9326.594869
3768.819734,153.219100,370.102971,9178.553681
3768.820049,919.314598,296.082377,8512.368333
3768.820363,995.924147,222.061783,9252.574275
3768.820678,766.095498,666.185348,8956.491898
3768.820993,459.657299,222.061783,9252.574275
3768.821307,612.876398,-0.000000,9326.594869
3768.821622,383.047749,-0.000000,9548.656652
3768.821936,383.047749,592.164754,8808.450710
3768.822251,0.000000,-0.000000,9622.677246
3768.822566,0.000000,-74.020594,9696.697840
3768.822880,-536.266849,-370.102971,9770.718434
3768.823195,-459.657299,-370.102971,9992.780217
3768.823510,-153.219100,-962.267725,10436.903782
3768.823824,-536.266849,-148.041188,9326.594869
3768.824139,-383.047749,444.123565,9326.594869
3768.824453,229.828649,370.102971,9696.697840
3768.824768,306.438199,-0.000000,9844.739029
3768.825083,306.438199,592.164754,9770.718434
3768.825397,0.000000,-74.020594,9992.780217
3768.825712,-229.828649,592.164754,9622.677246
3768.826027,0.000000,444.123565,9474.636058
3768.826341,0.000000,518.144159,8956.491898
3768.826656,-459.657299,-74.020594,9844.739029
3768.826971,0.000000,-222.061783,9474.636058
3768.827285,-536.266849,-814.226536,9770.718434
3768.827600,-766.095498,-592.164754,10066.800811
3768.827914,-689.485948,-370.102971,10288.862594
3768.828229,0.000000,-148.041188,9770.718434
3768.828544,-459.657299,444.123565,10140.821405
3768.828858,-459.657299,74.020594,9474.636058
3768.829173,76.609550,-296.082377,9696.697840
3768.829488,0.000000,148.041188,10288.862594
3768.829802,306.438199,592.164754,10288.862594
3768.830117,76.609550,444.123565,9252.574275
3768.830431,153.219100,444.123565,9474.636058
3768.830746,306.438199,962.267725,8882.471304
3768.831061,459.657299,518.144159,8734.430116
3768.831375,459.657299,296.082377,9474.636058
3768.831690,-383.047749,-444.123565,9992.780217
3768.832005,-766.095498,-592.164754,9992.780217
3768.832319,-919.314598,-814.226536,10140.821405
3768.832634,-842.705048,-444.123565,10362.883188
3768.832948,-536.266849,-370.102971,10584.944971
3768.833263,0.000000,-0.000000,9696.697840
3768.833578,229.828649,-0.000000,9548.656652
3768.833892,612.876398,444.123565,9400.615463
3768.834207,919.314598,592.164754,9400.615463
3768.834522,1225.752797,-0.000000,8438.347739
3768.834836,1532.190996,518.144159,9030.512492
3768.835151,1072.533697,888.247130,8808.450710
3768.835465,995.924147,740.205942,8068.244768
3768.835780,995.924147,-0.000000,9104.533087
3768.836095,229.828649,-444.123565,9918.759623
3768.836409,-459.657299,-518.144159,10288.862594
3768.836724,-306.438199,-592.164754,9918.759623
3768.837039,-306.438199,-444.123565,10584.944971
3768.837353,-459.657299,-0.000000,10362.883188
3768.837668,0.000000,-222.061783,9252.574275
3768.837982,536.266849,-0.000000,9474.636058
3768.838297,76.609550,-222.061783,10066.800811
3768.838612,383.047749,296.082377,9474.636058
3768.838926,536.266849,814.226536,9326.594869
3768.839241,766.095498,666.185348,9178.553681
3768.839556,1072.533697,740.205942,9178.553681
3768.839870,689.485948,518.144159,8586.388927
3768.840185,842.705048,222.061783,8512.368333
3768.840499,383.047749,-444.123565,9992.780217
3768.840814,0.000000,-518.144159,9992.780217
3768.841129,-919.314598,-888.247130,10288.862594
3768.841443,-919.314598,-222.061783,9474.636058
3768.841758,-842.705048,-296.082377,10066.800811
3768.842073,-306.438199,-296.082377,9844.739029
3768.842387,-459.657299,148.041188,9548.656652
3768.842702,153.219100,296.082377,9474.636058
3768.843016,459.657299,740.205942,9622.677246
3768.843331,76.609550,1110.308913,8882.471304
3768.843646,842.705048,370.102971,9992.780217
3768.843960,306.438199,1036.288319,9844.739029
3768.844275,76.609550,1036.288319,9178.553681
3768.844590,153.219100,666.185348,9844.739029
3768.844904,0.000000,962.267725,9770.718434
3768.845219,0.000000,-148.041188,9992.780217
3768.845533,-536.266849,-222.061783,9918.759623
3768.845848,-612.876398,-518.144159,10066.800811
3768.846163,-612.876398,-148.041188,9844.739029
3768.846477,-842.705048,-0.000000,9400.615463
3768.846792,-612.876398,-0.000000,9474.636058
3768.847107,0.000000,-0.000000,9844.739029
3768.847421,-306.438199,-0.000000,9474.636058
3768.847736,0.000000,-370.102971,9844.739029
3768.848050,153.219100,-222.061783,10288.862594
3768.848365,0.000000,444.123565,10288.862594
3768.848680,0.000000,740.205942,9326.594869
3768.848994,459.657299,962.267725,9548.656652
3768.849309,459.657299,888.247130,9400.615463
3768.849624,612.876398,370.102971,9622.677246
3768.849938,383.047749,296.082377,9696.697840
3768.850253,229.828649,-296.082377,9548.656652
3768.850567,459.657299,-0.000000,9400.615463
3768.850882,153.219100,444.123565,9326.594869
3768.851197,76.609550,-0.000000,9548.656652
3768.851511,0.000000,-888.247130,9770.718434
3768.851826,0.000000,-148.041188,9548.656652
3768.852141,-229.828649,-296.082377,9474.636058
3768.852455,0.000000,-148.041188,9844.739029
3768.852770,612.876398,-148.041188,9918.759623
3768.853084,536.266849,444.123565,9696.697840
3768.853399,612.876398,518.144159,9474.636058
3768.853714,842.705048,370.102971,8660.409521
3768.854028,919.314598,148.041188,8734.430116
3768.854343,919.314598,296.082377,9474.636058
3768.854658,842.705048,592.164754,9622.677246
3768.854972,306.438199,888.247130,8882.471304
3768.855287,536.266849,666.185348,9104.533087
3768.855601,306.438199,370.102971,8956.491898
3768.855916,383.047749,-592.164754,9548.656652
3768.856231,0.000000,-888.247130,9696.697840
3768.856545,-919.314598,-666.185348,10658.965565
3768.856860,-1072.533697,-740.205942,10658.965565
3768.857175,-842.705048,-148.041188,10362.883188
3768.857489,-612.876398,148.041188,9992.780217
3768.857804,-153.219100,148.041188,9548.656652
3768.858119,536.266849,-0.000000,9030.512492
3768.858433,842.705048,370.102971,9104.533087
3768.858748,766.095498,370.102971,9474.636058
3768.859062,76.609550,-0.000000,9474.636058
3768.859377,153.219100,222.061783,9326.594869
3768.859692,383.047749,-148.041188,9326.594869
3768.860006,76.609550,-0.000000,9400.615463
3768.860321,0.000000,-74.020594,9326.594869
3768.860636,-459.657299,-592.164754,9844.739029
3768.860950,-842.705048,-518.144159,10066.800811
3768.861265,-1072.533697,-666.185348,10362.883188
3768.861579,-842.705048,-666.185348,10436.903782
3768.861894,-306.438199,-0.000000,10362.883188
3768.862209,-229.828649,222.061783,9474.636058
3768.862523,306.438199,444.123565,8882.471304
3768.862838,919.314598,740.205942,8734.430116
3768.863153,1149.143247,888.247130,9104.533087
3768.863467,1149.143247,666.185348,9252.574275
3768.863782,766.095498,296.082377,8882.471304
3768.864096,689.485948,444.123565,9104.533087
3768.864411,0.000000,370.102971,8808.450710
3768.864726,-153.219100,-0.000000,9326.594869
3768.865040,-383.047749,-444.123565,9918.759623
3768.865355,-612.876398,-666.185348,10288.862594
3768.865670,-536.266849,-518.144159,10214.842000
3768.865984,-766.095498,-74.020594,10807.006753
3768.866299,0.000000,370.102971,9992.780217
3768.866613,153.219100,814.226536,9622.677246
3768.866928,766.095498,1110.308913,9400.615463
3768.867243,1072.533697,962.267725,9400.615463
3768.867557,1149.143247,1258.350101,9326.594869
3768.867872,1455.581446,1406.391290,9326.594869
3768.868187,1149.143247,1628.453072,9326.594869
3768.868501,919.314598,888.247130,9178.553681
3768.868816,766.095498,518.144159,9400.615463
3768.869130,76.609550,222.061783,9252.574275
3768.869445,153.219100,-518.144159,9918.759623
3768.869760,-459.657299,-518.144159,10584.944971
3768.870074,-1149.143247,-518.144159,10066.800811
3768.870389,-919.314598,-296.082377,9918.759623
3768.870704,-459.657299,-148.041188,10362.883188
3768.871018,229.828649,592.164754,9918.759623
3768.871333,536.266849,666.185348,9252.574275
3768.871647,1149.143247,888.247130,9178.553681
3768.871962,995.924147,814.226536,9548.656652
3768.872277,612.876398,592.164754,9548.656652
3768.872591,612.876398,370.102971,9770.718434
3768.872906,689.485948,370.102971,9548.656652
3768.873221,459.657299,740.205942,9178.553681
3768.873535,0.000000,666.185348,9030.512492
3768.873850,0.000000,518.144159,9104.533087
3768.874164,-459.657299,-444.123565,9992.780217
3768.874479,-766.095498,-370.102971,10140.821405
3768.874794,-919.314598,-740.205942,10510.924376
3768.875108,-842.705048,-740.205942,10436.903782
3768.875423,-459.657299,-0.000000,9844.739029
3768.875738,-383.047749,592.164754,9622.677246
3768.876052,0.000000,444.123565,9474.636058
3768.876367,76.609550,518.144159,9474.636058
3768.876681,536.266849,740.205942,9474.636058
3768.876996,612.876398,1110.308913,8956.491898
3768.877311,689.485948,962.267725,9030.512492
3768.877625,229.828649,1258.350101,8956.491898
3768.877940,536.266849,814.226536,9474.636058
3768.878255,153.219100,-0.000000,8956.491898
3768.878569,-536.266849,-592.164754,10140.821405
3768.878884,-766.095498,-666.185348,9992.780217
3768.879198,-1302.362347,-740.205942,10066.800811
3768.879513,-919.314598,-222.061783,10510.924376
3768.879828,-842.705048,-518.144159,10288.862594
3768.880142,-612.876398,-296.082377,9770.718434
3768.880457,0.000000,-296.082377,9992.780217
3768.880772,0.000000,222.061783,9622.677246
3768.881086,612.876398,518.144159,9326.594869
3768.881401,995.924147,370.102971,9548.656652
3768.881715,1225.752797,814.226536,9326.594869
3768.882030,995.924147,592.164754,8956.491898
3768.882345,1225.752797,814.226536,8734.430116
3768.882659,1149.143247,-0.000000,8956.491898
3768.882974,919.314598,-370.102971,9252.574275
3768.883289,383.047749,-814.226536,9474.636058
3768.883603,-766.095498,-1406.391290,9770.718434
3768.883918,-766.095498,-1628.453072,10955.047942
3768.884232,-919.314598,-1406.391290,10362.883188
3768.884547,-919.314598,-1110.308913,10140.821405
3768.884862,-689.485948,-444.123565,10214.842000
3768.885176,229.828649,-444.123565,9992.780217
3768.885491,536.266849,-518.144159,9474.636058
3768.885806,612.876398,-0.000000,9400.615463
3768.886120,1149.143247,444.123565,8956.491898
3768.886435,1455.581446,592.164754,8660.409521
3768.886750,1532.190996,1480.411884,8364.327145
3768.887064,1302.362347,1110.308913,8512.368333
3768.887379,1149.143247,-0.000000,8660.409521
3768.887693,689.485948,-444.123565,9326.594869
3768.888008,-459.657299,-1110.308913,9548.656652
3768.888323,-1149.143247,-962.267725,10214.842000
3768.888637,-995.924147,-1406.391290,10510.924376
3768.888952,-1302.362347,-1184.329507,10288.862594
3768.889267,-689.485948,-370.102971,9918.759623
3768.889581,-383.047749,296.082377,9622.677246
3768.889896,0.000000,518.144159,9622.677246
3768.890210,153.219100,740.205942,9918.759623
3768.890525,842.705048,740.205942,9326.594869
3768.890840,1685.410096,1184.329507,8734.430116
3768.891154,1455.581446,1406.391290,8586.388927
3768.891469,1072.533697,1332.370696,8512.368333
3768.891784,842.705048,222.061783,8808.450710
3768.892098,229.828649,592.164754,9178.553681
3768.892413,-459.657299,-0.000000,10066.800811
3768.892727,-1072.533697,-444.123565,10288.862594
3768.893042,-1302.362347,-814.226536,10881.027347
3768.893357,-766.095498,-444.123565,9918.759623
3768.893671,-995.924147,-222.061783,10214.842000
3768.893986,-612.876398,-370.102971,10436.903782
3768.894301,-383.047749,-222.061783,10214.842000
3768.894615,0.000000,740.205942,9474.636058
3768.894930,459.657299,1110.308913,9474.636058
3768.895244,1149.143247,1406.391290,9104.533087
3768.895559,1378.971896,1406.391290,9252.574275
3768.895874,1225.752797,1850.514855,9030.512492
3768.896188,1072.533697,1258.350101,8956.491898
3768.896503,612.876398,518.144159,9622.677246
3768.896817,-383.047749,222.061783,10140.821405
3768.897132,-919.314598,-296.082377,10732.986159
3768.897446,-612.876398,-74.020594,10955.047942
3768.897761,-1149.143247,-518.144159,10658.965565
3768.898075,-1149.143247,370.102971,10214.842000
3768.898390,-612.876398,-0.000000,9696.697840
3768.898705,-459.657299,-0.000000,9770.718434
3768.899019,383.047749,-74.020594,10066.800811
3768.899334,383.047749,-0.000000,9400.615463
3768.899648,536.266849,740.205942,8734.430116
3768.899963,383.047749,814.226536,9178.553681
3768.900277,536.266849,1554.432478,8734.430116
3768.900592,995.924147,1184.329507,8734.430116
3768.900907,995.924147,740.205942,9178.553681
3768.901221,536.266849,-0.000000,9474.636058
3768.901536,0.000000,-148.041188,9696.697840
3768.901850,-229.828649,-370.102971,10288.862594
3768.902165,-153.219100,-666.185348,10510.924376
3768.902479,-612.876398,-74.020594,9770.718434
3768.902794,76.609550,148.041188,9622.677246
3768.903108,383.047749,-370.102971,9696.697840
3768.903423,612.876398,-370.102971,9696.697840
3768.903738,536.266849,-0.000000,9770.718434
3768.904052,919.314598,518.144159,9474.636058
3768.904367,919.314598,-0.000000,9252.574275
3768.904681,1149.143247,-0.000000,9030.512492
3768.904996,1072.533697,-0.000000,8956.491898
3768.905310,919.314598,-148.041188,8808.450710
3768.905625,995.924147,-0.000000,9104.533087
3768.905939,612.876398,-74.020594,9474.636058
3768.906254,0.000000,-0.000000,9696.697840
3768.906569,229.828649,-518.144159,9474.636058
3768.906883,0.000000,-888.247130,9770.718434
3768.907198,-306.438199,-888.247130,9474.636058
3768.907512,0.000000,-370.102971,9992.780217
3768.907827,-612.876398,-592.164754,10584.944971
3768.908141,-689.485948,-296.082377,10436.903782
3768.908456,-383.047749,-296.082377,10140.821405
3768.908771,-229.828649,-148.041188,9770.718434
3768.909085,459.657299,-74.020594,9696.697840
3768.909400,306.438199,518.144159,8882.471304
3768.909714,306.438199,592.164754,9030.512492
3768.910029,0.000000,-0.000000,9030.512492
3768.910343,0.000000,222.061783,8734.430116
3768.910658,0.000000,296.082377,8956.491898
3768.910972,-459.657299,-370.102971,9400.615463
3768.911287,-689.485948,-814.226536,9548.656652
3768.911602,-536.266849,-1184.329507,9474.636058
3768.911916,-1072.533697,-666.185348,9696.697840
3768.912231,-1302.362347,-444.123565,10066.800811
3768.912545,-919.314598,-370.102971,10436.903782
3768.912860,-536.266849,-0.000000,10436.903782
3768.913174,76.609550,-0.000000,9622.677246
3768.913489,536.266849,814.226536,9474.636058
3768.913804,842.705048,1776.494261,8216.285956
3768.914118,1225.752797,1998.556043,8512.368333
3768.914433,1225.752797,1332.370696,9104.533087
3768.914747,1072.533697,740.205942,9474.636058
3768.915062,689.485948,444.123565,9622.677246
3768.915376,0.000000,-0.000000,9696.697840
3768.915691,-459.657299,-370.102971,9992.780217
3768.916005,-995.924147,-518.144159,10732.986159
3768.916320,-842.705048,-296.082377,9548.656652
3768.916635,-459.657299,-962.267725,10436.903782
3768.916949,-536.266849,-370.102971,11251.130318
3768.917264,0.000000,370.102971,10732.986159
3768.917578,0.000000,296.082377,10140.821405
3768.917893,995.924147,1184.329507,9474.636058
3768.918207,1378.971896,1702.473667,9474.636058
3768.918522,1915.238745,1924.535449,8882.471304
3768.918836,2374.896044,1406.391290,8734.430116
3768.919151,1915.238745,1036.288319,9326.594869
3768.919466,919.314598,1406.391290,9178.553681
3768.919780,153.219100,962.267725,9548.656652
3768.920095,-229.828649,518.144159,10214.842000
3768.920409,-919.314598,-0.000000,10436.903782
3768.920724,-1072.533697,-814.226536,9918.759623
3768.921038,-689.485948,-962.267725,10288.862594
3768.921353,-612.876398,-962.267725,10658.965565
3768.921668,-689.485948,-0.000000,10658.965565
3768.921982,-229.828649,888.247130,9992.780217
3768.922297,153.219100,592.164754,9548.656652
3768.922611,919.314598,1554.432478,8956.491898
3768.922926,1532.190996,1332.370696,8216.285956
3768.923240,1991.848295,1332.370696,8068.244768
3768.923555,1915.238745,666.185348,8808.450710
3768.923869,919.314598,814.226536,8882.471304
3768.924184,153.219100,-0.000000,9326.594869
3768.924499,0.000000,-370.102971,9622.677246
3768.924813,-612.876398,-592.164754,9844.739029
3768.925128,-1149.143247,-370.102971,9918.759623
3768.925442,-1149.143247,-814.226536,10066.800811
3768.925757,-842.705048,-888.247130,10807.006753
3768.926071,-919.314598,-666.185348,10066.800811
3768.926386,-689.485948,-592.164754,9918.759623
3768.926701,459.657299,-74.020594,9992.780217
3768.927015,383.047749,666.185348,8734.430116
3768.927330,995.924147,1258.350101,8882.471304
3768.927644,1838.629195,1110.308913,8660.409521
3768.927959,1915.238745,666.185348,8956.491898
3768.928273,919.314598,296.082377,8882.471304
3768.928588,0.000000,370.102971,8956.491898
3768.928902,0.000000,-444.123565,9992.780217
3768.929217,-536.266849,-370.102971,9992.780217
3768.929532,-1072.533697,-962.267725,9622.677246
3768.929846,-1455.581446,-1480.411884,10066.800811
3768.930161,-1378.971896,-1628.453072,10584.944971
3768.930475,-1072.533697,-888.247130,10584.944971
3768.930790,-842.705048,-814.226536,10362.883188
3768.931104,-76.609550,-518.144159,9844.739029
3768.931419,229.828649,-0.000000,9770.718434
3768.931733,766.095498,1628.453072,8660.409521
3768.932048,1072.533697,1332.370696,8808.450710
3768.932363,995.924147,518.144159,9030.512492
3768.932677,766.095498,296.082377,9178.553681
3768.932992,612.876398,-74.020594,9252.574275
3768.933306,383.047749,222.061783,9474.636058
3768.933621,0.000000,-0.000000,9770.718434
3768.933935,-459.657299,-222.061783,9844.739029
3768.934250,-689.485948,-666.185348,10362.883188
3768.934565,-459.657299,-1036.288319,10140.821405
3768.934879,-766.095498,-814.226536,9474.636058
3768.935194,-536.266849,-370.102971,9548.656652
3768.935508,0.000000,-148.041188,9844.739029
3768.935823,536.266849,-222.061783,9252.574275
3768.936137,689.485948,518.144159,9178.553681
3768.936452,612.876398,740.205942,9326.594869
3768.936766,1532.190996,888.247130,8956.491898
3768.937081,1302.362347,962.267725,9104.533087
3768.937396,919.314598,518.144159,9474.636058
3768.937710,459.657299,740.205942,9326.594869
3768.938025,306.438199,444.123565,9992.780217
3768.938339,536.266849,518.144159,9474.636058
3768.938654,153.219100,-0.000000,9400.615463
3768.938968,-229.828649,-222.061783,9474.636058
3768.939283,-306.438199,-740.205942,10066.800811
3768.939598,-612.876398,-518.144159,10066.800811
3768.939912,-459.657299,-370.102971,10362.883188
3768.940227,0.000000,-444.123565,10288.862594
3768.940541,-306.438199,370.102971,9622.677246
3768.940856,0.000000,962.267725,9104.533087
3768.941170,383.047749,370.102971,9178.553681
3768.941485,536.266849,444.123565,9622.677246
3768.941799,536.266849,518.144159,9548.656652
3768.942114,459.657299,888.247130,9400.615463
3768.942429,383.047749,1110.308913,9400.615463
3768.942743,536.266849,1110.308913,9252.574275
3768.943058,-306.438199,296.082377,9474.636058
3768.943372,0.000000,592.164754,9030.512492
3768.943687,-306.438199,-222.061783,9696.697840
3768.944001,-842.705048,-444.123565,9770.718434
3768.944316,-1072.533697,-222.061783,9992.780217
3768.944630,-306.438199,-222.061783,10066.800811
3768.944945,-1072.533697,222.061783,10510.924376
3768.945260,-689.485948,592.164754,9770.718434
3768.945574,76.609550,518.144159,9326.594869
3768.945889,612.876398,740.205942,9252.574275
3768.946203,459.657299,666.185348,9696.697840
3768.946518,383.047749,888.247130,9326.594869
3768.946832,383.047749,666.185348,9326.594869
3768.947147,842.705048,592.164754,9474.636058
3768.947462,995.924147,1258.350101,9104.533087
3768.947776,919.314598,666.185348,8956.491898
3768.948091,229.828649,-0.000000,9696.697840
3768.948405,0.000000,-74.020594,9622.677246
3768.948720,-459.657299,-296.082377,10214.842000
3768.949034,-689.485948,-222.061783,10732.986159
3768.949349,-612.876398,-148.041188,11177.109724
3768.949663,153.219100,370.102971,9992.780217
3768.949978,0.000000,370.102971,9474.636058
3768.950293,766.095498,518.144159,10214.842000
3768.950607,1149.143247,-0.000000,10140.821405
3768.950922,689.485948,888.247130,9992.780217
3768.951236,842.705048,1110.308913,9696.697840
3768.951551,919.314598,518.144159,9548.656652
3768.951865,766.095498,370.102971,9474.636058
3768.952180,459.657299,-0.000000,9474.636058
3768.952495,153.219100,-518.144159,9992.780217
3768.952809,-459.657299,-1036.288319,9918.759623
3768.953124,-842.705048,-814.226536,10288.862594
3768.953438,-459.657299,-1110.308913,10362.883188
3768.953753,-383.047749,-962.267725,9992.780217
3768.954067,-612.876398,-740.205942,9474.636058
3768.954382,-229.828649,-296.082377,9474.636058
3768.954696,0.000000,-592.164754,9326.594869
3768.955011,383.047749,-222.061783,9474.636058
3768.955326,536.266849,-0.000000,9104.533087
3768.955640,383.047749,-74.020594,9178.553681
3768.955955,766.095498,-0.000000,9104.533087
3768.956269,766.095498,370.102971,9252.574275
3768.956584,689.485948,444.123565,8882.471304
3768.956898,842.705048,-0.000000,8956.491898
3768.957213,842.705048,-518.144159,9252.574275
3768.957527,76.609550,-444.123565,9474.636058
3768.957842,0.000000,-592.164754,9770.718434
3768.958157,-229.828649,-740.205942,9622.677246
3768.958471,76.609550,-296.082377,9104.533087
3768.958786,-306.438199,-296.082377,9030.512492
3768.959100,-459.657299,-148.041188,9178.553681
3768.959415,76.609550,-444.123565,9400.615463
3768.959729,76.609550,-222.061783,9474.636058
3768.960044,0.000000,-222.061783,9474.636058
3768.960359,76.609550,-0.000000,9474.636058
3768.960673,76.609550,370.102971,9326.594869
3768.960988,0.000000,740.205942,9252.574275
3768.961302,153.219100,518.144159,9326.594869
3768.961617,536.266849,-0.000000,9548.656652
3768.961931,153.219100,296.082377,9548.656652
3768.962246,-459.657299,-0.000000,10066.800811
3768.962560,-612.876398,444.123565,9548.656652
3768.962875,-766.095498,222.061783,9844.739029
3768.963190,-612.876398,296.082377,9474.636058
3768.963504,-383.047749,-0.000000,9474.636058
3768.963819,-459.657299,-296.082377,10140.821405
3768.964133,-383.047749,-0.000000,9622.677246
3768.964448,-229.828649,-0.000000,10288.862594
3768.964762,153.219100,296.082377,9696.697840
3768.965077,0.000000,1036.288319,9918.759623
3768.965391,612.876398,1406.391290,9252.574275
3768.965706,689.485948,1110.308913,9104.533087
3768.966021,842.705048,1184.329507,9474.636058
3768.966335,0.000000,740.205942,9696.697840
3768.966650,-76.609550,370.102971,9474.636058
3768.966964,459.657299,444.123565,9696.697840
3768.967279,76.609550,444.123565,10140.821405
3768.967593,-306.438199,592.164754,9770.718434
3768.967908,0.000000,370.102971,9770.718434
3768.968223,-229.828649,222.061783,9992.780217
3768.968537,0.000000,-148.041188,10510.924376
3768.968852,-306.438199,-0.000000,10584.944971
3768.969166,0.000000,592.164754,10140.821405
3768.969481,153.219100,592.164754,10140.821405
3768.969795,612.876398,1258.350101,9474.636058
3768.970110,919.314598,1258.350101,9030.512492
3768.970424,1915.238745,1184.329507,9030.512492
3768.970739,1762.019645,962.267725,9622.677246
3768.971054,1225.752797,666.185348,9474.636058
3768.971368,842.705048,444.123565,9326.594869
3768.971683,459.657299,148.041188,9474.636058
3768.971997,229.828649,-0.000000,9918.759623
3768.972312,76.609550,-0.000000,9992.780217
3768.972626,0.000000,-814.226536,9770.718434
3768.972941,-383.047749,-814.226536,10066.800811
3768.973256,-459.657299,-444.123565,10214.842000
3768.973570,-306.438199,-444.123565,10510.924376
3768.973885,0.000000,-370.102971,10510.924376
3768.974199,459.657299,222.061783,10288.862594
3768.974514,689.485948,666.185348,8734.430116
3768.974828,1455.581446,592.164754,8438.347739
3768.975143,995.924147,444.123565,8734.430116
3768.975457,1072.533697,296.082377,9104.533087
3768.975772,76.609550,-444.123565,8734.430116
3768.976087,0.000000,-444.123565,9326.594869
3768.976401,-612.876398,-666.185348,9474.636058
3768.976716,-689.485948,-740.205942,9474.636058
3768.977030,-1225.752797,-1332.370696,9474.636058
3768.977345,-1225.752797,-1850.514855,10140.821405
3768.977659,-1378.971896,-1406.391290,10066.800811
3768.977974,-1225.752797,-962.267725,9918.759623
3768.978288,0.000000,-518.144159,9844.739029
3768.978603,0.000000,-0.000000,9252.574275
3768.978918,612.876398,888.247130,8660.409521
3768.979232,1149.143247,1036.288319,8068.244768
3768.979547,842.705048,1110.308913,8438.347739
3768.979861,919.314598,666.185348,8512.368333
3768.980176,76.609550,-0.000000,9178.553681
3768.980490,0.000000,-370.102971,9474.636058
3768.980805,-229.828649,-148.041188,9548.656652
3768.981120,-995.924147,-222.061783,9770.718434
3768.981434,-612.876398,-518.144159,9844.739029
3768.981749,-919.314598,-888.247130,10807.006753
3768.982063,-919.314598,-740.205942,10584.944971
3768.982378,-995.924147,-0.000000,10807.006753
3768.982692,-153.219100,-0.000000,10066.800811
3768.983007,383.047749,444.123565,10140.821405
3768.983321,536.266849,1110.308913,9326.594869
3768.983636,1225.752797,1702.473667,9178.553681
3768.983951,1532.190996,1406.391290,9326.594869
3768.984265,1378.971896,962.267725,9400.615463
3768.984580,689.485948,1036.288319,10214.842000
3768.984894,612.876398,740.205942,9844.739029
3768.985209,0.000000,518.144159,10436.903782
3768.985523,-153.219100,444.123565,9770.718434
3768.985838,-536.266849,-0.000000,10214.842000
3768.986153,-766.095498,-740.205942,10288.862594
3768.986467,-1225.752797,-962.267725,10807.006753
3768.986782,-1149.143247,-296.082377,10732.986159
3768.987096,-536.266849,-0.000000,10214.842000
3768.987411,0.000000,370.102971,10362.883188
3768.987725,153.219100,962.267725,9548.656652
3768.988040,536.266849,740.205942,9104.533087
3768.988354,1149.143247,814.226536,9400.615463
3768.988669,1762.019645,1036.288319,9474.636058
3768.988984,1532.190996,1480.411884,9326.594869
3768.989298,1072.533697,1258.350101,8956.491898
3768.989613,1149.143247,444.123565,8882.471304
3768.989927,612.876398,222.061783,9104.533087
3768.990242,153.219100,-0.000000,8882.471304
3768.990556,0.000000,-296.082377,9474.636058
3768.990871,-459.657299,-888.247130,9992.780217
3768.991185,-1455.581446,-666.185348,9770.718434
3768.991500,-842.705048,-666.185348,9918.759623
3768.991815,-459.657299,-1036.288319,10288.862594
3768.992129,-306.438199,-444.123565,10066.800811
3768.992444,383.047749,666.185348,9474.636058
3768.992758,1072.533697,1332.370696,9252.574275
3768.993073,842.705048,1258.350101,9104.533087
3768.993388,1378.971896,1258.350101,8882.471304
3768.993702,1302.362347,1036.288319,9400.615463
3768.994017,1532.190996,888.247130,9178.553681
3768.994332,1302.362347,444.123565,9178.553681
3768.994646,306.438199,296.082377,8882.471304
3768.994961,-306.438199,-74.020594,9104.533087
3768.995276,-229.828649,-592.164754,9918.759623
3768.995590,-995.924147,-1258.350101,10362.883188
3768.995905,-995.924147,-1110.308913,10436.903782
3768.996220,-1225.752797,-1258.350101,10584.944971
3768.996535,-919.314598,-222.061783,9918.759623
3768.996849,-1302.362347,518.144159,9474.636058
3768.997164,76.609550,-0.000000,9622.677246
3768.997479,536.266849,296.082377,9178.553681
3768.997793,76.609550,444.123565,9474.636058
3768.998108,995.924147,666.185348,9622.677246
3768.998423,766.095498,666.185348,8512.368333
3768.998737,842.705048,962.267725,8512.368333
3768.999052,919.314598,888.247130,8734.430116
3768.999367,306.438199,370.102971,8068.244768
3768.999681,0.000000,-666.185348,9252.574275
3768.999996,-1149.143247,-1036.288319,9992.780217
3769.000311,-1608.800546,-1184.329507,10214.842000
3769.000625,-766.095498,-1554.432478,10584.944971
3769.000940,-1378.971896,-1332.370696,10658.965565
3769.001255,-1149.143247,-888.247130,10881.027347
3769.001569,-536.266849,-0.000000,9770.718434
3769.001884,306.438199,-0.000000,9622.677246
3769.002199,689.485948,888.247130,9474.636058
3769.002514,1685.410096,1406.391290,9474.636058
3769.002828,1915.238745,1998.556043,8438.347739
3769.003143,1991.848295,1258.350101,8956.491898
3769.003458,2068.457845,1110.308913,9178.553681
3769.003772,1225.752797,518.144159,8142.265362
3769.004087,612.876398,-148.041188,9474.636058
3769.004402,0.000000,-888.247130,10881.027347
3769.004716,-995.924147,-666.185348,10658.965565
3769.005031,-1378.971896,-1184.329507,11621.233289
3769.005346,-1225.752797,-1258.350101,11473.192101
3769.005660,-842.705048,-666.185348,10436.903782
3769.005975,-459.657299,-148.041188,10066.800811
3769.006290,0.000000,666.185348,9474.636058
3769.006604,689.485948,814.226536,9918.759623
3769.006919,1149.143247,740.205942,8882.471304
3769.007234,1608.800546,1184.329507,8734.430116
3769.007548,1991.848295,1406.391290,8586.388927
3769.007863,1838.629195,1332.370696,8660.409521
3769.008178,1302.362347,1480.411884,8734.430116
3769.008493,689.485948,518.144159,9178.553681
3769.008807,0.000000,-148.041188,10288.862594
3769.009122,-766.095498,-666.185348,10214.842000
3769.009437,-1378.971896,-1258.350101,10510.924376
3769.009751,-1991.848295,-1998.556043,11029.068536
3769.010066,-1762.019645,-592.164754,10288.862594
3769.010381,-1455.581446,-518.144159,10140.821405
3769.010695,-612.876398,-370.102971,9474.636058
3769.011010,0.000000,-444.123565,9178.553681
3769.011325,76.609550,296.082377,8882.471304
3769.011639,536.266849,592.164754,9104.533087
3769.011954,995.924147,814.226536,9030.512492
3769.012269,842.705048,1110.308913,8290.306550
3769.012583,689.485948,1406.391290,8290.306550
3769.012898,995.924147,1036.288319,7994.224174
3769.013213,919.314598,518.144159,8882.471304
3769.013528,0.000000,-444.123565,9548.656652
3769.013842,-842.705048,-666.185348,10214.842000
3769.014157,-1302.362347,-1036.288319,10362.883188
3769.014472,-1378.971896,-74.020594,10140.821405
3769.014786,-919.314598,518.144159,9696.697840
3769.015101,-459.657299,296.082377,9622.677246
3769.015416,76.609550,-0.000000,9622.677246
3769.015730,459.657299,222.061783,9696.697840
3769.016045,612.876398,592.164754,9696.697840
3769.016360,536.266849,962.267725,9918.759623
3769.016674,1149.143247,2072.576638,9326.594869
3769.016989,1149.143247,2220.617826,9178.553681
3769.017304,1149.143247,1406.391290,9030.512492
3769.017618,1302.362347,444.123565,9474.636058
3769.017933,919.314598,296.082377,9696.697840
3769.018248,-229.828649,296.082377,9992.780217
3769.018562,-536.266849,-148.041188,10732.986159
3769.018877,-842.705048,-592.164754,10584.944971
3769.019192,-842.705048,-518.144159,10510.924376
3769.019507,-612.876398,-666.185348,10362.883188
3769.019821,-153.219100,-740.205942,10584.944971
3769.020136,-306.438199,-0.000000,10066.800811
3769.020451,0.000000,666.185348,10288.862594
3769.020765,536.266849,1184.329507,9770.718434
3769.021080,1149.143247,740.205942,9918.759623
3769.021395,1455.581446,1258.350101,9178.553681
3769.021709,1685.410096,-0.000000,8734.430116
3769.022024,1149.143247,888.247130,8586.388927
3769.022339,1072.533697,-0.000000,9696.697840
3769.022653,383.047749,-0.000000,9992.780217
3769.022968,536.266849,-444.123565,9770.718434
3769.023283,-689.485948,-1110.308913,9844.739029
3769.023597,-612.876398,-1036.288319,10066.800811
3769.023912,-536.266849,-666.185348,9992.780217
3769.024227,-306.438199,-518.144159,9548.656652
3769.024541,-383.047749,-444.123565,10066.800811
3769.024856,-383.047749,-444.123565,10214.842000
3769.025171,689.485948,-0.000000,9030.512492
3769.025486,1072.533697,518.144159,9178.553681
3769.025800,1302.362347,814.226536,8882.471304
3769.026115,1608.800546,1332.370696,8512.368333
3769.026430,2068.457845,888.247130,8364.327145
3769.026744,612.876398,592.164754,8956.491898
3769.027059,0.000000,-148.041188,9696.697840
3769.027374,-383.047749,-148.041188,9696.697840
3769.027688,-612.876398,-296.082377,9992.780217
3769.028003,-1072.533697,-518.144159,9992.780217
3769.028318,-1455.581446,-592.164754,10214.842000
3769.028632,-1072.533697,-370.102971,9770.718434
3769.028947,-689.485948,-666.185348,9770.718434
3769.029262,-536.266849,-444.123565,10066.800811
3769.029576,0.000000,-0.000000,9622.677246
3769.029891,612.876398,370.102971,9326.594869
3769.030206,689.485948,1036.288319,8660.409521
3769.030520,689.485948,1406.391290,8438.347739
3769.030835,1378.971896,1036.288319,7994.224174
3769.031150,612.876398,370.102971,8438.347739
3769.031465,612.876398,-0.000000,8956.491898
3769.031779,0.000000,-148.041188,9252.574275
3769.032094,-766.095498,-518.144159,9844.739029
3769.032409,-919.314598,-296.082377,9844.739029
3769.032723,-1225.752797,-370.102971,9622.677246
3769.033038,-1225.752797,-444.123565,10140.821405
3769.033353,-919.314598,-1184.329507,10658.965565
3769.033667,-383.047749,-518.144159,10214.842000
3769.033982,-229.828649,148.041188,9992.780217
3769.034297,306.438199,444.123565,9474.636058
3769.034611,459.657299,1110.308913,9474.636058
3769.034926,612.876398,1702.473667,9104.533087
3769.035241,1225.752797,1480.411884,8808.450710
3769.035555,1149.143247,962.267725,8956.491898
3769.035870,1225.752797,1036.288319,9326.594869
3769.036185,229.828649,666.185348,9770.718434
3769.036500,76.609550,296.082377,10066.800811
3769.036814,0.000000,-0.000000,11103.089130
3769.037129,0.000000,222.061783,10584.944971
3769.037444,-612.876398,-0.000000,10510.924376
3769.037758,-153.219100,222.061783,10140.821405
3769.038073,0.000000,296.082377,10658.965565
3769.038388,0.000000,518.144159,10362.883188
3769.038702,459.657299,518.144159,10140.821405
3769.039017,612.876398,888.247130,9770.718434
3769.039332,1302.362347,1554.432478,9474.636058
3769.039646,1455.581446,1258.350101,8956.491898
3769.039961,1762.019645,592.164754,9030.512492
3769.040276,1302.362347,-0.000000,9474.636058
3769.040590,306.438199,222.061783,9770.718434
3769.040905,0.000000,-0.000000,9844.739029
3769.041220,0.000000,-296.082377,9770.718434
3769.041534,-383.047749,-74.020594,10066.800811
3769.041849,-459.657299,-518.144159,9400.615463
3769.042164,-842.705048,-1036.288319,9696.697840
3769.042479,-766.095498,-888.247130,10066.800811
3769.042793,-459.657299,-740.205942,10140.821405
3769.043108,76.609550,-0.000000,9474.636058
3769.043423,689.485948,-370.102971,9030.512492
3769.043737,766.095498,444.123565,8586.388927
3769.044052,919.314598,518.144159,8364.327145
3769.044367,919.314598,-222.061783,8586.388927
3769.044681,842.705048,-592.164754,9030.512492
3769.044996,153.219100,-296.082377,9178.553681
3769.045311,0.000000,-518.144159,9178.553681
3769.045625,-383.047749,-962.267725,9844.739029
3769.045940,-229.828649,-518.144159,9474.636058
3769.046255,-766.095498,-666.185348,9178.553681
3769.046569,-306.438199,-592.164754,8734.430116
3769.046884,-459.657299,-296.082377,9400.615463
3769.047199,-689.485948,-444.123565,9326.594869
3769.047513,-383.047749,-370.102971,9474.636058
3769.047828,0.000000,-222.061783,9474.636058
3769.048143,-383.047749,370.102971,9696.697840
3769.048458,459.657299,888.247130,9030.512492
3769.048772,383.047749,962.267725,9326.594869
3769.049087,383.047749,1110.308913,9770.718434
3769.049402,306.438199,888.247130,9696.697840
3769.049716,536.266849,296.082377,9696.697840
3769.050031,-229.828649,666.185348,9844.739029
3769.050346,-153.219100,370.102971,9992.780217
3769.050660,-306.438199,518.144159,9696.697840
3769.050975,-536.266849,296.082377,8956.491898
3769.051290,0.000000,-814.226536,9474.636058
3769.051604,-229.828649,-444.123565,9622.677246
3769.051919,-612.876398,-0.000000,9770.718434
3769.052234,-306.438199,-0.000000,10510.924376
3769.052548,0.000000,518.144159,9992.780217
3769.052863,0.000000,1258.350101,9696.697840
3769.053178,383.047749,1258.350101,9474.636058
3769.053492,766.095498,592.164754,9918.759623
3769.053807,536.266849,518.144159,9770.718434
3769.054122,0.000000,592.164754,10214.842000
3769.054437,383.047749,888.247130,10214.842000
3769.054751,153.219100,666.185348,9992.780217
3769.055066,-229.828649,666.185348,10214.842000
3769.055381,229.828649,518.144159,9918.759623
3769.055695,0.000000,-370.102971,9548.656652
3769.056010,76.609550,-296.082377,10214.842000
3769.056325,153.219100,-370.102971,10214.842000
3769.056639,-153.219100,-74.020594,10362.883188
3769.056954,-153.219100,-222.061783,9918.759623
3769.057269,229.828649,888.247130,9474.636058
3769.057583,689.485948,666.185348,9474.636058
3769.057898,919.314598,222.061783,9104.533087
3769.058213,1072.533697,666.185348,9178.553681
3769.058527,689.485948,814.226536,9548.656652
3769.058842,612.876398,444.123565,9548.656652
3769.059157,459.657299,444.123565,9326.594869
3769.059472,306.438199,444.123565,9252.574275
3769.059786,229.828649,222.061783,9548.656652
3769.060101,0.000000,370.102971,9326.594869
3769.060416,-306.438199,-74.020594,9770.718434
3769.060730,-459.657299,-222.061783,10288.862594
3769.061045,-459.657299,-0.000000,10807.006753
3769.061360,-459.657299,-296.082377,10584.944971
3769.061674,0.000000,-0.000000,9770.718434
3769.061989,-612.876398,296.082377,9326.594869
3769.062304,0.000000,148.041188,9326.594869
3769.062618,229.828649,-370.102971,9474.636058
3769.062933,76.609550,-296.082377,9326.594869
3769.063248,0.000000,-0.000000,9104.533087
3769.063562,153.219100,740.205942,9252.574275
3769.063877,383.047749,518.144159,9104.533087
3769.064192,229.828649,-0.000000,8660.409521
3769.064506,153.219100,-74.020594,8808.450710
3769.064821,-383.047749,-1184.329507,9474.636058
3769.065136,-383.047749,-1110.308913,10362.883188
3769.065451,-919.314598,-666.185348,9992.780217
3769.065765,-689.485948,-666.185348,9770.718434
3769.066080,-536.266849,-592.164754,9622.677246
3769.066395,-612.876398,-296.082377,8956.491898
3769.066709,306.438199,-0.000000,8364.327145
3769.067024,459.657299,-222.061783,9030.512492
3769.067339,536.266849,-0.000000,9400.615463
3769.067653,383.047749,-148.041188,8734.430116
3769.067968,689.485948,-0.000000,8808.450710
3769.068283,306.438199,370.102971,10140.821405
3769.068597,153.219100,-0.000000,9548.656652
3769.068912,153.219100,444.123565,9474.636058
3769.069227,153.219100,-222.061783,9918.759623
3769.069541,153.219100,-370.102971,9844.739029
3769.069856,76.609550,-296.082377,9770.718434
3769.070171,229.828649,-0.000000,10436.903782
3769.070485,0.000000,-0.000000,9918.759623
3769.070800,383.047749,740.205942,9474.636058
3769.071115,842.705048,1184.329507,9326.594869
3769.071430,919.314598,592.164754,9400.615463
3769.071744,1072.533697,592.164754,9918.759623
3769.072059,229.828649,666.185348,9992.780217
3769.072374,153.219100,888.247130,9992.780217
3769.072688,153.219100,518.144159,10436.903782
3769.073003,0.000000,740.205942,10140.821405
3769.073318,229.828649,666.185348,9696.697840
3769.073632,459.657299,962.267725,9474.636058
3769.073947,229.828649,222.061783,9770.718434
3769.074262,459.657299,740.205942,9474.636058
3769.074576,306.438199,370.102971,9548.656652
3769.074891,153.219100,370.102971,9252.574275
3769.075206,459.657299,592.164754,9474.636058
3769.075520,612.876398,-0.000000,8956.491898
3769.075835,383.047749,-222.061783,9474.636058
3769.076150,0.000000,-222.061783,9474.636058
3769.076464,-612.876398,-148.041188,10066.800811
3769.076779,-766.095498,-0.000000,10881.027347
3769.077094,-383.047749,-148.041188,10066.800811
3769.077409,-306.438199,296.082377,9918.759623
3769.077723,76.609550,740.205942,9696.697840
3769.078038,536.266849,592.164754,9622.677246
3769.078353,383.047749,296.082377,9770.718434
3769.078667,383.047749,666.185348,9030.512492
3769.078982,229.828649,1110.308913,9104.533087
3769.079297,229.828649,518.144159,9400.615463
3769.079611,76.609550,592.164754,9326.594869
3769.079926,229.828649,740.205942,8956.491898
3769.080241,0.000000,-148.041188,9474.636058
3769.080555,0.000000,-666.185348,9622.677246
3769.080870,-536.266849,-592.164754,10510.924376
3769.081185,-1455.581446,-444.123565,10658.965565
3769.081499,-766.095498,-148.041188,9992.780217
3769.081814,-229.828649,222.061783,9844.739029
3769.082129,0.000000,814.226536,9622.677246
3769.082443,306.438199,888.247130,9252.574275
3769.082758,612.876398,740.205942,9326.594869
3769.083073,306.438199,592.164754,9030.512492
3769.083388,306.438199,740.205942,9326.594869
3769.083702,612.876398,592.164754,9030.512492
3769.084017,536.266849,444.123565,9400.615463
3769.084332,153.219100,-370.102971,9548.656652
3769.084646,-153.219100,-148.041188,9400.615463
3769.084961,-153.219100,-666.185348,9918.759623
3769.085276,-766.095498,-444.123565,10362.883188
3769.085590,-995.924147,-740.205942,10362.883188
3769.085905,-536.266849,-962.267725,10362.883188
3769.086220,-153.219100,-814.226536,9844.739029
3769.086534,76.609550,-370.102971,9474.636058
3769.086849,612.876398,148.041188,8808.450710
3769.087164,1072.533697,-0.000000,8290.306550
3769.087478,1225.752797,-74.020594,9622.677246
3769.087793,919.314598,444.123565,9178.553681
3769.088108,612.876398,518.144159,8734.430116
3769.088423,842.705048,-74.020594,9400.615463
3769.088737,766.095498,-814.226536,9696.697840
3769.089052,0.000000,-222.061783,9844.739029
3769.089367,0.000000,-1184.329507,9844.739029
3769.089681,-306.438199,-1332.370696,10658.965565
3769.089996,-766.095498,-1184.329507,10584.944971
3769.090311,-536.266849,-814.226536,10658.965565
3769.090625,0.000000,-592.164754,9918.759623
3769.090940,229.828649,-74.020594,9622.677246
3769.091255,842.705048,592.164754,8808.450710
3769.091569,1378.971896,444.123565,8956.491898
3769.091884,1225.752797,444.123565,9104.533087
3769.092199,1072.533697,148.041188,9030.512492
3769.092513,1225.752797,666.185348,8808.450710
3769.092828,995.924147,-0.000000,9104.533087
3769.093143,689.485948,296.082377,9548.656652
3769.093457,76.609550,370.102971,9326.594869
3769.093772,-306.438199,-0.000000,9326.594869
3769.094087,-383.047749,-222.061783,9770.718434
3769.094402,-919.314598,-222.061783,9918.759623
3769.094716,-1149.143247,-74.020594,10288.862594
3769.095031,-689.485948,-296.082377,10584.944971
3769.095346,-536.266849,-222.061783,9992.780217
3769.095661,0.000000,740.205942,9548.656652
3769.095975,766.095498,962.267725,9178.553681
3769.096290,842.705048,814.226536,9178.553681
3769.096605,612.876398,1480.411884,9178.553681
3769.096919,995.924147,1184.329507,9178.553681
3769.097234,842.705048,740.205942,9326.594869
3769.097549,459.657299,1110.308913,9104.533087
3769.097864,0.000000,1036.288319,8586.388927
3769.098178,-689.485948,-444.123565,9030.512492
3769.098493,-842.705048,-666.185348,9622.677246
3769.098808,-995.924147,-444.123565,10658.965565
3769.099123,-1608.800546,-740.205942,10140.821405
3769.099437,-1455.581446,-666.185348,10658.965565
3769.099752,-766.095498,-0.000000,10214.842000
3769.100067,-536.266849,666.185348,9474.636058
3769.100381,0.000000,1184.329507,9474.636058
3769.100696,383.047749,1332.370696,9548.656652
3769.101011,459.657299,1702.473667,9844.739029
3769.101326,1225.752797,1924.535449,9326.594869
3769.101640,1072.533697,1184.329507,9474.636058
3769.101955,459.657299,1332.370696,9474.636058
3769.102270,0.000000,1406.391290,9474.636058
3769.102585,153.219100,518.144159,9696.697840
3769.102899,0.000000,-296.082377,9918.759623
3769.103214,-612.876398,-74.020594,10214.842000
3769.103529,-842.705048,-148.041188,10140.821405
3769.103843,-842.705048,-370.102971,10140.821405
3769.104158,-766.095498,-222.061783,10658.965565
3769.104473,-536.266849,592.164754,9992.780217
3769.104788,229.828649,518.144159,9622.677246
3769.105102,919.314598,444.123565,9474.636058
3769.105417,919.314598,740.205942,9918.759623
3769.105732,1225.752797,1110.308913,9548.656652
3769.106047,1149.143247,962.267725,9844.739029
3769.106361,1072.533697,1332.370696,9548.656652
3769.106676,1072.533697,1406.391290,9622.677246
3769.106991,842.705048,1184.329507,9326.594869
3769.107305,1302.362347,-148.041188,9030.512492
3769.107620,229.828649,-962.267725,9844.739029
3769.107935,-383.047749,-1036.288319,10658.965565
3769.108250,-842.705048,-814.226536,10140.821405
3769.108564,-612.876398,-1184.329507,10362.883188
3769.108879,-459.657299,-1036.288319,10066.800811
3769.109194,-229.828649,-592.164754,9252.574275
3769.109509,306.438199,-74.020594,8808.450710
3769.109823,383.047749,-370.102971,8882.471304
3769.110138,1532.190996,-74.020594,9400.615463
3769.110453,1532.190996,296.082377,8586.388927
3769.110767,919.314598,-0.000000,8438.347739
3769.111082,1302.362347,-0.000000,8512.368333
3769.111397,383.047749,-0.000000,8512.368333
3769.111712,153.219100,-444.123565,8734.430116
3769.112026,-383.047749,-1036.288319,9474.636058
3769.112341,-919.314598,-1480.411884,10140.821405
3769.112656,-1685.410096,-1850.514855,10732.986159
3769.112971,-1838.629195,-2368.659014,11325.150913
3769.113285,-1608.800546,-1406.391290,10881.027347
3769.113600,-1378.971896,-740.205942,10584.944971
3769.113915,-612.876398,-370.102971,9844.739029
3769.114229,459.657299,-0.000000,9178.553681
3769.114544,919.314598,444.123565,9178.553681
3769.114859,995.924147,740.205942,8882.471304
3769.115174,1685.410096,666.185348,8438.347739
3769.115488,1302.362347,888.247130,8364.327145
3769.115803,689.485948,962.267725,7846.182985
3769.116118,766.095498,296.082377,8364.327145
3769.116433,306.438199,-740.205942,8660.409521
3769.116747,-689.485948,-1258.350101,9992.780217
3769.117062,-1149.143247,-1184.329507,10140.821405
3769.117377,-1302.362347,-962.267725,10510.924376
3769.117691,-1225.752797,-592.164754,10658.965565
3769.118006,-1225.752797,-370.102971,10214.842000
3769.118321,-536.266849,222.061783,10066.800811
3769.118636,0.000000,444.123565,9474.636058
3769.118950,383.047749,666.185348,9474.636058
3769.119265,1225.752797,1480.411884,9474.636058
3769.119580,1378.971896,1998.556043,8882.471304
3769.119895,1532.190996,1924.535449,8734.430116
3769.120209,1455.581446,1776.494261,8734.430116
3769.120524,995.924147,1036.288319,9326.594869
3769.120839,919.314598,666.185348,9474.636058
3769.121153,-306.438199,-74.020594,9992.780217
3769.121468,-995.924147,-148.041188,10436.903782
3769.121783,-1455.581446,-666.185348,10362.883188
3769.122098,-1225.752797,-1110.308913,10807.006753
3769.122412,-1072.533697,-666.185348,11029.068536
3769.122727,-612.876398,-222.061783,10066.800811
3769.123042,153.219100,-74.020594,9770.718434
3769.123357,76.609550,1036.288319,9474.636058
3769.123671,995.924147,1702.473667,10066.800811
3769.123986,1608.800546,1628.453072,9696.697840
3769.124301,1608.800546,1628.453072,9252.574275
3769.124615,1608.800546,2294.638420,9474.636058
3769.124930,1455.581446,2294.638420,8882.471304
3769.125245,1532.190996,1332.370696,9474.636058
3769.125560,689.485948,740.205942,10140.821405
3769.125874,-612.876398,-148.041188,10436.903782
3769.126189,-1072.533697,-296.082377,10658.965565
3769.126504,-1378.971896,-814.226536,10732.986159
3769.126819,-536.266849,-74.020594,11103.089130
3769.127133,-536.266849,-74.020594,9696.697840
3769.127448,-459.657299,-74.020594,9696.697840
3769.127763,306.438199,-0.000000,9474.636058
3769.128077,153.219100,962.267725,9400.615463
3769.128392,919.314598,1184.329507,9474.636058
3769.128707,1378.971896,814.226536,9252.574275
3769.129022,1685.410096,1554.432478,8660.409521
3769.129336,919.314598,1258.350101,8586.388927
3769.129651,1072.533697,740.205942,8956.491898
3769.129966,995.924147,-0.000000,9474.636058
3769.130281,0.000000,-0.000000,9844.739029
3769.130595,-612.876398,-444.123565,9696.697840
3769.130910,-919.314598,-1036.288319,10140.821405
3769.131225,-229.828649,-1110.308913,9548.656652
3769.131539,-995.924147,-222.061783,9474.636058
3769.131854,-1149.143247,-296.082377,9178.553681
3769.132169,-689.485948,-962.267725,9400.615463
3769.132484,-612.876398,-962.267725,9770.718434
3769.132798,383.047749,-814.226536,9474.636058
3769.133113,306.438199,-370.102971,9474.636058
3769.133428,612.876398,666.185348,8882.471304
3769.133743,612.876398,962.267725,8512.368333
3769.134057,766.095498,962.267725,8068.244768
3769.134372,842.705048,-0.000000,8512.368333
3769.134687,229.828649,-518.144159,9104.533087
3769.135001,-229.828649,-666.185348,9326.594869
3769.135316,-459.657299,-518.144159,9918.759623
3769.135631,-1072.533697,-888.247130,9844.739029
3769.135946,-1149.143247,-592.164754,10510.924376
3769.136260,-1072.533697,-1036.288319,9992.780217
3769.136575,-536.266849,-1332.370696,10214.842000
3769.136890,-306.438199,-740.205942,10288.862594
3769.137205,0.000000,-0.000000,10066.800811
3769.137519,536.266849,-0.000000,10140.821405
3769.137834,919.314598,592.164754,9474.636058
3769.138149,995.924147,814.226536,8734.430116
3769.138463,1532.190996,1036.288319,8290.306550
3769.138778,1608.800546,444.123565,8512.368333
3769.139093,1072.533697,-0.000000,9326.594869
3769.139408,842.705048,444.123565,9400.615463
3769.139722,-229.828649,370.102971,9474.636058
3769.140037,-383.047749,-666.185348,9844.739029
3769.140352,-1302.362347,-666.185348,10584.944971
3769.140667,-1072.533697,-666.185348,10362.883188
3769.140981,-842.705048,-1258.350101,10510.924376
3769.141296,-689.485948,-814.226536,10510.924376
3769.141611,-229.828649,-222.061783,10214.842000
3769.141925,229.828649,592.164754,9992.780217
3769.142240,459.657299,962.267725,9696.697840
3769.142555,1378.971896,1702.473667,9178.553681
3769.142870,1608.800546,1554.432478,8438.347739
3769.143184,1991.848295,1702.473667,8142.265362
3769.143499,1762.019645,592.164754,9030.512492
3769.143814,842.705048,740.205942,9030.512492
3769.144128,0.000000,296.082377,9474.636058
3769.144443,-536.266849,-740.205942,10140.821405
3769.144758,-612.876398,-814.226536,10288.862594
3769.145073,-995.924147,-222.061783,10140.821405
3769.145387,-1302.362347,-444.123565,9918.759623
3769.145702,-766.095498,-592.164754,10140.821405
3769.146017,-1072.533697,-296.082377,10807.006753
3769.146332,-766.095498,370.102971,10140.821405
3769.146646,383.047749,814.226536,9548.656652
3769.146961,459.657299,1258.350101,9326.594869
3769.147276,842.705048,1924.535449,8512.368333
3769.147590,1608.800546,1776.494261,8290.306550
3769.147905,1378.971896,1258.350101,8808.450710
3769.148220,766.095498,1184.329507,9622.677246
3769.148535,306.438199,592.164754,9548.656652
3769.148849,76.609550,-0.000000,9622.677246
3769.149164,-306.438199,-296.082377,10140.821405
3769.149479,-919.314598,-0.000000,9844.739029
3769.149794,-919.314598,-444.123565,10362.883188
3769.150108,-612.876398,-666.185348,10584.944971
3769.150423,-459.657299,-444.123565,10362.883188
3769.150738,0.000000,-0.000000,9918.759623
3769.151052,536.266849,666.185348,9548.656652
3769.151367,1225.752797,962.267725,9326.594869
3769.151682,1072.533697,1850.514855,8512.368333
3769.151997,1762.019645,1480.411884,8068.244768
3769.152311,1915.238745,740.205942,8290.306550
3769.152626,1225.752797,518.144159,8808.450710
3769.152941,459.657299,296.082377,9548.656652
3769.153256,306.438199,370.102971,10214.842000
3769.153570,0.000000,-222.061783,10436.903782
3769.153885,-536.266849,-74.020594,10288.862594
3769.154200,-1072.533697,-74.020594,9622.677246
3769.154514,-766.095498,-888.247130,10288.862594
3769.154829,-842.705048,-518.144159,10214.842000
3769.155144,-995.924147,-518.144159,10140.821405
3769.155459,-612.876398,-296.082377,9622.677246
3769.155773,-383.047749,-148.041188,9844.739029
3769.156088,153.219100,740.205942,9178.553681
3769.156403,689.485948,814.226536,8808.450710
3769.156718,842.705048,592.164754,8956.491898
3769.157032,689.485948,-0.000000,9696.697840
3769.157347,383.047749,370.102971,9474.636058
3769.157662,0.000000,-222.061783,9622.677246
3769.157976,-459.657299,-444.123565,10214.842000
3769.158291,-842.705048,-518.144159,10214.842000
3769.158606,-842.705048,-888.247130,9770.718434
3769.158921,-459.657299,-962.267725,9770.718434
3769.159235,-383.047749,-666.185348,9992.780217
3769.159550,-459.657299,-222.061783,9548.656652
3769.159865,-306.438199,-222.061783,9474.636058
3769.160180,459.657299,-0.000000,9474.636058
3769.160494,612.876398,370.102971,9252.574275
3769.160809,766.095498,740.205942,9178.553681
3769.161124,1378.971896,-0.000000,8586.388927
3769.161438,1225.752797,148.041188,9474.636058
3769.161753,536.266849,-74.020594,9622.677246
3769.162068,76.609550,-74.020594,9770.718434
3769.162383,229.828649,-0.000000,10140.821405
3769.162697,0.000000,-0.000000,9474.636058
3769.163012,-536.266849,-0.000000,9030.512492
3769.163327,0.000000,-740.205942,8956.491898
3769.163642,-229.828649,-962.267725,9622.677246
3769.163956,-383.047749,-592.164754,10436.903782
3769.164271,-689.485948,-222.061783,9622.677246
3769.164586,0.000000,-222.061783,9844.739029
3769.164900,0.000000,-0.000000,9696.697840
3769.165215,0.000000,740.205942,9326.594869
3769.165530,229.828649,814.226536,8956.491898
3769.165845,842.705048,518.144159,9326.594869
3769.166159,229.828649,518.144159,9696.697840
3769.166474,153.219100,740.205942,9474.636058
3769.166789,0.000000,1036.288319,9400.615463
3769.167104,306.438199,666.185348,9474.636058
3769.167418,76.609550,666.185348,9326.594869
3769.167733,-383.047749,-0.000000,9030.512492
3769.168048,0.000000,-0.000000,9474.636058
3769.168362,-459.657299,-518.144159,10288.862594
3769.168677,-842.705048,-518.144159,10140.821405
3769.168992,-536.266849,-592.164754,10066.800811
3769.169307,-459.657299,-370.102971,10214.842000
3769.169621,-459.657299,222.061783,9770.718434
3769.169936,153.219100,666.185348,9474.636058
3769.170251,919.314598,888.247130,9474.636058
3769.170566,995.924147,1110.308913,9474.636058
3769.170880,2068.457845,1406.391290,9326.594869
3769.171195,1072.533697,1554.432478,9252.574275
3769.171510,1532.190996,1184.329507,9622.677246
3769.171824,1378.971896,1110.308913,9326.594869
3769.172139,536.266849,814.226536,9030.512492
3769.172454,229.828649,-0.000000,9770.718434
3769.172769,0.000000,-296.082377,10362.883188
3769.173083,-612.876398,-370.102971,10288.862594
3769.173398,-842.705048,-518.144159,10658.965565
3769.173713,-306.438199,-74.020594,10510.924376
3769.174028,0.000000,-148.041188,9992.780217
3769.174342,0.000000,296.082377,9474.636058
3769.174657,536.266849,444.123565,9622.677246
3769.174972,919.314598,518.144159,9326.594869
3769.175286,1149.143247,962.267725,8882.471304
3769.175601,1378.971896,1258.350101,8882.471304
3769.175916,1378.971896,962.267725,9178.553681
3769.176231,1072.533697,1110.308913,9252.574275
3769.176545,536.266849,666.185348,8734.430116
3769.176860,306.438199,222.061783,9178.553681
3769.177175,-229.828649,-74.020594,9770.718434
3769.177490,-612.876398,-148.041188,9918.759623
3769.177804,-995.924147,-888.247130,10510.924376
3769.178119,-1149.143247,-962.267725,9770.718434
3769.178434,-612.876398,-592.164754,9548.656652
3769.178748,-766.095498,222.061783,9178.553681
3769.179063,0.000000,370.102971,9548.656652
3769.179378,612.876398,592.164754,9326.594869
3769.179693,306.438199,148.041188,8808.450710
3769.180007,995.924147,296.082377,8808.450710
3769.180322,459.657299,370.102971,9326.594869
3769.180637,383.047749,592.164754,9474.636058
3769.180952,306.438199,814.226536,9252.574275
3769.181266,0.000000,148.041188,8956.491898
3769.181581,0.000000,-666.185348,9696.697840
3769.181896,-689.485948,-740.205942,10362.883188
3769.182210,-995.924147,-370.102971,9918.759623
3769.182525,-919.314598,-814.226536,10288.862594
3769.182840,-842.705048,-296.082377,9918.759623
3769.183155,-612.876398,-74.020594,9918.759623
3769.183469,229.828649,-0.000000,9474.636058
3769.183784,383.047749,-370.102971,9474.636058
3769.184099,459.657299,-0.000000,9770.718434
3769.184414,383.047749,-0.000000,9622.677246
3769.184728,689.485948,666.185348,9548.656652
3769.185043,612.876398,962.267725,9770.718434
3769.185358,229.828649,888.247130,9400.615463
3769.185672,383.047749,-148.041188,9178.553681
3769.185987,612.876398,-814.226536,9696.697840
3769.186302,153.219100,-296.082377,10510.924376
3769.186617,-306.438199,-222.061783,9770.718434
3769.186931,-306.438199,-74.020594,9770.718434
3769.187246,-229.828649,-370.102971,9992.780217
3769.187561,229.828649,-148.041188,9474.636058
3769.187876,-229.828649,-0.000000,9178.553681
3769.188190,0.000000,-740.205942,9474.636058
3769.188505,0.000000,-222.061783,10066.800811
3769.188820,0.000000,296.082377,9548.656652
3769.189134,76.609550,222.061783,9622.677246
3769.189449,306.438199,222.061783,9548.656652
3769.189764,306.438199,592.164754,9844.739029
3769.190079,536.266849,444.123565,9030.512492
3769.190393,766.095498,296.082377,8882.471304
3769.190708,919.314598,-0.000000,9178.553681
3769.191023,229.828649,-74.020594,9178.553681
3769.191338,153.219100,296.082377,9400.615463
3769.191652,-306.438199,-296.082377,9622.677246
3769.191967,0.000000,-370.102971,9696.697840
3769.192282,-536.266849,-0.000000,9474.636058
3769.192596,0.000000,-0.000000,9178.553681
3769.192911,0.000000,-0.000000,9474.636058
3769.193226,0.000000,296.082377,10214.842000
3769.193541,0.000000,-0.000000,10140.821405
3769.193855,459.657299,148.041188,9844.739029
3769.194170,612.876398,814.226536,9622.677246
3769.194485,766.095498,1184.329507,9474.636058
3769.194800,1149.143247,1184.329507,9178.553681
3769.195114,1225.752797,814.226536,9178.553681
3769.195429,1378.971896,962.267725,9696.697840
3769.195744,766.095498,666.185348,9548.656652
3769.196059,306.438199,-0.000000,9696.697840
3769.196373,0.000000,370.102971,9474.636058
3769.196688,-383.047749,444.123565,9622.677246
3769.197003,0.000000,222.061783,10140.821405
3769.197318,-306.438199,-592.164754,10140.821405
3769.197632,-459.657299,-370.102971,10732.986159
3769.197947,-612.876398,-222.061783,11103.089130
3769.198262,0.000000,666.185348,9918.759623
3769.198577,383.047749,1258.350101,9918.759623
3769.198891,536.266849,1332.370696,9474.636058
3769.199206,842.705048,1258.350101,9252.574275
3769.199521,1149.143247,888.247130,9326.594869
3769.199836,1072.533697,592.164754,9474.636058
3769.200150,229.828649,888.247130,9326.594869
3769.200465,-306.438199,518.144159,9770.718434
3769.200780,-612.876398,-0.000000,9844.739029
3769.201095,-612.876398,-592.164754,9696.697840
3769.201409,-1225.752797,-814.226536,10288.862594
3769.201724,-1149.143247,-1110.308913,10436.903782
3769.202039,-1378.971896,-666.185348,10288.862594
3769.202354,-1225.752797,-222.061783,10658.965565
3769.202668,-842.705048,-148.041188,9770.718434
3769.202983,0.000000,74.020594,9400.615463
3769.203298,689.485948,740.205942,8660.409521
3769.203613,1072.533697,1036.288319,8438.347739
3769.203927,1455.581446,962.267725,8586.388927
3769.204242,1072.533697,518.144159,9178.553681
3769.204557,919.314598,444.123565,9326.594869
3769.204872,306.438199,-0.000000,9030.512492
3769.205186,-153.219100,-740.205942,9770.718434
3769.205501,-766.095498,-666.185348,10066.800811
3769.205816,-1378.971896,-1332.370696,9548.656652
3769.206131,-842.705048,-814.226536,9696.697840
3769.206445,-766.095498,-740.205942,10214.842000
3769.206760,-919.314598,-370.102971,10584.944971
3769.207075,-306.438199,-666.185348,9844.739029
3769.207390,0.000000,-74.020594,9548.656652
3769.207704,536.266849,592.164754,9326.594869
3769.208019,919.314598,1110.308913,8882.471304
3769.208334,1685.410096,740.205942,8808.450710
3769.208649,1455.581446,444.123565,9178.553681
3769.208963,1225.752797,222.061783,9030.512492
3769.209278,689.485948,740.205942,9400.615463
3769.209593,229.828649,-0.000000,9696.697840
3769.209908,153.219100,-222.061783,9548.656652
3769.210223,-536.266849,-148.041188,9400.615463
3769.210537,-459.657299,-1110.308913,9178.553681
3769.210852,-459.657299,-1184.329507,10140.821405
3769.211167,-842.705048,-888.247130,9918.759623
3769.211482,-612.876398,-666.185348,9844.739029
3769.211796,-229.828649,-148.041188,9844.739029
3769.212111,76.609550,-0.000000,9400.615463
3769.212426,766.095498,1184.329507,8882.471304
3769.212741,1225.752797,814.226536,8882.471304
3769.213055,842.705048,592.164754,9326.594869
3769.213370,612.876398,518.144159,9104.533087
3769.213685,536.266849,592.164754,9622.677246
3769.214000,306.438199,148.041188,9770.718434
3769.214314,-153.219100,-0.000000,9844.739029
3769.214629,-306.438199,222.061783,9696.697840
3769.214944,-383.047749,-222.061783,9844.739029
3769.215259,-306.438199,-444.123565,9992.780217
3769.215573,-689.485948,-296.082377,10214.842000
3769.215888,-1072.533697,-370.102971,9696.697840
3769.216203,-689.485948,-444.123565,10584.944971
3769.216518,-153.219100,-296.082377,10214.842000
3769.216832,-229.828649,296.082377,9918.759623
3769.217147,689.485948,740.205942,9548.656652
3769.217462,1302.362347,296.082377,9696.697840
3769.217777,766.095498,1110.308913,9104.533087
3769.218091,612.876398,1184.329507,9104.533087
3769.218406,536.266849,1406.391290,9474.636058
3769.218721,459.657299,592.164754,9474.636058
3769.219036,612.876398,740.205942,9252.574275
3769.219350,153.219100,222.061783,9400.615463
3769.219665,153.219100,-370.102971,9474.636058
3769.219980,-689.485948,-222.061783,10288.862594
3769.220295,-1378.971896,-222.061783,10584.944971
3769.220609,-1225.752797,-666.185348,10658.965565
3769.220924,-689.485948,-0.000000,10362.883188
3769.221239,-306.438199,370.102971,9770.718434
3769.221554,0.000000,370.102971,9178.553681
3769.221868,842.705048,296.082377,9474.636058
3769.222183,842.705048,370.102971,9326.594869
3769.222498,919.314598,592.164754,9030.512492
3769.222813,1532.190996,518.144159,9326.594869
3769.223127,1378.971896,518.144159,8290.306550
3769.223442,919.314598,666.185348,8438.347739
3769.223757,766.095498,444.123565,8438.347739
3769.224072,0.000000,-296.082377,8660.409521
3769.224386,-383.047749,-1258.350101,9474.636058
3769.224701,-919.314598,-1480.411884,10066.800811
3769.225016,-995.924147,-1480.411884,10436.903782
3769.225331,-1149.143247,-1702.473667,10807.006753
3769.225645,-1072.533697,-296.082377,10362.883188
3769.225960,-306.438199,-0.000000,9918.759623
3769.226275,612.876398,-0.000000,9400.615463
3769.226590,1072.533697,296.082377,9400.615463
3769.226904,1532.190996,1036.288319,9326.594869
3769.227219,1455.581446,1110.308913,8734.430116
3769.227534,1991.848295,1110.308913,8438.347739
3769.227849,1455.581446,1258.350101,8734.430116
3769.228163,1149.143247,814.226536,8512.368333
3769.228478,766.095498,-0.000000,8882.471304
3769.228793,0.000000,-518.144159,9622.677246
3769.229108,-689.485948,-962.267725,10584.944971
3769.229422,-1455.581446,-370.102971,10658.965565
3769.229737,-1838.629195,-666.185348,11103.089130
3769.230052,-1455.581446,-222.061783,10510.924376
3769.230367,-1072.533697,222.061783,9770.718434
3769.230681,76.609550,148.041188,9696.697840
3769.230996,689.485948,814.226536,9918.759623
3769.231311,919.314598,1554.432478,9548.656652
3769.231626,1072.533697,1998.556043,9326.594869
3769.231941,689.485948,2146.597232,9252.574275
3769.232255,1378.971896,1850.514855,8956.491898
3769.232570,919.314598,1184.329507,8956.491898
3769.232885,536.266849,666.185348,9104.533087
3769.233200,-306.438199,-444.123565,10214.842000
3769.233514,-1149.143247,-666.185348,10362.883188
3769.233829,-1762.019645,-444.123565,10288.862594
3769.234144,-1685.410096,-888.247130,10732.986159
3769.234459,-1302.362347,-888.247130,11473.192101
3769.234773,-1378.971896,-296.082377,10214.842000
3769.235088,-1302.362347,-296.082377,10140.821405
3769.235403,0.000000,148.041188,9474.636058
3769.235718,689.485948,666.185348,9252.574275
3769.236032,1149.143247,1110.308913,8956.491898
3769.236347,1225.752797,962.267725,8586.388927
3769.236662,1685.410096,666.185348,9770.718434
3769.236977,1378.971896,1110.308913,8956.491898
3769.237291,842.705048,814.226536,8734.430116
3769.237606,306.438199,222.061783,9474.636058
3769.237921,0.000000,-296.082377,10066.800811
3769.238236,-459.657299,-962.267725,10288.862594
3769.238550,-766.095498,-1184.329507,10214.842000
3769.238865,-919.314598,-1406.391290,10436.903782
3769.239180,-1225.752797,-814.226536,9992.780217
3769.239495,-536.266849,-222.061783,9770.718434
3769.239809,76.609550,-666.185348,9548.656652
3769.240124,689.485948,-222.061783,9400.615463
3769.240439,919.314598,444.123565,9548.656652
3769.240754,1378.971896,296.082377,9696.697840
3769.241068,1608.800546,740.205942,9252.574275
3769.241383,1685.410096,1406.391290,8882.471304
3769.241698,1532.190996,1554.432478,8364.327145
3769.242013,1149.143247,962.267725,9030.512492
3769.242327,383.047749,-0.000000,9474.636058
3769.242642,0.000000,-888.247130,9252.574275
3769.242957,-766.095498,-518.144159,9326.594869
3769.243272,-1225.752797,-1406.391290,9844.739029
3769.243586,-1455.581446,-1332.370696,9992.780217
3769.243901,-1608.800546,-1036.288319,9474.636058
3769.244216,-612.876398,-1776.494261,9918.759623
3769.244531,-842.705048,-814.226536,9548.656652
3769.244845,-229.828649,-0.000000,9622.677246
3769.245160,306.438199,-0.000000,9474.636058
3769.245475,766.095498,518.144159,9474.636058
3769.245790,1378.971896,962.267725,8956.491898
3769.246104,995.924147,1332.370696,8660.409521
3769.246419,1149.143247,814.226536,8290.306550
3769.246734,1378.971896,222.061783,9252.574275
3769.247049,612.876398,-0.000000,9104.533087
3769.247363,0.000000,-666.185348,9178.553681
3769.247678,-383.047749,-962.267725,9770.718434
3769.247993,-1149.143247,-296.082377,9918.759623
3769.248308,-1378.971896,-666.185348,9918.759623
3769.248622,-689.485948,-1110.308913,10510.924376
3769.248937,-689.485948,-518.144159,10214.842000
3769.249252,-612.876398,-592.164754,10436.903782
3769.249567,153.219100,740.205942,10140.821405
3769.249881,689.485948,1184.329507,9918.759623
3769.250196,1608.800546,1258.350101,9548.656652
3769.250511,1302.362347,1924.535449,9104.533087
3769.250826,1302.362347,1924.535449,8734.430116
3769.251140,1608.800546,1332.370696,9104.533087
3769.251455,919.314598,666.185348,9474.636058
3769.251770,383.047749,-0.000000,10066.800811
3769.252085,-689.485948,444.123565,10362.883188
3769.252399,-919.314598,370.102971,10658.965565
3769.252714,-1225.752797,-148.041188,10658.965565
3769.253029,-1225.752797,296.082377,10140.821405
3769.253344,-383.047749,-74.020594,9770.718434
3769.253659,-612.876398,-74.020594,10140.821405
3769.253973,0.000000,518.144159,10732.986159
3769.254288,153.219100,1110.308913,9474.636058
3769.254603,536.266849,1776.494261,10066.800811
3769.254918,995.924147,2146.597232,8882.471304
3769.255232,1762.019645,1998.556043,8216.285956
3769.255547,1915.238745,1332.370696,8290.306550
3769.255862,1302.362347,-0.000000,8586.388927
3769.256177,689.485948,814.226536,9474.636058
3769.256491,-383.047749,518.144159,9844.739029
3769.256806,-766.095498,-0.000000,10288.862594
3769.257121,-919.314598,-148.041188,10510.924376
3769.257436,-766.095498,-518.144159,9918.759623
3769.257750,-995.924147,-814.226536,10510.924376
3769.258065,-842.705048,-888.247130,10362.883188
3769.258380,-612.876398,-148.041188,10288.862594
3769.258695,-153.219100,296.082377,9622.677246
3769.259009,1302.362347,444.123565,9104.533087
3769.259324,1608.800546,518.144159,8364.327145
3769.259639,1762.019645,740.205942,8290.306550
3769.259954,1532.190996,1110.308913,7994.224174
3769.260268,1225.752797,518.144159,8956.491898
3769.260583,689.485948,-0.000000,9548.656652
3769.260898,0.000000,-0.000000,9770.718434
3769.261213,0.000000,-1036.288319,9992.780217
3769.261527,-306.438199,-740.205942,10066.800811
3769.261842,-536.266849,-740.205942,10140.821405
3769.262157,-229.828649,-888.247130,9992.780217
3769.262472,-229.828649,-962.267725,10510.924376
3769.262786,0.000000,-592.164754,10362.883188
3769.263101,612.876398,-296.082377,9696.697840
3769.263416,1149.143247,-0.000000,9548.656652
3769.263731,1455.581446,1036.288319,9252.574275
3769.264045,1608.800546,1628.453072,8364.327145
3769.264360,1685.410096,1110.308913,7476.080014
3769.264675,1838.629195,370.102971,8956.491898
3769.264990,1072.533697,148.041188,9178.553681
3769.265304,229.828649,-74.020594,9252.574275
3769.265619,76.609550,-888.247130,10214.842000
3769.265934,-1149.143247,-814.226536,10214.842000
3769.266249,-1225.752797,-666.185348,10584.944971
3769.266563,-1532.190996,-888.247130,9992.780217
3769.266878,-1225.752797,-1406.391290,10362.883188
3769.267193,-919.314598,-1110.308913,10362.883188
3769.267508,-689.485948,-370.102971,9622.677246
3769.267822,-459.657299,148.041188,9844.739029
3769.268137,-229.828649,740.205942,9400.615463
3769.268452,76.609550,1184.329507,9326.594869
3769.268767,459.657299,1036.288319,8364.327145
3769.269081,1072.533697,-0.000000,9400.615463
3769.269396,689.485948,-0.000000,9474.636058
3769.269711,-383.047749,-296.082377,9770.718434
3769.270026,-153.219100,-444.123565,9622.677246
3769.270340,-1072.533697,-666.185348,9548.656652
3769.270655,-1378.971896,-518.144159,9474.636058
3769.270970,-689.485948,-740.205942,9622.677246
3769.271285,-1072.533697,-518.144159,9548.656652
3769.271599,-766.095498,-666.185348,9992.780217
3769.271914,-612.876398,-0.000000,9622.677246
3769.272229,-383.047749,-0.000000,9696.697840
3769.272544,76.609550,-0.000000,10436.903782
3769.272858,383.047749,888.247130,9622.677246
3769.273173,229.828649,370.102971,9844.739029
3769.273488,919.314598,592.164754,9548.656652
3769.273803,919.314598,1036.288319,9622.677246
3769.274117,229.828649,1036.288319,9548.656652
3769.274432,536.266849,888.247130,9622.677246
3769.274747,229.828649,-74.020594,9918.759623
3769.275062,229.828649,518.144159,8734.430116
3769.275377,383.047749,296.082377,9252.574275
3769.275691,76.609550,-296.082377,9400.615463
3769.276006,-383.047749,-740.205942,9918.759623
3769.276321,-229.828649,-222.061783,9992.780217
3769.276636,0.000000,-148.041188,9548.656652
3769.276950,153.219100,-370.102971,10066.800811
3769.277265,153.219100,518.144159,9474.636058
3769.277580,766.095498,592.164754,8586.388927
3769.277895,1302.362347,1036.288319,9178.553681
3769.278209,1149.143247,1480.411884,9474.636058
3769.278524,1225.752797,1184.329507,9474.636058
3769.278839,1072.533697,740.205942,9400.615463
3769.279154,1302.362347,814.226536,9474.636058
3769.279468,689.485948,888.247130,9030.512492
3769.279783,536.266849,1332.370696,8512.368333
3769.280098,459.657299,592.164754,9030.512492
3769.280413,0.000000,-296.082377,9622.677246
3769.280727,153.219100,-740.205942,9696.697840
3769.281042,0.000000,-0.000000,9844.739029
3769.281357,-229.828649,-0.000000,9918.759623
3769.281672,0.000000,592.164754,10140.821405
3769.281986,0.000000,740.205942,9770.718434
3769.282301,306.438199,518.144159,9474.636058
3769.282616,612.876398,518.144159,9474.636058
3769.282931,766.095498,740.205942,9992.780217
3769.283245,689.485948,1110.308913,9770.718434
3769.283560,459.657299,1036.288319,9696.697840
3769.283875,459.657299,1110.308913,9622.677246
3769.284190,612.876398,740.205942,9770.718434
3769.284504,153.219100,444.123565,9622.677246
3769.284819,0.000000,-444.123565,10436.903782
3769.285134,-536.266849,-0.000000,10140.821405
3769.285449,-1072.533697,-444.123565,10732.986159
3769.285763,-995.924147,-74.020594,10436.903782
3769.286078,-842.705048,-74.020594,10584.944971
3769.286393,-1072.533697,-0.000000,10288.862594
3769.286708,-306.438199,-296.082377,9474.636058
3769.287022,0.000000,-370.102971,9474.636058
3769.287337,306.438199,-444.123565,9696.697840
3769.287652,0.000000,370.102971,9474.636058
3769.287967,459.657299,370.102971,8956.491898
3769.288281,306.438199,-0.000000,9400.615463
3769.288596,612.876398,222.061783,9178.553681
3769.288911,0.000000,444.123565,8660.409521
3769.289226,-306.438199,-518.144159,9030.512492
3769.289540,-536.266849,-814.226536,9696.697840
3769.289855,-459.657299,-1036.288319,9918.759623
3769.290170,-459.657299,-1110.308913,9622.677246
3769.290485,-536.266849,-1258.350101,9992.780217
3769.290799,-229.828649,-740.205942,9992.780217
3769.291114,0.000000,-222.061783,8586.388927
3769.291429,153.219100,-222.061783,8734.430116
3769.291744,229.828649,-444.123565,8882.471304
3769.292058,306.438199,-518.144159,8808.450710
3769.292373,536.266849,-370.102971,9400.615463
3769.292688,536.266849,-666.185348,9474.636058
3769.293003,612.876398,-370.102971,8808.450710
3769.293317,306.438199,-148.041188,8586.388927
3769.293632,459.657299,-0.000000,9030.512492
3769.293947,229.828649,-592.164754,10066.800811
3769.294262,0.000000,-518.144159,9844.739029
3769.294576,-306.438199,-370.102971,9474.636058
3769.294891,-229.828649,-962.267725,9992.780217
3769.295206,0.000000,-222.061783,9844.739029
3769.295521,0.000000,-0.000000,8882.471304
3769.295835,76.609550,-0.000000,9252.574275
3769.296150,0.000000,-296.082377,9992.780217
3769.296465,229.828649,-74.020594,9770.718434
3769.296780,383.047749,222.061783,9918.759623
3769.297095,0.000000,592.164754,9770.718434
3769.297409,0.000000,370.102971,9696.697840
3769.297724,229.828649,518.144159,8734.430116
3769.298039,229.828649,518.144159,9178.553681
3769.298353,536.266849,-74.020594,9696.697840
3769.298668,689.485948,-0.000000,9548.656652
3769.298983,0.000000,296.082377,9400.615463
3769.299297,612.876398,-0.000000,10140.821405
3769.299612,0.000000,740.205942,9622.677246
3769.299926,0.000000,666.185348,9400.615463
3769.300241,76.609550,592.164754,9104.533087
3769.300556,689.485948,518.144159,9622.677246
3769.300870,612.876398,296.082377,9474.636058
3769.301185,306.438199,444.123565,9770.718434
3769.301499,229.828649,592.164754,10066.800811
3769.301814,0.000000,592.164754,10510.924376
3769.302129,0.000000,1184.329507,9844.739029
3769.302443,229.828649,1332.370696,9622.677246
3769.302758,842.705048,888.247130,9696.697840
3769.303072,229.828649,666.185348,10140.821405
3769.303387,459.657299,888.247130,9918.759623
3769.303702,0.000000,888.247130,10214.842000
3769.304016,-383.047749,1332.370696,9992.780217
3769.304331,-306.438199,1258.350101,9252.574275
3769.304645,0.000000,962.267725,9474.636058
3769.304960,-306.438199,-0.000000,10066.800811
3769.305275,0.000000,-0.000000,10584.944971
3769.305589,-842.705048,740.205942,10362.883188
3769.305904,-612.876398,740.205942,10288.862594
3769.306218,-459.657299,444.123565,10658.965565
3769.306533,-229.828649,444.123565,9844.739029
3769.306848,612.876398,962.267725,9326.594869
3769.307162,459.657299,444.123565,9252.574275
3769.307477,536.266849,444.123565,9622.677246
3769.307791,459.657299,666.185348,9918.759623
3769.308106,153.219100,740.205942,9696.697840
3769.308421,459.657299,222.061783,9992.780217
3769.308735,0.000000,814.226536,9326.594869
3769.309050,0.000000,-74.020594,9326.594869
3769.309364,76.609550,-444.123565,9622.677246
3769.309679,-842.705048,-1036.288319,9918.759623
3769.309994,-919.314598,-592.164754,10288.862594
3769.310308,-766.095498,-962.267725,9918.759623
3769.310623,-459.657299,-592.164754,10066.800811
3769.310937,-229.828649,-296.082377,9474.636058
3769.311252,153.219100,-0.000000,8882.471304
3769.311567,536.266849,-74.020594,8586.388927
3769.311881,842.705048,-444.123565,8808.450710
3769.312196,842.705048,-592.164754,9178.553681
3769.312510,306.438199,222.061783,8734.430116
3769.312825,536.266849,-444.123565,8734.430116
3769.313140,153.219100,-1036.288319,8734.430116
3769.313454,153.219100,-814.226536,8660.409521
3769.313769,229.828649,-296.082377,9030.512492
3769.314083,-383.047749,-1036.288319,9400.615463
3769.314398,-612.876398,-1776.494261,10288.862594
3769.314713,-536.266849,-1406.391290,10066.800811
3769.315027,-842.705048,-1110.308913,10436.903782
3769.315342,-383.047749,-666.185348,9918.759623
3769.315656,459.657299,-444.123565,9400.615463
3769.315971,919.314598,-148.041188,9104.533087
3769.316286,689.485948,-222.061783,8660.409521
3769.316600,766.095498,-0.000000,8660.409521
3769.316915,766.095498,148.041188,9252.574275
3769.317229,842.705048,222.061783,9252.574275
3769.317544,383.047749,-0.000000,9548.656652
3769.317859,76.609550,-444.123565,9474.636058
3769.318173,0.000000,-518.144159,9474.636058
3769.318488,-153.219100,-888.247130,9992.780217
3769.318802,-919.314598,-1036.288319,10510.924376
3769.319117,-995.924147,-814.226536,10584.944971
3769.319432,0.000000,-74.020594,10066.800811
3769.319746,0.000000,-0.000000,9622.677246
3769.320061,229.828649,962.267725,9326.594869
3769.320375,689.485948,1036.288319,9030.512492
3769.320690,612.876398,-0.000000,9104.533087
3769.321005,1072.533697,518.144159,9474.636058
3769.321319,459.657299,444.123565,9474.636058
3769.321634,383.047749,592.164754,9474.636058
3769.321948,0.000000,444.123565,10066.800811
3769.322263,0.000000,666.185348,9696.697840
3769.322578,-766.095498,888.247130,8956.491898
3769.322892,-689.485948,370.102971,9474.636058
3769.323207,-766.095498,370.102971,10362.883188
3769.323521,-842.705048,-0.000000,10288.862594
3769.323836,-689.485948,592.164754,9548.656652
3769.324151,-383.047749,444.123565,10288.862594
3769.324465,0.000000,1110.308913,10288.862594
3769.324780,306.438199,1702.473667,9696.697840
3769.325094,919.314598,1480.411884,9548.656652
3769.325409,1072.533697,1554.432478,9770.718434
3769.325724,766.095498,1998.556043,9696.697840
3769.326038,689.485948,1554.432478,9326.594869
3769.326353,459.657299,1184.329507,9918.759623
3769.326667,0.000000,740.205942,9622.677246
3769.326982,0.000000,888.247130,9104.533087
3769.327297,153.219100,444.123565,9400.615463
3769.327611,0.000000,222.061783,9696.697840
3769.327926,0.000000,222.061783,10362.883188
3769.328240,-459.657299,592.164754,10362.883188
3769.328555,-536.266849,-74.020594,9992.780217
3769.328870,-459.657299,518.144159,10807.006753
3769.329184,0.000000,1184.329507,9770.718434
3769.329499,612.876398,888.247130,9622.677246
3769.329813,1225.752797,740.205942,10140.821405
3769.330128,919.314598,1036.288319,9918.759623
3769.330443,689.485948,1036.288319,9622.677246
3769.330757,1149.143247,1184.329507,9548.656652
3769.331072,919.314598,1184.329507,9326.594869
3769.331386,766.095498,962.267725,8512.368333
3769.331701,306.438199,222.061783,8734.430116
3769.332016,76.609550,-592.164754,9252.574275
3769.332330,-919.314598,-1258.350101,9696.697840
3769.332645,-919.314598,-1332.370696,9844.739029
3769.332959,-766.095498,-1628.453072,10214.842000
3769.333274,-689.485948,-1036.288319,10140.821405
3769.333589,-689.485948,-74.020594,10066.800811
3769.333903,-306.438199,-0.000000,9252.574275
3769.334218,229.828649,-74.020594,9622.677246
3769.334532,612.876398,-0.000000,9400.615463
3769.334847,1378.971896,-0.000000,9474.636058
3769.335162,1302.362347,666.185348,8660.409521
3769.335476,1378.971896,666.185348,9030.512492
3769.335791,919.314598,296.082377,8068.244768
3769.336105,995.924147,-0.000000,8438.347739
3769.336420,459.657299,-592.164754,9474.636058
3769.336735,-153.219100,-1406.391290,9696.697840
3769.337049,-995.924147,-1628.453072,10288.862594
3769.337364,-995.924147,-1554.432478,10658.965565
3769.337678,-1532.190996,-1480.411884,10732.986159
3769.337993,-1532.190996,-814.226536,10658.965565
3769.338308,-766.095498,-592.164754,10140.821405
3769.338622,-153.219100,-962.267725,9844.739029
3769.338937,459.657299,-0.000000,9622.677246
3769.339251,995.924147,592.164754,9030.512492
3769.339566,842.705048,962.267725,8660.409521
3769.339881,1225.752797,1258.350101,9104.533087
3769.340195,1149.143247,962.267725,8438.347739
3769.340510,536.266849,-74.020594,8142.265362
3769.340824,612.876398,-1110.308913,9104.533087
3769.341139,-536.266849,-1406.391290,10214.842000
3769.341454,-1378.971896,-1184.329507,10362.883188
3769.341768,-2145.067394,-1110.308913,10584.944971
3769.342083,-1838.629195,-1332.370696,10584.944971
3769.342397,-1608.800546,-1110.308913,10732.986159
3769.342712,-919.314598,-222.061783,9844.739029
3769.343027,-229.828649,-296.082377,9770.718434
3769.343341,459.657299,148.041188,8956.491898
3769.343656,1302.362347,1036.288319,9030.512492
3769.343970,1455.581446,1554.432478,9474.636058
3769.344285,1532.190996,962.267725,8882.471304
3769.344600,1838.629195,1110.308913,8364.327145
3769.344914,1302.362347,962.267725,8512.368333
3769.345229,689.485948,666.185348,8364.327145
3769.345543,689.485948,-0.000000,9770.718434
3769.345858,-536.266849,-370.102971,9992.780217
3769.346173,-995.924147,-740.205942,10436.903782
3769.346487,-1455.581446,-962.267725,10362.883188
3769.346802,-1149.143247,-814.226536,9696.697840
3769.347116,-1149.143247,-0.000000,10140.821405
3769.347431,-306.438199,296.082377,9918.759623
3769.347746,76.609550,370.102971,9474.636058
3769.348060,689.485948,1184.329507,9548.656652
3769.348375,919.314598,1924.535449,9252.574275
3769.348689,1532.190996,1850.514855,9326.594869
3769.349004,1532.190996,2368.659014,9104.533087
3769.349319,1302.362347,2368.659014,8882.471304
3769.349633,1149.143247,1924.535449,8956.491898
3769.349948,919.314598,444.123565,9770.718434
3769.350262,229.828649,-0.000000,10288.862594
3769.350577,-766.095498,-518.144159,10658.965565
3769.350892,-1149.143247,-370.102971,10881.027347
3769.351206,-1302.362347,-0.000000,10362.883188
3769.351521,-766.095498,222.061783,9992.780217
3769.351835,-689.485948,370.102971,9918.759623
3769.352150,-229.828649,-74.020594,10140.821405
3769.352465,153.219100,444.123565,10214.842000
3769.352779,612.876398,740.205942,9622.677246
3769.353094,1455.581446,1480.411884,9030.512492
3769.353408,1608.800546,1850.514855,9400.615463
3769.353723,1685.410096,2368.659014,9252.574275
3769.354038,1302.362347,1554.432478,8882.471304
3769.354352,1072.533697,666.185348,9178.553681
3769.354667,536.266849,-0.000000,9992.780217
3769.354981,0.000000,-0.000000,9770.718434
3769.355296,-919.314598,-444.123565,9548.656652
3769.355611,-612.876398,-962.267725,10288.862594
3769.355925,-1149.143247,-814.226536,10288.862594
3769.356240,-766.095498,-666.185348,9844.739029
3769.356554,-383.047749,-888.247130,10066.800811
3769.356869,0.000000,-814.226536,10140.821405
3769.357184,306.438199,148.041188,9548.656652
3769.357498,536.266849,962.267725,8586.388927
3769.357813,919.314598,666.185348,9178.553681
3769.358127,1685.410096,814.226536,9252.574275
3769.358442,1532.190996,1036.288319,8438.347739
3769.358757,995.924147,592.164754,8364.327145
3769.359071,1072.533697,-148.041188,9104.533087
3769.359386,76.609550,-74.020594,9844.739029
3769.359700,-459.657299,-888.247130,9992.780217
3769.360015,-459.657299,-1258.350101,10510.924376
3769.360330,-919.314598,-962.267725,10066.800811
3769.360644,-995.924147,-814.226536,9844.739029
3769.360959,-842.705048,-888.247130,9622.677246
3769.361273,0.000000,-888.247130,10362.883188
3769.361588,-383.047749,-222.061783,10214.842000
3769.361903,0.000000,-0.000000,9844.739029
3769.362217,689.485948,222.061783,9474.636058
3769.362532,919.314598,666.185348,9474.636058
3769.362846,1072.533697,1036.288319,8660.409521
3769.363161,1532.190996,666.185348,8438.347739
3769.363476,919.314598,370.102971,8734.430116
3769.363790,536.266849,444.123565,8882.471304
3769.364105,0.000000,296.082377,8734.430116
3769.364419,0.000000,-814.226536,9770.718434
3769.364734,-919.314598,-740.205942,10140.821405
3769.365049,-1378.971896,-888.247130,9696.697840
3769.365363,-1378.971896,-1554.432478,10066.800811
3769.365678,-1378.971896,-1702.473667,10584.944971
3769.365992,-1149.143247,-1332.370696,10510.924376
3769.366307,-995.924147,-888.247130,10066.800811
3769.366622,-306.438199,-222.061783,9548.656652
3769.366936,689.485948,518.144159,9548.656652
3769.367251,919.314598,1480.411884,8512.368333
3769.367565,1838.629195,1480.411884,8290.306550
3769.367880,1608.800546,444.123565,8734.430116
3769.368195,1225.752797,666.185348,9030.512492
3769.368509,766.095498,-0.000000,9178.553681
3769.368824,0.000000,-0.000000,10214.842000
3769.369138,-306.438199,-222.061783,10510.924376
3769.369453,-1149.143247,-148.041188,10362.883188
3769.369768,-1378.971896,-518.144159,9844.739029
3769.370082,-1072.533697,-666.185348,10140.821405
3769.370397,-1225.752797,-1184.329507,10881.027347
3769.370711,-842.705048,-518.144159,10214.842000
3769.371026,-383.047749,222.061783,9770.718434
3769.371341,229.828649,1110.308913,9770.718434
3769.371655,919.314598,1776.494261,8882.471304
3769.371970,1762.019645,1628.453072,8734.430116
3769.372284,2145.067394,1628.453072,8364.327145
3769.372599,1762.019645,1332.370696,8882.471304
3769.372914,919.314598,1332.370696,8660.409521
3769.373228,306.438199,666.185348,9474.636058
3769.373543,0.000000,-0.000000,9844.739029
3769.373857,-536.266849,-74.020594,10214.842000
3769.374172,-1149.143247,-444.123565,10436.903782
3769.374487,-766.095498,-592.164754,10584.944971
3769.374801,-689.485948,-518.144159,10436.903782
3769.375116,-612.876398,-222.061783,10510.924376
3769.375430,0.000000,222.061783,10066.800811
3769.375745,459.657299,740.205942,10436.903782
3769.376060,1455.581446,1258.350101,8956.491898
3769.376374,1608.800546,1554.432478,8660.409521
3769.376689,1762.019645,1702.473667,8438.347739
3769.377003,1991.848295,814.226536,9474.636058
3769.377318,1225.752797,740.205942,9030.512492
3769.377633,842.705048,592.164754,9400.615463
3769.377947,459.657299,-0.000000,10214.842000
3769.378262,0.000000,-370.102971,9992.780217
3769.378576,-383.047749,-296.082377,9844.739029
3769.378891,-842.705048,-740.205942,9992.780217
3769.379206,-1149.143247,-1406.391290,10362.883188
3769.379520,-766.095498,-888.247130,10436.903782
3769.379835,-459.657299,-666.185348,10066.800811
3769.380149,-229.828649,-592.164754,9992.780217
3769.380464,459.657299,518.144159,9178.553681
3769.380779,1072.533697,962.267725,8586.388927
3769.381093,1532.190996,1258.350101,8586.388927
3769.381408,1378.971896,1036.288319,8290.306550
3769.381722,689.485948,666.185348,9474.636058
3769.382037,766.095498,740.205942,9030.512492
3769.382351,229.828649,-0.000000,9474.636058
3769.382666,-612.876398,-0.000000,10140.821405
3769.382981,-1225.752797,-74.020594,10066.800811
3769.383295,-1149.143247,-444.123565,9992.780217
3769.383610,-1072.533697,-962.267725,10214.842000
3769.383924,-1072.533697,-592.164754,10066.800811
3769.384239,-919.314598,-518.144159,10214.842000
3769.384554,-766.095498,-518.144159,9696.697840
3769.384868,153.219100,296.082377,10066.800811
3769.385183,383.047749,740.205942,9104.533087
3769.385497,689.485948,1110.308913,8438.347739
3769.385812,919.314598,370.102971,9104.533087
3769.386127,1072.533697,592.164754,9178.553681
3769.386441,536.266849,370.102971,8956.491898
3769.386756,76.609550,370.102971,9326.594869
3769.387070,0.000000,222.061783,9844.739029
3769.387385,-383.047749,370.102971,9696.697840
3769.387700,-536.266849,-222.061783,9252.574275
3769.388014,0.000000,-1184.329507,9548.656652
3769.388329,-766.095498,-1554.432478,9770.718434
3769.388643,-1072.533697,-814.226536,10214.842000
3769.388958,-689.485948,-444.123565,9844.739029
3769.389273,-229.828649,-74.020594,10066.800811
3769.389587,0.000000,-0.000000,9474.636058
3769.389902,766.095498,-0.000000,9030.512492
3769.390216,919.314598,-0.000000,9326.594869
3769.390531,919.314598,518.144159,9770.718434
3769.390846,612.876398,740.205942,9474.636058
3769.391160,383.047749,296.082377,9326.594869
3769.391475,383.047749,296.082377,9400.615463
3769.391789,459.657299,148.041188,9252.574275
3769.392104,76.609550,-296.082377,8956.491898
3769.392419,0.000000,-888.247130,9622.677246
3769.392733,-306.438199,-962.267725,9844.739029
3769.393048,-689.485948,-518.144159,9770.718434
3769.393362,-1149.143247,-518.144159,9696.697840
3769.393677,-689.485948,-592.164754,10658.965565
3769.393992,-306.438199,-0.000000,10510.924376
3769.394306,153.219100,666.185348,9474.636058
3769.394621,612.876398,1036.288319,9474.636058
3769.394935,689.485948,1184.329507,9696.697840
3769.395250,842.705048,1258.350101,9178.553681
3769.395565,1302.362347,962.267725,9104.533087
3769.395879,995.924147,1110.308913,9474.636058
3769.396194,919.314598,1036.288319,9030.512492
3769.396509,612.876398,740.205942,8882.471304
3769.396823,842.705048,-74.020594,9178.553681
3769.397138,919.314598,-222.061783,10214.842000
3769.397453,-536.266849,-444.123565,9844.739029
3769.397767,-766.095498,-0.000000,10436.903782
3769.398082,-842.705048,-444.123565,11103.089130
3769.398396,-766.095498,-148.041188,10288.862594
3769.398711,-689.485948,666.185348,9622.677246
3769.399026,536.266849,740.205942,9400.615463
3769.399340,1072.533697,444.123565,9548.656652
3769.399655,919.314598,888.247130,9548.656652
3769.399970,1532.190996,592.164754,9696.697840
3769.400284,1149.143247,740.205942,9252.574275
3769.400599,1149.143247,740.205942,8956.491898
3769.400914,766.095498,740.205942,9178.553681
3769.401228,229.828649,370.102971,9770.718434
3769.401543,383.047749,-666.185348,9992.780217
3769.401858,-536.266849,-962.267725,10436.903782
3769.402172,-1225.752797,-592.164754,10510.924376
3769.402487,-919.314598,-592.164754,10140.821405
3769.402801,-1149.143247,-444.123565,10140.821405
3769.403116,0.000000,-74.020594,9696.697840
3769.403431,0.000000,370.102971,9178.553681
3769.403745,842.705048,-0.000000,9178.553681
3769.404060,766.095498,-0.000000,9474.636058
3769.404375,612.876398,444.123565,9252.574275
3769.404689,1149.143247,1110.308913,9400.615463
3769.405004,536.266849,814.226536,9252.574275
3769.405319,306.438199,814.226536,9104.533087
3769.405633,153.219100,444.123565,9400.615463
3769.405948,76.609550,-370.102971,9326.594869
3769.406263,383.047749,-518.144159,9474.636058
3769.406577,-612.876398,-592.164754,9696.697840
3769.406892,-766.095498,-0.000000,9696.697840
3769.407206,-383.047749,-296.082377,9696.697840
3769.407521,-229.828649,148.041188,9104.533087
3769.407836,153.219100,-0.000000,8734.430116
3769.408150,459.657299,-74.020594,8586.388927
3769.408465,459.657299,444.123565,8808.450710
3769.408780,383.047749,888.247130,9770.718434
3769.409094,0.000000,592.164754,9622.677246
3769.409409,536.266849,370.102971,10066.800811
3769.409724,766.095498,962.267725,8808.450710
3769.410038,689.485948,1036.288319,8660.409521
3769.410353,689.485948,444.123565,9326.594869
3769.410667,689.485948,-0.000000,9844.739029
3769.410982,0.000000,-222.061783,9622.677246
3769.411297,-229.828649,-0.000000,9696.697840
3769.411611,0.000000,-74.020594,9548.656652
3769.411926,-383.047749,-296.082377,10214.842000
3769.412241,-229.828649,-222.061783,9326.594869
3769.412555,-306.438199,-444.123565,9548.656652
3769.412870,0.000000,-518.144159,9474.636058
3769.413185,0.000000,-222.061783,10140.821405
3769.413499,-306.438199,296.082377,10436.903782
3769.413814,0.000000,-148.041188,10214.842000
3769.414129,306.438199,518.144159,9992.780217
3769.414443,306.438199,666.185348,9548.656652
3769.414758,459.657299,518.144159,9178.553681
3769.415072,1072.533697,-222.061783,9992.780217
3769.415387,306.438199,-222.061783,10140.821405
3769.415702,153.219100,148.041188,9992.780217
3769.416016,-153.219100,370.102971,9548.656652
3769.416331,-229.828649,-74.020594,10288.862594
3769.416646,76.609550,-0.000000,9844.739029
3769.416960,-459.657299,-0.000000,9104.533087
3769.417275,-229.828649,-296.082377,9400.615463
3769.417590,-536.266849,-592.164754,10362.883188
3769.417904,-689.485948,-592.164754,9696.697840
3769.418219,0.000000,-814.226536,9474.636058
3769.418534,229.828649,444.123565,9474.636058
3769.418848,459.657299,1258.350101,9252.574275
3769.419163,842.705048,1258.350101,8808.450710
3769.419477,1532.190996,592.164754,9104.533087
3769.419792,1225.752797,1036.288319,9030.512492
3769.420107,383.047749,666.185348,9178.553681
3769.420421,306.438199,222.061783,9474.636058
3769.420736,306.438199,222.061783,10066.800811
3769.421051,229.828649,666.185348,9696.697840
3769.421365,-229.828649,296.082377,9252.574275
3769.421680,0.000000,-74.020594,9696.697840
3769.421995,-229.828649,-370.102971,10066.800811
3769.422309,-383.047749,-444.123565,9918.759623
3769.422624,-536.266849,-444.123565,10140.821405
3769.422939,0.000000,-0.000000,10288.862594
3769.423253,0.000000,222.061783,9696.697840
3769.423568,229.828649,444.123565,8808.450710
3769.423882,612.876398,-0.000000,8882.471304
3769.424197,919.314598,222.061783,9326.594869
3769.424512,612.876398,-0.000000,9474.636058
3769.424826,459.657299,296.082377,8956.491898
3769.425141,383.047749,-296.082377,9992.780217
3769.425456,0.000000,-74.020594,9770.718434
3769.425770,-229.828649,-518.144159,9622.677246
3769.426085,0.000000,-444.123565,9992.780217
3769.426400,-842.705048,-1036.288319,10510.924376
3769.426714,-995.924147,-592.164754,11103.089130
3769.427029,-536.266849,-666.185348,10584.944971
3769.427344,-153.219100,-222.061783,10140.821405
