#time,accel_x,accel_y,accel_z
4051.119935,-2374.896044,-888.247130,10436.903782
4051.120250,-2298.286494,-1036.288319,10066.800811
4051.120565,-1455.581446,-1332.370696,10288.862594
4051.120880,-1685.410096,-592.164754,9696.697840
4051.121195,-1149.143247,-222.061783,8882.471304
4051.121510,-689.485948,-0.000000,8512.368333
4051.121825,-229.828649,444.123565,8660.409521
4051.122140,306.438199,518.144159,8512.368333
4051.122455,76.609550,444.123565,8142.265362
4051.122770,383.047749,370.102971,8734.430116
4051.123085,459.657299,-0.000000,9326.594869
4051.123400,76.609550,-0.000000,9474.636058
4051.123715,229.828649,-592.164754,9770.718434
4051.124030,-229.828649,-370.102971,9622.677246
4051.124346,0.000000,-666.185348,9474.636058
4051.124661,-459.657299,-1184.329507,9548.656652
4051.124976,-229.828649,-1184.329507,9326.594869
4051.125291,-612.876398,-1184.329507,9326.594869
4051.125606,-612.876398,-888.247130,8734.430116
4051.125921,-383.047749,-740.205942,8734.430116
4051.126236,0.000000,-1036.288319,8660.409521
4051.126551,-612.876398,-1332.370696,9178.553681
4051.126866,0.000000,-814.226536,8808.450710
4051.127181,229.828649,-814.226536,9178.553681
4051.127496,0.000000,-888.247130,9474.636058
4051.127811,76.609550,-1036.288319,9474.636058
4051.128126,153.219100,-888.247130,9474.636058
4051.128441,76.609550,-592.164754,9474.636058
4051.128756,0.000000,-444.123565,9548.656652
4051.129071,229.828649,-148.041188,9844.739029
4051.129386,76.609550,-222.061783,9622.677246
4051.129701,0.000000,-444.123565,9696.697840
4051.130016,-229.828649,-518.144159,9326.594869
4051.130331,-383.047749,-296.082377,9178.553681
4051.130647,0.000000,-74.020594,9844.739029
4051.130962,153.219100,-222.061783,9548.656652
4051.131277,612.876398,-0.000000,9474.636058
4051.131592,229.828649,-0.000000,9474.636058
4051.131907,0.000000,518.144159,9474.636058
4051.132222,306.438199,740.205942,9178.553681
4051.132537,383.047749,962.267725,9400.615463
4051.132852,459.657299,1332.370696,9548.656652
4051.133167,0.000000,1406.391290,9104.533087
4051.133482,0.000000,1110.308913,9252.574275
4051.133797,0.000000,1332.370696,9474.636058
4051.134112,0.000000,1036.288319,9548.656652
4051.134427,0.000000,1184.329507,9844.739029
4051.134742,0.000000,1406.391290,9844.739029
4051.135057,-153.219100,1258.350101,9696.697840
4051.135372,-153.219100,1258.350101,9770.718434
4051.135687,-306.438199,1036.288319,9770.718434
4051.136002,-536.266849,1554.432478,10140.821405
4051.136317,-306.438199,1110.308913,9992.780217
4051.136632,0.000000,1628.453072,9844.739029
4051.136948,0.000000,1406.391290,9696.697840
4051.137263,76.609550,1332.370696,9918.759623
4051.137578,536.266849,1258.350101,9770.718434
4051.137893,383.047749,1406.391290,9992.780217
4051.138208,689.485948,1184.329507,10214.842000
4051.138523,536.266849,888.247130,10066.800811
4051.138838,1149.143247,666.185348,10214.842000
4051.139153,842.705048,740.205942,9844.739029
4051.139468,842.705048,370.102971,9474.636058
4051.139783,842.705048,666.185348,9696.697840
4051.140098,689.485948,666.185348,10140.821405
4051.140413,306.438199,-0.000000,10288.862594
4051.140728,383.047749,222.061783,9474.636058
4051.141043,383.047749,222.061783,9770.718434
4051.141358,612.876398,-0.000000,9992.780217
4051.141673,229.828649,-148.041188,9622.677246
4051.141988,229.828649,222.061783,10288.862594
4051.142303,383.047749,-222.061783,9622.677246
4051.142618,76.609550,-148.041188,9696.697840
4051.142934,153.219100,-148.041188,9770.718434
4051.143249,0.000000,-74.020594,9770.718434
4051.143564,0.000000,-148.041188,10214.842000
4051.143879,76.609550,-444.123565,9474.636058
4051.144194,-229.828649,-74.020594,9178.553681
4051.144509,-153.219100,-222.061783,9548.656652
4051.144824,0.000000,-740.205942,9696.697840
4051.145139,-229.828649,-518.144159,8956.491898
4051.145454,0.000000,-740.205942,9326.594869
4051.145769,-229.828649,-740.205942,9400.615463
4051.146084,0.000000,-814.226536,9030.512492
4051.146399,229.828649,-740.205942,9400.615463
4051.146714,0.000000,-740.205942,9178.553681
4051.147029,-459.657299,-888.247130,8956.491898
4051.147344,0.000000,-592.164754,9104.533087
4051.147659,306.438199,-814.226536,9178.553681
4051.147974,153.219100,-592.164754,9178.553681
4051.148289,0.000000,-444.123565,9104.533087
4051.148604,0.000000,-444.123565,8882.471304
4051.148919,153.219100,-444.123565,8956.491898
4051.149235,229.828649,-962.267725,9104.533087
4051.149550,0.000000,-666.185348,9400.615463
4051.149865,0.000000,-962.267725,9474.636058
4051.150180,76.609550,-518.144159,9548.656652
4051.150495,153.219100,-370.102971,9548.656652
4051.150810,306.438199,-666.185348,9622.677246
4051.151125,0.000000,-444.123565,9622.677246
4051.151440,0.000000,-370.102971,9474.636058
4051.151755,76.609550,-444.123565,9030.512492
4051.152070,76.609550,-296.082377,10214.842000
4051.152385,229.828649,-296.082377,9992.780217
4051.152700,76.609550,-222.061783,9918.759623
4051.153015,0.000000,-0.000000,9918.759623
4051.153330,306.438199,-0.000000,9474.636058
4051.153645,459.657299,518.144159,9918.759623
4051.153960,306.438199,-0.000000,9992.780217
4051.154275,153.219100,-0.000000,10140.821405
4051.154590,229.828649,518.144159,9770.718434
4051.154905,689.485948,592.164754,9326.594869
4051.155220,76.609550,666.185348,9992.780217
4051.155536,153.219100,666.185348,9844.739029
4051.155851,153.219100,740.205942,9992.780217
4051.156166,-383.047749,518.144159,9622.677246
4051.156481,0.000000,592.164754,9844.739029
4051.156796,0.000000,592.164754,9474.636058
4051.157111,0.000000,814.226536,9770.718434
4051.157426,153.219100,888.247130,9918.759623
4051.157741,-383.047749,962.267725,9696.697840
4051.158056,0.000000,1184.329507,9696.697840
4051.158371,76.609550,1110.308913,9548.656652
4051.158686,0.000000,962.267725,9844.739029
4051.159001,-229.828649,888.247130,9844.739029
4051.159316,-306.438199,888.247130,9770.718434
4051.159631,0.000000,888.247130,9770.718434
4051.159946,0.000000,888.247130,9548.656652
4051.160262,0.000000,888.247130,9918.759623
4051.160577,0.000000,592.164754,9992.780217
4051.160892,76.609550,814.226536,9474.636058
4051.161207,76.609550,592.164754,9548.656652
4051.161522,76.609550,740.205942,9622.677246
4051.161838,76.609550,592.164754,9844.739029
4051.162153,0.000000,370.102971,9474.636058
4051.162468,0.000000,444.123565,9400.615463
4051.162783,306.438199,-0.000000,9622.677246
4051.163098,76.609550,148.041188,9696.697840
4051.163413,153.219100,-0.000000,9844.739029
4051.163729,0.000000,296.082377,9548.656652
4051.164044,153.219100,222.061783,9622.677246
4051.164359,306.438199,148.041188,9474.636058
4051.164674,229.828649,-0.000000,9474.636058
4051.164989,229.828649,-148.041188,9696.697840
4051.165305,76.609550,-0.000000,9474.636058
4051.165620,306.438199,-0.000000,8956.491898
4051.165935,153.219100,-222.061783,9178.553681
4051.166250,306.438199,-222.061783,9474.636058
4051.166565,536.266849,-222.061783,9770.718434
4051.166881,0.000000,-370.102971,9104.533087
4051.167196,0.000000,-296.082377,9474.636058
4051.167511,76.609550,-518.144159,9178.553681
4051.167826,306.438199,-370.102971,9326.594869
4051.168141,383.047749,-592.164754,9474.636058
4051.168456,0.000000,-444.123565,9474.636058
4051.168772,0.000000,-222.061783,9178.553681
4051.169087,76.609550,-222.061783,9326.594869
4051.169402,153.219100,-370.102971,9252.574275
4051.169717,229.828649,-296.082377,9252.574275
4051.170032,76.609550,-148.041188,9252.574275
4051.170348,0.000000,-296.082377,9474.636058
4051.170663,306.438199,-222.061783,9326.594869
4051.170978,76.609550,-518.144159,8882.471304
4051.171293,459.657299,-370.102971,9474.636058
4051.171608,0.000000,-370.102971,9400.615463
4051.171924,76.609550,-222.061783,9474.636058
4051.172239,0.000000,-444.123565,9474.636058
4051.172554,0.000000,-296.082377,9400.615463
4051.172869,76.609550,-0.000000,9326.594869
4051.173184,76.609550,148.041188,9252.574275
4051.173499,229.828649,-0.000000,9548.656652
4051.173815,229.828649,-0.000000,9696.697840
4051.174130,0.000000,-0.000000,9770.718434
4051.174445,0.000000,296.082377,9844.739029
4051.174760,0.000000,370.102971,9770.718434
4051.175075,0.000000,444.123565,9770.718434
4051.175391,153.219100,444.123565,9770.718434
4051.175706,-459.657299,-0.000000,10140.821405
4051.176021,76.609550,370.102971,9622.677246
4051.176336,0.000000,296.082377,9622.677246
4051.176651,153.219100,518.144159,9844.739029
4051.176967,153.219100,518.144159,9844.739029
4051.177282,229.828649,592.164754,10362.883188
4051.177597,153.219100,370.102971,9696.697840
4051.177912,76.609550,592.164754,10214.842000
4051.178227,229.828649,740.205942,9770.718434
4051.178542,306.438199,814.226536,9844.739029
4051.178858,383.047749,814.226536,10214.842000
4051.179173,76.609550,666.185348,9770.718434
4051.179488,229.828649,666.185348,9844.739029
4051.179803,536.266849,962.267725,9696.697840
4051.180118,383.047749,814.226536,10288.862594
4051.180434,459.657299,814.226536,10362.883188
4051.180749,229.828649,740.205942,9696.697840
4051.181064,76.609550,814.226536,10362.883188
4051.181379,76.609550,814.226536,9844.739029
4051.181694,229.828649,518.144159,9474.636058
4051.182010,0.000000,-0.000000,10066.800811
4051.182325,0.000000,666.185348,9770.718434
4051.182640,229.828649,222.061783,9770.718434
4051.182955,0.000000,370.102971,9770.718434
4051.183270,229.828649,592.164754,9992.780217
4051.183585,0.000000,444.123565,9770.718434
4051.183901,612.876398,370.102971,9474.636058
4051.184216,229.828649,370.102971,9844.739029
4051.184531,0.000000,296.082377,10066.800811
4051.184846,0.000000,296.082377,9918.759623
4051.185161,0.000000,-0.000000,9474.636058
4051.185477,153.219100,-0.000000,9770.718434
4051.185792,229.828649,296.082377,9844.739029
4051.186107,0.000000,-0.000000,9400.615463
4051.186422,0.000000,-0.000000,9622.677246
4051.186737,0.000000,-74.020594,9474.636058
4051.187053,0.000000,-0.000000,9326.594869
4051.187368,76.609550,-0.000000,9548.656652
4051.187683,76.609550,-0.000000,9400.615463
4051.187998,153.219100,-0.000000,9474.636058
4051.188313,0.000000,-296.082377,9104.533087
4051.188628,0.000000,-74.020594,9178.553681
4051.188944,76.609550,-222.061783,9178.553681
4051.189259,76.609550,-148.041188,9400.615463
4051.189574,-229.828649,-222.061783,9474.636058
4051.189889,76.609550,-370.102971,9548.656652
4051.190204,0.000000,-0.000000,9326.594869
4051.190520,76.609550,-148.041188,9252.574275
4051.190835,0.000000,-148.041188,9252.574275
4051.191150,0.000000,-148.041188,9474.636058
4051.191465,0.000000,-222.061783,9252.574275
4051.191780,76.609550,-518.144159,9400.615463
4051.192096,229.828649,-296.082377,9252.574275
4051.192411,153.219100,-370.102971,9178.553681
4051.192726,153.219100,-518.144159,9326.594869
4051.193041,229.828649,-222.061783,9696.697840
4051.193356,306.438199,-370.102971,9326.594869
4051.193671,229.828649,-222.061783,9474.636058
4051.193987,306.438199,-148.041188,9622.677246
4051.194302,76.609550,-148.041188,9696.697840
4051.194617,76.609550,-0.000000,9474.636058
4051.194932,229.828649,-74.020594,9474.636058
4051.195247,76.609550,-0.000000,10066.800811
4051.195563,153.219100,-0.000000,10066.800811
4051.195878,0.000000,-74.020594,9696.697840
4051.196193,76.609550,-0.000000,9548.656652
4051.196508,-229.828649,222.061783,9696.697840
4051.196823,0.000000,222.061783,10066.800811
4051.197139,153.219100,-0.000000,9844.739029
4051.197454,0.000000,-0.000000,9992.780217
4051.197769,0.000000,370.102971,9326.594869
4051.198084,0.000000,296.082377,9548.656652
4051.198399,0.000000,296.082377,9622.677246
4051.198714,-229.828649,-0.000000,9622.677246
4051.199030,0.000000,370.102971,9548.656652
4051.199345,0.000000,518.144159,9474.636058
4051.199660,153.219100,592.164754,9474.636058
4051.199975,0.000000,592.164754,9474.636058
4051.200290,0.000000,444.123565,9622.677246
4051.200606,76.609550,370.102971,9992.780217
4051.200921,0.000000,592.164754,9696.697840
4051.201236,76.609550,518.144159,9696.697840
4051.201551,459.657299,518.144159,9918.759623
4051.201866,0.000000,444.123565,9918.759623
4051.202182,153.219100,592.164754,9474.636058
4051.202497,306.438199,222.061783,9622.677246
4051.202812,229.828649,370.102971,9770.718434
4051.203127,383.047749,444.123565,9474.636058
4051.203442,0.000000,222.061783,9474.636058
4051.203757,0.000000,-0.000000,9548.656652
4051.204073,76.609550,-0.000000,9844.739029
4051.204388,229.828649,518.144159,9770.718434
4051.204703,229.828649,148.041188,9992.780217
4051.205018,459.657299,148.041188,9696.697840
4051.205333,153.219100,222.061783,9696.697840
4051.205649,306.438199,74.020594,9844.739029
4051.205964,383.047749,148.041188,9696.697840
4051.206279,0.000000,148.041188,10140.821405
4051.206594,-229.828649,-0.000000,9770.718434
4051.206909,0.000000,148.041188,9844.739029
4051.207225,0.000000,148.041188,9622.677246
4051.207540,0.000000,296.082377,9918.759623
4051.207855,153.219100,-148.041188,9844.739029
4051.208170,-229.828649,-0.000000,9474.636058
4051.208485,0.000000,370.102971,9400.615463
4051.208800,0.000000,-0.000000,9548.656652
4051.209116,0.000000,296.082377,9696.697840
4051.209431,0.000000,-0.000000,9696.697840
4051.209746,-229.828649,-0.000000,9252.574275
4051.210061,306.438199,-0.000000,9252.574275
4051.210376,229.828649,-0.000000,9622.677246
4051.210692,76.609550,-0.000000,9474.636058
4051.211007,0.000000,-74.020594,9252.574275
4051.211322,-612.876398,-0.000000,9474.636058
4051.211637,229.828649,-74.020594,9474.636058
4051.211952,0.000000,-0.000000,9326.594869
4051.212268,0.000000,-444.123565,9252.574275
4051.212583,0.000000,-0.000000,9474.636058
4051.212898,0.000000,-0.000000,9178.553681
4051.213213,76.609550,-222.061783,9326.594869
4051.213528,306.438199,-0.000000,9326.594869
4051.213843,0.000000,-0.000000,9400.615463
4051.214159,76.609550,-222.061783,9252.574275
4051.214474,0.000000,-296.082377,9474.636058
4051.214789,153.219100,-148.041188,9696.697840
4051.215104,0.000000,-296.082377,9474.636058
4051.215419,229.828649,-0.000000,9548.656652
4051.215735,0.000000,222.061783,9844.739029
4051.216050,76.609550,-222.061783,9770.718434
4051.216365,229.828649,-148.041188,9548.656652
4051.216680,229.828649,-0.000000,9622.677246
4051.216995,153.219100,-0.000000,9918.759623
4051.217311,153.219100,-0.000000,9918.759623
4051.217626,0.000000,-0.000000,9548.656652
4051.217941,0.000000,-0.000000,9844.739029
4051.218256,153.219100,296.082377,9992.780217
4051.218571,76.609550,-0.000000,9622.677246
4051.218886,0.000000,296.082377,9622.677246
4051.219202,0.000000,296.082377,9696.697840
4051.219517,0.000000,148.041188,9696.697840
4051.219832,0.000000,518.144159,9622.677246
4051.220147,0.000000,444.123565,9918.759623
4051.220462,76.609550,518.144159,9622.677246
4051.220778,-306.438199,148.041188,9474.636058
4051.221093,76.609550,444.123565,9844.739029
4051.221408,76.609550,740.205942,9696.697840
4051.221723,0.000000,222.061783,9178.553681
4051.222038,153.219100,296.082377,9474.636058
4051.222354,229.828649,666.185348,9844.739029
4051.222669,76.609550,666.185348,9622.677246
4051.222984,153.219100,370.102971,9548.656652
4051.223299,306.438199,592.164754,9548.656652
4051.223614,0.000000,370.102971,9326.594869
4051.223929,76.609550,518.144159,9474.636058
4051.224245,383.047749,666.185348,9400.615463
4051.224560,229.828649,592.164754,9548.656652
4051.224875,153.219100,370.102971,9252.574275
4051.225190,383.047749,370.102971,9474.636058
4051.225505,0.000000,148.041188,9622.677246
4051.225821,153.219100,592.164754,9770.718434
4051.226136,153.219100,296.082377,9622.677246
4051.226451,153.219100,296.082377,9918.759623
4051.226766,229.828649,296.082377,9844.739029
4051.227081,153.219100,296.082377,9548.656652
4051.227397,229.828649,222.061783,9622.677246
4051.227712,0.000000,296.082377,10140.821405
4051.228027,995.924147,222.061783,9992.780217
4051.228342,383.047749,-0.000000,9696.697840
4051.228657,0.000000,-74.020594,9844.739029
4051.228972,229.828649,-0.000000,9844.739029
4051.229288,0.000000,-0.000000,9696.697840
4051.229603,306.438199,-148.041188,9918.759623
4051.229918,0.000000,-0.000000,9844.739029
4051.230233,229.828649,-0.000000,9252.574275
4051.230548,306.438199,222.061783,9622.677246
4051.230864,0.000000,222.061783,9696.697840
4051.231179,383.047749,-0.000000,9474.636058
4051.231494,0.000000,-74.020594,9548.656652
4051.231809,306.438199,222.061783,9696.697840
4051.232124,229.828649,-0.000000,9844.739029
4051.232440,0.000000,-0.000000,9178.553681
4051.232755,76.609550,-74.020594,9474.636058
4051.233070,0.000000,-74.020594,9474.636058
4051.233385,76.609550,-0.000000,9326.594869
4051.233700,76.609550,-0.000000,9548.656652
4051.234015,306.438199,-0.000000,9474.636058
4051.234331,229.828649,296.082377,9326.594869
4051.234646,0.000000,-518.144159,8956.491898
4051.234961,153.219100,-0.000000,9400.615463
4051.235276,229.828649,-0.000000,9770.718434
4051.235591,0.000000,-0.000000,9178.553681
4051.235907,-306.438199,-0.000000,9696.697840
4051.236222,153.219100,-74.020594,9400.615463
4051.236537,0.000000,-0.000000,9474.636058
4051.236852,306.438199,-0.000000,9548.656652
4051.237167,-383.047749,-0.000000,9622.677246
4051.237483,153.219100,-222.061783,9548.656652
4051.237798,306.438199,-0.000000,9474.636058
4051.238113,306.438199,-0.000000,9474.636058
4051.238428,0.000000,-148.041188,9696.697840
4051.238743,153.219100,296.082377,9844.739029
4051.239058,153.219100,-0.000000,9918.759623
4051.239374,153.219100,-0.000000,9474.636058
4051.239689,229.828649,148.041188,10066.800811
4051.240004,229.828649,-0.000000,9474.636058
4051.240319,0.000000,-74.020594,9548.656652
4051.240634,306.438199,296.082377,10066.800811
4051.240950,0.000000,222.061783,9622.677246
4051.241265,229.828649,296.082377,9770.718434
4051.241580,0.000000,-0.000000,10066.800811
4051.241895,0.000000,222.061783,9770.718434
4051.242210,0.000000,222.061783,9696.697840
4051.242526,306.438199,-0.000000,9844.739029
4051.242841,153.219100,296.082377,10066.800811
4051.243156,0.000000,518.144159,9622.677246
4051.243471,229.828649,296.082377,9474.636058
4051.243786,0.000000,-0.000000,9696.697840
4051.244101,153.219100,592.164754,9548.656652
4051.244417,306.438199,296.082377,9696.697840
4051.244732,0.000000,296.082377,9696.697840
4051.245047,0.000000,444.123565,9548.656652
4051.245362,383.047749,-0.000000,9104.533087
4051.245677,536.266849,370.102971,9326.594869
4051.245993,0.000000,-0.000000,9474.636058
4051.246308,229.828649,-0.000000,9474.636058
4051.246623,0.000000,148.041188,9252.574275
4051.246938,383.047749,-0.000000,9252.574275
4051.247253,306.438199,444.123565,9474.636058
4051.247569,229.828649,222.061783,9474.636058
4051.247884,229.828649,444.123565,9474.636058
4051.248199,153.219100,296.082377,9622.677246
4051.248514,229.828649,148.041188,9178.553681
4051.248829,306.438199,296.082377,9696.697840
4051.249144,153.219100,222.061783,9770.718434
4051.249460,76.609550,222.061783,9474.636058
4051.249775,76.609550,-0.000000,9474.636058
4051.250090,0.000000,222.061783,9474.636058
4051.250405,306.438199,-0.000000,9696.697840
4051.250720,-229.828649,-74.020594,9474.636058
4051.251036,0.000000,74.020594,9622.677246
4051.251351,0.000000,222.061783,9992.780217
4051.251666,0.000000,-0.000000,9548.656652
4051.251981,0.000000,222.061783,9622.677246
4051.252296,76.609550,-0.000000,9696.697840
4051.252612,0.000000,-74.020594,9474.636058
4051.252927,0.000000,-0.000000,9326.594869
4051.253242,0.000000,-148.041188,9474.636058
4051.253557,153.219100,-148.041188,9844.739029
4051.253872,0.000000,-0.000000,9474.636058
4051.254187,0.000000,-0.000000,9178.553681
4051.254503,0.000000,-0.000000,9548.656652
4051.254818,0.000000,-74.020594,9844.739029
4051.255133,0.000000,-0.000000,9474.636058
4051.255448,0.000000,-0.000000,9474.636058
4051.255763,153.219100,-0.000000,9474.636058
4051.256079,0.000000,222.061783,9178.553681
4051.256394,229.828649,-0.000000,9474.636058
4051.256709,229.828649,-0.000000,9474.636058
4051.257024,-229.828649,-74.020594,9326.594869
4051.257339,153.219100,-0.000000,9400.615463
4051.257655,76.609550,-0.000000,9252.574275
4051.257970,0.000000,-0.000000,9548.656652
4051.258285,306.438199,-0.000000,9474.636058
4051.258600,306.438199,-0.000000,9474.636058
4051.258915,76.609550,-0.000000,9548.656652
4051.259230,229.828649,222.061783,9400.615463
4051.259546,0.000000,-0.000000,9548.656652
4051.259861,153.219100,-74.020594,9548.656652
4051.260176,76.609550,296.082377,9918.759623
4051.260491,0.000000,296.082377,9474.636058
4051.260807,229.828649,-0.000000,9326.594869
4051.261122,536.266849,370.102971,9696.697840
4051.261437,0.000000,222.061783,9696.697840
4051.261753,0.000000,370.102971,9400.615463
4051.262068,0.000000,74.020594,9992.780217
4051.262383,153.219100,-0.000000,9622.677246
4051.262699,76.609550,370.102971,9770.718434
4051.263014,0.000000,222.061783,9770.718434
4051.263329,-153.219100,222.061783,9622.677246
4051.263645,0.000000,296.082377,9696.697840
4051.263960,689.485948,-0.000000,9696.697840
4051.264275,76.609550,-0.000000,10140.821405
4051.264591,0.000000,370.102971,9622.677246
4051.264906,-229.828649,222.061783,9400.615463
4051.265221,76.609550,222.061783,9548.656652
4051.265537,0.000000,444.123565,9696.697840
4051.265852,76.609550,-0.000000,9696.697840
4051.266167,229.828649,222.061783,9918.759623
4051.266483,76.609550,296.082377,9326.594869
4051.266798,76.609550,444.123565,9474.636058
4051.267113,536.266849,370.102971,9548.656652
4051.267429,153.219100,148.041188,9918.759623
4051.267744,0.000000,222.061783,9548.656652
4051.268059,76.609550,-0.000000,9474.636058
4051.268375,0.000000,296.082377,9474.636058
4051.268690,306.438199,296.082377,9918.759623
4051.269005,0.000000,296.082377,9696.697840
4051.269320,-383.047749,370.102971,9548.656652
4051.269636,0.000000,370.102971,9548.656652
4051.269951,-306.438199,592.164754,9252.574275
4051.270266,0.000000,592.164754,9474.636058
4051.270582,-536.266849,592.164754,9474.636058
4051.270897,-842.705048,814.226536,9992.780217
4051.271212,-612.876398,296.082377,9844.739029
4051.271528,-766.095498,370.102971,9992.780217
4051.271843,0.000000,370.102971,9918.759623
4051.272158,-536.266849,592.164754,10066.800811
4051.272474,-306.438199,1184.329507,9548.656652
4051.272789,-536.266849,1184.329507,9622.677246
4051.273104,-383.047749,1258.350101,9030.512492
4051.273420,-1225.752797,1554.432478,8956.491898
4051.273735,-1225.752797,1480.411884,8734.430116
4051.274050,-1685.410096,1184.329507,8808.450710
4051.274366,-1915.238745,1258.350101,9030.512492
4051.274681,-2451.505594,888.247130,9104.533087
4051.274996,-2221.676944,1332.370696,10140.821405
4051.275312,-2834.553343,1110.308913,10288.862594
4051.275627,-3294.210641,888.247130,9992.780217
4051.275942,-2911.162892,1184.329507,9770.718434
4051.276258,-2834.553343,1998.556043,9770.718434
4051.276573,-2987.772442,2220.617826,9548.656652
4051.276888,-2451.505594,2738.761985,9326.594869
4051.277204,-2068.457845,3182.885551,8956.491898
4051.277519,-2221.676944,3701.029710,8512.368333
4051.277834,-1685.410096,3404.947333,8660.409521
4051.278150,-2221.676944,3923.091493,9104.533087
4051.278465,-3064.381992,3108.864956,9252.574275
4051.278780,-3447.429741,2886.803174,9474.636058
4051.279096,-3370.820191,2812.782580,9474.636058
4051.279411,-3830.477490,2442.679609,10066.800811
4051.279726,-3753.867940,2368.659014,10436.903782
4051.280042,-3677.258390,2516.700203,10510.924376
4051.280357,-3140.991542,2664.741391,10584.944971
4051.280672,-2681.334243,3404.947333,9844.739029
4051.280988,-1915.238745,3849.070898,9992.780217
4051.281303,-995.924147,4293.194464,9474.636058
4051.281618,-1072.533697,4515.256246,9474.636058
4051.281934,-766.095498,4515.256246,9400.615463
4051.282249,-612.876398,4219.173869,9400.615463
4051.282564,-306.438199,4367.215058,9548.656652
4051.282880,-612.876398,3701.029710,10066.800811
4051.283195,-1225.752797,3627.009116,10362.883188
4051.283510,-1455.581446,3034.844362,10214.842000
4051.283826,-1915.238745,3108.864956,10658.965565
4051.284141,-1532.190996,2664.741391,10584.944971
4051.284456,-1915.238745,2516.700203,10214.842000
4051.284772,-2221.676944,2294.638420,10140.821405
4051.285087,-2221.676944,2886.803174,9918.759623
4051.285402,-2145.067394,2960.823768,9474.636058
4051.285718,-2068.457845,3404.947333,9844.739029
4051.286033,-1838.629195,3330.926739,9622.677246
4051.286348,-2145.067394,3775.050304,9918.759623
4051.286664,-2298.286494,3478.967927,10288.862594
4051.286979,-2298.286494,3404.947333,10436.903782
4051.287294,-2221.676944,2738.761985,10584.944971
4051.287610,-1378.971896,1850.514855,10732.986159
4051.287925,-995.924147,1850.514855,10288.862594
4051.288240,-842.705048,1628.453072,10288.862594
4051.288556,-306.438199,1702.473667,9992.780217
4051.288871,0.000000,1554.432478,9622.677246
4051.289186,306.438199,1480.411884,9400.615463
4051.289502,536.266849,1998.556043,8586.388927
4051.289817,459.657299,1776.494261,7994.224174
4051.290132,612.876398,1554.432478,8290.306550
4051.290448,1072.533697,1258.350101,8660.409521
4051.290763,0.000000,888.247130,7920.203579
4051.291078,-612.876398,740.205942,8660.409521
4051.291394,-1149.143247,814.226536,8808.450710
4051.291709,-1532.190996,666.185348,9252.574275
4051.292024,-1915.238745,592.164754,9696.697840
4051.292340,-2145.067394,-0.000000,10214.842000
4051.292655,-2298.286494,-0.000000,10732.986159
4051.292970,-2298.286494,-0.000000,10436.903782
4051.293286,-1302.362347,-0.000000,10807.006753
4051.293601,-842.705048,592.164754,10955.047942
4051.293916,-459.657299,592.164754,10362.883188
4051.294232,383.047749,444.123565,9770.718434
4051.294547,1149.143247,296.082377,9474.636058
4051.294862,1225.752797,592.164754,9178.553681
4051.295178,919.314598,222.061783,8438.347739
4051.295493,612.876398,-148.041188,8364.327145
4051.295808,-229.828649,-370.102971,8808.450710
4051.296124,-459.657299,-962.267725,8290.306550
4051.296439,-1225.752797,-1628.453072,8438.347739
4051.296754,-1838.629195,-1776.494261,8586.388927
4051.297070,-2451.505594,-2220.617826,9104.533087
4051.297385,-3294.210641,-1850.514855,9622.677246
4051.297700,-2911.162892,-2368.659014,10658.965565
4051.298016,-2451.505594,-2220.617826,11251.130318
4051.298331,-1915.238745,-1924.535449,11399.171507
4051.298646,-995.924147,-1554.432478,11325.150913
4051.298962,153.219100,-814.226536,11473.192101
4051.299277,1685.410096,-74.020594,10510.924376
4051.299592,2911.162892,962.267725,9770.718434
4051.299908,2834.553343,1184.329507,8364.327145
4051.300223,3064.381992,2368.659014,6809.894666
4051.300538,2298.286494,2072.576638,6735.874072
4051.300854,1608.800546,1406.391290,6513.812290
4051.301169,0.000000,-0.000000,6957.935855
4051.301484,-1455.581446,-888.247130,7772.162391
4051.301800,-3447.429741,-2368.659014,8364.327145
4051.302115,-4673.182538,-2960.823768,9696.697840
4051.302430,-4749.792088,-3997.112087,11325.150913
4051.302746,-3983.696590,-3849.070898,12139.377449
4051.303061,-3370.820191,-2960.823768,11843.295072
4051.303376,-1838.629195,-1554.432478,11769.274478
4051.303692,383.047749,370.102971,10732.986159
4051.304007,2451.505594,2146.597232,9548.656652
4051.304322,4290.134789,3701.029710,7994.224174
4051.304638,5286.058936,5329.482782,6957.935855
4051.304953,5286.058936,5773.606348,5995.668130
4051.305268,4596.572988,5255.462188,6069.688724
4051.305584,2911.162892,4145.153275,6439.791695
4051.305899,1072.533697,1998.556043,7179.997637
4051.306214,-1455.581446,-0.000000,9104.533087
4051.306530,-3140.991542,-1924.535449,10955.047942
4051.306845,-4673.182538,-3775.050304,12879.583391
4051.307160,-4903.011187,-4737.318029,13841.851115
4051.307476,-4213.525239,-4367.215058,13915.871710
4051.307791,-2834.553343,-2738.761985,13027.624579
4051.308106,-689.485948,-1110.308913,11991.336260
4051.308422,2451.505594,1924.535449,10288.862594
4051.308737,4443.353888,3997.112087,8216.285956
4051.309052,5975.544884,6513.812290,7328.038826
4051.309368,7277.907231,7031.956449,6217.729913
4051.309683,7048.078582,6957.935855,5699.585753
4051.309998,5669.106685,5847.626942,6439.791695
4051.310314,3370.820191,3701.029710,8142.265362
4051.310629,306.438199,1184.329507,9770.718434
4051.310944,-2374.896044,-1406.391290,10955.047942
4051.311260,-4749.792088,-3775.050304,12509.480420
4051.311575,-5669.106685,-5625.565159,14434.015869
4051.311890,-5745.716235,-5773.606348,14952.160028
4051.312206,-4903.011187,-4885.359217,14582.057057
4051.312521,-3294.210641,-3330.926739,13545.768739
4051.312836,-536.266849,-518.144159,11917.315666
4051.313152,2068.457845,1924.535449,10140.821405
4051.313467,4443.353888,4219.173869,7994.224174
4051.313782,6128.763984,5551.544565,6809.894666
4051.314098,6818.249932,6069.688724,5699.585753
4051.314413,5898.935335,5403.503377,5403.503377
4051.314728,4519.963438,4071.132681,6439.791695
4051.315044,2298.286494,2664.741391,7105.977043
4051.315359,-383.047749,-296.082377,9104.533087
4051.315674,-2911.162892,-2590.720797,10288.862594
4051.315990,-5515.887586,-4959.379811,12509.480420
4051.316305,-6358.592633,-6587.832884,13767.830521
4051.316620,-6358.592633,-6513.812290,13249.686362
4051.316935,-5132.839837,-5181.441594,12953.603985
4051.317251,-3447.429741,-3701.029710,12435.459826
4051.317566,0.000000,-1702.473667,10881.027347
4051.317881,1915.238745,1258.350101,8734.430116
4051.318197,4290.134789,3404.947333,6809.894666
4051.318512,5822.325785,5107.421000,5625.565159
4051.318827,5975.544884,5107.421000,4885.359217
4051.319143,5669.106685,4811.338623,4811.338623
4051.319458,4366.744339,3182.885551,5403.503377
4051.319773,2374.896044,2072.576638,6513.812290
4051.320089,-536.266849,-814.226536,8364.327145
4051.320404,-3140.991542,-3627.009116,10658.965565
4051.320719,-4749.792088,-5033.400406,12731.542202
4051.321035,-6358.592633,-6661.853478,13619.789333
4051.321350,-6205.373534,-7031.956449,12953.603985
4051.321665,-5439.278036,-5995.668130,13175.665768
4051.321981,-3064.381992,-4293.194464,12065.356855
4051.322296,-459.657299,-2146.597232,10140.821405
4051.322611,2145.067394,1110.308913,9178.553681
4051.322927,4213.525239,3701.029710,6957.935855
4051.323242,4903.011187,5181.441594,6069.688724
4051.323557,5898.935335,5551.544565,5255.462188
4051.323873,5362.668486,4737.318029,5181.441594
4051.324188,3983.696590,3849.070898,6439.791695
4051.324503,1762.019645,2146.597232,7920.203579
4051.324819,-1072.533697,-740.205942,10066.800811
4051.325134,-3677.258390,-3256.906145,11917.315666
4051.325449,-5439.278036,-4737.318029,13915.871710
4051.325765,-5515.887586,-5699.585753,14285.974681
4051.326080,-5362.668486,-5625.565159,13915.871710
4051.326395,-4213.525239,-4737.318029,13841.851115
4051.326711,-2145.067394,-2368.659014,11991.336260
4051.327026,306.438199,296.082377,9992.780217
4051.327341,2757.943793,3330.926739,8216.285956
4051.327657,4519.963438,4885.359217,6587.832884
4051.327972,5515.887586,6587.832884,5477.523971
4051.328287,5669.106685,6291.750507,5107.421000
4051.328603,5209.449386,5403.503377,5699.585753
4051.328918,3294.210641,4071.132681,7105.977043
4051.329233,612.876398,1924.535449,9030.512492
4051.329549,-2068.457845,-592.164754,10807.006753
4051.329864,-4290.134789,-3034.844362,12213.398043
4051.330179,-5209.449386,-4589.276840,14359.995275
4051.330495,-5592.497135,-4885.359217,14137.933492
4051.330810,-5056.230287,-4441.235652,13989.892304
4051.331125,-3294.210641,-2590.720797,13027.624579
4051.331441,-1225.752797,-222.061783,11029.068536
4051.331756,1915.238745,2368.659014,8882.471304
4051.332071,3677.258390,4293.194464,7254.018232
4051.332387,4826.401637,5847.626942,6217.729913
4051.332702,5439.278036,6217.729913,5403.503377
4051.333017,5515.887586,5847.626942,5847.626942
4051.333333,4060.306139,4737.318029,6587.832884
4051.333648,2451.505594,2960.823768,7772.162391
4051.333963,-383.047749,814.226536,9474.636058
4051.334279,-2681.334243,-1702.473667,11547.212695
4051.334594,-4290.134789,-3182.885551,13323.706956
4051.334909,-5056.230287,-4589.276840,13841.851115
4051.335225,-4979.620737,-4589.276840,13693.809927
4051.335540,-3907.087040,-3552.988522,13175.665768
4051.335855,-1915.238745,-1480.411884,11325.150913
4051.336171,459.657299,296.082377,9474.636058
4051.336486,2528.115143,2664.741391,8290.306550
4051.336801,4060.306139,4515.256246,6809.894666
4051.337117,4979.620737,5107.421000,5551.544565
4051.337432,5056.230287,5181.441594,5477.523971
4051.337747,5362.668486,4293.194464,5921.647536
4051.338063,2834.553343,2812.782580,7031.956449
4051.338378,536.266849,1110.308913,8216.285956
4051.338693,-1915.238745,-1332.370696,9992.780217
4051.339009,-3677.258390,-3330.926739,11991.336260
4051.339324,-4903.011187,-4885.359217,13471.748144
4051.339639,-4826.401637,-4959.379811,13915.871710
4051.339955,-4749.792088,-4515.256246,13101.645173
4051.340270,-3447.429741,-3478.967927,12287.418637
4051.340585,-1072.533697,-1184.329507,10658.965565
4051.340901,306.438199,666.185348,9326.594869
4051.341216,2451.505594,2516.700203,7550.100608
4051.341531,4290.134789,4441.235652,6291.750507
4051.341847,4443.353888,5033.400406,5329.482782
4051.342162,4673.182538,4515.256246,5625.565159
4051.342477,3217.601092,2886.803174,5995.668130
4051.342793,1685.410096,1258.350101,7920.203579
4051.343108,-766.095498,-296.082377,9474.636058
4051.343423,-2757.943793,-2664.741391,11177.109724
4051.343739,-3830.477490,-4441.235652,12509.480420
4051.344054,-4749.792088,-5181.441594,13693.809927
4051.344369,-4366.744339,-4959.379811,13619.789333
4051.344685,-3753.867940,-4145.153275,12953.603985
4051.345000,-1685.410096,-2294.638420,11399.171507
4051.345315,995.924147,-296.082377,9696.697840
4051.345631,2451.505594,1702.473667,8068.244768
4051.345946,3753.867940,3478.967927,6513.812290
4051.346261,4443.353888,4663.297435,6143.709319
4051.346577,4673.182538,4293.194464,5403.503377
4051.346892,3907.087040,3701.029710,6217.729913
4051.347207,2451.505594,2442.679609,7031.956449
4051.347523,306.438199,592.164754,8734.430116
4051.347838,-1838.629195,-1554.432478,10584.944971
4051.348153,-2987.772442,-3775.050304,12287.418637
4051.348469,-4596.572988,-4663.297435,13323.706956
4051.348784,-4749.792088,-4885.359217,13841.851115
4051.349099,-4213.525239,-4441.235652,13249.686362
4051.349415,-2451.505594,-3256.906145,12509.480420
4051.349730,-229.828649,-1776.494261,11029.068536
4051.350045,1532.190996,888.247130,9030.512492
4051.350361,3370.820191,3182.885551,7105.977043
4051.350676,4290.134789,4441.235652,6439.791695
4051.350991,4519.963438,5107.421000,5403.503377
4051.351307,4290.134789,4441.235652,5847.626942
4051.351622,3294.210641,3108.864956,6735.874072
4051.351937,1608.800546,1406.391290,7994.224174
4051.352253,-766.095498,-592.164754,9400.615463
4051.352568,-2451.505594,-3182.885551,11547.212695
4051.352883,-3677.258390,-3923.091493,12731.542202
4051.353199,-4443.353888,-4515.256246,13397.727550
4051.353514,-4290.134789,-4219.173869,13471.748144
4051.353829,-2528.115143,-2886.803174,12657.521608
4051.354145,-536.266849,-1406.391290,11325.150913
4051.354460,1302.362347,592.164754,9622.677246
4051.354775,2911.162892,3034.844362,8364.327145
4051.355091,4290.134789,4737.318029,6957.935855
4051.355406,4903.011187,5107.421000,5699.585753
4051.355721,4903.011187,5107.421000,5551.544565
4051.356037,3907.087040,3923.091493,6291.750507
4051.356352,2451.505594,2442.679609,7920.203579
4051.356667,76.609550,814.226536,9178.553681
4051.356983,-1685.410096,-1184.329507,10955.047942
4051.357298,-3294.210641,-2960.823768,12435.459826
4051.357613,-4136.915689,-3849.070898,13323.706956
4051.357929,-4519.963438,-3923.091493,13471.748144
4051.358244,-3447.429741,-3330.926739,12953.603985
4051.358559,-1685.410096,-1628.453072,12139.377449
4051.358875,153.219100,592.164754,10288.862594
4051.359190,2068.457845,2590.720797,8808.450710
4051.359505,3677.258390,4367.215058,7105.977043
4051.359821,4519.963438,4959.379811,6143.709319
4051.360136,4443.353888,4663.297435,5995.668130
4051.360451,3217.601092,4145.153275,6809.894666
4051.360767,2374.896044,2516.700203,7328.038826
4051.361082,459.657299,888.247130,8808.450710
4051.361397,-1685.410096,-592.164754,10436.903782
4051.361712,-3370.820191,-2960.823768,11843.295072
4051.362027,-4596.572988,-3923.091493,12805.562797
4051.362342,-4749.792088,-4367.215058,13693.809927
4051.362657,-3983.696590,-3923.091493,13027.624579
4051.362972,-2528.115143,-2664.741391,12657.521608
4051.363287,-459.657299,-740.205942,11251.130318
4051.363602,1608.800546,1110.308913,9696.697840
4051.363918,3370.820191,2368.659014,7772.162391
4051.364233,4443.353888,3701.029710,6661.853478
4051.364548,4749.792088,4663.297435,6143.709319
4051.364863,3983.696590,4367.215058,6217.729913
4051.365178,2987.772442,3330.926739,6365.771101
4051.365493,1838.629195,1776.494261,7179.997637
4051.365808,-383.047749,-148.041188,8734.430116
4051.366123,-2757.943793,-2368.659014,10807.006753
4051.366439,-4060.306139,-4071.132681,12583.501014
4051.366754,-4903.011187,-4737.318029,13693.809927
4051.367069,-4749.792088,-4811.338623,13545.768739
4051.367384,-3753.867940,-3701.029710,12953.603985
4051.367699,-1685.410096,-1998.556043,11843.295072
4051.368014,229.828649,-0.000000,10436.903782
4051.368329,2528.115143,2294.638420,8290.306550
4051.368644,3830.477490,3775.050304,6883.915261
4051.368959,4673.182538,4515.256246,6143.709319
4051.369275,4673.182538,4589.276840,5255.462188
4051.369590,3907.087040,3849.070898,5477.523971
4051.369905,2451.505594,2368.659014,6661.853478
4051.370220,459.657299,592.164754,8438.347739
4051.370535,-2145.067394,-1258.350101,9844.739029
4051.370850,-3677.258390,-3627.009116,11843.295072
4051.371165,-4826.401637,-4737.318029,13027.624579
4051.371480,-4903.011187,-5329.482782,13619.789333
4051.371795,-3983.696590,-4367.215058,13175.665768
4051.372111,-2528.115143,-3256.906145,12879.583391
4051.372426,76.609550,-1184.329507,10658.965565
4051.372741,2528.115143,1036.288319,9178.553681
4051.373056,4060.306139,3478.967927,7254.018232
4051.373371,4979.620737,4515.256246,6217.729913
4051.373686,5056.230287,5033.400406,5403.503377
4051.374001,4903.011187,4737.318029,5551.544565
4051.374316,3524.039291,3330.926739,6587.832884
4051.374631,1915.238745,1406.391290,7772.162391
4051.374947,-689.485948,-888.247130,9622.677246
4051.375262,-2911.162892,-2886.803174,11547.212695
4051.375577,-4366.744339,-3997.112087,13323.706956
4051.375892,-4979.620737,-5107.421000,13249.686362
4051.376207,-4366.744339,-4885.359217,13915.871710
4051.376522,-3447.429741,-3627.009116,13027.624579
4051.376837,-1455.581446,-1998.556043,11917.315666
4051.377152,1072.533697,-0.000000,9696.697840
4051.377467,2911.162892,2368.659014,8586.388927
4051.377783,4749.792088,4663.297435,6513.812290
4051.378098,5286.058936,5477.523971,5921.647536
4051.378413,5362.668486,5625.565159,5403.503377
4051.378728,4519.963438,4219.173869,6143.709319
4051.379043,2834.553343,2960.823768,7254.018232
4051.379358,383.047749,1036.288319,8734.430116
4051.379673,-2145.067394,-1036.288319,10510.924376
4051.379988,-3830.477490,-3182.885551,12361.439231
4051.380303,-4979.620737,-4515.256246,13545.768739
4051.380619,-5056.230287,-4663.297435,13841.851115
4051.380934,-4519.963438,-3701.029710,13323.706956
4051.381249,-2834.553343,-2220.617826,13027.624579
4051.381564,-229.828649,-0.000000,10955.047942
4051.381879,1455.581446,2368.659014,9104.533087
4051.382194,3830.477490,3997.112087,7105.977043
4051.382509,5056.230287,5181.441594,6069.688724
4051.382824,5439.278036,5477.523971,5995.668130
4051.383139,4903.011187,4737.318029,5921.647536
4051.383455,3370.820191,3775.050304,6439.791695
4051.383770,1685.410096,2072.576638,7846.182985
4051.384085,-766.095498,296.082377,9178.553681
4051.384400,-2604.724693,-2072.576638,11103.089130
4051.384715,-4519.963438,-4293.194464,12435.459826
4051.385030,-4903.011187,-5107.421000,13397.727550
4051.385345,-4979.620737,-4737.318029,13767.830521
4051.385660,-3677.258390,-3701.029710,13027.624579
4051.385975,-2068.457845,-1776.494261,11843.295072
4051.386291,383.047749,-0.000000,10584.944971
4051.386606,2451.505594,2294.638420,8438.347739
4051.386921,3983.696590,3997.112087,7031.956449
4051.387236,5132.839837,5107.421000,6217.729913
4051.387551,5132.839837,4959.379811,5551.544565
4051.387866,3830.477490,3923.091493,5847.626942
4051.388181,2374.896044,2516.700203,6957.935855
4051.388496,383.047749,1036.288319,8290.306550
4051.388811,-2221.676944,-1332.370696,9770.718434
4051.389127,-3983.696590,-3701.029710,11917.315666
4051.389442,-4979.620737,-4811.338623,13175.665768
4051.389757,-5056.230287,-4811.338623,13841.851115
4051.390072,-4673.182538,-4441.235652,13323.706956
4051.390387,-3447.429741,-3478.967927,13471.748144
4051.390702,-1072.533697,-1258.350101,11695.253884
4051.391017,995.924147,962.267725,9104.533087
4051.391332,3140.991542,3182.885551,7328.038826
4051.391647,4749.792088,4885.359217,6291.750507
4051.391963,5286.058936,5551.544565,5255.462188
4051.392278,4673.182538,5329.482782,5329.482782
4051.392593,3677.258390,4219.173869,5699.585753
4051.392908,1991.848295,2294.638420,7179.997637
4051.393223,-689.485948,296.082377,8586.388927
4051.393538,-2757.943793,-2516.700203,11843.295072
4051.393853,-4749.792088,-4367.215058,12879.583391
4051.394168,-5439.278036,-5329.482782,13767.830521
4051.394483,-5209.449386,-5033.400406,13767.830521
4051.394799,-3907.087040,-4663.297435,13249.686362
4051.395114,-2298.286494,-1776.494261,12139.377449
4051.395429,536.266849,296.082377,9992.780217
4051.395744,2757.943793,2146.597232,8068.244768
4051.396059,4366.744339,4441.235652,6513.812290
4051.396374,5209.449386,5329.482782,5625.565159
4051.396689,5286.058936,4959.379811,5773.606348
4051.397004,4596.572988,4293.194464,5847.626942
4051.397320,3217.601092,3108.864956,7031.956449
4051.397635,995.924147,666.185348,8512.368333
4051.397950,-1685.410096,-1554.432478,10362.883188
4051.398265,-3447.429741,-4145.153275,11917.315666
4051.398580,-4979.620737,-4811.338623,13397.727550
4051.398895,-5286.058936,-5477.523971,13989.892304
4051.399210,-4290.134789,-4737.318029,13989.892304
4051.399525,-2757.943793,-3552.988522,12731.542202
4051.399840,-766.095498,-814.226536,10732.986159
4051.400156,1762.019645,1480.411884,9400.615463
4051.400471,3677.258390,3552.988522,7698.141797
4051.400786,5056.230287,5329.482782,6365.771101
4051.401101,5745.716235,5921.647536,5847.626942
4051.401416,5209.449386,4811.338623,5921.647536
4051.401731,4213.525239,3849.070898,6069.688724
4051.402046,1991.848295,1480.411884,8364.327145
4051.402361,-919.314598,-592.164754,9548.656652
4051.402676,-2834.553343,-2516.700203,11621.233289
4051.402992,-4673.182538,-4293.194464,13249.686362
4051.403307,-4979.620737,-5255.462188,13841.851115
4051.403622,-4749.792088,-4737.318029,13545.768739
4051.403937,-3753.867940,-3627.009116,13101.645173
4051.404252,-1991.848295,-1702.473667,11769.274478
4051.404567,229.828649,814.226536,9918.759623
4051.404882,2604.724693,2590.720797,8068.244768
4051.405197,4213.525239,4219.173869,6291.750507
4051.405512,5132.839837,5033.400406,5921.647536
4051.405828,5439.278036,5181.441594,5551.544565
4051.406143,4136.915689,4145.153275,5847.626942
4051.406458,2528.115143,2590.720797,7105.977043
4051.406773,459.657299,888.247130,8734.430116
4051.407088,-2068.457845,-1184.329507,10288.862594
4051.407403,-3983.696590,-3701.029710,12731.542202
4051.407718,-4903.011187,-4811.338623,13397.727550
4051.408033,-4903.011187,-5329.482782,13693.809927
4051.408348,-3983.696590,-4737.318029,13471.748144
4051.408664,-2911.162892,-2812.782580,12879.583391
4051.408979,-383.047749,-0.000000,11029.068536
4051.409294,2145.067394,1702.473667,9178.553681
4051.409609,4136.915689,3256.906145,7402.059420
4051.409924,5209.449386,4737.318029,6143.709319
4051.410239,5362.668486,5477.523971,5551.544565
4051.410554,4979.620737,4959.379811,5033.400406
4051.410869,3830.477490,3108.864956,6217.729913
4051.411184,1762.019645,1258.350101,7994.224174
4051.411500,-1378.971896,-444.123565,9474.636058
4051.411815,-3524.039291,-3034.844362,11695.253884
4051.412130,-4826.401637,-4589.276840,13101.645173
4051.412445,-5669.106685,-5329.482782,13249.686362
4051.412760,-4903.011187,-4885.359217,13471.748144
4051.413075,-3830.477490,-3997.112087,12657.521608
4051.413390,-2068.457845,-2368.659014,12139.377449
4051.413705,459.657299,-0.000000,9770.718434
4051.414020,2681.334243,2368.659014,8216.285956
4051.414336,4366.744339,4589.276840,6143.709319
4051.414651,4673.182538,5773.606348,5181.441594
4051.414966,5669.106685,5403.503377,5107.421000
4051.415281,3753.867940,3997.112087,5773.606348
4051.415596,1915.238745,2590.720797,7031.956449
4051.415911,-689.485948,666.185348,8586.388927
4051.416226,-2911.162892,-1702.473667,10362.883188
4051.416541,-4366.744339,-3923.091493,12583.501014
4051.416856,-5056.230287,-5403.503377,13841.851115
4051.417172,-5439.278036,-5329.482782,13767.830521
4051.417487,-4443.353888,-4367.215058,13545.768739
4051.417802,-2528.115143,-2368.659014,12213.398043
4051.418117,-612.876398,-74.020594,10881.027347
4051.418432,2451.505594,2442.679609,8734.430116
4051.418747,4290.134789,4367.215058,6661.853478
4051.419062,5132.839837,5699.585753,5847.626942
4051.419377,5669.106685,5921.647536,5551.544565
4051.419692,5822.325785,5107.421000,5625.565159
4051.420008,3064.381992,3404.947333,6883.915261
4051.420323,1378.971896,1110.308913,8068.244768
4051.420638,-1378.971896,-592.164754,10140.821405
4051.420953,-3294.210641,-3256.906145,12139.377449
4051.421268,-4749.792088,-4737.318029,13471.748144
4051.421583,-5132.839837,-5107.421000,14063.912898
4051.421898,-4519.963438,-4737.318029,13619.789333
4051.422213,-2987.772442,-3404.947333,13027.624579
4051.422528,-766.095498,-1258.350101,11473.192101
4051.422844,1225.752797,1184.329507,9844.739029
4051.423159,3370.820191,3330.926739,7698.141797
4051.423474,4903.011187,4959.379811,6513.812290
4051.423789,5592.497135,5551.544565,5477.523971
4051.424104,5439.278036,5181.441594,5995.668130
4051.424419,4136.915689,3849.070898,6365.771101
4051.424734,2451.505594,2294.638420,7328.038826
4051.425049,0.000000,296.082377,8956.491898
4051.425364,-2221.676944,-2220.617826,10807.006753
4051.425680,-4060.306139,-4367.215058,12509.480420
4051.425995,-4903.011187,-5107.421000,13545.768739
4051.426310,-4903.011187,-5033.400406,13989.892304
4051.426625,-4060.306139,-4293.194464,13175.665768
4051.426940,-2068.457845,-2368.659014,12139.377449
4051.427255,459.657299,-74.020594,10436.903782
4051.427570,2451.505594,2146.597232,9030.512492
4051.427885,4596.572988,3997.112087,6513.812290
4051.428201,5592.497135,4959.379811,5551.544565
4051.428516,5822.325785,5329.482782,5107.421000
4051.428831,5286.058936,4367.215058,5625.565159
4051.429146,3524.039291,3034.844362,6439.791695
4051.429461,1225.752797,962.267725,7698.141797
4051.429776,-1532.190996,-814.226536,9326.594869
4051.430091,-3447.429741,-3330.926739,11325.150913
4051.430406,-5056.230287,-4737.318029,12657.521608
4051.430721,-5439.278036,-5255.462188,14137.933492
4051.431037,-5209.449386,-4737.318029,12879.583391
4051.431352,-4213.525239,-4441.235652,13249.686362
4051.431667,-1991.848295,-1184.329507,11843.295072
4051.431982,459.657299,518.144159,9770.718434
4051.432297,2604.724693,2738.761985,8142.265362
4051.432612,4213.525239,4441.235652,6809.894666
4051.432927,4519.963438,5699.585753,5847.626942
4051.433242,4903.011187,5107.421000,5625.565159
4051.433557,3524.039291,4441.235652,6291.750507
4051.433873,1915.238745,2664.741391,7254.018232
4051.434188,-153.219100,-0.000000,8586.388927
4051.434503,-3217.601092,-2220.617826,10807.006753
4051.434818,-4903.011187,-4441.235652,12805.562797
4051.435133,-5975.544884,-5255.462188,13693.809927
4051.435448,-5975.544884,-5477.523971,13323.706956
4051.435763,-4519.963438,-4811.338623,13619.789333
4051.436078,-2681.334243,-2812.782580,12139.377449
4051.436393,-76.609550,-518.144159,10288.862594
4051.436709,1838.629195,2146.597232,8142.265362
4051.437024,3753.867940,3923.091493,6587.832884
4051.437339,5132.839837,5255.462188,5699.585753
4051.437654,5439.278036,5773.606348,5329.482782
4051.437969,4826.401637,5033.400406,5329.482782
4051.438284,3064.381992,3478.967927,6513.812290
4051.438599,1225.752797,1554.432478,8142.265362
4051.438914,-1915.238745,-518.144159,9992.780217
4051.439229,-4060.306139,-3108.864956,12361.439231
4051.439545,-5362.668486,-4737.318029,13841.851115
4051.439860,-5515.887586,-5255.462188,13767.830521
4051.440175,-4903.011187,-4515.256246,14063.912898
4051.440490,-3370.820191,-3256.906145,13545.768739
4051.440805,-1072.533697,-1110.308913,11473.192101
4051.441120,1149.143247,1628.453072,9696.697840
4051.441435,3677.258390,3849.070898,7476.080014
4051.441750,5132.839837,4885.359217,5625.565159
4051.442065,5975.544884,6069.688724,5403.503377
4051.442381,6128.763984,5773.606348,5699.585753
4051.442696,4366.744339,4367.215058,6143.709319
4051.443011,2451.505594,2516.700203,7698.141797
4051.443326,76.609550,-0.000000,9104.533087
4051.443641,-2528.115143,-1998.556043,11473.192101
4051.443956,-4060.306139,-3997.112087,13027.624579
4051.444271,-4903.011187,-5107.421000,14063.912898
4051.444586,-4903.011187,-5107.421000,13915.871710
4051.444901,-3983.696590,-4737.318029,13323.706956
4051.445217,-2221.676944,-2220.617826,12213.398043
4051.445532,612.876398,-0.000000,10658.965565
4051.445847,2834.553343,2442.679609,8882.471304
4051.446162,4826.401637,4219.173869,6809.894666
4051.446477,5439.278036,5403.503377,6069.688724
4051.446792,6128.763984,5403.503377,5477.523971
4051.447107,5286.058936,4515.256246,5625.565159
4051.447422,3753.867940,2738.761985,6957.935855
4051.447737,1532.190996,1036.288319,8512.368333
4051.448053,-1838.629195,-1258.350101,9992.780217
4051.448368,-3677.258390,-3552.988522,11843.295072
4051.448683,-4673.182538,-5255.462188,13101.645173
4051.448998,-5056.230287,-5847.626942,14211.954086
4051.449313,-4749.792088,-5033.400406,13767.830521
4051.449628,-3217.601092,-3997.112087,13027.624579
4051.449943,-995.924147,-1406.391290,11177.109724
4051.450258,1225.752797,814.226536,9326.594869
4051.450573,3370.820191,2442.679609,7550.100608
4051.450889,4903.011187,3997.112087,6365.771101
4051.451204,5592.497135,5255.462188,5625.565159
4051.451519,5362.668486,4811.338623,5403.503377
4051.451834,4290.134789,3849.070898,6069.688724
4051.452149,2374.896044,2072.576638,7476.080014
4051.452464,-536.266849,-0.000000,8882.471304
4051.452779,-2604.724693,-2442.679609,10732.986159
4051.453094,-4443.353888,-4737.318029,12953.603985
4051.453409,-5132.839837,-5773.606348,13767.830521
4051.453725,-5056.230287,-5773.606348,13619.789333
4051.454040,-4749.792088,-5329.482782,13619.789333
4051.454355,-2681.334243,-2886.803174,12435.459826
4051.454670,-229.828649,-740.205942,10362.883188
4051.454985,1838.629195,1702.473667,8586.388927
4051.455300,3600.648841,4145.153275,6809.894666
4051.455615,5056.230287,5255.462188,5625.565159
4051.455930,4979.620737,5699.585753,5033.400406
4051.456245,4519.963438,4367.215058,5551.544565
4051.456561,2757.943793,2960.823768,6143.709319
4051.456876,766.095498,962.267725,7772.162391
4051.457191,-1762.019645,-962.267725,9770.718434
4051.457506,-3753.867940,-3775.050304,11917.315666
4051.457821,-5362.668486,-5255.462188,13397.727550
4051.458136,-5592.497135,-5551.544565,13915.871710
4051.458451,-5822.325785,-4959.379811,12953.603985
4051.458766,-4060.306139,-3404.947333,12879.583391
4051.459082,-1532.190996,-1480.411884,11251.130318
4051.459397,612.876398,814.226536,9252.574275
4051.459712,3447.429741,3034.844362,7994.224174
4051.460027,4673.182538,4959.379811,5773.606348
4051.460342,4903.011187,5699.585753,5403.503377
4051.460657,5056.230287,5329.482782,5699.585753
4051.460972,3983.696590,4367.215058,5847.626942
4051.461287,1915.238745,2590.720797,7846.182985
4051.461602,-459.657299,740.205942,9252.574275
4051.461918,-2681.334243,-2294.638420,11399.171507
4051.462233,-4290.134789,-3701.029710,13175.665768
4051.462548,-4903.011187,-4737.318029,14211.954086
4051.462863,-4903.011187,-4663.297435,14285.974681
4051.463178,-3753.867940,-3775.050304,13323.706956
4051.463493,-1685.410096,-1480.411884,12065.356855
4051.463808,536.266849,888.247130,10510.924376
4051.464123,2757.943793,3256.906145,8142.265362
4051.464439,4519.963438,4737.318029,6883.915261
4051.464754,5439.278036,5921.647536,5551.544565
4051.465069,5822.325785,5551.544565,5699.585753
4051.465384,5056.230287,4885.359217,6291.750507
4051.465699,3524.039291,3552.988522,7328.038826
4051.466014,766.095498,1776.494261,9030.512492
4051.466329,-1915.238745,-666.185348,10362.883188
4051.466644,-3600.648841,-3108.864956,12287.418637
4051.466960,-4826.401637,-4293.194464,13545.768739
4051.467275,-4979.620737,-4737.318029,13915.871710
4051.467590,-4213.525239,-3997.112087,13545.768739
4051.467905,-2451.505594,-2812.782580,12657.521608
4051.468220,-306.438199,-222.061783,10881.027347
4051.468535,1762.019645,1850.514855,9252.574275
4051.468850,3677.258390,3775.050304,7920.203579
4051.469165,5132.839837,4811.338623,6365.771101
4051.469481,5745.716235,5477.523971,5625.565159
4051.469796,5056.230287,4885.359217,5329.482782
4051.470111,3217.601092,3404.947333,6439.791695
4051.470426,1532.190996,1036.288319,7994.224174
4051.470741,-766.095498,-962.267725,8956.491898
4051.471056,-3064.381992,-2886.803174,11399.171507
4051.471371,-4596.572988,-4515.256246,12509.480420
4051.471687,-4903.011187,-5107.421000,13175.665768
4051.472002,-4826.401637,-5107.421000,13397.727550
4051.472317,-3447.429741,-4071.132681,12657.521608
4051.472632,-1915.238745,-1850.514855,11621.233289
4051.472947,689.485948,444.123565,9844.739029
4051.473262,2681.334243,2516.700203,8512.368333
4051.473577,4366.744339,3849.070898,6957.935855
4051.473892,5132.839837,5107.421000,5773.606348
4051.474208,5056.230287,4811.338623,4885.359217
4051.474523,4136.915689,3775.050304,5995.668130
4051.474838,1991.848295,2368.659014,6883.915261
4051.475153,153.219100,222.061783,8216.285956
4051.475468,-2451.505594,-2072.576638,9844.739029
4051.475783,-4366.744339,-4071.132681,11917.315666
4051.476098,-5515.887586,-4959.379811,12953.603985
4051.476413,-5745.716235,-5625.565159,13767.830521
4051.476729,-4979.620737,-4885.359217,13249.686362
4051.477044,-3294.210641,-3552.988522,12583.501014
4051.477359,-689.485948,-1110.308913,11103.089130
4051.477674,1378.971896,1258.350101,9252.574275
4051.477989,3064.381992,3034.844362,7402.059420
4051.478304,4596.572988,4515.256246,6143.709319
4051.478619,4903.011187,5477.523971,5551.544565
4051.478934,4519.963438,4441.235652,5551.544565
4051.479250,3600.648841,2886.803174,6217.729913
4051.479565,1378.971896,962.267725,7772.162391
4051.479880,-1225.752797,-444.123565,9474.636058
4051.480195,-3524.039291,-2886.803174,11399.171507
4051.480510,-4903.011187,-4589.276840,12879.583391
4051.480825,-5132.839837,-5847.626942,13767.830521
4051.481140,-5132.839837,-5329.482782,13841.851115
4051.481456,-4060.306139,-4441.235652,13101.645173
4051.481771,-1685.410096,-1998.556043,11695.253884
4051.482086,842.705048,740.205942,10066.800811
4051.482401,3140.991542,2368.659014,7772.162391
4051.482716,4443.353888,4441.235652,6809.894666
4051.483031,5515.887586,5699.585753,5625.565159
4051.483346,5822.325785,5773.606348,5403.503377
4051.483661,4979.620737,4885.359217,5773.606348
4051.483977,2834.553343,2960.823768,7179.997637
4051.484292,459.657299,592.164754,8808.450710
4051.484607,-2221.676944,-1406.391290,10362.883188
4051.484922,-4060.306139,-3627.009116,12435.459826
4051.485237,-4979.620737,-4811.338623,13989.892304
4051.485552,-5592.497135,-5181.441594,13841.851115
4051.485867,-4443.353888,-4071.132681,13915.871710
4051.486182,-2681.334243,-2590.720797,12435.459826
4051.486498,0.000000,-0.000000,10955.047942
4051.486813,1838.629195,2146.597232,8882.471304
4051.487128,4136.915689,4219.173869,7179.997637
4051.487443,5515.887586,5847.626942,5921.647536
4051.487758,5975.544884,6291.750507,5403.503377
4051.488073,5439.278036,5477.523971,5551.544565
4051.488388,3677.258390,4071.132681,6809.894666
4051.488704,1685.410096,1776.494261,8068.244768
4051.489019,-1532.190996,-0.000000,9844.739029
4051.489334,-3677.258390,-2442.679609,11917.315666
4051.489649,-4826.401637,-4663.297435,13471.748144
4051.489964,-5362.668486,-5403.503377,14211.954086
4051.490279,-5056.230287,-4737.318029,13767.830521
4051.490594,-3830.477490,-3330.926739,13175.665768
4051.490909,-1608.800546,-1258.350101,11621.233289
4051.491225,766.095498,888.247130,10362.883188
4051.491540,3140.991542,3182.885551,8142.265362
4051.491855,4903.011187,5107.421000,6291.750507
4051.492170,5592.497135,5773.606348,5329.482782
4051.492485,5745.716235,5255.462188,5329.482782
4051.492800,4366.744339,3923.091493,6069.688724
4051.493115,2604.724693,2442.679609,7105.977043
4051.493430,76.609550,222.061783,8956.491898
4051.493746,-2451.505594,-1554.432478,10658.965565
4051.494061,-4213.525239,-3997.112087,12287.418637
4051.494376,-5132.839837,-5255.462188,13249.686362
4051.494691,-5209.449386,-5181.441594,13545.768739
4051.495006,-4366.744339,-4515.256246,13619.789333
4051.495321,-2834.553343,-2812.782580,12213.398043
4051.495636,0.000000,-740.205942,10732.986159
4051.495951,2145.067394,1480.411884,9104.533087
4051.496267,3907.087040,3627.009116,7328.038826
4051.496582,4903.011187,5181.441594,6217.729913
4051.496897,5515.887586,5255.462188,5551.544565
4051.497212,5286.058936,4589.276840,5477.523971
4051.497527,3677.258390,3256.906145,6513.812290
4051.497842,1762.019645,1406.391290,8142.265362
4051.498157,-995.924147,-444.123565,9326.594869
4051.498473,-2987.772442,-3256.906145,11251.130318
4051.498788,-4979.620737,-4737.318029,12805.562797
4051.499103,-5745.716235,-5847.626942,13323.706956
4051.499418,-4826.401637,-5329.482782,13397.727550
4051.499733,-3370.820191,-4219.173869,13249.686362
4051.500048,-1455.581446,-2072.576638,11473.192101
4051.500363,1072.533697,-0.000000,9992.780217
4051.500678,2604.724693,2146.597232,8216.285956
4051.500994,4443.353888,3627.009116,6217.729913
4051.501309,5362.668486,4811.338623,5847.626942
4051.501624,5362.668486,4737.318029,5181.441594
4051.501939,4519.963438,4071.132681,5995.668130
4051.502254,2604.724693,2220.617826,6809.894666
4051.502569,76.609550,148.041188,8364.327145
4051.502884,-2451.505594,-2072.576638,9844.739029
4051.503199,-4290.134789,-4071.132681,11991.336260
4051.503515,-5209.449386,-5255.462188,13767.830521
4051.503830,-5592.497135,-5625.565159,13841.851115
4051.504145,-4903.011187,-4811.338623,12953.603985
4051.504460,-3140.991542,-3108.864956,12435.459826
4051.504775,-459.657299,-1036.288319,10584.944971
4051.505090,1762.019645,1332.370696,9400.615463
4051.505405,3830.477490,3701.029710,7254.018232
4051.505721,5056.230287,5181.441594,6217.729913
4051.506036,5439.278036,5699.585753,5181.441594
4051.506351,4749.792088,5107.421000,5403.503377
4051.506666,3524.039291,4071.132681,6439.791695
4051.506981,1685.410096,1924.535449,8142.265362
4051.507296,-1072.533697,-222.061783,9696.697840
4051.507611,-3524.039291,-2812.782580,11621.233289
4051.507926,-4903.011187,-3997.112087,13249.686362
4051.508242,-5898.935335,-4959.379811,14359.995275
4051.508557,-4903.011187,-4515.256246,13915.871710
4051.508872,-3983.696590,-3552.988522,13397.727550
4051.509187,-1762.019645,-1258.350101,11621.233289
4051.509502,689.485948,1258.350101,9918.759623
4051.509817,2834.553343,3552.988522,7772.162391
4051.510132,4749.792088,5255.462188,6735.874072
4051.510447,5209.449386,5847.626942,5995.668130
4051.510763,5209.449386,5773.606348,5329.482782
4051.511078,4290.134789,4589.276840,6439.791695
4051.511393,2374.896044,2516.700203,7550.100608
4051.511708,0.000000,444.123565,8660.409521
4051.512023,-2298.286494,-1406.391290,11029.068536
4051.512338,-4136.915689,-3849.070898,12657.521608
4051.512653,-5056.230287,-4737.318029,13841.851115
4051.512968,-4749.792088,-4959.379811,14063.912898
4051.513284,-3753.867940,-4293.194464,13471.748144
4051.513599,-2221.676944,-2368.659014,11917.315666
4051.513914,153.219100,296.082377,10140.821405
4051.514229,2911.162892,2442.679609,8586.388927
4051.514544,4826.401637,4145.153275,7031.956449
4051.514859,6205.373534,5551.544565,5995.668130
4051.515174,5822.325785,5329.482782,5477.523971
4051.515490,5132.839837,4811.338623,5625.565159
4051.515805,3600.648841,2960.823768,7105.977043
4051.516120,1378.971896,1036.288319,8068.244768
4051.516435,-1225.752797,-740.205942,10066.800811
4051.516750,-3294.210641,-2664.741391,11843.295072
4051.517065,-4673.182538,-4293.194464,12731.542202
4051.517380,-4596.572988,-5181.441594,13767.830521
4051.517695,-4443.353888,-4885.359217,13767.830521
4051.518011,-3140.991542,-3923.091493,13027.624579
4051.518326,-842.705048,-1332.370696,11399.171507
4051.518641,1378.971896,1036.288319,9548.656652
4051.518956,3600.648841,3182.885551,7772.162391
4051.519271,5515.887586,4663.297435,6735.874072
4051.519586,5515.887586,4959.379811,5551.544565
4051.519901,5439.278036,4737.318029,5477.523971
4051.520216,4136.915689,3552.988522,6069.688724
4051.520532,2298.286494,1776.494261,6957.935855
4051.520847,-536.266849,-0.000000,8438.347739
4051.521162,-2834.553343,-2368.659014,10584.944971
4051.521477,-4290.134789,-4293.194464,12213.398043
4051.521792,-5515.887586,-5847.626942,13471.748144
4051.522107,-5362.668486,-5921.647536,13915.871710
4051.522422,-4213.525239,-4959.379811,12583.501014
4051.522738,-2911.162892,-2886.803174,12509.480420
4051.523053,-459.657299,-444.123565,10288.862594
4051.523368,1762.019645,1258.350101,8734.430116
4051.523683,3830.477490,3182.885551,7254.018232
4051.523998,4673.182538,4589.276840,5995.668130
4051.524313,4903.011187,5403.503377,5255.462188
4051.524628,4519.963438,4441.235652,5255.462188
4051.524943,2757.943793,2886.803174,6439.791695
4051.525259,459.657299,888.247130,8068.244768
4051.525574,-2298.286494,-1554.432478,9474.636058
4051.525889,-3907.087040,-3627.009116,11843.295072
4051.526204,-5209.449386,-5181.441594,12509.480420
4051.526519,-5515.887586,-5921.647536,13915.871710
4051.526834,-4903.011187,-5181.441594,13619.789333
4051.527149,-3907.087040,-4293.194464,12657.521608
4051.527464,-1378.971896,-1628.453072,11103.089130
4051.527780,1225.752797,888.247130,9326.594869
4051.528095,3370.820191,2886.803174,7772.162391
4051.528410,5209.449386,5033.400406,6143.709319
4051.528725,5362.668486,6143.709319,5255.462188
4051.529040,5439.278036,5625.565159,5181.441594
4051.529355,4213.525239,4441.235652,5921.647536
4051.529670,2451.505594,2960.823768,7254.018232
4051.529985,76.609550,666.185348,9178.553681
4051.530301,-2681.334243,-1480.411884,11177.109724
4051.530616,-4443.353888,-3997.112087,13545.768739
4051.530931,-5286.058936,-4959.379811,14211.954086
4051.531246,-5132.839837,-4885.359217,14434.015869
4051.531561,-4749.792088,-3849.070898,14211.954086
4051.531876,-2145.067394,-2072.576638,12879.583391
4051.532191,459.657299,222.061783,10732.986159
4051.532507,2987.772442,2812.782580,8586.388927
4051.532822,4519.963438,4811.338623,7031.956449
4051.533137,5822.325785,6365.771101,5699.585753
4051.533452,5975.544884,5995.668130,4959.379811
4051.533767,5209.449386,5403.503377,5847.626942
4051.534082,3677.258390,3627.009116,6587.832884
4051.534397,1378.971896,1776.494261,8290.306550
4051.534712,-1225.752797,-888.247130,10140.821405
4051.535028,-3600.648841,-3256.906145,12287.418637
4051.535343,-4903.011187,-4737.318029,13767.830521
4051.535658,-5362.668486,-5107.421000,14285.974681
4051.535973,-5362.668486,-4589.276840,14285.974681
4051.536288,-3064.381992,-2960.823768,13397.727550
4051.536603,-1302.362347,-814.226536,11399.171507
4051.536918,1378.971896,1258.350101,9770.718434
4051.537233,3447.429741,3849.070898,8290.306550
4051.537549,5439.278036,5033.400406,6587.832884
4051.537864,6128.763984,5625.565159,5625.565159
4051.538179,5822.325785,5403.503377,5477.523971
4051.538494,4136.915689,4145.153275,5921.647536
4051.538809,2374.896044,2220.617826,7328.038826
4051.539124,-306.438199,-0.000000,9252.574275
4051.539439,-2834.553343,-2072.576638,10807.006753
4051.539755,-4596.572988,-4515.256246,12509.480420
4051.540070,-5669.106685,-5403.503377,13397.727550
4051.540385,-5439.278036,-5477.523971,13989.892304
4051.540700,-4673.182538,-4589.276840,13619.789333
4051.541015,-2757.943793,-2590.720797,12139.377449
4051.541330,-459.657299,-148.041188,10288.862594
4051.541645,1991.848295,2146.597232,8734.430116
4051.541960,4136.915689,3775.050304,6883.915261
4051.542276,4903.011187,5033.400406,5773.606348
4051.542591,5132.839837,5107.421000,5181.441594
4051.542906,4290.134789,4367.215058,5625.565159
4051.543221,2987.772442,2664.741391,6143.709319
4051.543536,919.314598,740.205942,7846.182985
4051.543851,-1762.019645,-1332.370696,9400.615463
4051.544166,-3830.477490,-3552.988522,11399.171507
4051.544481,-5362.668486,-4959.379811,12731.542202
4051.544797,-5669.106685,-5699.585753,13767.830521
4051.545112,-5056.230287,-5699.585753,13249.686362
4051.545427,-3600.648841,-4219.173869,12287.418637
4051.545742,-1302.362347,-1702.473667,11251.130318
4051.546057,995.924147,-0.000000,9474.636058
4051.546372,3140.991542,2368.659014,7476.080014
4051.546687,5132.839837,4293.194464,6291.750507
4051.547002,5056.230287,5181.441594,5477.523971
4051.547318,5132.839837,4811.338623,5551.544565
4051.547633,4366.744339,4071.132681,5847.626942
4051.547948,2528.115143,2294.638420,7105.977043
4051.548263,76.609550,-0.000000,8364.327145
4051.548578,-2068.457845,-2442.679609,10732.986159
4051.548893,-4213.525239,-4367.215058,12731.542202
4051.549208,-5132.839837,-5107.421000,13619.789333
4051.549524,-4979.620737,-5625.565159,13767.830521
4051.549839,-3983.696590,-4589.276840,13249.686362
4051.550154,-1685.410096,-2590.720797,12509.480420
4051.550469,306.438199,-370.102971,10658.965565
4051.550784,2451.505594,2072.576638,8438.347739
4051.551099,4136.915689,4145.153275,7105.977043
4051.551414,5286.058936,5477.523971,6143.709319
4051.551729,5745.716235,5847.626942,5033.400406
4051.552045,4903.011187,4959.379811,5847.626942
4051.552360,3140.991542,3404.947333,7254.018232
4051.552675,1455.581446,1406.391290,8438.347739
4051.552990,-1685.410096,-666.185348,10362.883188
4051.553305,-3370.820191,-2738.761985,12509.480420
4051.553620,-4443.353888,-4441.235652,13693.809927
4051.553935,-4979.620737,-5033.400406,14211.954086
4051.554250,-4519.963438,-4367.215058,14063.912898
4051.554566,-3677.258390,-2886.803174,13545.768739
4051.554881,-842.705048,-888.247130,11177.109724
4051.555196,1455.581446,1924.535449,9326.594869
4051.555511,3907.087040,4145.153275,7254.018232
4051.555826,5132.839837,5255.462188,6291.750507
4051.556141,5439.278036,5847.626942,5403.503377
4051.556456,5286.058936,5107.421000,5773.606348
4051.556771,3907.087040,3923.091493,6143.709319
4051.557087,1838.629195,2146.597232,7698.141797
4051.557402,-766.095498,-0.000000,9474.636058
4051.557717,-3370.820191,-2368.659014,11769.274478
4051.558032,-4596.572988,-4071.132681,12953.603985
4051.558347,-5056.230287,-4811.338623,13767.830521
4051.558662,-4903.011187,-4737.318029,13767.830521
4051.558977,-3983.696590,-3627.009116,13101.645173
4051.559293,-1991.848295,-1480.411884,12139.377449
4051.559608,306.438199,444.123565,10140.821405
4051.559923,2681.334243,2738.761985,8660.409521
4051.560238,4443.353888,4737.318029,6587.832884
4051.560553,5056.230287,5107.421000,5773.606348
4051.560868,5132.839837,5477.523971,5329.482782
4051.561183,4290.134789,4441.235652,5921.647536
4051.561498,2528.115143,2590.720797,6957.935855
4051.561814,-229.828649,444.123565,8512.368333
4051.562129,-1762.019645,-1554.432478,10362.883188
4051.562444,-4213.525239,-4145.153275,12139.377449
4051.562759,-5286.058936,-4959.379811,13619.789333
4051.563074,-5286.058936,-5403.503377,14359.995275
4051.563389,-4826.401637,-4589.276840,13323.706956
4051.563704,-2987.772442,-2960.823768,12731.542202
4051.564020,-306.438199,-592.164754,11103.089130
4051.564335,1915.238745,1406.391290,9326.594869
4051.564650,3677.258390,3478.967927,6957.935855
4051.564965,4903.011187,4811.338623,5995.668130
4051.565280,5056.230287,4959.379811,5625.565159
4051.565596,4903.011187,4663.297435,5107.421000
4051.565911,3830.477490,3404.947333,6143.709319
4051.566226,1608.800546,1258.350101,7550.100608
4051.566541,-1455.581446,-814.226536,8882.471304
4051.566856,-3140.991542,-2886.803174,10807.006753
4051.567172,-4673.182538,-4515.256246,12805.562797
4051.567487,-5362.668486,-5477.523971,13767.830521
4051.567802,-5132.839837,-5477.523971,13841.851115
4051.568117,-3830.477490,-4367.215058,13027.624579
4051.568432,-1762.019645,-2368.659014,11769.274478
4051.568748,842.705048,296.082377,9844.739029
4051.569063,3064.381992,2146.597232,8290.306550
4051.569378,4749.792088,4441.235652,6883.915261
4051.569693,5898.935335,5773.606348,6069.688724
4051.570008,5592.497135,5403.503377,5107.421000
4051.570324,4903.011187,4367.215058,5477.523971
4051.570639,2604.724693,2590.720797,7031.956449
4051.570954,459.657299,222.061783,8216.285956
4051.571269,-2834.553343,-1628.453072,9918.759623
4051.571584,-3983.696590,-4219.173869,12361.439231
4051.571900,-5286.058936,-5107.421000,13693.809927
4051.572215,-5439.278036,-5551.544565,14063.912898
4051.572530,-4749.792088,-4811.338623,13767.830521
4051.572845,-3064.381992,-3627.009116,13545.768739
4051.573160,-1072.533697,-962.267725,11547.212695
4051.573476,1685.410096,1258.350101,9178.553681
4051.573791,3753.867940,3701.029710,7698.141797
4051.574106,5286.058936,5033.400406,5847.626942
4051.574421,5515.887586,5699.585753,5477.523971
4051.574736,5132.839837,5329.482782,5181.441594
4051.575052,3600.648841,3997.112087,5921.647536
4051.575367,1455.581446,1776.494261,7476.080014
4051.575682,-1225.752797,-74.020594,9252.574275
4051.575997,-3447.429741,-2812.782580,11695.253884
4051.576312,-5056.230287,-4589.276840,13397.727550
4051.576628,-5975.544884,-5551.544565,14137.933492
4051.576943,-5286.058936,-4885.359217,13989.892304
4051.577258,-3983.696590,-3552.988522,13767.830521
4051.577573,-1225.752797,-1332.370696,11843.295072
4051.577888,995.924147,962.267725,10066.800811
4051.578204,3370.820191,3330.926739,7476.080014
4051.578519,5209.449386,5181.441594,5921.647536
4051.578834,5515.887586,5847.626942,5181.441594
4051.579149,5669.106685,5921.647536,5477.523971
4051.579464,4290.134789,4737.318029,5699.585753
4051.579780,2681.334243,3108.864956,6735.874072
4051.580095,153.219100,444.123565,8734.430116
4051.580410,-1532.190996,-1998.556043,11103.089130
4051.580725,-4290.134789,-4071.132681,12657.521608
4051.581040,-5592.497135,-5033.400406,13989.892304
4051.581356,-5439.278036,-4959.379811,14434.015869
4051.581671,-4749.792088,-4367.215058,13841.851115
4051.581986,-2451.505594,-2664.741391,12361.439231
4051.582301,0.000000,-148.041188,10584.944971
4051.582616,2298.286494,2220.617826,8808.450710
4051.582932,4366.744339,4367.215058,7105.977043
4051.583247,5439.278036,5551.544565,6069.688724
4051.583562,5669.106685,5403.503377,5995.668130
4051.583877,5209.449386,5329.482782,5847.626942
4051.584192,3140.991542,3552.988522,6587.832884
4051.584508,1762.019645,1332.370696,8290.306550
4051.584823,-1072.533697,-444.123565,9622.677246
4051.585138,-3600.648841,-2960.823768,11769.274478
4051.585453,-4903.011187,-4811.338623,13323.706956
4051.585768,-5132.839837,-5625.565159,13915.871710
4051.586084,-4903.011187,-5255.462188,13767.830521
4051.586399,-3600.648841,-3997.112087,12953.603985
4051.586714,-1608.800546,-1480.411884,11843.295072
4051.587029,995.924147,1184.329507,9474.636058
4051.587344,3064.381992,3182.885551,7698.141797
4051.587660,4903.011187,4811.338623,6291.750507
4051.587975,6052.154434,5181.441594,5921.647536
4051.588290,5745.716235,5107.421000,5107.421000
4051.588605,4749.792088,3923.091493,5995.668130
4051.588920,2911.162892,1998.556043,7254.018232
4051.589236,306.438199,-148.041188,8808.450710
4051.589551,-2068.457845,-2146.597232,10436.903782
4051.589866,-4060.306139,-4219.173869,12213.398043
4051.590181,-4826.401637,-5033.400406,13323.706956
4051.590496,-5056.230287,-5403.503377,13471.748144
4051.590812,-4443.353888,-4959.379811,13175.665768
4051.591127,-2528.115143,-3330.926739,12361.439231
4051.591442,-306.438199,-592.164754,10732.986159
4051.591757,1608.800546,1554.432478,8734.430116
4051.592072,3907.087040,3404.947333,7550.100608
4051.592388,4903.011187,5107.421000,5995.668130
4051.592703,6052.154434,5329.482782,5181.441594
4051.593018,4903.011187,4663.297435,5255.462188
4051.593333,3140.991542,3108.864956,6365.771101
4051.593648,1302.362347,1406.391290,7920.203579
4051.593964,-1838.629195,-666.185348,9548.656652
4051.594279,-3753.867940,-3404.947333,11991.336260
4051.594594,-5132.839837,-4959.379811,13323.706956
4051.594909,-5822.325785,-5773.606348,13767.830521
4051.595224,-5362.668486,-5181.441594,13767.830521
4051.595540,-4213.525239,-3923.091493,13175.665768
4051.595855,-2145.067394,-1628.453072,11843.295072
4051.596170,459.657299,740.205942,9844.739029
4051.596485,2834.553343,2664.741391,7846.182985
4051.596800,4366.744339,4441.235652,6217.729913
4051.597116,4903.011187,5699.585753,5773.606348
4051.597431,5056.230287,5403.503377,5403.503377
4051.597746,3830.477490,4219.173869,5921.647536
4051.598061,2298.286494,2442.679609,7105.977043
4051.598376,0.000000,444.123565,8586.388927
4051.598692,-2374.896044,-1776.494261,10658.965565
4051.599007,-4136.915689,-3701.029710,12435.459826
4051.599322,-5132.839837,-4663.297435,14063.912898
4051.599637,-5056.230287,-5329.482782,13915.871710
4051.599952,-4366.744339,-4737.318029,13545.768739
4051.600268,-2528.115143,-2664.741391,12287.418637
4051.600583,0.000000,-518.144159,10584.944971
4051.600898,2298.286494,2072.576638,8586.388927
4051.601213,4519.963438,4071.132681,7105.977043
4051.601528,4979.620737,5699.585753,6217.729913
4051.601844,6052.154434,6217.729913,5107.421000
4051.602159,5286.058936,4885.359217,5403.503377
4051.602474,3524.039291,3478.967927,6217.729913
4051.602789,1915.238745,1480.411884,8364.327145
4051.603104,-612.876398,-296.082377,10140.821405
4051.603420,-3064.381992,-2960.823768,11769.274478
4051.603735,-4290.134789,-4441.235652,13619.789333
4051.604050,-4979.620737,-4737.318029,13989.892304
4051.604365,-4290.134789,-4663.297435,13989.892304
4051.604680,-3064.381992,-3478.967927,12953.603985
4051.604996,-995.924147,-1036.288319,11621.233289
4051.605311,1532.190996,1702.473667,9918.759623
4051.605626,3524.039291,3478.967927,7698.141797
4051.605941,4979.620737,4737.318029,6365.771101
4051.606256,5975.544884,5773.606348,5699.585753
4051.606572,5439.278036,4885.359217,5773.606348
4051.606887,4290.134789,3775.050304,6291.750507
4051.607202,2374.896044,1998.556043,7550.100608
4051.607517,0.000000,148.041188,9326.594869
4051.607832,-2604.724693,-2294.638420,10732.986159
4051.608148,-4519.963438,-4293.194464,12879.583391
4051.608463,-5132.839837,-5033.400406,13397.727550
4051.608778,-4903.011187,-4811.338623,13767.830521
4051.609093,-3753.867940,-3849.070898,13323.706956
4051.609408,-2068.457845,-2442.679609,12287.418637
4051.609724,229.828649,-0.000000,10881.027347
4051.610039,2298.286494,1998.556043,8956.491898
4051.610354,4060.306139,4071.132681,7105.977043
4051.610669,5439.278036,5181.441594,5995.668130
4051.610984,5745.716235,5403.503377,5033.400406
4051.611300,4749.792088,4219.173869,5329.482782
4051.611615,2987.772442,2664.741391,6661.853478
4051.611930,1225.752797,888.247130,8216.285956
4051.612245,-2374.896044,-1554.432478,9474.636058
4051.612560,-3677.258390,-3701.029710,11399.171507
4051.612876,-5209.449386,-5181.441594,12953.603985
4051.613191,-5975.544884,-5551.544565,13915.871710
4051.613506,-4979.620737,-4811.338623,13249.686362
4051.613821,-3753.867940,-3775.050304,13175.665768
4051.614136,-1149.143247,-1480.411884,11177.109724
4051.614452,536.266849,888.247130,9474.636058
4051.614767,3217.601092,2590.720797,7920.203579
4051.615082,4673.182538,4441.235652,6439.791695
4051.615397,4826.401637,5181.441594,5773.606348
4051.615712,4826.401637,4737.318029,5107.421000
4051.616028,3600.648841,3849.070898,5921.647536
4051.616343,1991.848295,1850.514855,7031.956449
4051.616658,-536.266849,-74.020594,8290.306550
4051.616973,-3294.210641,-2664.741391,10881.027347
4051.617288,-5286.058936,-4589.276840,12657.521608
4051.617604,-6052.154434,-5477.523971,13767.830521
4051.617919,-5515.887586,-5847.626942,13989.892304
4051.618234,-4519.963438,-5033.400406,13693.809927
4051.618549,-2451.505594,-2812.782580,12731.542202
4051.618864,153.219100,-74.020594,10658.965565
4051.619180,2604.724693,2368.659014,8512.368333
4051.619495,4519.963438,4441.235652,6217.729913
4051.619810,5286.058936,5847.626942,4885.359217
4051.620125,5515.887586,5773.606348,4885.359217
4051.620440,4673.182538,4737.318029,5329.482782
4051.620756,2987.772442,2886.803174,6439.791695
4051.621071,842.705048,370.102971,8512.368333
4051.621386,-1991.848295,-1406.391290,10066.800811
4051.621701,-4519.963438,-3478.967927,11991.336260
4051.622016,-5515.887586,-4885.359217,13989.892304
4051.622332,-5515.887586,-5403.503377,14434.015869
4051.622647,-4443.353888,-4885.359217,14211.954086
4051.622962,-2757.943793,-3330.926739,12731.542202
4051.623277,-383.047749,-222.061783,11251.130318
4051.623592,2145.067394,2516.700203,9400.615463
4051.623908,4290.134789,4367.215058,7105.977043
4051.624223,5898.935335,5921.647536,5625.565159
4051.624538,6435.202183,6513.812290,5403.503377
4051.624853,6128.763984,5773.606348,5329.482782
4051.625168,4060.306139,4293.194464,6069.688724
4051.625484,2298.286494,2294.638420,7624.121203
4051.625799,-766.095498,-0.000000,10066.800811
4051.626114,-3677.258390,-2368.659014,11769.274478
4051.626429,-5286.058936,-4515.256246,13545.768739
4051.626744,-6052.154434,-5329.482782,14063.912898
4051.627060,-5592.497135,-4959.379811,14211.954086
4051.627375,-4290.134789,-3552.988522,13619.789333
4051.627690,-1991.848295,-1332.370696,12213.398043
4051.628005,766.095498,962.267725,10658.965565
4051.628320,3370.820191,3182.885551,8364.327145
4051.628636,5515.887586,4959.379811,6883.915261
4051.628951,5975.544884,6365.771101,5477.523971
4051.629266,6052.154434,6069.688724,5107.421000
4051.629581,4979.620737,4811.338623,5551.544565
4051.629896,2834.553343,2886.803174,7105.977043
4051.630212,383.047749,370.102971,9252.574275
4051.630527,-2451.505594,-1554.432478,10066.800811
4051.630842,-4673.182538,-3997.112087,12213.398043
4051.631157,-5898.935335,-5551.544565,13323.706956
4051.631472,-5592.497135,-5625.565159,14137.933492
4051.631788,-4979.620737,-5107.421000,13619.789333
4051.632103,-3294.210641,-3256.906145,12953.603985
4051.632418,-612.876398,-814.226536,10807.006753
4051.632733,1915.238745,1406.391290,8882.471304
4051.633048,4136.915689,3256.906145,7179.997637
4051.633364,5286.058936,4885.359217,6217.729913
4051.633679,6358.592633,5847.626942,5329.482782
4051.633994,5975.544884,5181.441594,5403.503377
4051.634309,4290.134789,3552.988522,6143.709319
4051.634624,2757.943793,1628.453072,7476.080014
4051.634940,-612.876398,-444.123565,8586.388927
4051.635255,-2911.162892,-2960.823768,10807.006753
4051.635570,-4596.572988,-4885.359217,13249.686362
4051.635885,-5822.325785,-5847.626942,13545.768739
4051.636200,-6435.202183,-5773.606348,14137.933492
4051.636516,-4519.963438,-4737.318029,13397.727550
4051.636831,-2298.286494,-2664.741391,12065.356855
4051.637146,459.657299,-296.082377,10140.821405
4051.637461,2604.724693,2220.617826,8438.347739
4051.637776,4366.744339,4515.256246,6439.791695
4051.638092,5439.278036,5329.482782,5551.544565
4051.638407,5975.544884,5477.523971,4959.379811
4051.638722,5056.230287,4515.256246,5033.400406
4051.639037,2987.772442,2812.782580,6439.791695
4051.639352,766.095498,666.185348,7772.162391
4051.639668,-2068.457845,-1628.453072,9622.677246
4051.639983,-4136.915689,-4219.173869,11917.315666
4051.640298,-5669.106685,-5699.585753,13249.686362
4051.640613,-6358.592633,-6291.750507,14656.077652
4051.640928,-5439.278036,-4959.379811,14137.933492
4051.641244,-3753.867940,-3849.070898,12879.583391
4051.641559,-995.924147,-1332.370696,11251.130318
4051.641874,1149.143247,1036.288319,9548.656652
4051.642189,3753.867940,3108.864956,7476.080014
4051.642504,4979.620737,4959.379811,5847.626942
4051.642820,5745.716235,6143.709319,5181.441594
4051.643135,5669.106685,5477.523971,5181.441594
4051.643450,4136.915689,4071.132681,5625.565159
4051.643765,1838.629195,2146.597232,7328.038826
4051.644080,-995.924147,-0.000000,8956.491898
4051.644396,-3447.429741,-2442.679609,11547.212695
4051.644711,-5132.839837,-4663.297435,12879.583391
4051.645026,-5898.935335,-5477.523971,14285.974681
4051.645341,-5745.716235,-5107.421000,14656.077652
4051.645656,-4519.963438,-4441.235652,13841.851115
4051.645972,-2298.286494,-1850.514855,12287.418637
4051.646287,0.000000,740.205942,10732.986159
4051.646602,2604.724693,3552.988522,8216.285956
4051.646917,4749.792088,5107.421000,6365.771101
4051.647232,5592.497135,6809.894666,5255.462188
4051.647548,6052.154434,6587.832884,4959.379811
4051.647863,4673.182538,5625.565159,5699.585753
4051.648178,2834.553343,4071.132681,7105.977043
4051.648493,766.095498,1406.391290,9178.553681
4051.648808,-2221.676944,-1258.350101,10584.944971
4051.649124,-4060.306139,-3627.009116,12805.562797
4051.649439,-5362.668486,-4737.318029,13841.851115
4051.649754,-5822.325785,-5033.400406,14285.974681
4051.650069,-5056.230287,-4589.276840,13989.892304
4051.650384,-2987.772442,-3034.844362,13175.665768
4051.650700,-229.828649,-74.020594,11547.212695
4051.651015,2221.676944,2146.597232,8660.409521
4051.651330,4366.744339,3701.029710,7031.956449
4051.651645,5515.887586,5403.503377,6439.791695
4051.651960,6205.373534,6069.688724,5033.400406
4051.652276,5669.106685,5033.400406,5255.462188
4051.652591,4443.353888,3849.070898,6217.729913
4051.652906,2068.457845,1776.494261,7402.059420
4051.653221,-229.828649,-740.205942,9252.574275
4051.653536,-2987.772442,-2664.741391,11251.130318
4051.653852,-4366.744339,-4441.235652,13323.706956
4051.654167,-5669.106685,-5329.482782,13471.748144
4051.654482,-5209.449386,-5255.462188,13915.871710
4051.654797,-3753.867940,-4071.132681,13249.686362
4051.655112,-1915.238745,-2368.659014,11695.253884
4051.655428,612.876398,518.144159,10140.821405
4051.655743,3294.210641,2590.720797,9030.512492
4051.656058,4826.401637,4663.297435,7031.956449
4051.656373,5975.544884,5403.503377,5699.585753
4051.656688,5439.278036,5403.503377,5255.462188
4051.657004,4903.011187,4589.276840,5847.626942
4051.657319,3140.991542,2590.720797,6809.894666
4051.657634,1072.533697,370.102971,8068.244768
4051.657949,-2221.676944,-1776.494261,10066.800811
4051.658264,-3983.696590,-4071.132681,12139.377449
4051.658580,-5515.887586,-5255.462188,13323.706956
4051.658895,-5745.716235,-5773.606348,14063.912898
4051.659210,-5209.449386,-4885.359217,13619.789333
4051.659525,-3524.039291,-3701.029710,12657.521608
4051.659840,-1378.971896,-1480.411884,10955.047942
4051.660156,1072.533697,888.247130,9474.636058
4051.660471,3524.039291,2812.782580,7698.141797
4051.660786,4903.011187,4515.256246,5921.647536
4051.661101,4903.011187,5403.503377,5329.482782
4051.661416,4826.401637,4737.318029,5329.482782
4051.661732,3370.820191,3478.967927,5699.585753
4051.662047,1532.190996,1406.391290,7328.038826
4051.662362,-1378.971896,-0.000000,8956.491898
4051.662677,-3907.087040,-2812.782580,11103.089130
4051.662992,-5669.106685,-4589.276840,13027.624579
4051.663308,-6052.154434,-6069.688724,14137.933492
4051.663623,-4979.620737,-5995.668130,14063.912898
4051.663938,-4826.401637,-4737.318029,13249.686362
4051.664253,-2604.724693,-2664.741391,12065.356855
4051.664568,76.609550,-0.000000,10436.903782
4051.664883,2681.334243,2368.659014,8216.285956
4051.665198,4673.182538,4515.256246,5995.668130
4051.665513,5515.887586,5921.647536,5033.400406
4051.665829,6205.373534,6143.709319,5107.421000
4051.666144,4749.792088,4737.318029,5033.400406
4051.666459,2834.553343,2886.803174,6661.853478
4051.666774,842.705048,296.082377,8364.327145
4051.667089,-2374.896044,-1628.453072,9992.780217
4051.667404,-4136.915689,-3627.009116,12509.480420
4051.667719,-5592.497135,-4959.379811,13989.892304
4051.668034,-5439.278036,-5699.585753,14508.036463
4051.668349,-4903.011187,-4589.276840,14434.015869
4051.668665,-2911.162892,-2368.659014,12583.501014
4051.668980,-536.266849,222.061783,11029.068536
4051.669295,2068.457845,2516.700203,8808.450710
4051.669610,4213.525239,4663.297435,7254.018232
4051.669925,5515.887586,5847.626942,5995.668130
4051.670240,6052.154434,6513.812290,5107.421000
4051.670555,5669.106685,5847.626942,5181.441594
4051.670870,3830.477490,3997.112087,6365.771101
4051.671185,1532.190996,1702.473667,7994.224174
4051.671500,-1608.800546,-148.041188,9696.697840
4051.671816,-3600.648841,-2960.823768,11917.315666
4051.672131,-4903.011187,-4737.318029,13915.871710
4051.672446,-5669.106685,-5181.441594,14211.954086
4051.672761,-5132.839837,-4737.318029,14211.954086
4051.673076,-3677.258390,-3552.988522,13471.748144
4051.673391,-1302.362347,-1110.308913,11695.253884
4051.673706,1378.971896,1332.370696,9770.718434
4051.674021,3983.696590,3256.906145,7994.224174
4051.674336,5286.058936,5403.503377,6513.812290
4051.674652,6128.763984,6143.709319,5033.400406
4051.674967,6205.373534,5773.606348,4959.379811
4051.675282,4826.401637,4293.194464,5995.668130
4051.675597,2451.505594,2516.700203,6809.894666
4051.675912,0.000000,-0.000000,8808.450710
4051.676227,-2911.162892,-1850.514855,10584.944971
4051.676542,-4519.963438,-4367.215058,12509.480420
4051.676857,-4673.182538,-5107.421000,13471.748144
4051.677172,-5362.668486,-5477.523971,14211.954086
4051.677487,-4903.011187,-4219.173869,13619.789333
4051.677803,-2604.724693,-2590.720797,12435.459826
4051.678118,0.000000,-0.000000,10955.047942
4051.678433,1991.848295,1998.556043,9474.636058
4051.678748,4290.134789,4441.235652,7402.059420
4051.679063,5132.839837,5625.565159,6069.688724
4051.679378,5822.325785,5551.544565,5107.421000
4051.679693,5132.839837,4737.318029,5847.626942
4051.680008,3370.820191,3034.844362,6069.688724
4051.680323,1072.533697,962.267725,7476.080014
4051.680639,-1762.019645,-740.205942,9548.656652
4051.680954,-4060.306139,-3552.988522,11695.253884
4051.681269,-5286.058936,-5255.462188,12731.542202
4051.681584,-5975.544884,-5847.626942,14063.912898
4051.681899,-5822.325785,-5403.503377,13915.871710
4051.682214,-4136.915689,-4367.215058,13249.686362
4051.682529,-1685.410096,-1924.535449,11547.212695
4051.682844,995.924147,222.061783,9992.780217
4051.683159,3294.210641,2516.700203,7994.224174
4051.683475,4979.620737,4663.297435,5995.668130
4051.683790,5592.497135,5773.606348,4885.359217
4051.684105,5515.887586,5403.503377,5033.400406
4051.684420,4443.353888,3923.091493,5773.606348
4051.684735,2374.896044,2368.659014,6883.915261
4051.685050,76.609550,-0.000000,8438.347739
4051.685365,-2451.505594,-2072.576638,10362.883188
4051.685680,-4673.182538,-4811.338623,12435.459826
4051.685995,-5669.106685,-6069.688724,14285.974681
4051.686310,-6052.154434,-6291.750507,14359.995275
4051.686626,-4749.792088,-5181.441594,13693.809927
4051.686941,-2757.943793,-2738.761985,12361.439231
4051.687256,-229.828649,-444.123565,10658.965565
4051.687571,2374.896044,1998.556043,8956.491898
4051.687886,4443.353888,4293.194464,7031.956449
4051.688201,5592.497135,5625.565159,5921.647536
4051.688516,5975.544884,6143.709319,4737.318029
4051.688831,5132.839837,5181.441594,5255.462188
4051.689146,3830.477490,3182.885551,6365.771101
4051.689462,1455.581446,1480.411884,7920.203579
4051.689777,-1762.019645,-518.144159,9622.677246
4051.690092,-3983.696590,-3552.988522,12139.377449
4051.690407,-5439.278036,-5107.421000,14211.954086
4051.690722,-6128.763984,-5699.585753,14434.015869
4051.691037,-5132.839837,-5551.544565,14359.995275
4051.691352,-3983.696590,-3997.112087,13545.768739
4051.691667,-1149.143247,-1110.308913,11843.295072
4051.691982,1608.800546,1702.473667,9696.697840
4051.692297,3753.867940,3775.050304,7624.121203
4051.692613,5362.668486,5773.606348,6069.688724
4051.692928,6128.763984,6587.832884,5329.482782
4051.693243,5975.544884,6069.688724,5033.400406
4051.693558,4826.401637,4145.153275,5995.668130
4051.693873,2604.724693,2590.720797,7476.080014
4051.694188,-229.828649,296.082377,9030.512492
4051.694503,-2911.162892,-2072.576638,11177.109724
4051.694818,-4673.182538,-4367.215058,13175.665768
4051.695133,-5515.887586,-4959.379811,13989.892304
4051.695449,-5515.887586,-5403.503377,13915.871710
4051.695764,-4366.744339,-4293.194464,13841.851115
4051.696079,-2451.505594,-1998.556043,12139.377449
4051.696394,153.219100,444.123565,10584.944971
4051.696709,2451.505594,2590.720797,8734.430116
4051.697024,4519.963438,4293.194464,6957.935855
4051.697339,5669.106685,5699.585753,5847.626942
4051.697654,5745.716235,5921.647536,5181.441594
4051.697969,5286.058936,5403.503377,5773.606348
4051.698284,3370.820191,3627.009116,6883.915261
4051.698600,1149.143247,1628.453072,8216.285956
4051.698915,-1608.800546,-962.267725,9696.697840
4051.699230,-3907.087040,-3478.967927,12287.418637
4051.699545,-5056.230287,-4737.318029,13249.686362
4051.699860,-5745.716235,-5773.606348,13989.892304
4051.700175,-5132.839837,-4885.359217,14211.954086
4051.700490,-3524.039291,-3478.967927,13249.686362
4051.700805,-1302.362347,-962.267725,11325.150913
4051.701120,1302.362347,1110.308913,9992.780217
4051.701436,3294.210641,3330.926739,7846.182985
4051.701751,4979.620737,5181.441594,6365.771101
4051.702066,5822.325785,5847.626942,5403.503377
4051.702381,5439.278036,4885.359217,5403.503377
4051.702696,4749.792088,3627.009116,6439.791695
4051.703011,2068.457845,1776.494261,7179.997637
4051.703326,-536.266849,-296.082377,8808.450710
4051.703641,-2834.553343,-2442.679609,10436.903782
4051.703956,-4673.182538,-4737.318029,12583.501014
4051.704272,-5898.935335,-5625.565159,13397.727550
4051.704587,-5745.716235,-5625.565159,14211.954086
4051.704902,-4979.620737,-4737.318029,13397.727550
4051.705217,-2604.724693,-3034.844362,12139.377449
4051.705532,0.000000,-814.226536,10881.027347
4051.705847,2298.286494,1480.411884,9030.512492
4051.706162,3907.087040,3404.947333,6661.853478
4051.706477,5362.668486,4811.338623,5551.544565
4051.706792,5745.716235,5329.482782,5329.482782
4051.707107,5056.230287,4367.215058,5033.400406
4051.707423,3753.867940,2886.803174,5995.668130
4051.707738,1302.362347,1036.288319,7476.080014
4051.708053,-1838.629195,-888.247130,9326.594869
4051.708368,-3677.258390,-3849.070898,11621.233289
4051.708683,-5132.839837,-5255.462188,13249.686362
4051.708998,-5439.278036,-6069.688724,13915.871710
4051.709313,-4903.011187,-5551.544565,13841.851115
4051.709628,-3753.867940,-4071.132681,13101.645173
4051.709943,-1532.190996,-1776.494261,11695.253884
4051.710259,1762.019645,814.226536,9548.656652
4051.710574,3677.258390,3034.844362,7476.080014
4051.710889,5362.668486,5403.503377,6069.688724
4051.711204,5898.935335,5847.626942,5107.421000
4051.711519,5209.449386,5551.544565,5033.400406
4051.711834,4136.915689,4145.153275,5625.565159
4051.712149,2221.676944,2146.597232,7179.997637
4051.712464,0.000000,-0.000000,9400.615463
4051.712779,-3294.210641,-2220.617826,10658.965565
4051.713094,-4673.182538,-4663.297435,13101.645173
4051.713410,-5822.325785,-5329.482782,14582.057057
4051.713725,-5822.325785,-5403.503377,14211.954086
4051.714040,-4673.182538,-4441.235652,13693.809927
4051.714355,-2374.896044,-2220.617826,12509.480420
4051.714670,0.000000,296.082377,10658.965565
4051.714985,2374.896044,2886.803174,8364.327145
4051.715300,4290.134789,4885.359217,6661.853478
4051.715615,5362.668486,5921.647536,5847.626942
4051.715930,5592.497135,5921.647536,4811.338623
4051.716246,4903.011187,5033.400406,5477.523971
4051.716561,3064.381992,3627.009116,6587.832884
4051.716876,766.095498,1332.370696,8216.285956
4051.717191,-2145.067394,-592.164754,10288.862594
4051.717506,-4060.306139,-3404.947333,12361.439231
4051.717821,-4903.011187,-5033.400406,13989.892304
4051.718136,-5745.716235,-5255.462188,14730.098246
4051.718451,-5056.230287,-4367.215058,14211.954086
4051.718766,-3140.991542,-2960.823768,12879.583391
4051.719082,-842.705048,-370.102971,11325.150913
4051.719397,1608.800546,2220.617826,9104.533087
4051.719712,4213.525239,4145.153275,7476.080014
4051.720027,5439.278036,5921.647536,6513.812290
4051.720342,6281.983084,5847.626942,5329.482782
4051.720657,5745.716235,5403.503377,5551.544565
4051.720972,4519.963438,4219.173869,6069.688724
4051.721287,2221.676944,2146.597232,7402.059420
4051.721602,-842.705048,-0.000000,9252.574275
4051.721917,-2834.553343,-2294.638420,11547.212695
4051.722233,-4903.011187,-4441.235652,12879.583391
4051.722548,-5515.887586,-4959.379811,13693.809927
4051.722863,-5362.668486,-4811.338623,14063.912898
4051.723178,-4519.963438,-4071.132681,13471.748144
4051.723493,-2604.724693,-1776.494261,11917.315666
4051.723808,76.609550,370.102971,10214.842000
4051.724123,3217.601092,2738.761985,8660.409521
4051.724438,4519.963438,4589.276840,6957.935855
4051.724753,5515.887586,5033.400406,6143.709319
4051.725069,5439.278036,5033.400406,5477.523971
4051.725384,4596.572988,4441.235652,5699.585753
4051.725699,2681.334243,2516.700203,6661.853478
4051.726014,689.485948,222.061783,8216.285956
4051.726329,-1915.238745,-1036.288319,9918.759623
4051.726644,-3753.867940,-3849.070898,11843.295072
4051.726959,-4979.620737,-5033.400406,12731.542202
4051.727274,-5286.058936,-5403.503377,13693.809927
4051.727589,-4519.963438,-5181.441594,13397.727550
4051.727904,-2757.943793,-3701.029710,12435.459826
4051.728220,-459.657299,-1406.391290,11029.068536
4051.728535,1991.848295,962.267725,9252.574275
4051.728850,4290.134789,2368.659014,7920.203579
4051.729165,5056.230287,4515.256246,6291.750507
4051.729480,5362.668486,5181.441594,5625.565159
4051.729795,5209.449386,4663.297435,4959.379811
4051.730110,4213.525239,3701.029710,5995.668130
4051.730425,1991.848295,1332.370696,7698.141797
4051.730740,-612.876398,-592.164754,8660.409521
4051.731056,-3140.991542,-3034.844362,10510.924376
4051.731371,-4903.011187,-4811.338623,12583.501014
4051.731686,-5515.887586,-5625.565159,13619.789333
4051.732001,-5286.058936,-5477.523971,13767.830521
4051.732316,-4136.915689,-4441.235652,12805.562797
4051.732631,-2374.896044,-2516.700203,12065.356855
4051.732946,229.828649,-0.000000,10362.883188
4051.733261,2221.676944,2294.638420,8734.430116
4051.733576,4290.134789,4219.173869,6883.915261
4051.733891,5056.230287,5329.482782,6143.709319
4051.734207,5286.058936,5477.523971,4959.379811
4051.734522,4213.525239,4589.276840,5329.482782
4051.734837,2911.162892,2664.741391,6883.915261
4051.735152,0.000000,444.123565,8142.265362
4051.735467,-2451.505594,-1258.350101,10140.821405
4051.735782,-4519.963438,-3627.009116,12583.501014
4051.736097,-5592.497135,-4885.359217,13693.809927
4051.736412,-5286.058936,-6069.688724,14211.954086
4051.736727,-4596.572988,-4959.379811,14063.912898
4051.737043,-3140.991542,-3182.885551,13101.645173
4051.737358,-842.705048,-666.185348,11103.089130
4051.737673,1685.410096,1924.535449,9104.533087
4051.737988,4213.525239,4219.173869,7328.038826
4051.738303,5286.058936,5477.523971,6143.709319
4051.738618,5975.544884,6291.750507,5255.462188
4051.738933,5439.278036,5329.482782,5477.523971
4051.739248,4060.306139,3775.050304,5995.668130
4051.739563,2068.457845,1184.329507,7624.121203
4051.739879,-689.485948,-740.205942,9474.636058
4051.740194,-3294.210641,-2590.720797,11843.295072
4051.740509,-4673.182538,-4071.132681,13101.645173
4051.740824,-5362.668486,-5107.421000,13767.830521
4051.741139,-4673.182538,-4515.256246,14285.974681
4051.741454,-3600.648841,-3552.988522,13471.748144
4051.741769,-1762.019645,-1406.391290,11843.295072
4051.742084,919.314598,1406.391290,9992.780217
4051.742399,3064.381992,3108.864956,8290.306550
4051.742714,4596.572988,4811.338623,6957.935855
4051.743030,5669.106685,5773.606348,5551.544565
4051.743345,5515.887586,5403.503377,5699.585753
4051.743660,4519.963438,4367.215058,6217.729913
4051.743975,2681.334243,2738.761985,7624.121203
4051.744290,153.219100,740.205942,9252.574275
4051.744605,-2528.115143,-1480.411884,11399.171507
4051.744920,-4213.525239,-3775.050304,12509.480420
4051.745235,-5209.449386,-4885.359217,13175.665768
4051.745550,-5515.887586,-4959.379811,14211.954086
4051.745866,-4519.963438,-4071.132681,13545.768739
4051.746181,-2681.334243,-2442.679609,12287.418637
4051.746496,0.000000,-74.020594,10658.965565
4051.746811,2987.772442,2220.617826,8734.430116
4051.747126,4290.134789,3775.050304,7031.956449
4051.747441,5669.106685,5181.441594,5921.647536
4051.747756,5975.544884,5477.523971,5107.421000
4051.748071,5056.230287,4515.256246,5255.462188
4051.748386,3524.039291,3256.906145,6587.832884
4051.748701,1455.581446,1184.329507,7402.059420
4051.749017,-1149.143247,-592.164754,9178.553681
4051.749332,-3524.039291,-3034.844362,10955.047942
4051.749647,-4903.011187,-4737.318029,13027.624579
4051.749962,-5592.497135,-5403.503377,14063.912898
4051.750277,-5132.839837,-5033.400406,13101.645173
4051.750592,-4060.306139,-4071.132681,12805.562797
4051.750907,-1838.629195,-1998.556043,12287.418637
4051.751222,842.705048,148.041188,9918.759623
4051.751537,2987.772442,2368.659014,8438.347739
4051.751853,4596.572988,4293.194464,7179.997637
4051.752168,5209.449386,5329.482782,5921.647536
4051.752483,5439.278036,5477.523971,5107.421000
4051.752798,4443.353888,4219.173869,5477.523971
4051.753113,2451.505594,2146.597232,6809.894666
4051.753428,0.000000,370.102971,8438.347739
4051.753743,-2451.505594,-1628.453072,10288.862594
4051.754058,-4136.915689,-4145.153275,12287.418637
4051.754373,-5822.325785,-5181.441594,13545.768739
4051.754689,-5745.716235,-5625.565159,14137.933492
4051.755004,-4596.572988,-4737.318029,14063.912898
4051.755319,-2757.943793,-3330.926739,13175.665768
4051.755634,-612.876398,-962.267725,11103.089130
4051.755949,1685.410096,1628.453072,9326.594869
4051.756264,3907.087040,3849.070898,7254.018232
4051.756579,5592.497135,5551.544565,5921.647536
4051.756894,5898.935335,6069.688724,5329.482782
4051.757209,4903.011187,4959.379811,5107.421000
4051.757524,3217.601092,3552.988522,6439.791695
4051.757840,1302.362347,1184.329507,7624.121203
4051.758155,-1225.752797,-592.164754,9178.553681
4051.758470,-3753.867940,-3182.885551,11695.253884
4051.758785,-5056.230287,-4811.338623,13323.706956
4051.759100,-5592.497135,-5625.565159,13989.892304
4051.759415,-5209.449386,-5255.462188,13989.892304
4051.759730,-3983.696590,-4293.194464,13249.686362
4051.760045,-1455.581446,-1554.432478,11547.212695
4051.760360,842.705048,740.205942,10140.821405
4051.760676,3064.381992,3182.885551,8216.285956
4051.760991,5056.230287,4663.297435,5995.668130
4051.761306,5975.544884,5699.585753,4959.379811
4051.761621,5745.716235,5625.565159,4959.379811
4051.761936,4136.915689,4441.235652,5847.626942
4051.762251,2528.115143,2812.782580,7105.977043
4051.762566,0.000000,370.102971,8586.388927
4051.762881,-2451.505594,-1850.514855,10584.944971
4051.763196,-4519.963438,-3775.050304,13027.624579
4051.763511,-5362.668486,-4959.379811,13767.830521
4051.763827,-5362.668486,-5551.544565,14211.954086
4051.764142,-4290.134789,-4663.297435,14063.912898
4051.764457,-2451.505594,-2516.700203,12731.542202
4051.764772,-229.828649,-222.061783,10881.027347
4051.765087,2221.676944,2590.720797,8734.430116
4051.765402,4290.134789,4589.276840,7179.997637
4051.765718,5669.106685,5773.606348,5773.606348
4051.766033,6052.154434,6069.688724,5255.462188
4051.766348,5286.058936,5181.441594,5625.565159
4051.766663,3524.039291,4071.132681,6513.812290
4051.766979,1149.143247,1480.411884,8586.388927
4051.767294,-1302.362347,-518.144159,9548.656652
4051.767609,-3907.087040,-2886.803174,11843.295072
4051.767924,-5209.449386,-4515.256246,13249.686362
4051.768239,-5362.668486,-5329.482782,13693.809927
4051.768555,-4596.572988,-5329.482782,14063.912898
4051.768870,-3753.867940,-3330.926739,13471.748144
4051.769185,-1762.019645,-962.267725,11843.295072
4051.769500,842.705048,1036.288319,9696.697840
4051.769816,3140.991542,3108.864956,7772.162391
4051.770131,5209.449386,4663.297435,6735.874072
4051.770446,5669.106685,5255.462188,5995.668130
4051.770761,5669.106685,5255.462188,4885.359217
4051.771077,4290.134789,3849.070898,5847.626942
4051.771392,2528.115143,1850.514855,7105.977043
4051.771707,0.000000,-0.000000,8660.409521
4051.772022,-2604.724693,-1998.556043,10288.862594
4051.772337,-4519.963438,-4219.173869,12213.398043
4051.772653,-5439.278036,-5403.503377,13619.789333
4051.772968,-5286.058936,-5847.626942,13915.871710
4051.773283,-4903.011187,-4737.318029,13619.789333
4051.773598,-2681.334243,-3108.864956,12805.562797
4051.773914,-153.219100,-222.061783,11029.068536
4051.774229,2221.676944,1998.556043,9030.512492
4051.774544,4060.306139,3849.070898,7105.977043
4051.774859,5515.887586,4885.359217,6143.709319
4051.775174,5822.325785,5477.523971,5329.482782
4051.775490,5132.839837,4811.338623,5255.462188
4051.775805,3447.429741,3256.906145,6513.812290
4051.776120,1302.362347,666.185348,7772.162391
4051.776435,-1225.752797,-814.226536,9622.677246
4051.776751,-3677.258390,-3404.947333,11473.192101
4051.777066,-5209.449386,-5107.421000,13101.645173
4051.777381,-5745.716235,-5921.647536,14063.912898
4051.777696,-5056.230287,-5551.544565,13989.892304
4051.778012,-3830.477490,-4071.132681,13101.645173
4051.778327,-1532.190996,-1628.453072,11695.253884
4051.778642,995.924147,740.205942,9622.677246
4051.778957,3217.601092,2812.782580,7772.162391
4051.779272,5056.230287,4589.276840,5773.606348
4051.779588,5975.544884,5699.585753,5033.400406
4051.779903,5132.839837,5107.421000,4737.318029
4051.780218,3907.087040,4515.256246,5477.523971
4051.780533,1991.848295,2442.679609,6883.915261
4051.780849,-229.828649,-0.000000,8438.347739
4051.781164,-3064.381992,-2146.597232,10584.944971
4051.781479,-4903.011187,-4515.256246,12879.583391
4051.781794,-5592.497135,-5625.565159,13915.871710
4051.782110,-5745.716235,-5921.647536,14211.954086
4051.782425,-4290.134789,-4663.297435,13915.871710
4051.782740,-2451.505594,-2294.638420,11991.336260
4051.783055,153.219100,-370.102971,10436.903782
4051.783370,2681.334243,2738.761985,8290.306550
4051.783686,4596.572988,4515.256246,6587.832884
4051.784001,5975.544884,5921.647536,5625.565159
4051.784316,6052.154434,6291.750507,5107.421000
4051.784631,5362.668486,4959.379811,5403.503377
4051.784947,3524.039291,3330.926739,6365.771101
4051.785262,1378.971896,814.226536,8142.265362
4051.785577,-1991.848295,-1258.350101,9696.697840
4051.785892,-3907.087040,-3034.844362,11991.336260
4051.786208,-4826.401637,-4589.276840,13693.809927
4051.786523,-5592.497135,-5107.421000,14285.974681
4051.786838,-4290.134789,-4367.215058,14211.954086
4051.787153,-3140.991542,-3034.844362,13397.727550
4051.787468,-995.924147,-814.226536,11843.295072
4051.787784,1302.362347,1924.535449,9770.718434
4051.788099,3447.429741,4219.173869,8068.244768
4051.788414,5056.230287,5107.421000,6365.771101
4051.788729,6205.373534,6143.709319,5699.585753
4051.789045,5669.106685,5403.503377,5477.523971
4051.789360,4290.134789,4293.194464,6365.771101
4051.789675,2298.286494,2590.720797,7698.141797
4051.789990,-306.438199,-0.000000,9326.594869
4051.790306,-2757.943793,-2368.659014,10881.027347
4051.790621,-4519.963438,-4441.235652,12731.542202
4051.790936,-5286.058936,-5329.482782,13693.809927
4051.791251,-5362.668486,-5033.400406,14211.954086
4051.791566,-4596.572988,-4071.132681,13545.768739
4051.791882,-2221.676944,-2146.597232,12435.459826
4051.792197,383.047749,-0.000000,10881.027347
4051.792512,3064.381992,2368.659014,9030.512492
4051.792827,4596.572988,3997.112087,7105.977043
4051.793143,5822.325785,5107.421000,5847.626942
4051.793458,5975.544884,5477.523971,5403.503377
4051.793773,4903.011187,4293.194464,5403.503377
4051.794088,3370.820191,3034.844362,6291.750507
4051.794403,1455.581446,1110.308913,8142.265362
4051.794719,-1455.581446,-1258.350101,9548.656652
4051.795034,-3524.039291,-3627.009116,11473.192101
4051.795349,-4903.011187,-5181.441594,13249.686362
4051.795664,-5515.887586,-5773.606348,13841.851115
4051.795980,-4903.011187,-5181.441594,13619.789333
4051.796295,-3217.601092,-4071.132681,12953.603985
4051.796610,-1302.362347,-1702.473667,11843.295072
4051.796925,1302.362347,888.247130,9548.656652
4051.797241,3294.210641,2590.720797,7920.203579
4051.797556,4979.620737,4811.338623,6365.771101
4051.797871,5439.278036,5107.421000,5181.441594
4051.798186,5132.839837,5033.400406,4885.359217
4051.798501,3830.477490,3997.112087,5847.626942
4051.798817,1915.238745,2146.597232,7179.997637
4051.799132,-459.657299,-0.000000,8882.471304
4051.799447,-2987.772442,-2516.700203,10584.944971
4051.799762,-5132.839837,-4293.194464,12213.398043
4051.800078,-5745.716235,-5477.523971,13767.830521
4051.800393,-5669.106685,-5773.606348,14359.995275
4051.800708,-4596.572988,-5181.441594,13249.686362
4051.801023,-3064.381992,-3182.885551,12435.459826
4051.801339,-612.876398,-222.061783,10362.883188
4051.801654,1838.629195,2072.576638,8216.285956
4051.801969,3983.696590,3552.988522,6735.874072
4051.802284,4979.620737,5477.523971,5477.523971
4051.802599,5286.058936,5995.668130,5033.400406
4051.802915,4749.792088,4885.359217,5329.482782
4051.803230,2911.162892,3330.926739,6439.791695
4051.803545,766.095498,1184.329507,7624.121203
4051.803860,-2298.286494,-1036.288319,9696.697840
4051.804176,-3983.696590,-3627.009116,12213.398043
4051.804491,-5592.497135,-4885.359217,13619.789333
4051.804806,-5822.325785,-5403.503377,14211.954086
4051.805121,-4903.011187,-5255.462188,13767.830521
4051.805437,-3064.381992,-3404.947333,12805.562797
4051.805752,-1149.143247,-666.185348,11621.233289
4051.806067,1378.971896,2146.597232,9548.656652
4051.806382,3753.867940,3923.091493,7846.182985
4051.806697,5286.058936,5329.482782,6291.750507
4051.807013,6205.373534,6291.750507,5477.523971
4051.807328,5822.325785,5107.421000,5625.565159
4051.807643,4596.572988,4219.173869,6291.750507
4051.807958,2604.724693,2368.659014,7846.182985
4051.808274,0.000000,370.102971,9474.636058
4051.808589,-2528.115143,-2220.617826,11177.109724
4051.808904,-4213.525239,-3923.091493,13323.706956
4051.809219,-4979.620737,-4885.359217,14211.954086
4051.809535,-4903.011187,-5033.400406,14211.954086
4051.809850,-3830.477490,-3775.050304,13397.727550
4051.810165,-2068.457845,-1628.453072,12509.480420
4051.810480,459.657299,740.205942,10510.924376
4051.810795,3140.991542,2664.741391,8734.430116
4051.811111,4903.011187,4145.153275,7105.977043
4051.811426,5362.668486,5329.482782,5847.626942
4051.811741,5822.325785,5625.565159,5403.503377
4051.812056,4903.011187,4663.297435,5699.585753
4051.812372,3217.601092,2886.803174,6735.874072
4051.812687,842.705048,962.267725,8586.388927
4051.813002,-2068.457845,-1480.411884,9548.656652
4051.813317,-3677.258390,-3627.009116,11695.253884
4051.813633,-4826.401637,-4663.297435,12805.562797
4051.813948,-4979.620737,-5255.462188,13545.768739
4051.814263,-4596.572988,-4441.235652,13175.665768
4051.814578,-2911.162892,-3330.926739,12139.377449
4051.814893,-612.876398,-740.205942,11251.130318
4051.815209,1532.190996,962.267725,9178.553681
4051.815524,3600.648841,3108.864956,7550.100608
4051.815839,4443.353888,4663.297435,6661.853478
4051.816154,4979.620737,5329.482782,5255.462188
4051.816470,4749.792088,5033.400406,5255.462188
4051.816785,3600.648841,3330.926739,6291.750507
4051.817100,1608.800546,1406.391290,7698.141797
4051.817415,-1608.800546,-518.144159,8586.388927
4051.817730,-3447.429741,-2368.659014,10584.944971
4051.818046,-4903.011187,-4293.194464,13027.624579
4051.818361,-5822.325785,-5107.421000,13915.871710
4051.818676,-5286.058936,-5329.482782,13767.830521
4051.818991,-4366.744339,-4293.194464,12731.542202
4051.819307,-2374.896044,-2146.597232,11843.295072
4051.819622,229.828649,-0.000000,10214.842000
4051.819937,2298.286494,2294.638420,8438.347739
4051.820252,4290.134789,3923.091493,6661.853478
4051.820568,5132.839837,5033.400406,6069.688724
4051.820883,5132.839837,5329.482782,5329.482782
4051.821198,4290.134789,3849.070898,5625.565159
4051.821513,2451.505594,2368.659014,6957.935855
4051.821828,0.000000,-0.000000,8438.347739
4051.822144,-2911.162892,-1702.473667,10288.862594
4051.822459,-4443.353888,-4219.173869,12435.459826
4051.822774,-5975.544884,-4959.379811,13693.809927
4051.823089,-5592.497135,-5181.441594,13915.871710
4051.823405,-5362.668486,-4737.318029,13619.789333
4051.823720,-2911.162892,-2960.823768,12657.521608
4051.824035,-612.876398,-740.205942,11177.109724
4051.824350,2068.457845,1998.556043,8956.491898
4051.824666,4136.915689,3775.050304,7031.956449
4051.824981,5592.497135,5403.503377,5773.606348
4051.825296,5975.544884,5699.585753,5255.462188
4051.825611,5515.887586,4885.359217,5181.441594
4051.825926,3983.696590,3627.009116,6069.688724
4051.826242,1838.629195,1258.350101,7846.182985
4051.826557,-459.657299,-148.041188,9548.656652
4051.826872,-2911.162892,-2516.700203,11177.109724
4051.827187,-4366.744339,-4737.318029,13101.645173
4051.827503,-4979.620737,-5107.421000,13693.809927
4051.827818,-4673.182538,-4737.318029,14063.912898
4051.828133,-3064.381992,-3701.029710,12805.562797
4051.828448,-1072.533697,-1406.391290,11769.274478
4051.828764,1685.410096,1036.288319,9992.780217
4051.829079,3830.477490,3108.864956,8068.244768
4051.829394,5286.058936,5033.400406,6809.894666
4051.829709,6511.811733,5773.606348,5477.523971
4051.830024,5898.935335,5625.565159,5403.503377
4051.830340,4979.620737,4515.256246,5847.626942
4051.830655,2987.772442,2886.803174,7402.059420
4051.830970,383.047749,444.123565,9030.512492
4051.831285,-2528.115143,-2146.597232,11473.192101
4051.831601,-4366.744339,-3997.112087,13027.624579
4051.831916,-5592.497135,-5181.441594,13915.871710
4051.832231,-5286.058936,-5477.523971,14211.954086
4051.832546,-4290.134789,-4441.235652,13693.809927
4051.832862,-1915.238745,-2886.803174,12435.459826
4051.833177,0.000000,-666.185348,11103.089130
4051.833492,2068.457845,2368.659014,8808.450710
4051.833807,4060.306139,3997.112087,6883.915261
4051.834122,5362.668486,4885.359217,5551.544565
4051.834438,5898.935335,5699.585753,5477.523971
4051.834753,5132.839837,4663.297435,5477.523971
4051.835068,3447.429741,2960.823768,6365.771101
4051.835383,1378.971896,1184.329507,7476.080014
4051.835699,-1762.019645,-1110.308913,9252.574275
4051.836014,-4060.306139,-3330.926739,11473.192101
4051.836329,-5362.668486,-4885.359217,13027.624579
4051.836644,-5975.544884,-5477.523971,13989.892304
4051.836959,-5515.887586,-5033.400406,13545.768739
4051.837275,-3524.039291,-4071.132681,13027.624579
4051.837590,-1991.848295,-1776.494261,11695.253884
4051.837905,612.876398,666.185348,10288.862594
4051.838220,2681.334243,3108.864956,8290.306550
4051.838536,4903.011187,4515.256246,6735.874072
4051.838851,5515.887586,5699.585753,5551.544565
4051.839166,5439.278036,5255.462188,4959.379811
4051.839481,4443.353888,4145.153275,5625.565159
4051.839797,2757.943793,2442.679609,6513.812290
4051.840112,229.828649,-0.000000,8660.409521
4051.840427,-2604.724693,-2146.597232,10658.965565
4051.840742,-4673.182538,-4145.153275,12139.377449
4051.841057,-5745.716235,-4959.379811,13175.665768
4051.841373,-5898.935335,-5551.544565,13989.892304
4051.841688,-4903.011187,-4663.297435,13397.727550
4051.842003,-2987.772442,-3404.947333,12953.603985
4051.842318,-153.219100,-592.164754,10955.047942
4051.842634,1608.800546,1702.473667,9252.574275
4051.842949,3983.696590,3701.029710,7624.121203
4051.843264,5132.839837,5033.400406,6365.771101
4051.843579,5592.497135,5773.606348,5181.441594
4051.843895,4826.401637,5033.400406,5403.503377
4051.844210,3753.867940,3775.050304,6365.771101
4051.844525,1685.410096,1332.370696,7846.182985
4051.844840,-995.924147,-666.185348,9326.594869
4051.845155,-3830.477490,-3182.885551,11547.212695
4051.845471,-5132.839837,-4663.297435,12731.542202
4051.845786,-5669.106685,-6069.688724,13693.809927
4051.846101,-5056.230287,-5625.565159,13841.851115
4051.846416,-3830.477490,-4145.153275,13397.727550
4051.846732,-1762.019645,-1850.514855,11843.295072
4051.847047,995.924147,814.226536,10066.800811
4051.847362,3447.429741,2886.803174,7994.224174
4051.847677,4979.620737,4737.318029,6513.812290
4051.847993,6205.373534,5921.647536,5403.503377
4051.848308,5822.325785,5625.565159,5181.441594
4051.848623,4903.011187,4737.318029,5625.565159
4051.848938,2987.772442,3034.844362,6883.915261
4051.849253,153.219100,814.226536,8512.368333
4051.849569,-2298.286494,-1850.514855,10140.821405
4051.849884,-4443.353888,-3627.009116,12657.521608
4051.850199,-5209.449386,-4811.338623,13619.789333
4051.850514,-5592.497135,-5181.441594,14211.954086
4051.850830,-4903.011187,-4441.235652,13841.851115
4051.851145,-2451.505594,-2812.782580,12879.583391
4051.851460,-306.438199,-148.041188,10732.986159
4051.851775,2298.286494,2664.741391,8882.471304
4051.852091,4060.306139,4515.256246,7328.038826
4051.852406,5209.449386,5921.647536,5921.647536
4051.852721,5822.325785,6291.750507,5107.421000
4051.853036,5362.668486,5403.503377,5625.565159
4051.853351,3600.648841,3923.091493,6365.771101
4051.853667,1149.143247,1702.473667,8142.265362
4051.853982,-1378.971896,-444.123565,9770.718434
4051.854297,-3753.867940,-2960.823768,11917.315666
4051.854612,-5056.230287,-4737.318029,13471.748144
4051.854928,-5362.668486,-5551.544565,13915.871710
4051.855243,-4979.620737,-4737.318029,14211.954086
4051.855558,-4060.306139,-3701.029710,13101.645173
4051.855873,-1685.410096,-1480.411884,11547.212695
4051.856189,995.924147,1036.288319,9844.739029
4051.856504,3600.648841,3108.864956,7846.182985
4051.856819,5056.230287,4663.297435,6587.832884
4051.857134,5592.497135,5551.544565,5699.585753
4051.857449,5822.325785,5033.400406,5255.462188
4051.857765,4596.572988,3923.091493,6069.688724
4051.858080,2604.724693,2368.659014,7179.997637
4051.858395,0.000000,-0.000000,8586.388927
4051.858710,-2681.334243,-1554.432478,10658.965565
4051.859026,-4060.306139,-3997.112087,12361.439231
4051.859341,-5286.058936,-5477.523971,13471.748144
4051.859656,-5132.839837,-5033.400406,14063.912898
4051.859971,-4673.182538,-4589.276840,13767.830521
4051.860286,-2528.115143,-2516.700203,12213.398043
4051.860602,0.000000,-74.020594,11251.130318
4051.860917,2068.457845,1850.514855,8956.491898
4051.861232,4366.744339,3775.050304,7105.977043
4051.861547,5056.230287,4737.318029,6365.771101
4051.861863,5439.278036,5181.441594,5181.441594
4051.862178,4903.011187,4515.256246,5403.503377
4051.862493,3524.039291,3330.926739,6217.729913
4051.862808,1302.362347,814.226536,8068.244768
4051.863124,-1225.752797,-592.164754,9474.636058
4051.863439,-3600.648841,-3108.864956,11251.130318
4051.863754,-4979.620737,-4737.318029,13101.645173
4051.864069,-5592.497135,-5477.523971,13767.830521
4051.864384,-4979.620737,-5107.421000,14137.933492
4051.864700,-3830.477490,-4367.215058,13249.686362
4051.865015,-1608.800546,-2072.576638,11917.315666
4051.865330,919.314598,222.061783,9918.759623
4051.865645,3064.381992,2442.679609,7920.203579
4051.865961,5056.230287,4367.215058,6291.750507
4051.866276,5515.887586,5551.544565,5181.441594
4051.866591,5669.106685,5477.523971,5033.400406
4051.866906,4673.182538,4071.132681,5477.523971
4051.867221,2374.896044,2368.659014,7031.956449
4051.867536,0.000000,222.061783,8216.285956
4051.867851,-2298.286494,-1850.514855,10510.924376
4051.868167,-4060.306139,-4219.173869,12509.480420
4051.868482,-5669.106685,-5477.523971,13249.686362
4051.868797,-5898.935335,-5699.585753,14285.974681
4051.869112,-4673.182538,-4737.318029,13989.892304
4051.869427,-2911.162892,-3034.844362,12213.398043
4051.869742,-612.876398,-296.082377,10732.986159
4051.870058,1838.629195,1998.556043,8956.491898
4051.870373,3983.696590,3997.112087,7179.997637
4051.870688,5439.278036,5403.503377,6069.688724
4051.871003,6052.154434,6069.688724,4737.318029
4051.871318,5132.839837,5255.462188,5551.544565
4051.871633,3447.429741,3997.112087,5995.668130
4051.871948,1225.752797,1332.370696,7846.182985
4051.872264,-1455.581446,-592.164754,9770.718434
4051.872579,-3907.087040,-3404.947333,11991.336260
4051.872894,-5439.278036,-4515.256246,13249.686362
4051.873209,-5669.106685,-5329.482782,14434.015869
4051.873524,-4673.182538,-4959.379811,14730.098246
4051.873839,-3830.477490,-3552.988522,13397.727550
4051.874155,-1378.971896,-1184.329507,11325.150913
4051.874470,1532.190996,1406.391290,9918.759623
4051.874785,3524.039291,3923.091493,7624.121203
4051.875100,5209.449386,5181.441594,6291.750507
4051.875415,5515.887586,6143.709319,5033.400406
4051.875730,5439.278036,5477.523971,5255.462188
4051.876046,4060.306139,4515.256246,5625.565159
4051.876361,2451.505594,2294.638420,7698.141797
4051.876676,229.828649,-0.000000,9178.553681
4051.876991,-2604.724693,-2220.617826,10881.027347
4051.877306,-4673.182538,-3849.070898,13027.624579
4051.877621,-5745.716235,-4737.318029,13767.830521
4051.877936,-4903.011187,-5033.400406,14211.954086
4051.878252,-4213.525239,-4219.173869,13693.809927
4051.878567,-2221.676944,-2368.659014,12361.439231
4051.878882,229.828649,444.123565,10510.924376
4051.879197,2451.505594,2812.782580,8364.327145
4051.879512,4596.572988,4293.194464,6883.915261
4051.879827,5362.668486,5255.462188,5403.503377
4051.880143,6511.811733,5329.482782,5329.482782
4051.880458,5132.839837,4737.318029,5921.647536
4051.880773,3370.820191,2664.741391,6439.791695
4051.881088,995.924147,962.267725,8438.347739
4051.881403,-1608.800546,-1258.350101,9548.656652
4051.881718,-3830.477490,-3627.009116,11843.295072
4051.882033,-5056.230287,-5033.400406,13471.748144
4051.882349,-5362.668486,-5625.565159,13915.871710
4051.882664,-4136.915689,-5107.421000,13989.892304
4051.882979,-3140.991542,-3330.926739,12731.542202
4051.883294,-689.485948,-1036.288319,11029.068536
4051.883609,1685.410096,1184.329507,9622.677246
4051.883924,4060.306139,2886.803174,8142.265362
4051.884240,5362.668486,4515.256246,6735.874072
4051.884555,5898.935335,5551.544565,5403.503377
4051.884870,5439.278036,5181.441594,5107.421000
4051.885185,4290.134789,3775.050304,5847.626942
4051.885500,2068.457845,1480.411884,7402.059420
4051.885815,-689.485948,-370.102971,8882.471304
4051.886130,-3524.039291,-2368.659014,10436.903782
4051.886446,-4903.011187,-4885.359217,12657.521608
4051.886761,-5669.106685,-5699.585753,13471.748144
4051.887076,-5056.230287,-5773.606348,14211.954086
4051.887391,-4673.182538,-4441.235652,13693.809927
4051.887706,-2911.162892,-2590.720797,11917.315666
4051.888021,229.828649,-0.000000,10436.903782
4051.888337,2451.505594,2220.617826,8586.388927
4051.888652,4443.353888,3849.070898,6809.894666
4051.888967,5362.668486,5107.421000,5847.626942
4051.889282,5286.058936,5329.482782,5255.462188
4051.889597,4673.182538,4293.194464,5477.523971
4051.889912,2911.162892,2738.761985,6217.729913
4051.890227,459.657299,444.123565,8216.285956
4051.890543,-2528.115143,-1258.350101,9918.759623
4051.890858,-4519.963438,-3330.926739,11917.315666
4051.891173,-5592.497135,-4959.379811,13397.727550
4051.891488,-5592.497135,-5995.668130,14063.912898
4051.891803,-5056.230287,-4885.359217,13989.892304
4051.892118,-3753.867940,-3182.885551,13027.624579
4051.892434,-1225.752797,-1036.288319,11177.109724
4051.892749,1455.581446,1184.329507,9918.759623
4051.893064,3294.210641,3404.947333,7476.080014
4051.893379,5209.449386,5181.441594,6217.729913
4051.893694,6052.154434,6217.729913,4959.379811
4051.894009,5669.106685,5477.523971,5033.400406
4051.894324,4136.915689,4367.215058,6143.709319
4051.894640,1991.848295,2294.638420,7624.121203
4051.894955,-1072.533697,296.082377,9178.553681
4051.895270,-3294.210641,-2442.679609,11325.150913
4051.895585,-4903.011187,-4663.297435,13249.686362
4051.895900,-5669.106685,-5181.441594,13915.871710
4051.896215,-4979.620737,-5181.441594,14137.933492
4051.896531,-4290.134789,-3849.070898,13693.809927
4051.896846,-1991.848295,-1850.514855,12065.356855
4051.897161,766.095498,740.205942,10436.903782
4051.897476,3370.820191,3404.947333,7994.224174
4051.897791,5132.839837,4885.359217,6735.874072
4051.898106,6205.373534,6143.709319,5329.482782
4051.898421,6052.154434,5699.585753,4737.318029
4051.898737,5132.839837,4737.318029,5477.523971
4051.899052,3294.210641,3182.885551,6809.894666
4051.899367,612.876398,666.185348,8586.388927
4051.899682,-1991.848295,-1184.329507,10214.842000
4051.899997,-4136.915689,-3701.029710,12509.480420
4051.900312,-5362.668486,-4811.338623,13841.851115
4051.900628,-6205.373534,-5477.523971,14211.954086
4051.900943,-4903.011187,-4589.276840,13915.871710
4051.901258,-2911.162892,-3404.947333,13249.686362
