#time,accel_x,accel_y,accel_z
3866.268520,0.000000,222.061783,9770.718434
3866.268835,229.828649,296.082377,9474.636058
3866.269150,76.609550,222.061783,9844.739029
3866.269465,0.000000,296.082377,9474.636058
3866.269779,0.000000,-0.000000,9622.677246
3866.270094,76.609550,-0.000000,9326.594869
3866.270409,76.609550,-0.000000,9400.615463
3866.270723,0.000000,296.082377,9696.697840
3866.271038,0.000000,222.061783,9622.677246
3866.271353,459.657299,-0.000000,9474.636058
3866.271667,0.000000,-0.000000,9474.636058
3866.271982,306.438199,370.102971,10214.842000
3866.272297,229.828649,-0.000000,9770.718434
3866.272612,153.219100,-0.000000,9252.574275
3866.272926,0.000000,-0.000000,9474.636058
3866.273241,153.219100,296.082377,9474.636058
3866.273556,229.828649,370.102971,9622.677246
3866.273870,0.000000,-222.061783,9696.697840
3866.274185,0.000000,-0.000000,10140.821405
3866.274500,229.828649,-0.000000,9622.677246
3866.274814,0.000000,148.041188,9548.656652
3866.275129,306.438199,-0.000000,9844.739029
3866.275444,459.657299,296.082377,9844.739029
3866.275759,76.609550,148.041188,9548.656652
3866.276073,0.000000,148.041188,9178.553681
3866.276388,383.047749,-0.000000,10066.800811
3866.276703,76.609550,222.061783,9622.677246
3866.277017,76.609550,-0.000000,9474.636058
3866.277332,153.219100,222.061783,9622.677246
3866.277647,0.000000,-0.000000,9474.636058
3866.277961,306.438199,222.061783,9548.656652
3866.278276,229.828649,444.123565,9918.759623
3866.278591,459.657299,296.082377,9770.718434
3866.278906,76.609550,444.123565,9474.636058
3866.279220,153.219100,222.061783,9474.636058
3866.279535,-229.828649,296.082377,9918.759623
3866.279850,383.047749,296.082377,9770.718434
3866.280164,0.000000,-0.000000,9474.636058
3866.280479,229.828649,148.041188,9474.636058
3866.280794,76.609550,518.144159,9252.574275
3866.281109,76.609550,222.061783,9474.636058
3866.281423,76.609550,-0.000000,9474.636058
3866.281738,0.000000,-0.000000,9696.697840
3866.282053,-153.219100,-0.000000,9178.553681
3866.282367,0.000000,-0.000000,9696.697840
3866.282682,153.219100,-0.000000,9474.636058
3866.282997,76.609550,-222.061783,9918.759623
3866.283311,153.219100,222.061783,9326.594869
3866.283626,306.438199,370.102971,9474.636058
3866.283941,383.047749,370.102971,9844.739029
3866.284256,383.047749,-0.000000,9474.636058
3866.284570,0.000000,-148.041188,9844.739029
3866.284885,0.000000,-148.041188,9844.739029
3866.285200,76.609550,-74.020594,9770.718434
3866.285514,153.219100,-0.000000,9696.697840
3866.285829,76.609550,-0.000000,9844.739029
3866.286144,306.438199,148.041188,9622.677246
3866.286458,76.609550,-0.000000,9326.594869
3866.286773,229.828649,370.102971,9326.594869
3866.287088,459.657299,370.102971,9918.759623
3866.287403,536.266849,-0.000000,9696.697840
3866.287717,0.000000,222.061783,9770.718434
3866.288032,229.828649,-0.000000,9770.718434
3866.288347,76.609550,-0.000000,9474.636058
3866.288661,306.438199,370.102971,9696.697840
3866.288976,0.000000,370.102971,9918.759623
3866.289291,459.657299,370.102971,9844.739029
3866.289605,153.219100,518.144159,9326.594869
3866.289920,306.438199,222.061783,9474.636058
3866.290235,153.219100,296.082377,9770.718434
3866.290550,0.000000,222.061783,9696.697840
3866.290864,0.000000,296.082377,9548.656652
3866.291179,0.000000,-0.000000,9400.615463
3866.291494,0.000000,148.041188,9474.636058
3866.291808,153.219100,-148.041188,9770.718434
3866.292123,0.000000,444.123565,9622.677246
3866.292438,0.000000,-74.020594,9548.656652
3866.292753,76.609550,-0.000000,9326.594869
3866.293067,0.000000,222.061783,9474.636058
3866.293382,383.047749,-0.000000,9548.656652
3866.293697,0.000000,-74.020594,9622.677246
3866.294011,153.219100,296.082377,9844.739029
3866.294326,383.047749,222.061783,9474.636058
3866.294641,229.828649,296.082377,9770.718434
3866.294955,766.095498,-0.000000,9474.636058
3866.295270,612.876398,-148.041188,9844.739029
3866.295585,383.047749,-0.000000,10066.800811
3866.295900,76.609550,222.061783,9622.677246
3866.296214,536.266849,444.123565,9696.697840
3866.296529,612.876398,370.102971,9400.615463
3866.296844,612.876398,888.247130,9252.574275
3866.297158,383.047749,444.123565,8956.491898
3866.297473,766.095498,370.102971,9030.512492
3866.297788,842.705048,296.082377,9474.636058
3866.298102,919.314598,-0.000000,9844.739029
3866.298417,536.266849,370.102971,9992.780217
3866.298732,612.876398,148.041188,9992.780217
3866.299047,536.266849,370.102971,9844.739029
3866.299361,1302.362347,814.226536,9622.677246
3866.299676,1149.143247,888.247130,10066.800811
3866.299991,689.485948,814.226536,9696.697840
3866.300305,1378.971896,1036.288319,9548.656652
3866.300620,1455.581446,1110.308913,9918.759623
3866.300935,1685.410096,962.267725,10066.800811
3866.301249,1838.629195,1110.308913,10066.800811
3866.301564,2451.505594,1554.432478,9770.718434
3866.301879,2834.553343,1924.535449,9474.636058
3866.302194,3064.381992,1998.556043,9252.574275
3866.302508,3294.210641,2294.638420,8438.347739
3866.302823,3830.477490,2294.638420,8068.244768
3866.303138,3370.820191,2368.659014,8660.409521
3866.303452,3600.648841,2220.617826,8586.388927
3866.303767,3217.601092,2516.700203,8734.430116
3866.304082,3447.429741,2368.659014,8660.409521
3866.304397,3294.210641,2368.659014,9030.512492
3866.304711,2987.772442,2664.741391,9474.636058
3866.305026,3064.381992,2590.720797,9474.636058
3866.305341,2987.772442,2960.823768,9326.594869
3866.305655,3064.381992,3034.844362,9178.553681
3866.305970,2681.334243,3108.864956,8956.491898
3866.306285,2451.505594,3552.988522,9548.656652
3866.306599,2911.162892,3775.050304,9400.615463
3866.306914,2757.943793,3701.029710,9548.656652
3866.307229,2451.505594,3849.070898,10288.862594
3866.307544,2221.676944,3997.112087,10288.862594
3866.307858,1991.848295,4071.132681,10658.965565
3866.308173,1838.629195,3701.029710,10732.986159
3866.308488,1302.362347,3849.070898,11399.171507
3866.308802,1915.238745,3701.029710,11325.150913
3866.309117,1838.629195,3775.050304,11177.109724
3866.309432,1838.629195,3923.091493,10584.944971
3866.309746,1915.238745,3627.009116,10436.903782
3866.310061,2068.457845,4219.173869,10140.821405
3866.310376,2145.067394,3849.070898,9622.677246
3866.310691,2451.505594,3775.050304,9844.739029
3866.311005,2298.286494,3701.029710,9548.656652
3866.311320,1915.238745,3701.029710,9696.697840
3866.311635,2068.457845,3182.885551,9992.780217
3866.311949,1915.238745,2812.782580,10214.842000
3866.312264,2068.457845,2886.803174,10436.903782
3866.312579,1762.019645,2960.823768,9992.780217
3866.312893,2068.457845,2664.741391,10214.842000
3866.313208,1762.019645,2960.823768,9770.718434
3866.313523,1762.019645,3552.988522,9844.739029
3866.313838,1762.019645,3478.967927,9918.759623
3866.314152,1915.238745,2812.782580,9400.615463
3866.314467,1991.848295,2886.803174,9252.574275
3866.314782,1991.848295,2738.761985,9178.553681
3866.315096,1838.629195,1924.535449,9770.718434
3866.315411,1532.190996,1184.329507,10288.862594
3866.315726,1378.971896,1184.329507,10362.883188
3866.316041,1838.629195,1258.350101,10288.862594
3866.316355,1149.143247,962.267725,9770.718434
3866.316670,1608.800546,1554.432478,9622.677246
3866.316985,1915.238745,1628.453072,9474.636058
3866.317299,2451.505594,2072.576638,8882.471304
3866.317614,2681.334243,2220.617826,8142.265362
3866.317929,3294.210641,1702.473667,8438.347739
3866.318243,3677.258390,1702.473667,8438.347739
3866.318558,3294.210641,1924.535449,8512.368333
3866.318873,2987.772442,1332.370696,8438.347739
3866.319188,2681.334243,1406.391290,9030.512492
3866.319502,2451.505594,1110.308913,9252.574275
3866.319817,2145.067394,1110.308913,9474.636058
3866.320132,2068.457845,592.164754,9252.574275
3866.320446,1685.410096,518.144159,9252.574275
3866.320761,1915.238745,370.102971,9992.780217
3866.321076,1608.800546,148.041188,9992.780217
3866.321390,1915.238745,518.144159,10955.047942
3866.321705,2374.896044,1258.350101,9918.759623
3866.322020,3064.381992,2368.659014,9548.656652
3866.322335,3217.601092,2368.659014,9474.636058
3866.322649,3830.477490,2442.679609,8882.471304
3866.322964,3830.477490,2664.741391,8438.347739
3866.323279,3677.258390,2516.700203,7994.224174
3866.323593,3294.210641,1924.535449,8068.244768
3866.323908,2834.553343,1110.308913,8734.430116
3866.324223,2145.067394,370.102971,8956.491898
3866.324537,612.876398,-222.061783,9918.759623
3866.324852,76.609550,-592.164754,11251.130318
3866.325167,-459.657299,-740.205942,12065.356855
3866.325482,-612.876398,-74.020594,12435.459826
3866.325796,0.000000,740.205942,12065.356855
3866.326111,1149.143247,1776.494261,11399.171507
3866.326426,2604.724693,2812.782580,10066.800811
3866.326740,3907.087040,3849.070898,9326.594869
3866.327055,4826.401637,4737.318029,7550.100608
3866.327370,4979.620737,4959.379811,6661.853478
3866.327685,5132.839837,4589.276840,7105.977043
3866.327999,4596.572988,3330.926739,7698.141797
3866.328314,3753.867940,2072.576638,9178.553681
3866.328629,1532.190996,1480.411884,10436.903782
3866.328943,-306.438199,740.205942,11769.274478
3866.329258,-995.924147,296.082377,12435.459826
3866.329573,-1149.143247,296.082377,12583.501014
3866.329887,-612.876398,1480.411884,11843.295072
3866.330202,306.438199,2516.700203,9992.780217
3866.330517,1608.800546,3627.009116,8956.491898
3866.330832,3294.210641,4589.276840,7772.162391
3866.331146,4519.963438,4737.318029,7624.121203
3866.331461,5209.449386,4663.297435,8068.244768
3866.331776,4596.572988,4071.132681,8438.347739
3866.332090,3830.477490,3775.050304,9770.718434
3866.332405,3064.381992,3552.988522,10807.006753
3866.332720,2451.505594,3108.864956,11029.068536
3866.333034,919.314598,2886.803174,10732.986159
3866.333349,153.219100,3034.844362,10584.944971
3866.333664,306.438199,2220.617826,10436.903782
3866.333979,919.314598,1924.535449,10066.800811
3866.334293,1685.410096,1998.556043,9252.574275
3866.334608,2298.286494,2368.659014,8438.347739
3866.334923,2528.115143,2738.761985,8438.347739
3866.335237,3217.601092,3108.864956,8808.450710
3866.335552,3447.429741,3478.967927,8660.409521
3866.335867,3064.381992,3478.967927,8216.285956
3866.336181,2681.334243,3034.844362,9178.553681
3866.336496,2145.067394,2368.659014,10807.006753
3866.336811,1762.019645,2146.597232,11399.171507
3866.337126,919.314598,1702.473667,11843.295072
3866.337440,229.828649,1480.411884,10955.047942
3866.337755,1838.629195,2442.679609,10658.965565
3866.338070,2145.067394,3404.947333,9918.759623
3866.338384,2834.553343,3552.988522,8438.347739
3866.338699,3907.087040,3256.906145,7994.224174
3866.339014,3983.696590,2590.720797,7920.203579
3866.339329,3524.039291,2368.659014,8734.430116
3866.339643,3140.991542,1332.370696,9474.636058
3866.339958,2681.334243,962.267725,10436.903782
3866.340273,2145.067394,1036.288319,10584.944971
3866.340587,1991.848295,1776.494261,10584.944971
3866.340902,2298.286494,1998.556043,10214.842000
3866.341217,2068.457845,2738.761985,10214.842000
3866.341531,2298.286494,3108.864956,9326.594869
3866.341846,2604.724693,2664.741391,9104.533087
3866.342161,2834.553343,2886.803174,8438.347739
3866.342476,3140.991542,2886.803174,8734.430116
3866.342791,2834.553343,2220.617826,8882.471304
3866.343106,2681.334243,1702.473667,9178.553681
3866.343421,2757.943793,1184.329507,10362.883188
3866.343735,1455.581446,1258.350101,10436.903782
3866.344050,536.266849,1036.288319,11547.212695
3866.344365,229.828649,1184.329507,11621.233289
3866.344680,153.219100,1776.494261,10658.965565
3866.344995,842.705048,1702.473667,10214.842000
3866.345310,1915.238745,1702.473667,9918.759623
3866.345625,2221.676944,1998.556043,9400.615463
3866.345940,2834.553343,2368.659014,8660.409521
3866.346255,3140.991542,2368.659014,7994.224174
3866.346569,3370.820191,2664.741391,7772.162391
3866.346884,3830.477490,2368.659014,7476.080014
3866.347199,4060.306139,1110.308913,8142.265362
3866.347514,2221.676944,518.144159,9400.615463
3866.347829,919.314598,-370.102971,10362.883188
3866.348144,-383.047749,-0.000000,10658.965565
3866.348459,-689.485948,666.185348,10066.800811
3866.348774,-306.438199,444.123565,10881.027347
3866.349089,1072.533697,666.185348,10436.903782
3866.349404,1532.190996,1480.411884,9918.759623
3866.349718,1915.238745,1628.453072,9548.656652
3866.350033,2221.676944,2664.741391,8808.450710
3866.350348,2987.772442,3404.947333,8364.327145
3866.350663,4213.525239,3108.864956,8142.265362
3866.350978,4749.792088,2442.679609,8068.244768
3866.351293,3524.039291,1924.535449,9030.512492
3866.351608,2451.505594,962.267725,10140.821405
3866.351923,1455.581446,1554.432478,10362.883188
3866.352238,459.657299,1776.494261,10214.842000
3866.352552,995.924147,1258.350101,10658.965565
3866.352867,1762.019645,1332.370696,10288.862594
3866.353182,1072.533697,1554.432478,10584.944971
3866.353497,995.924147,1776.494261,9918.759623
3866.353812,1302.362347,2664.741391,9326.594869
3866.354127,2911.162892,2738.761985,8660.409521
3866.354442,4443.353888,2960.823768,8438.347739
3866.354757,4826.401637,3478.967927,8364.327145
3866.355072,4136.915689,3182.885551,9104.533087
3866.355386,2834.553343,3478.967927,8660.409521
3866.355701,2068.457845,3256.906145,9326.594869
3866.356016,2298.286494,2368.659014,10732.986159
3866.356331,1915.238745,2294.638420,10807.006753
3866.356646,689.485948,1702.473667,10362.883188
3866.356961,0.000000,1036.288319,11177.109724
3866.357276,229.828649,2072.576638,10288.862594
3866.357591,1225.752797,1776.494261,11177.109724
3866.357906,2604.724693,2368.659014,10214.842000
3866.358220,2528.115143,3034.844362,9178.553681
3866.358535,2528.115143,3256.906145,8216.285956
3866.358850,3140.991542,2590.720797,7476.080014
3866.359165,3140.991542,2812.782580,8142.265362
3866.359480,2068.457845,2368.659014,8808.450710
3866.359795,1532.190996,1850.514855,9696.697840
3866.360110,-306.438199,2294.638420,10510.924376
3866.360425,-766.095498,2442.679609,9844.739029
3866.360740,0.000000,666.185348,11103.089130
3866.361054,383.047749,1332.370696,11325.150913
3866.361369,-612.876398,1406.391290,10881.027347
3866.361684,-842.705048,1924.535449,10214.842000
3866.361999,76.609550,2368.659014,9474.636058
3866.362314,1378.971896,1184.329507,9474.636058
3866.362629,1302.362347,1110.308913,9622.677246
3866.362944,919.314598,1850.514855,9252.574275
3866.363259,0.000000,1480.411884,9104.533087
3866.363574,0.000000,962.267725,9252.574275
3866.363888,689.485948,444.123565,10288.862594
3866.364203,0.000000,962.267725,10066.800811
3866.364518,-919.314598,-0.000000,10510.924376
3866.364833,-1608.800546,296.082377,10658.965565
3866.365148,-1532.190996,962.267725,9178.553681
3866.365463,-689.485948,666.185348,9696.697840
3866.365778,383.047749,-222.061783,9474.636058
3866.366093,76.609550,148.041188,8882.471304
3866.366408,0.000000,-148.041188,8956.491898
3866.366722,229.828649,-740.205942,9326.594869
3866.367037,1302.362347,-1258.350101,10510.924376
3866.367352,0.000000,-1110.308913,10066.800811
3866.367667,-1072.533697,-0.000000,9400.615463
3866.367982,-229.828649,-666.185348,10807.006753
3866.368297,-536.266849,814.226536,10140.821405
3866.368612,459.657299,-518.144159,10288.862594
3866.368927,1455.581446,-888.247130,9844.739029
3866.369242,459.657299,222.061783,8364.327145
3866.369556,1302.362347,296.082377,7550.100608
3866.369871,1838.629195,-222.061783,7402.059420
3866.370186,2911.162892,-962.267725,8142.265362
3866.370501,2451.505594,-1628.453072,8142.265362
3866.370816,76.609550,-1258.350101,8364.327145
3866.371131,-536.266849,-1776.494261,9696.697840
3866.371446,-229.828649,-1998.556043,10362.883188
3866.371761,-459.657299,-2368.659014,10732.986159
3866.372076,-995.924147,-1258.350101,10510.924376
3866.372391,-1072.533697,-1258.350101,10955.047942
3866.372705,-766.095498,-814.226536,9770.718434
3866.373020,612.876398,-444.123565,9770.718434
3866.373335,1838.629195,222.061783,9252.574275
3866.373650,1685.410096,814.226536,7476.080014
3866.373965,1608.800546,1184.329507,8216.285956
3866.374280,1762.019645,-0.000000,8438.347739
3866.374595,1915.238745,-1258.350101,9474.636058
3866.374910,612.876398,-2590.720797,10362.883188
3866.375225,-766.095498,-1776.494261,9992.780217
3866.375539,-2298.286494,-888.247130,10658.965565
3866.375854,-1915.238745,-1184.329507,10732.986159
3866.376169,-1608.800546,-1776.494261,9844.739029
3866.376484,-1225.752797,-1184.329507,9178.553681
3866.376799,-1302.362347,-814.226536,9252.574275
3866.377114,-919.314598,-222.061783,9104.533087
3866.377429,0.000000,-148.041188,9252.574275
3866.377744,306.438199,-370.102971,9474.636058
3866.378059,153.219100,148.041188,8660.409521
3866.378373,-842.705048,592.164754,9030.512492
3866.378688,-1072.533697,370.102971,9992.780217
3866.379003,-766.095498,222.061783,11177.109724
3866.379318,-1225.752797,-0.000000,11473.192101
3866.379633,-1378.971896,-0.000000,10510.924376
3866.379948,-1838.629195,1406.391290,9918.759623
3866.380263,-1608.800546,1110.308913,9474.636058
3866.380578,-229.828649,370.102971,9918.759623
3866.380893,766.095498,1110.308913,9696.697840
3866.381207,766.095498,1110.308913,7920.203579
3866.381522,383.047749,1554.432478,7698.141797
3866.381837,766.095498,1036.288319,8290.306550
3866.382152,842.705048,-0.000000,9474.636058
3866.382467,612.876398,-0.000000,9326.594869
3866.382782,-766.095498,962.267725,10066.800811
3866.383097,-1149.143247,296.082377,10732.986159
3866.383412,-612.876398,296.082377,10362.883188
3866.383727,0.000000,740.205942,10955.047942
3866.384041,689.485948,1480.411884,10140.821405
3866.384356,229.828649,2072.576638,9622.677246
3866.384671,1762.019645,2664.741391,9030.512492
3866.384986,1991.848295,2146.597232,9178.553681
3866.385301,2987.772442,2072.576638,8882.471304
3866.385616,2298.286494,1036.288319,9400.615463
3866.385931,995.924147,1332.370696,9622.677246
3866.386246,1072.533697,888.247130,9918.759623
3866.386561,766.095498,-222.061783,11325.150913
3866.386875,842.705048,-74.020594,11473.192101
3866.387190,0.000000,222.061783,10584.944971
3866.387505,-689.485948,962.267725,9548.656652
3866.387820,766.095498,962.267725,9474.636058
3866.388135,1685.410096,-0.000000,10288.862594
3866.388450,2221.676944,296.082377,8660.409521
3866.388765,1838.629195,666.185348,7846.182985
3866.389080,1072.533697,1258.350101,8142.265362
3866.389395,1225.752797,148.041188,9474.636058
3866.389709,2068.457845,-74.020594,9918.759623
3866.390024,1608.800546,-0.000000,9474.636058
3866.390339,76.609550,370.102971,10140.821405
3866.390654,-919.314598,962.267725,9474.636058
3866.390969,-689.485948,-0.000000,9844.739029
3866.391284,0.000000,-888.247130,11399.171507
3866.391599,-76.609550,-444.123565,9770.718434
3866.391914,-536.266849,-0.000000,9548.656652
3866.392229,-689.485948,-0.000000,9104.533087
3866.392543,0.000000,-370.102971,9548.656652
3866.392858,689.485948,-0.000000,9696.697840
3866.393173,536.266849,-74.020594,8808.450710
3866.393488,-536.266849,-0.000000,9178.553681
3866.393803,-689.485948,-222.061783,9326.594869
3866.394118,-229.828649,-0.000000,9992.780217
3866.394433,0.000000,-370.102971,9252.574275
3866.394748,-612.876398,-370.102971,9770.718434
3866.395063,-1378.971896,666.185348,8660.409521
3866.395378,-995.924147,-74.020594,9104.533087
3866.395692,-536.266849,-592.164754,10214.842000
3866.396007,-153.219100,-592.164754,9474.636058
3866.396322,-919.314598,-0.000000,8660.409521
3866.396637,-1225.752797,296.082377,8808.450710
3866.396952,-766.095498,-148.041188,9474.636058
3866.397267,-536.266849,-1258.350101,10140.821405
3866.397582,0.000000,-592.164754,9548.656652
3866.397897,-1685.410096,-666.185348,10140.821405
3866.398212,-2068.457845,-0.000000,9474.636058
3866.398526,-995.924147,-1184.329507,11103.089130
3866.398841,-383.047749,-740.205942,9918.759623
3866.399156,0.000000,-666.185348,10362.883188
3866.399471,-1149.143247,666.185348,9400.615463
3866.399786,-995.924147,-0.000000,9178.553681
3866.400101,306.438199,-592.164754,9918.759623
3866.400416,1149.143247,-0.000000,9326.594869
3866.400731,766.095498,-592.164754,8808.450710
3866.401046,383.047749,-666.185348,9326.594869
3866.401360,383.047749,-814.226536,9696.697840
3866.401675,766.095498,-1406.391290,10362.883188
3866.401990,766.095498,-740.205942,9918.759623
3866.402305,76.609550,-592.164754,9918.759623
3866.402620,-536.266849,444.123565,8956.491898
3866.402935,229.828649,-296.082377,9548.656652
3866.403250,842.705048,-296.082377,10288.862594
3866.403565,1532.190996,-518.144159,9474.636058
3866.403880,1072.533697,-0.000000,9400.615463
3866.404194,689.485948,888.247130,9400.615463
3866.404509,1225.752797,-444.123565,10584.944971
3866.404824,2068.457845,-518.144159,10140.821405
3866.405139,1455.581446,-74.020594,9178.553681
3866.405454,612.876398,1258.350101,9400.615463
3866.405769,0.000000,1702.473667,8882.471304
3866.406084,995.924147,444.123565,9696.697840
3866.406399,1685.410096,370.102971,9030.512492
3866.406714,766.095498,-0.000000,9104.533087
3866.407028,153.219100,740.205942,9030.512492
3866.407343,0.000000,-148.041188,9474.636058
3866.407658,76.609550,-444.123565,10214.842000
3866.407973,766.095498,-370.102971,9326.594869
3866.408288,0.000000,-74.020594,9474.636058
3866.408603,-766.095498,1110.308913,8956.491898
3866.408918,-383.047749,666.185348,9474.636058
3866.409233,153.219100,666.185348,10584.944971
3866.409548,612.876398,1110.308913,9770.718434
3866.409862,153.219100,2368.659014,9400.615463
3866.410177,-153.219100,2738.761985,8660.409521
3866.410492,76.609550,1480.411884,9696.697840
3866.410807,842.705048,888.247130,10066.800811
3866.411122,383.047749,296.082377,10288.862594
3866.411437,-766.095498,1554.432478,9474.636058
3866.411752,-1378.971896,1480.411884,9622.677246
3866.412067,-536.266849,814.226536,10214.842000
3866.412382,-153.219100,-222.061783,9992.780217
3866.412696,0.000000,-148.041188,9548.656652
3866.413011,-995.924147,740.205942,9622.677246
3866.413326,-1302.362347,814.226536,8882.471304
3866.413641,-766.095498,-0.000000,10584.944971
3866.413956,229.828649,296.082377,9548.656652
3866.414271,0.000000,740.205942,9770.718434
3866.414586,-612.876398,1998.556043,8882.471304
3866.414901,-612.876398,1184.329507,9918.759623
3866.415216,229.828649,444.123565,10510.924376
3866.415531,919.314598,518.144159,10510.924376
3866.415845,-153.219100,1332.370696,9178.553681
3866.416160,-842.705048,1184.329507,9474.636058
3866.416475,-766.095498,370.102971,10436.903782
3866.416790,536.266849,-370.102971,10807.006753
3866.417105,229.828649,-370.102971,10658.965565
3866.417420,-919.314598,592.164754,9918.759623
3866.417735,-919.314598,962.267725,9252.574275
3866.418050,-229.828649,222.061783,10658.965565
3866.418365,842.705048,-0.000000,10214.842000
3866.418679,1149.143247,-592.164754,9104.533087
3866.418994,229.828649,222.061783,9326.594869
3866.419309,229.828649,1036.288319,8512.368333
3866.419624,1225.752797,-0.000000,9548.656652
3866.419939,1608.800546,-296.082377,9400.615463
3866.420254,1378.971896,-518.144159,8882.471304
3866.420569,0.000000,296.082377,8512.368333
3866.420884,0.000000,-0.000000,9030.512492
3866.421199,536.266849,-888.247130,9918.759623
3866.421513,383.047749,-370.102971,9474.636058
3866.421828,-536.266849,-148.041188,8808.450710
3866.422143,-536.266849,-148.041188,8808.450710
3866.422458,0.000000,-592.164754,9918.759623
3866.422773,153.219100,-1036.288319,10362.883188
3866.423088,766.095498,-1332.370696,9696.697840
3866.423403,459.657299,-222.061783,9548.656652
3866.423718,-383.047749,740.205942,8882.471304
3866.424033,459.657299,-296.082377,9548.656652
3866.424347,995.924147,-148.041188,9770.718434
3866.424662,612.876398,-666.185348,9178.553681
3866.424977,153.219100,-74.020594,9104.533087
3866.425292,-229.828649,222.061783,8438.347739
3866.425607,536.266849,-1628.453072,10066.800811
3866.425922,459.657299,-1554.432478,10362.883188
3866.426237,0.000000,-1480.411884,10066.800811
3866.426552,-612.876398,370.102971,9178.553681
3866.426867,-459.657299,-370.102971,9770.718434
3866.427181,229.828649,-666.185348,10807.006753
3866.427496,76.609550,-740.205942,10732.986159
3866.427811,0.000000,-0.000000,9104.533087
3866.428126,-689.485948,-0.000000,9252.574275
3866.428441,-536.266849,518.144159,9548.656652
3866.428756,383.047749,-444.123565,10510.924376
3866.429071,995.924147,-74.020594,9474.636058
3866.429386,76.609550,-0.000000,9992.780217
3866.429701,-459.657299,962.267725,9326.594869
3866.430015,-306.438199,-0.000000,9548.656652
3866.430330,766.095498,-740.205942,10732.986159
3866.430645,612.876398,-666.185348,9844.739029
3866.430960,-612.876398,-0.000000,8586.388927
3866.431275,-612.876398,-0.000000,9252.574275
3866.431590,-612.876398,-0.000000,9770.718434
3866.431905,-383.047749,-592.164754,10288.862594
3866.432220,-306.438199,-740.205942,9622.677246
3866.432535,-1225.752797,-0.000000,8808.450710
3866.432849,-1302.362347,666.185348,8586.388927
3866.433164,-536.266849,-666.185348,10288.862594
3866.433479,0.000000,-148.041188,10214.842000
3866.433794,306.438199,148.041188,9548.656652
3866.434109,-153.219100,1776.494261,8734.430116
3866.434424,0.000000,1406.391290,8660.409521
3866.434739,1762.019645,1036.288319,9474.636058
3866.435054,1762.019645,518.144159,8956.491898
3866.435369,306.438199,592.164754,8512.368333
3866.435683,-383.047749,1554.432478,8956.491898
3866.435998,0.000000,592.164754,9474.636058
3866.436313,612.876398,-0.000000,9770.718434
3866.436628,306.438199,-222.061783,9918.759623
3866.436943,-306.438199,444.123565,9400.615463
3866.437258,-995.924147,592.164754,9548.656652
3866.437573,-689.485948,296.082377,10288.862594
3866.437888,153.219100,-0.000000,10658.965565
3866.438203,306.438199,592.164754,9696.697840
3866.438518,76.609550,1184.329507,9474.636058
3866.438832,153.219100,1332.370696,9326.594869
3866.439147,995.924147,1406.391290,9918.759623
3866.439462,1378.971896,1036.288319,10288.862594
3866.439777,1378.971896,1406.391290,9548.656652
3866.440092,612.876398,1924.535449,8808.450710
3866.440407,459.657299,1702.473667,9178.553681
3866.440722,995.924147,518.144159,10510.924376
3866.441037,1685.410096,-0.000000,10140.821405
3866.441352,536.266849,-444.123565,9844.739029
3866.441666,-1072.533697,296.082377,9474.636058
3866.441981,-536.266849,74.020594,9770.718434
3866.442296,383.047749,-148.041188,10881.027347
3866.442611,919.314598,222.061783,9918.759623
3866.442926,-459.657299,148.041188,9474.636058
3866.443241,-612.876398,962.267725,9030.512492
3866.443556,536.266849,592.164754,9770.718434
3866.443871,1149.143247,-0.000000,10214.842000
3866.444186,1608.800546,-296.082377,9770.718434
3866.444501,842.705048,518.144159,9474.636058
3866.444815,229.828649,814.226536,8586.388927
3866.445130,153.219100,-0.000000,9696.697840
3866.445445,995.924147,-518.144159,10436.903782
3866.445760,229.828649,-814.226536,9770.718434
3866.446075,-459.657299,-0.000000,9696.697840
3866.446390,-1302.362347,-0.000000,9030.512492
3866.446705,-536.266849,-1184.329507,10362.883188
3866.447020,-153.219100,-1036.288319,10584.944971
3866.447335,-306.438199,-1406.391290,9548.656652
3866.447650,-229.828649,-74.020594,9030.512492
3866.447965,-459.657299,148.041188,9326.594869
3866.448279,76.609550,-148.041188,9918.759623
3866.448594,766.095498,-74.020594,9400.615463
3866.448909,383.047749,222.061783,8956.491898
3866.449224,-459.657299,148.041188,8808.450710
3866.449539,153.219100,-74.020594,9178.553681
3866.449854,229.828649,-0.000000,9844.739029
3866.450169,229.828649,-518.144159,9178.553681
3866.450484,-459.657299,-444.123565,9178.553681
3866.450799,-1149.143247,-0.000000,8882.471304
3866.451114,-612.876398,-1036.288319,9918.759623
3866.451429,0.000000,-1258.350101,9992.780217
3866.451744,0.000000,-1036.288319,9770.718434
3866.452058,-842.705048,-370.102971,8586.388927
3866.452373,-1302.362347,-0.000000,9178.553681
3866.452688,-383.047749,-962.267725,10066.800811
3866.453003,383.047749,-740.205942,9918.759623
3866.453318,153.219100,-222.061783,9622.677246
3866.453633,-153.219100,-74.020594,8808.450710
3866.453948,-383.047749,1036.288319,8586.388927
3866.454263,0.000000,-0.000000,9622.677246
3866.454578,536.266849,-222.061783,9030.512492
3866.454893,0.000000,-814.226536,9326.594869
3866.455208,-229.828649,-518.144159,9178.553681
3866.455522,-383.047749,-148.041188,9992.780217
3866.455837,-306.438199,-222.061783,10288.862594
3866.456152,0.000000,-592.164754,10066.800811
3866.456467,-766.095498,-0.000000,9992.780217
3866.456782,-689.485948,518.144159,8956.491898
3866.457097,0.000000,-0.000000,9918.759623
3866.457412,1225.752797,-148.041188,10288.862594
3866.457727,1225.752797,370.102971,10140.821405
3866.458042,766.095498,1406.391290,8956.491898
3866.458357,229.828649,1702.473667,8734.430116
3866.458672,995.924147,592.164754,10066.800811
3866.458986,1838.629195,370.102971,9992.780217
3866.459301,1455.581446,518.144159,9474.636058
3866.459616,612.876398,1110.308913,9622.677246
3866.459931,0.000000,1184.329507,9474.636058
3866.460246,842.705048,592.164754,9918.759623
3866.460561,1225.752797,296.082377,10214.842000
3866.460876,76.609550,-74.020594,10510.924376
3866.461191,-919.314598,1184.329507,9474.636058
3866.461506,-229.828649,518.144159,9992.780217
3866.461821,306.438199,370.102971,10584.944971
3866.462136,689.485948,148.041188,10584.944971
3866.462450,153.219100,1184.329507,10214.842000
3866.462765,-536.266849,1998.556043,9252.574275
3866.463080,536.266849,1850.514855,9400.615463
3866.463395,1225.752797,962.267725,10066.800811
3866.463710,1685.410096,1110.308913,9252.574275
3866.464025,995.924147,1554.432478,9548.656652
3866.464340,0.000000,2072.576638,8734.430116
3866.464655,229.828649,740.205942,9992.780217
3866.464970,459.657299,-0.000000,10510.924376
3866.465285,229.828649,-0.000000,9918.759623
3866.465600,-1685.410096,370.102971,9252.574275
3866.465914,-1608.800546,222.061783,9104.533087
3866.466229,-1072.533697,-370.102971,10288.862594
3866.466544,0.000000,-444.123565,9844.739029
3866.466859,-536.266849,-0.000000,8882.471304
3866.467174,-459.657299,-0.000000,9548.656652
3866.467489,-383.047749,888.247130,8882.471304
3866.467804,383.047749,740.205942,9474.636058
3866.468119,919.314598,444.123565,9696.697840
3866.468434,536.266849,740.205942,9326.594869
3866.468749,-459.657299,1406.391290,8364.327145
3866.469064,-306.438199,740.205942,8660.409521
3866.469379,-306.438199,-0.000000,9696.697840
3866.469693,0.000000,-370.102971,9178.553681
3866.470008,-919.314598,-962.267725,9548.656652
3866.470323,-1991.848295,-0.000000,9400.615463
3866.470638,-1532.190996,-1406.391290,10732.986159
3866.470953,0.000000,-1258.350101,10881.027347
3866.471268,0.000000,-296.082377,10362.883188
3866.471583,-612.876398,296.082377,10140.821405
3866.471898,-383.047749,1258.350101,9400.615463
3866.472213,383.047749,1480.411884,9326.594869
3866.472528,1762.019645,444.123565,9400.615463
3866.472843,1532.190996,222.061783,8586.388927
3866.473157,1302.362347,444.123565,9178.553681
3866.473472,76.609550,814.226536,9104.533087
3866.473787,842.705048,-666.185348,9770.718434
3866.474102,842.705048,-1628.453072,9918.759623
3866.474417,0.000000,-962.267725,9844.739029
3866.474732,-919.314598,-518.144159,10288.862594
3866.475047,-919.314598,-1480.411884,9844.739029
3866.475362,0.000000,-1332.370696,10510.924376
3866.475677,229.828649,-1110.308913,10066.800811
3866.475992,229.828649,-518.144159,9178.553681
3866.476307,612.876398,-0.000000,8734.430116
3866.476621,766.095498,-666.185348,9474.636058
3866.476936,1991.848295,-370.102971,10436.903782
3866.477251,2374.896044,-740.205942,9104.533087
3866.477566,1378.971896,888.247130,9030.512492
3866.477881,76.609550,1110.308913,9326.594869
3866.478196,1072.533697,-0.000000,9400.615463
3866.478511,1991.848295,-1110.308913,9918.759623
3866.478826,1302.362347,-962.267725,9474.636058
3866.479141,0.000000,-1110.308913,9104.533087
3866.479456,-1072.533697,-888.247130,9104.533087
3866.479771,-536.266849,-1628.453072,10807.006753
3866.480085,153.219100,-1332.370696,10807.006753
3866.480400,0.000000,-666.185348,9622.677246
3866.480715,-459.657299,518.144159,9178.553681
3866.481030,-229.828649,888.247130,8512.368333
3866.481345,459.657299,370.102971,9474.636058
3866.481660,1378.971896,-74.020594,9326.594869
3866.481975,459.657299,444.123565,9030.512492
3866.482290,0.000000,592.164754,9474.636058
3866.482605,0.000000,148.041188,8364.327145
3866.482920,0.000000,74.020594,9918.759623
3866.483235,153.219100,-0.000000,9770.718434
3866.483550,-1378.971896,-0.000000,9696.697840
3866.483864,-1762.019645,518.144159,9400.615463
3866.484179,-1608.800546,-296.082377,9992.780217
3866.484494,-919.314598,-296.082377,10066.800811
3866.484809,-536.266849,-222.061783,9326.594869
3866.485124,-1149.143247,666.185348,8808.450710
3866.485439,-1149.143247,1406.391290,9252.574275
3866.485754,-919.314598,888.247130,9844.739029
3866.486069,689.485948,-0.000000,9696.697840
3866.486384,689.485948,740.205942,9622.677246
3866.486699,0.000000,2072.576638,8956.491898
3866.487014,0.000000,1998.556043,9252.574275
3866.487328,229.828649,1184.329507,9770.718434
3866.487643,536.266849,814.226536,10732.986159
3866.487958,-306.438199,962.267725,9474.636058
3866.488273,-612.876398,1110.308913,9400.615463
3866.488588,-919.314598,1036.288319,9548.656652
3866.488903,229.828649,-222.061783,10732.986159
3866.489218,229.828649,-666.185348,10584.944971
3866.489533,-306.438199,-222.061783,10881.027347
3866.489848,-919.314598,1036.288319,9770.718434
3866.490163,-842.705048,814.226536,10584.944971
3866.490478,1225.752797,962.267725,10658.965565
3866.490792,1532.190996,740.205942,9918.759623
3866.491107,919.314598,1628.453072,9326.594869
3866.491422,459.657299,1702.473667,9326.594869
3866.491737,842.705048,1036.288319,9844.739029
3866.492052,2145.067394,518.144159,10807.006753
3866.492367,1532.190996,296.082377,10288.862594
3866.492682,459.657299,1258.350101,9548.656652
3866.492997,0.000000,-0.000000,10214.842000
3866.493312,76.609550,-222.061783,11029.068536
3866.493627,766.095498,-370.102971,10362.883188
3866.493942,536.266849,-74.020594,10066.800811
3866.494256,0.000000,962.267725,9474.636058
3866.494571,229.828649,814.226536,8882.471304
3866.494886,1455.581446,-0.000000,9474.636058
3866.495201,1915.238745,-592.164754,9918.759623
3866.495516,919.314598,-74.020594,8956.491898
3866.495831,76.609550,666.185348,8216.285956
3866.496146,306.438199,148.041188,9474.636058
3866.496461,306.438199,-0.000000,9622.677246
3866.496776,1455.581446,-740.205942,9104.533087
3866.497091,0.000000,-222.061783,8586.388927
3866.497406,-612.876398,370.102971,9474.636058
3866.497721,-229.828649,-148.041188,9178.553681
3866.498035,0.000000,-296.082377,9622.677246
3866.498350,995.924147,-1110.308913,9622.677246
3866.498665,153.219100,-814.226536,9474.636058
3866.498980,-1225.752797,222.061783,8142.265362
3866.499295,-459.657299,-814.226536,9918.759623
3866.499610,0.000000,-666.185348,9844.739029
3866.499925,0.000000,-222.061783,9104.533087
3866.500240,-306.438199,-0.000000,8512.368333
3866.500555,-383.047749,-0.000000,8660.409521
3866.500870,-306.438199,-518.144159,9326.594869
3866.501185,383.047749,-1110.308913,10214.842000
3866.501499,-229.828649,-1036.288319,9696.697840
3866.501814,-842.705048,-0.000000,9548.656652
3866.502129,-536.266849,148.041188,9252.574275
3866.502444,-153.219100,-0.000000,10066.800811
3866.502759,229.828649,-592.164754,9992.780217
3866.503074,-383.047749,-444.123565,9104.533087
3866.503389,-1302.362347,-148.041188,8512.368333
3866.503704,-1302.362347,-148.041188,10288.862594
3866.504019,-612.876398,-814.226536,10658.965565
3866.504334,-459.657299,-1924.535449,9992.780217
3866.504649,-689.485948,-592.164754,9474.636058
3866.504963,-1149.143247,-296.082377,9992.780217
3866.505278,-766.095498,-296.082377,10807.006753
3866.505593,-306.438199,1036.288319,9696.697840
3866.505908,1149.143247,-962.267725,9992.780217
3866.506223,306.438199,1776.494261,8142.265362
3866.506538,0.000000,1406.391290,8216.285956
3866.506853,459.657299,666.185348,9696.697840
3866.507168,1072.533697,-0.000000,10658.965565
3866.507483,76.609550,740.205942,9770.718434
3866.507798,-229.828649,518.144159,8438.347739
3866.508113,0.000000,222.061783,9474.636058
3866.508427,153.219100,-740.205942,11029.068536
3866.508742,995.924147,-814.226536,10584.944971
3866.509057,0.000000,-148.041188,9844.739029
3866.509372,-612.876398,1036.288319,8512.368333
3866.509687,-229.828649,592.164754,9400.615463
3866.510002,919.314598,518.144159,9252.574275
3866.510317,2068.457845,-0.000000,9474.636058
3866.510632,1915.238745,518.144159,8956.491898
3866.510947,995.924147,1554.432478,8068.244768
3866.511262,689.485948,1258.350101,9474.636058
3866.511577,1838.629195,1036.288319,10066.800811
3866.511892,1608.800546,444.123565,10584.944971
3866.512206,306.438199,740.205942,9178.553681
3866.512521,-153.219100,1258.350101,9326.594869
3866.512836,76.609550,740.205942,10807.006753
3866.513151,842.705048,-74.020594,10584.944971
3866.513466,383.047749,370.102971,10214.842000
3866.513781,-612.876398,740.205942,9548.656652
3866.514096,-995.924147,592.164754,9104.533087
3866.514411,0.000000,-0.000000,10584.944971
3866.514726,995.924147,-0.000000,10066.800811
3866.515041,689.485948,666.185348,9178.553681
3866.515356,76.609550,1776.494261,8216.285956
3866.515670,229.828649,1036.288319,8956.491898
3866.515985,842.705048,814.226536,9918.759623
3866.516300,842.705048,370.102971,10362.883188
3866.516615,459.657299,592.164754,9474.636058
3866.516930,-459.657299,962.267725,9400.615463
3866.517245,-842.705048,666.185348,9918.759623
3866.517560,0.000000,-0.000000,11029.068536
3866.517875,-153.219100,-814.226536,11029.068536
3866.518190,-919.314598,296.082377,9918.759623
3866.518505,-1608.800546,444.123565,9548.656652
3866.518820,-766.095498,592.164754,9992.780217
3866.519134,306.438199,-444.123565,10881.027347
3866.519449,689.485948,-296.082377,9622.677246
3866.519764,0.000000,888.247130,8512.368333
3866.520079,-306.438199,1184.329507,8512.368333
3866.520394,76.609550,74.020594,9918.759623
3866.520709,1072.533697,-74.020594,9030.512492
3866.521024,766.095498,-0.000000,9548.656652
3866.521339,-536.266849,370.102971,8808.450710
3866.521654,-536.266849,222.061783,9474.636058
3866.521969,-306.438199,-74.020594,10510.924376
3866.522284,766.095498,-740.205942,10436.903782
3866.522598,0.000000,-0.000000,9252.574275
3866.522913,-995.924147,-444.123565,9252.574275
3866.523228,-689.485948,-148.041188,10288.862594
3866.523543,383.047749,-222.061783,10362.883188
3866.523858,842.705048,-148.041188,9696.697840
3866.524173,153.219100,-296.082377,9548.656652
3866.524488,0.000000,740.205942,9030.512492
3866.524803,306.438199,-0.000000,9474.636058
3866.525118,766.095498,-370.102971,10288.862594
3866.525433,766.095498,-370.102971,10658.965565
3866.525748,0.000000,-0.000000,8586.388927
3866.526063,-459.657299,222.061783,8438.347739
3866.526377,153.219100,-444.123565,9400.615463
3866.526692,919.314598,-1036.288319,10436.903782
3866.527007,306.438199,-1702.473667,9474.636058
3866.527322,-383.047749,-370.102971,9326.594869
3866.527637,-1072.533697,-0.000000,9178.553681
3866.527952,-383.047749,-592.164754,10362.883188
3866.528267,383.047749,-1036.288319,10584.944971
3866.528582,76.609550,-592.164754,9844.739029
3866.528897,-842.705048,296.082377,9030.512492
3866.529212,-536.266849,222.061783,9178.553681
3866.529527,459.657299,-222.061783,9992.780217
3866.529841,1302.362347,-0.000000,9918.759623
3866.530156,689.485948,-0.000000,9326.594869
3866.530471,0.000000,-0.000000,8364.327145
3866.530786,0.000000,-0.000000,9030.512492
3866.531101,536.266849,-518.144159,9918.759623
3866.531416,842.705048,-1110.308913,9770.718434
3866.531731,-383.047749,444.123565,8808.450710
3866.532046,-612.876398,962.267725,8142.265362
3866.532361,229.828649,-0.000000,9326.594869
3866.532676,995.924147,-0.000000,9622.677246
3866.532991,459.657299,-888.247130,9400.615463
3866.533305,0.000000,-0.000000,8882.471304
3866.533620,-536.266849,962.267725,8808.450710
3866.533935,76.609550,-0.000000,10288.862594
3866.534250,459.657299,148.041188,10658.965565
3866.534565,0.000000,222.061783,9548.656652
3866.534880,-612.876398,962.267725,9178.553681
3866.535195,-689.485948,962.267725,9400.615463
3866.535510,-229.828649,740.205942,10732.986159
3866.535825,612.876398,-444.123565,10362.883188
3866.536140,0.000000,-0.000000,10658.965565
3866.536455,-689.485948,888.247130,9326.594869
3866.536769,-383.047749,1036.288319,9178.553681
3866.537084,306.438199,-74.020594,10288.862594
3866.537399,459.657299,-74.020594,10140.821405
3866.537714,-536.266849,740.205942,9474.636058
3866.538029,-1149.143247,1110.308913,8586.388927
3866.538344,-842.705048,592.164754,9918.759623
3866.538659,459.657299,-222.061783,10362.883188
3866.538974,306.438199,-74.020594,9770.718434
3866.539289,0.000000,518.144159,9992.780217
3866.539604,-383.047749,1332.370696,9474.636058
3866.539919,153.219100,888.247130,9844.739029
3866.540234,1455.581446,740.205942,10732.986159
3866.540548,995.924147,888.247130,9918.759623
3866.540863,766.095498,1480.411884,8734.430116
3866.541178,306.438199,962.267725,9178.553681
3866.541492,766.095498,814.226536,9326.594869
3866.541807,1225.752797,-592.164754,10214.842000
3866.542122,383.047749,-370.102971,9548.656652
3866.542436,-383.047749,-0.000000,9400.615463
3866.542751,-459.657299,296.082377,9918.759623
3866.543066,306.438199,-666.185348,10658.965565
3866.543381,919.314598,-518.144159,10732.986159
3866.543695,383.047749,740.205942,9474.636058
3866.544010,0.000000,1554.432478,8586.388927
3866.544325,0.000000,1480.411884,9178.553681
3866.544639,1455.581446,444.123565,9474.636058
3866.544954,1991.848295,-0.000000,9548.656652
3866.545269,689.485948,518.144159,9104.533087
3866.545584,229.828649,444.123565,8660.409521
3866.545898,383.047749,592.164754,10066.800811
3866.546213,766.095498,-0.000000,10510.924376
3866.546528,383.047749,-370.102971,10140.821405
3866.546842,0.000000,-74.020594,9400.615463
3866.547157,-612.876398,888.247130,9474.636058
3866.547472,0.000000,-0.000000,9474.636058
3866.547787,842.705048,-296.082377,9178.553681
3866.548101,383.047749,-222.061783,9252.574275
3866.548416,0.000000,-148.041188,8290.306550
3866.548731,-612.876398,-0.000000,8290.306550
3866.549045,689.485948,-1554.432478,10955.047942
3866.549360,1149.143247,-592.164754,9844.739029
3866.549675,-612.876398,-148.041188,9770.718434
3866.549990,-1149.143247,370.102971,9474.636058
3866.550304,-459.657299,-0.000000,10140.821405
3866.550619,0.000000,148.041188,9844.739029
3866.550934,1072.533697,-518.144159,9844.739029
3866.551248,0.000000,-148.041188,9844.739029
3866.551563,-459.657299,592.164754,9474.636058
3866.551878,536.266849,-74.020594,9992.780217
3866.552192,536.266849,-370.102971,10140.821405
3866.552507,766.095498,-1110.308913,10288.862594
3866.552822,0.000000,-444.123565,9696.697840
3866.553137,-919.314598,518.144159,8808.450710
3866.553451,-229.828649,-0.000000,10066.800811
3866.553766,306.438199,-888.247130,9474.636058
3866.554081,153.219100,-1332.370696,9548.656652
3866.554395,-842.705048,-148.041188,8956.491898
3866.554710,-459.657299,-740.205942,9400.615463
3866.555025,76.609550,-370.102971,10066.800811
3866.555340,536.266849,-592.164754,10658.965565
3866.555654,229.828649,222.061783,9474.636058
3866.555969,-689.485948,1258.350101,8734.430116
3866.556284,-306.438199,1036.288319,9030.512492
3866.556598,612.876398,148.041188,9622.677246
3866.556913,1072.533697,-148.041188,9104.533087
3866.557228,-229.828649,-148.041188,9326.594869
3866.557543,-919.314598,666.185348,8956.491898
3866.557857,-1149.143247,370.102971,10140.821405
3866.558172,0.000000,-370.102971,10807.006753
3866.558487,0.000000,-518.144159,10436.903782
3866.558801,-612.876398,-0.000000,9548.656652
3866.559116,-1225.752797,740.205942,9252.574275
3866.559431,0.000000,666.185348,9474.636058
3866.559746,612.876398,814.226536,9474.636058
3866.560060,995.924147,148.041188,9104.533087
3866.560375,383.047749,666.185348,8142.265362
3866.560690,0.000000,592.164754,8956.491898
3866.561004,536.266849,518.144159,9770.718434
3866.561319,1455.581446,370.102971,10362.883188
3866.561634,383.047749,-0.000000,9474.636058
3866.561948,-459.657299,1036.288319,9474.636058
3866.562263,0.000000,962.267725,9918.759623
3866.562578,536.266849,-0.000000,10732.986159
3866.562893,689.485948,222.061783,9918.759623
3866.563207,383.047749,444.123565,9844.739029
3866.563522,0.000000,1258.350101,8734.430116
3866.563837,459.657299,1258.350101,9474.636058
3866.564151,1378.971896,-222.061783,10288.862594
3866.564466,1608.800546,-1406.391290,10436.903782
3866.564781,459.657299,518.144159,9474.636058
3866.565096,0.000000,1554.432478,9844.739029
3866.565410,0.000000,1258.350101,10807.006753
3866.565725,842.705048,814.226536,9474.636058
3866.566040,1225.752797,-0.000000,9770.718434
3866.566354,842.705048,-148.041188,9104.533087
3866.566669,0.000000,296.082377,9474.636058
3866.566984,76.609550,518.144159,10140.821405
3866.567299,766.095498,-444.123565,10288.862594
3866.567613,153.219100,-0.000000,9992.780217
3866.567928,-383.047749,518.144159,9474.636058
3866.568243,-612.876398,740.205942,9696.697840
3866.568557,0.000000,-0.000000,10584.944971
3866.568872,766.095498,-0.000000,10066.800811
3866.569187,0.000000,-0.000000,9474.636058
3866.569502,-536.266849,1036.288319,9252.574275
3866.569816,0.000000,1110.308913,9474.636058
3866.570131,1225.752797,-0.000000,9844.739029
3866.570446,1608.800546,-148.041188,9178.553681
3866.570760,0.000000,-148.041188,8512.368333
3866.571075,-536.266849,888.247130,8364.327145
3866.571390,-536.266849,370.102971,9326.594869
3866.571705,76.609550,-444.123565,9252.574275
3866.572019,76.609550,-1036.288319,9474.636058
3866.572334,-689.485948,-814.226536,8734.430116
3866.572649,-1302.362347,-518.144159,8882.471304
3866.572963,-842.705048,-74.020594,9474.636058
3866.573278,0.000000,-1258.350101,10140.821405
3866.573593,0.000000,-222.061783,9696.697840
3866.573907,-612.876398,444.123565,9474.636058
3866.574222,0.000000,962.267725,8586.388927
3866.574537,536.266849,518.144159,9770.718434
3866.574852,1302.362347,-0.000000,8956.491898
3866.575166,612.876398,-0.000000,9030.512492
3866.575481,0.000000,814.226536,8660.409521
3866.575796,0.000000,592.164754,9178.553681
3866.576110,0.000000,-74.020594,10288.862594
3866.576425,459.657299,-1628.453072,9992.780217
3866.576740,0.000000,-1554.432478,9696.697840
3866.577055,-459.657299,-592.164754,10362.883188
3866.577369,-1072.533697,-0.000000,9844.739029
3866.577684,0.000000,-740.205942,10066.800811
3866.577999,689.485948,-518.144159,9770.718434
3866.578313,383.047749,-0.000000,9178.553681
3866.578628,229.828649,444.123565,8956.491898
3866.578943,766.095498,370.102971,9696.697840
3866.579258,1532.190996,444.123565,9548.656652
3866.579572,1302.362347,-518.144159,9992.780217
3866.579887,306.438199,-0.000000,9104.533087
3866.580202,229.828649,-0.000000,9770.718434
3866.580516,0.000000,-0.000000,9992.780217
3866.580831,153.219100,-1110.308913,10066.800811
3866.581146,-383.047749,-962.267725,9918.759623
3866.581461,-689.485948,-296.082377,9104.533087
3866.581775,-1378.971896,-370.102971,9030.512492
3866.582090,-306.438199,-296.082377,10288.862594
3866.582405,842.705048,-518.144159,9918.759623
3866.582719,306.438199,-592.164754,9474.636058
3866.583034,0.000000,740.205942,9400.615463
3866.583349,229.828649,740.205942,9696.697840
3866.583663,689.485948,370.102971,10066.800811
3866.583978,1072.533697,148.041188,9252.574275
3866.584293,383.047749,666.185348,9252.574275
3866.584608,0.000000,888.247130,9400.615463
3866.584922,-459.657299,370.102971,9474.636058
3866.585237,229.828649,-370.102971,10732.986159
3866.585552,76.609550,-962.267725,9918.759623
3866.585866,-306.438199,370.102971,8734.430116
3866.586181,-842.705048,-0.000000,8808.450710
3866.586496,-229.828649,592.164754,9918.759623
3866.586811,306.438199,296.082377,9474.636058
3866.587125,1149.143247,-0.000000,9622.677246
3866.587440,-306.438199,888.247130,8956.491898
3866.587755,-612.876398,1554.432478,9474.636058
3866.588069,306.438199,1110.308913,10436.903782
3866.588384,1302.362347,518.144159,10436.903782
3866.588699,76.609550,1110.308913,9696.697840
3866.589014,0.000000,666.185348,9326.594869
3866.589328,153.219100,518.144159,10140.821405
3866.589643,0.000000,444.123565,10881.027347
3866.589958,306.438199,148.041188,10510.924376
3866.590272,-689.485948,962.267725,8660.409521
3866.590587,-919.314598,518.144159,9474.636058
3866.590902,-612.876398,-0.000000,10436.903782
3866.591217,76.609550,-222.061783,9770.718434
3866.591531,383.047749,-518.144159,10732.986159
3866.591846,-612.876398,666.185348,9252.574275
3866.592161,-459.657299,1036.288319,9326.594869
3866.592475,459.657299,1258.350101,9844.739029
3866.592790,1225.752797,222.061783,9548.656652
3866.593105,536.266849,-296.082377,10066.800811
3866.593419,-229.828649,444.123565,9178.553681
3866.593734,-459.657299,1480.411884,9474.636058
3866.594049,0.000000,148.041188,10436.903782
3866.594364,612.876398,-444.123565,9992.780217
3866.594678,459.657299,-1332.370696,9622.677246
3866.594993,0.000000,370.102971,9030.512492
3866.595308,-689.485948,222.061783,9474.636058
3866.595622,0.000000,-592.164754,10436.903782
3866.595937,612.876398,-148.041188,9992.780217
3866.596252,229.828649,-370.102971,9104.533087
3866.596567,0.000000,-222.061783,8882.471304
3866.596881,153.219100,296.082377,9622.677246
3866.597196,1378.971896,370.102971,9474.636058
3866.597511,1302.362347,-518.144159,9474.636058
3866.597825,842.705048,296.082377,9104.533087
3866.598140,153.219100,666.185348,8586.388927
3866.598455,76.609550,-0.000000,9770.718434
3866.598770,612.876398,-814.226536,10436.903782
3866.599084,995.924147,-444.123565,9770.718434
3866.599399,0.000000,-0.000000,8586.388927
3866.599714,-76.609550,518.144159,8586.388927
3866.600028,1072.533697,370.102971,9844.739029
3866.600343,842.705048,-814.226536,10362.883188
3866.600658,459.657299,-370.102971,9178.553681
3866.600973,-306.438199,444.123565,9030.512492
3866.601287,-459.657299,444.123565,9030.512492
3866.601602,0.000000,296.082377,9844.739029
3866.601917,842.705048,-518.144159,9696.697840
3866.602231,-229.828649,-666.185348,9548.656652
3866.602546,-842.705048,-74.020594,8808.450710
3866.602861,-383.047749,148.041188,9992.780217
3866.603176,153.219100,-296.082377,10214.842000
3866.603490,612.876398,-222.061783,10140.821405
3866.603805,-306.438199,296.082377,9548.656652
3866.604120,-766.095498,370.102971,8660.409521
3866.604434,-459.657299,444.123565,9622.677246
3866.604749,842.705048,370.102971,9548.656652
3866.605064,919.314598,-370.102971,9548.656652
3866.605378,-919.314598,-222.061783,9104.533087
3866.605693,-1225.752797,666.185348,9030.512492
3866.606008,-919.314598,-0.000000,10214.842000
3866.606323,-153.219100,-740.205942,10881.027347
3866.606637,-383.047749,-296.082377,10510.924376
3866.606952,-1225.752797,666.185348,9178.553681
3866.607267,-612.876398,814.226536,9326.594869
3866.607581,76.609550,814.226536,10140.821405
3866.607896,766.095498,444.123565,9696.697840
3866.608211,842.705048,740.205942,9474.636058
3866.608526,306.438199,1184.329507,8586.388927
3866.608840,76.609550,962.267725,9178.553681
3866.609155,766.095498,222.061783,10214.842000
3866.609470,1225.752797,-0.000000,10140.821405
3866.609784,-229.828649,-0.000000,10807.006753
3866.610099,-766.095498,814.226536,9326.594869
3866.610414,-612.876398,296.082377,9770.718434
3866.610729,383.047749,-740.205942,10881.027347
3866.611043,1225.752797,-814.226536,10584.944971
3866.611358,612.876398,222.061783,9474.636058
3866.611673,-229.828649,740.205942,9474.636058
3866.611987,0.000000,1036.288319,9918.759623
3866.612302,536.266849,148.041188,10362.883188
3866.612617,1685.410096,-148.041188,9696.697840
3866.612932,919.314598,370.102971,8882.471304
3866.613246,536.266849,444.123565,8808.450710
3866.613561,689.485948,148.041188,10066.800811
3866.613876,1532.190996,-444.123565,9696.697840
3866.614190,842.705048,-518.144159,10066.800811
3866.614505,0.000000,370.102971,9104.533087
3866.614820,229.828649,222.061783,8956.491898
3866.615134,766.095498,148.041188,9326.594869
3866.615449,995.924147,-444.123565,9992.780217
3866.615764,842.705048,-222.061783,8956.491898
3866.616079,0.000000,-0.000000,8068.244768
3866.616393,153.219100,370.102971,8142.265362
3866.616708,919.314598,-740.205942,9844.739029
3866.617023,1149.143247,-814.226536,9474.636058
3866.617337,536.266849,-74.020594,8734.430116
3866.617652,0.000000,518.144159,8290.306550
3866.617967,0.000000,370.102971,9178.553681
3866.618282,536.266849,-0.000000,10288.862594
3866.618596,766.095498,-666.185348,10658.965565
3866.618911,76.609550,-0.000000,9104.533087
3866.619226,-689.485948,888.247130,8808.450710
3866.619540,-689.485948,1258.350101,9474.636058
3866.619855,0.000000,666.185348,10214.842000
3866.620170,612.876398,222.061783,9548.656652
3866.620485,-306.438199,296.082377,8734.430116
3866.620799,-1072.533697,222.061783,8512.368333
3866.621114,76.609550,296.082377,9918.759623
3866.621429,-153.219100,-74.020594,10807.006753
3866.621743,-766.095498,-0.000000,9918.759623
3866.622058,-1225.752797,592.164754,9622.677246
3866.622373,-1455.581446,888.247130,9844.739029
3866.622688,-842.705048,222.061783,10955.047942
3866.623002,76.609550,666.185348,9770.718434
3866.623317,-459.657299,-0.000000,9474.636058
3866.623632,-1072.533697,814.226536,9104.533087
3866.623946,-766.095498,370.102971,9844.739029
3866.624261,-229.828649,-518.144159,10881.027347
3866.624576,153.219100,-592.164754,10436.903782
3866.624890,-612.876398,-370.102971,10140.821405
3866.625205,-995.924147,370.102971,9400.615463
3866.625520,-766.095498,-0.000000,10066.800811
3866.625835,766.095498,296.082377,10066.800811
3866.626149,0.000000,-444.123565,9696.697840
3866.626464,-153.219100,-888.247130,9622.677246
3866.626779,-383.047749,-666.185348,9844.739029
3866.627093,229.828649,-74.020594,10140.821405
3866.627408,1225.752797,-740.205942,10510.924376
3866.627723,689.485948,-370.102971,10288.862594
3866.628038,153.219100,518.144159,9178.553681
3866.628352,459.657299,666.185348,8438.347739
3866.628667,1455.581446,222.061783,9918.759623
3866.628982,1762.019645,444.123565,9474.636058
3866.629296,536.266849,-0.000000,9548.656652
3866.629611,-153.219100,-0.000000,9326.594869
3866.629926,-229.828649,-370.102971,9030.512492
3866.630241,995.924147,-1036.288319,9622.677246
3866.630555,1685.410096,-1332.370696,10510.924376
3866.630870,766.095498,-444.123565,9104.533087
3866.631185,-306.438199,666.185348,8956.491898
3866.631499,-383.047749,592.164754,8882.471304
3866.631814,842.705048,-0.000000,9178.553681
3866.632129,1378.971896,-222.061783,8808.450710
3866.632444,383.047749,-0.000000,8512.368333
3866.632758,153.219100,370.102971,9252.574275
3866.633073,306.438199,-0.000000,9400.615463
3866.633388,842.705048,-296.082377,9696.697840
3866.633702,1149.143247,-148.041188,9770.718434
3866.634017,306.438199,1332.370696,8660.409521
3866.634332,-229.828649,740.205942,8290.306550
3866.634647,919.314598,370.102971,9400.615463
3866.634961,995.924147,148.041188,9252.574275
3866.635276,306.438199,-0.000000,9104.533087
3866.635591,-842.705048,444.123565,8586.388927
3866.635905,-689.485948,592.164754,9326.594869
3866.636220,0.000000,-0.000000,10140.821405
3866.636535,229.828649,-1184.329507,10214.842000
3866.636849,-459.657299,-148.041188,10214.842000
3866.637164,-766.095498,592.164754,10066.800811
3866.637479,-689.485948,1554.432478,9696.697840
3866.637794,459.657299,888.247130,10288.862594
3866.638108,689.485948,592.164754,10362.883188
3866.638423,229.828649,740.205942,8882.471304
3866.638738,-153.219100,1258.350101,9030.512492
3866.639052,0.000000,1036.288319,10214.842000
3866.639367,459.657299,-0.000000,10436.903782
3866.639682,-306.438199,-222.061783,10584.944971
3866.639997,-153.219100,-518.144159,10732.986159
3866.640311,-1149.143247,222.061783,10658.965565
3866.640626,-1225.752797,296.082377,10955.047942
3866.640941,-612.876398,592.164754,10807.006753
3866.641255,-612.876398,-74.020594,10881.027347
3866.641570,-229.828649,962.267725,10214.842000
3866.641885,-229.828649,1110.308913,9696.697840
3866.642200,229.828649,148.041188,9918.759623
3866.642514,1225.752797,-222.061783,10362.883188
3866.642829,919.314598,-0.000000,9400.615463
3866.643144,76.609550,1258.350101,9474.636058
3866.643458,0.000000,1036.288319,9696.697840
3866.643773,766.095498,296.082377,10288.862594
3866.644088,995.924147,-0.000000,9474.636058
3866.644403,0.000000,-370.102971,9178.553681
3866.644717,-919.314598,-592.164754,9474.636058
3866.645032,-766.095498,-740.205942,10066.800811
3866.645347,76.609550,-888.247130,9844.739029
3866.645662,459.657299,-1110.308913,9252.574275
3866.645976,612.876398,-1332.370696,9326.594869
3866.646291,-383.047749,296.082377,8438.347739
3866.646606,995.924147,370.102971,9030.512492
3866.646920,1608.800546,-0.000000,9400.615463
3866.647235,919.314598,296.082377,8512.368333
3866.647550,689.485948,518.144159,7920.203579
3866.647865,306.438199,148.041188,8068.244768
3866.648179,1302.362347,-296.082377,8808.450710
3866.648494,1991.848295,-962.267725,9548.656652
3866.648809,689.485948,-1110.308913,8734.430116
3866.649124,0.000000,-296.082377,8734.430116
3866.649438,-383.047749,-0.000000,8956.491898
3866.649753,689.485948,-296.082377,9548.656652
3866.650068,1072.533697,-740.205942,9030.512492
3866.650383,76.609550,-814.226536,9178.553681
3866.650697,-383.047749,-74.020594,8438.347739
3866.651012,-153.219100,-222.061783,9696.697840
3866.651327,995.924147,-0.000000,9178.553681
3866.651642,1149.143247,-592.164754,10140.821405
3866.651956,995.924147,444.123565,8438.347739
3866.652271,0.000000,888.247130,9696.697840
3866.652586,229.828649,814.226536,10214.842000
3866.652901,919.314598,592.164754,9992.780217
3866.653215,919.314598,814.226536,9696.697840
3866.653530,459.657299,814.226536,8956.491898
3866.653845,-306.438199,1184.329507,9474.636058
3866.654160,0.000000,-0.000000,10881.027347
3866.654474,306.438199,-814.226536,11029.068536
3866.654789,153.219100,-0.000000,11029.068536
3866.655104,-766.095498,962.267725,10288.862594
3866.655419,-766.095498,814.226536,10807.006753
3866.655733,76.609550,666.185348,9918.759623
3866.656048,383.047749,222.061783,10584.944971
3866.656363,0.000000,370.102971,10362.883188
3866.656678,-842.705048,1406.391290,9770.718434
3866.656992,-919.314598,1554.432478,10214.842000
3866.657307,0.000000,1036.288319,10288.862594
3866.657622,842.705048,370.102971,10881.027347
3866.657936,0.000000,-0.000000,9770.718434
3866.658251,-536.266849,740.205942,9548.656652
3866.658566,0.000000,740.205942,9770.718434
3866.658881,306.438199,-0.000000,10066.800811
3866.659195,459.657299,-74.020594,10140.821405
3866.659510,-919.314598,1036.288319,9104.533087
3866.659825,-995.924147,-74.020594,9770.718434
3866.660140,-536.266849,444.123565,9918.759623
3866.660454,-536.266849,-370.102971,10881.027347
3866.660769,536.266849,-74.020594,9844.739029
3866.661084,-306.438199,370.102971,9622.677246
3866.661399,-536.266849,1480.411884,9474.636058
3866.661713,0.000000,444.123565,9548.656652
3866.662028,842.705048,-0.000000,9918.759623
3866.662343,459.657299,-74.020594,9178.553681
3866.662658,0.000000,370.102971,8512.368333
3866.662972,-536.266849,888.247130,9104.533087
3866.663287,0.000000,444.123565,9548.656652
3866.663602,459.657299,-962.267725,9696.697840
3866.663917,229.828649,-814.226536,8438.347739
3866.664231,-612.876398,-370.102971,9178.553681
3866.664546,-612.876398,-0.000000,9252.574275
3866.664861,383.047749,-814.226536,9474.636058
3866.665176,766.095498,-888.247130,9474.636058
3866.665490,0.000000,-592.164754,9030.512492
3866.665805,-153.219100,-0.000000,8882.471304
3866.666120,306.438199,-74.020594,9474.636058
3866.666435,1378.971896,-222.061783,9696.697840
3866.666749,1225.752797,-666.185348,9326.594869
3866.667064,612.876398,-0.000000,8882.471304
3866.667379,383.047749,-0.000000,8512.368333
3866.667694,689.485948,370.102971,9474.636058
3866.668008,1762.019645,-148.041188,9622.677246
3866.668323,1149.143247,-444.123565,9474.636058
3866.668638,229.828649,-296.082377,8660.409521
3866.668952,153.219100,444.123565,8660.409521
3866.669267,919.314598,-296.082377,9696.697840
3866.669582,1455.581446,-666.185348,10214.842000
3866.669897,229.828649,-814.226536,9548.656652
3866.670211,0.000000,-0.000000,9252.574275
3866.670526,-383.047749,-296.082377,10214.842000
3866.670841,306.438199,-74.020594,10584.944971
3866.671156,459.657299,-740.205942,10362.883188
3866.671470,842.705048,-0.000000,9474.636058
3866.671785,0.000000,1036.288319,9548.656652
3866.672100,306.438199,1036.288319,9696.697840
3866.672415,995.924147,814.226536,10436.903782
3866.672729,995.924147,518.144159,9992.780217
3866.673044,153.219100,740.205942,8956.491898
3866.673359,-536.266849,222.061783,9474.636058
3866.673674,-766.095498,-592.164754,10436.903782
3866.673988,-689.485948,-148.041188,10955.047942
3866.674303,-612.876398,-518.144159,9992.780217
3866.674618,-1915.238745,-296.082377,9474.636058
3866.674933,-2068.457845,-0.000000,10436.903782
3866.675247,-459.657299,222.061783,10881.027347
3866.675562,0.000000,222.061783,9696.697840
3866.675877,-383.047749,296.082377,9770.718434
3866.676192,-459.657299,962.267725,9104.533087
3866.676506,-383.047749,1406.391290,8586.388927
3866.676821,536.266849,1036.288319,9326.594869
3866.677136,766.095498,-0.000000,9474.636058
3866.677451,76.609550,-148.041188,8882.471304
3866.677765,-612.876398,-0.000000,8512.368333
3866.678080,-1149.143247,296.082377,9918.759623
3866.678395,-1072.533697,-0.000000,10288.862594
3866.678709,-919.314598,-1184.329507,10510.924376
3866.679024,-766.095498,-740.205942,9770.718434
3866.679339,-1149.143247,-148.041188,9326.594869
3866.679654,-459.657299,-0.000000,9178.553681
3866.679968,536.266849,-74.020594,9252.574275
3866.680283,689.485948,370.102971,9104.533087
3866.680598,306.438199,518.144159,8438.347739
3866.680913,229.828649,222.061783,8808.450710
3866.681227,1072.533697,444.123565,9400.615463
3866.681542,1608.800546,-0.000000,10140.821405
3866.681857,842.705048,370.102971,9178.553681
3866.682172,383.047749,666.185348,9104.533087
3866.682486,383.047749,962.267725,9104.533087
3866.682801,766.095498,222.061783,9548.656652
3866.683116,1608.800546,-0.000000,9474.636058
3866.683431,995.924147,-444.123565,9178.553681
3866.683745,229.828649,-0.000000,9030.512492
3866.684060,536.266849,666.185348,9622.677246
3866.684375,919.314598,814.226536,9474.636058
3866.684690,1149.143247,-0.000000,9918.759623
3866.685004,919.314598,222.061783,9548.656652
3866.685319,689.485948,444.123565,9178.553681
3866.685634,459.657299,888.247130,9548.656652
3866.685949,612.876398,518.144159,10066.800811
3866.686263,1302.362347,370.102971,10066.800811
3866.686578,612.876398,444.123565,9474.636058
3866.686893,-383.047749,518.144159,9844.739029
3866.687208,0.000000,-148.041188,9992.780217
3866.687522,766.095498,-0.000000,10510.924376
3866.687837,229.828649,-222.061783,9696.697840
3866.688152,-153.219100,-0.000000,9844.739029
3866.688467,-919.314598,888.247130,9252.574275
3866.688781,0.000000,-74.020594,10140.821405
3866.689096,229.828649,-444.123565,10436.903782
3866.689411,0.000000,-0.000000,9770.718434
3866.689725,-306.438199,-0.000000,9400.615463
3866.690040,0.000000,740.205942,9474.636058
3866.690355,76.609550,1184.329507,9696.697840
3866.690670,153.219100,74.020594,9474.636058
3866.690984,0.000000,-0.000000,9918.759623
3866.691299,0.000000,444.123565,9178.553681
3866.691614,-229.828649,-0.000000,9548.656652
3866.691929,383.047749,-0.000000,9474.636058
3866.692243,383.047749,-148.041188,10214.842000
3866.692558,-536.266849,-222.061783,9178.553681
3866.692873,-766.095498,-0.000000,9326.594869
3866.693188,-536.266849,-148.041188,9770.718434
3866.693502,-306.438199,-962.267725,11103.089130
3866.693817,-459.657299,-962.267725,10140.821405
3866.694132,0.000000,-0.000000,9400.615463
3866.694447,76.609550,1110.308913,8882.471304
3866.694761,-842.705048,518.144159,9770.718434
3866.695076,153.219100,-0.000000,9992.780217
3866.695391,766.095498,-0.000000,9104.533087
3866.695706,-306.438199,-0.000000,8216.285956
3866.696020,0.000000,370.102971,9104.533087
3866.696335,0.000000,222.061783,9548.656652
3866.696650,459.657299,-370.102971,10288.862594
3866.696965,0.000000,-666.185348,9474.636058
3866.697279,-842.705048,148.041188,9622.677246
3866.697594,0.000000,518.144159,9696.697840
3866.697909,153.219100,666.185348,9474.636058
3866.698224,229.828649,-0.000000,9474.636058
3866.698538,229.828649,-0.000000,8438.347739
3866.698853,689.485948,-888.247130,8364.327145
3866.699168,-383.047749,-740.205942,9178.553681
3866.699483,383.047749,-666.185348,10510.924376
3866.699797,459.657299,-148.041188,9918.759623
3866.700112,-306.438199,-0.000000,9474.636058
3866.700427,0.000000,1332.370696,9178.553681
3866.700741,0.000000,666.185348,9770.718434
3866.701056,842.705048,444.123565,9696.697840
3866.701371,919.314598,-666.185348,9918.759623
3866.701686,0.000000,370.102971,9104.533087
3866.702000,0.000000,814.226536,8956.491898
3866.702315,842.705048,444.123565,9770.718434
3866.702630,1072.533697,-0.000000,10288.862594
3866.702945,766.095498,-0.000000,9696.697840
3866.703259,459.657299,444.123565,8956.491898
3866.703574,-536.266849,370.102971,9326.594869
3866.703889,229.828649,-74.020594,10214.842000
3866.704204,459.657299,-518.144159,10436.903782
3866.704518,0.000000,-222.061783,9104.533087
3866.704833,-766.095498,-222.061783,9696.697840
3866.705148,-229.828649,444.123565,10362.883188
3866.705463,612.876398,444.123565,9844.739029
3866.705777,1072.533697,296.082377,10288.862594
3866.706092,459.657299,740.205942,9474.636058
3866.706407,536.266849,1628.453072,8660.409521
3866.706722,766.095498,1258.350101,9474.636058
3866.707036,1072.533697,1036.288319,10214.842000
3866.707351,383.047749,370.102971,9918.759623
3866.707666,0.000000,444.123565,9104.533087
3866.707981,-1149.143247,518.144159,9178.553681
3866.708295,0.000000,296.082377,10436.903782
3866.708610,306.438199,-518.144159,10436.903782
3866.708925,-229.828649,-370.102971,10214.842000
3866.709240,-995.924147,370.102971,9770.718434
3866.709554,-766.095498,740.205942,9548.656652
3866.709869,383.047749,518.144159,9104.533087
3866.710184,1149.143247,-0.000000,9474.636058
3866.710499,536.266849,814.226536,8808.450710
3866.710813,76.609550,962.267725,7920.203579
3866.711128,-153.219100,888.247130,8660.409521
3866.711443,383.047749,-0.000000,9918.759623
3866.711757,306.438199,-0.000000,10066.800811
3866.712072,-383.047749,-0.000000,9622.677246
3866.712387,-1378.971896,-74.020594,9918.759623
3866.712702,-919.314598,296.082377,10955.047942
3866.713016,0.000000,-370.102971,9918.759623
3866.713331,0.000000,-518.144159,9992.780217
3866.713646,0.000000,-0.000000,9548.656652
3866.713961,229.828649,370.102971,8586.388927
3866.714275,766.095498,-0.000000,9326.594869
3866.714590,1378.971896,-148.041188,9992.780217
3866.714905,1225.752797,-296.082377,9474.636058
3866.715220,306.438199,-74.020594,8660.409521
3866.715534,0.000000,814.226536,9474.636058
3866.715849,1072.533697,-0.000000,10214.842000
3866.716164,689.485948,-296.082377,9474.636058
3866.716479,229.828649,-814.226536,9844.739029
3866.716793,0.000000,-0.000000,9548.656652
3866.717108,-153.219100,-74.020594,9696.697840
3866.717423,229.828649,-592.164754,10288.862594
3866.717738,766.095498,-666.185348,10436.903782
3866.718052,459.657299,-222.061783,10510.924376
3866.718367,306.438199,296.082377,9252.574275
3866.718682,153.219100,1258.350101,9696.697840
3866.718997,306.438199,-0.000000,10214.842000
3866.719311,919.314598,-74.020594,10288.862594
3866.719626,306.438199,814.226536,8290.306550
3866.719941,-459.657299,-0.000000,8364.327145
3866.720256,0.000000,-148.041188,10288.862594
3866.720570,459.657299,-518.144159,8586.388927
3866.720885,536.266849,-296.082377,9548.656652
3866.721200,-153.219100,-0.000000,9696.697840
3866.721514,-995.924147,-0.000000,8586.388927
3866.721829,76.609550,-222.061783,10140.821405
3866.722144,383.047749,-0.000000,9326.594869
3866.722459,306.438199,-296.082377,8882.471304
3866.722773,-383.047749,444.123565,8512.368333
3866.723088,-383.047749,592.164754,8808.450710
3866.723403,0.000000,296.082377,9104.533087
3866.723718,0.000000,-222.061783,9696.697840
3866.724032,0.000000,-370.102971,9622.677246
3866.724347,0.000000,-222.061783,9474.636058
3866.724662,-766.095498,740.205942,8438.347739
3866.724977,0.000000,-0.000000,9770.718434
3866.725291,306.438199,-0.000000,9992.780217
3866.725606,-306.438199,-0.000000,9622.677246
3866.725921,-612.876398,888.247130,9326.594869
3866.726236,76.609550,592.164754,9622.677246
3866.726550,459.657299,296.082377,9992.780217
3866.726865,383.047749,-222.061783,10214.842000
3866.727180,0.000000,666.185348,8660.409521
3866.727495,-229.828649,592.164754,9770.718434
3866.727809,0.000000,740.205942,10140.821405
3866.728124,0.000000,370.102971,10288.862594
3866.728439,153.219100,888.247130,9548.656652
3866.728754,0.000000,1036.288319,9474.636058
3866.729068,-459.657299,666.185348,9474.636058
3866.729383,536.266849,-370.102971,9696.697840
3866.729698,689.485948,-592.164754,10732.986159
3866.730013,153.219100,-0.000000,10436.903782
3866.730327,-229.828649,370.102971,10362.883188
3866.730642,-612.876398,814.226536,9844.739029
3866.730957,842.705048,518.144159,9992.780217
3866.731272,919.314598,-0.000000,9844.739029
3866.731586,612.876398,-0.000000,9992.780217
3866.731901,0.000000,666.185348,9992.780217
3866.732216,0.000000,592.164754,9548.656652
3866.732530,383.047749,740.205942,9622.677246
3866.732845,1225.752797,-0.000000,9696.697840
3866.733160,536.266849,-370.102971,9548.656652
3866.733475,229.828649,222.061783,9178.553681
3866.733789,153.219100,370.102971,9770.718434
3866.734104,383.047749,444.123565,10362.883188
3866.734419,153.219100,-0.000000,9918.759623
3866.734734,-383.047749,-148.041188,9548.656652
3866.735048,-1072.533697,-0.000000,9548.656652
3866.735363,-383.047749,-0.000000,9770.718434
3866.735678,919.314598,-148.041188,10362.883188
3866.735993,766.095498,-0.000000,9844.739029
3866.736307,383.047749,814.226536,9622.677246
3866.736622,459.657299,1702.473667,8734.430116
3866.736937,1225.752797,1036.288319,8882.471304
3866.737252,1762.019645,-74.020594,9918.759623
3866.737566,842.705048,-592.164754,9844.739029
3866.737881,-229.828649,-0.000000,8956.491898
3866.738196,-842.705048,592.164754,9696.697840
3866.738511,-536.266849,-0.000000,10214.842000
3866.738825,153.219100,-888.247130,9548.656652
3866.739140,-229.828649,-962.267725,9622.677246
3866.739455,-995.924147,-666.185348,9474.636058
3866.739770,-689.485948,-444.123565,9770.718434
3866.740084,229.828649,-0.000000,9844.739029
3866.740399,383.047749,-0.000000,9622.677246
3866.740714,0.000000,296.082377,8882.471304
3866.741029,-306.438199,518.144159,9030.512492
3866.741343,76.609550,-0.000000,9326.594869
3866.741658,536.266849,-0.000000,9696.697840
3866.741973,536.266849,-370.102971,9252.574275
3866.742288,-383.047749,444.123565,9326.594869
3866.742602,-1608.800546,888.247130,10140.821405
3866.742917,-919.314598,-0.000000,10140.821405
3866.743232,0.000000,-518.144159,9992.780217
3866.743546,-153.219100,-666.185348,9622.677246
3866.743861,-612.876398,-0.000000,8586.388927
3866.744176,-229.828649,740.205942,8882.471304
3866.744491,153.219100,518.144159,9178.553681
3866.744805,842.705048,-0.000000,9548.656652
3866.745120,842.705048,-0.000000,9030.512492
3866.745435,0.000000,-0.000000,8512.368333
3866.745750,0.000000,296.082377,9918.759623
3866.746065,689.485948,-148.041188,9474.636058
3866.746380,995.924147,-1036.288319,9696.697840
3866.746694,76.609550,-74.020594,9030.512492
3866.747009,-689.485948,444.123565,9770.718434
3866.747324,-383.047749,-0.000000,9696.697840
3866.747639,0.000000,-0.000000,9918.759623
3866.747954,842.705048,-0.000000,9844.739029
3866.748268,536.266849,148.041188,9918.759623
3866.748583,0.000000,592.164754,9400.615463
3866.748898,76.609550,148.041188,10140.821405
3866.749213,919.314598,-74.020594,9992.780217
3866.749528,995.924147,-222.061783,9474.636058
3866.749842,306.438199,-0.000000,9696.697840
3866.750157,0.000000,740.205942,9474.636058
3866.750472,153.219100,222.061783,10510.924376
3866.750787,919.314598,370.102971,10362.883188
3866.751102,229.828649,-0.000000,9844.739029
3866.751416,0.000000,1110.308913,8438.347739
3866.751731,-153.219100,-740.205942,9992.780217
3866.752046,229.828649,-0.000000,9474.636058
3866.752361,766.095498,-444.123565,10140.821405
3866.752676,76.609550,148.041188,9474.636058
3866.752991,-612.876398,74.020594,9474.636058
3866.753305,-383.047749,370.102971,10288.862594
3866.753620,306.438199,518.144159,9400.615463
3866.753935,766.095498,-148.041188,9696.697840
3866.754250,76.609550,740.205942,9326.594869
3866.754565,0.000000,1258.350101,8586.388927
3866.754879,306.438199,1332.370696,8882.471304
3866.755194,1072.533697,444.123565,9252.574275
3866.755509,842.705048,-0.000000,9696.697840
3866.755824,306.438199,222.061783,8290.306550
3866.756139,-229.828649,518.144159,8734.430116
3866.756453,0.000000,-222.061783,10288.862594
3866.756768,0.000000,-444.123565,9844.739029
3866.757083,0.000000,-740.205942,10140.821405
3866.757398,0.000000,740.205942,8882.471304
3866.757713,-612.876398,666.185348,9622.677246
3866.758028,383.047749,888.247130,9844.739029
3866.758342,919.314598,-0.000000,9770.718434
3866.758657,842.705048,740.205942,9326.594869
3866.758972,76.609550,1184.329507,9178.553681
3866.759287,-153.219100,962.267725,9696.697840
3866.759602,229.828649,148.041188,10881.027347
3866.759916,612.876398,518.144159,9696.697840
3866.760231,0.000000,-0.000000,9992.780217
3866.760546,-766.095498,1110.308913,9696.697840
3866.760861,-766.095498,296.082377,10658.965565
3866.761176,0.000000,-0.000000,9770.718434
3866.761490,0.000000,-814.226536,10584.944971
3866.761805,-459.657299,-814.226536,9844.739029
3866.762120,-766.095498,-222.061783,9770.718434
3866.762435,-689.485948,592.164754,9548.656652
3866.762750,383.047749,-444.123565,10288.862594
3866.763064,306.438199,-518.144159,9770.718434
3866.763379,153.219100,444.123565,8660.409521
3866.763694,0.000000,296.082377,9474.636058
3866.764009,689.485948,-0.000000,9992.780217
3866.764324,383.047749,-222.061783,9992.780217
3866.764639,76.609550,-0.000000,9548.656652
3866.764953,0.000000,-74.020594,9474.636058
3866.765268,0.000000,296.082377,10066.800811
3866.765583,536.266849,-296.082377,10584.944971
3866.765898,0.000000,-222.061783,9548.656652
3866.766213,383.047749,-148.041188,9918.759623
3866.766527,-306.438199,296.082377,8660.409521
3866.766842,-306.438199,592.164754,9104.533087
3866.767157,383.047749,-740.205942,9844.739029
3866.767472,536.266849,-1184.329507,9252.574275
3866.767787,0.000000,-740.205942,9104.533087
3866.768101,-306.438199,-148.041188,9252.574275
3866.768416,76.609550,-148.041188,9770.718434
3866.768731,612.876398,-148.041188,9474.636058
3866.769046,76.609550,-1332.370696,9326.594869
3866.769361,-229.828649,-592.164754,9400.615463
3866.769676,-995.924147,-0.000000,8808.450710
3866.769990,-536.266849,-0.000000,9030.512492
3866.770305,0.000000,-370.102971,8956.491898
3866.770620,536.266849,-0.000000,9104.533087
3866.770935,-229.828649,1036.288319,8290.306550
3866.771250,0.000000,148.041188,8882.471304
3866.771564,689.485948,592.164754,9992.780217
3866.771879,995.924147,222.061783,9918.759623
3866.772194,0.000000,518.144159,10362.883188
3866.772509,-919.314598,1036.288319,9548.656652
3866.772824,-919.314598,888.247130,9992.780217
3866.773138,-306.438199,-0.000000,10732.986159
3866.773453,-459.657299,-296.082377,9918.759623
3866.773768,-612.876398,-296.082377,9992.780217
3866.774083,-919.314598,-148.041188,8586.388927
3866.774398,-383.047749,-0.000000,9770.718434
3866.774713,383.047749,-666.185348,10658.965565
3866.775027,612.876398,-740.205942,9918.759623
3866.775342,1072.533697,-74.020594,8808.450710
3866.775657,76.609550,814.226536,8882.471304
3866.775972,536.266849,814.226536,9326.594869
3866.776287,1225.752797,-0.000000,9770.718434
3866.776601,689.485948,-0.000000,9548.656652
3866.776916,306.438199,444.123565,9104.533087
3866.777231,-229.828649,-0.000000,9400.615463
3866.777546,306.438199,-370.102971,10362.883188
3866.777861,306.438199,-296.082377,11251.130318
3866.778175,153.219100,148.041188,10214.842000
3866.778490,-536.266849,592.164754,9252.574275
3866.778805,-229.828649,666.185348,9252.574275
3866.779120,1225.752797,740.205942,10140.821405
3866.779435,1378.971896,666.185348,9474.636058
3866.779749,842.705048,962.267725,9252.574275
3866.780064,766.095498,1406.391290,8808.450710
3866.780379,919.314598,1110.308913,9252.574275
3866.780694,1225.752797,888.247130,9696.697840
3866.781009,1149.143247,-222.061783,9696.697840
3866.781324,536.266849,-0.000000,9178.553681
3866.781638,0.000000,222.061783,9474.636058
3866.781953,76.609550,592.164754,10214.842000
3866.782268,459.657299,-74.020594,10214.842000
3866.782583,0.000000,-370.102971,9992.780217
3866.782898,-229.828649,444.123565,9178.553681
3866.783212,-459.657299,-0.000000,9844.739029
3866.783527,0.000000,296.082377,10436.903782
3866.783842,612.876398,222.061783,10732.986159
3866.784157,766.095498,444.123565,9622.677246
3866.784472,459.657299,1184.329507,8956.491898
3866.784786,0.000000,888.247130,9326.594869
3866.785101,842.705048,1110.308913,8956.491898
3866.785416,612.876398,-0.000000,9992.780217
3866.785731,0.000000,296.082377,8512.368333
3866.786046,-306.438199,-0.000000,8290.306550
3866.786361,-306.438199,-148.041188,9178.553681
3866.786675,0.000000,-740.205942,10066.800811
3866.786990,-459.657299,-888.247130,10140.821405
3866.787305,-995.924147,-666.185348,9844.739029
3866.787620,-1072.533697,-0.000000,9918.759623
3866.787935,-919.314598,-0.000000,10288.862594
3866.788249,0.000000,74.020594,9548.656652
3866.788564,0.000000,-0.000000,9622.677246
3866.788879,-536.266849,518.144159,8956.491898
3866.789194,-459.657299,666.185348,8586.388927
3866.789509,0.000000,296.082377,9918.759623
3866.789823,229.828649,296.082377,10214.842000
3866.790138,76.609550,-148.041188,9844.739029
3866.790453,-536.266849,-0.000000,9696.697840
3866.790768,-689.485948,-74.020594,10288.862594
3866.791083,0.000000,-148.041188,10362.883188
3866.791398,153.219100,-74.020594,10214.842000
3866.791712,-536.266849,-222.061783,9696.697840
3866.792027,-383.047749,296.082377,8364.327145
3866.792342,-306.438199,-370.102971,9178.553681
3866.792657,842.705048,-518.144159,9622.677246
3866.792972,689.485948,-962.267725,9548.656652
3866.793286,0.000000,-0.000000,8882.471304
3866.793601,0.000000,-0.000000,8734.430116
3866.793916,306.438199,-148.041188,9622.677246
3866.794231,919.314598,-0.000000,9844.739029
3866.794546,536.266849,-0.000000,9696.697840
3866.794860,766.095498,370.102971,8882.471304
3866.795175,-306.438199,222.061783,9030.512492
3866.795490,459.657299,-0.000000,9326.594869
3866.795805,1225.752797,148.041188,9696.697840
3866.796120,0.000000,-370.102971,9696.697840
3866.796434,-229.828649,-370.102971,9474.636058
3866.796749,-306.438199,-296.082377,9844.739029
3866.797064,383.047749,-222.061783,9992.780217
3866.797379,1455.581446,-666.185348,9622.677246
3866.797694,919.314598,-0.000000,9770.718434
3866.798009,383.047749,518.144159,8956.491898
3866.798323,459.657299,666.185348,8734.430116
3866.798638,536.266849,-0.000000,10066.800811
3866.798953,536.266849,-296.082377,9400.615463
3866.799268,383.047749,-592.164754,9252.574275
3866.799583,0.000000,-0.000000,9104.533087
3866.799897,-383.047749,518.144159,9252.574275
3866.800212,306.438199,-0.000000,9844.739029
3866.800527,229.828649,-370.102971,9622.677246
3866.800842,-153.219100,444.123565,8882.471304
3866.801157,-306.438199,370.102971,8882.471304
3866.801471,-995.924147,1184.329507,8734.430116
3866.801786,689.485948,-814.226536,10807.006753
3866.802101,383.047749,592.164754,10288.862594
3866.802416,-1532.190996,518.144159,9548.656652
3866.802731,0.000000,1110.308913,10584.944971
3866.803046,-306.438199,1184.329507,10510.924376
3866.803360,153.219100,1850.514855,9918.759623
3866.803675,229.828649,888.247130,9844.739029
3866.803990,76.609550,1406.391290,8586.388927
3866.804305,0.000000,666.185348,9104.533087
3866.804620,383.047749,518.144159,10362.883188
3866.804934,-76.609550,518.144159,10214.842000
3866.805249,-536.266849,-0.000000,9844.739029
3866.805564,-689.485948,-222.061783,10066.800811
3866.805879,-842.705048,444.123565,9696.697840
3866.806194,0.000000,-74.020594,10214.842000
3866.806508,0.000000,-0.000000,10140.821405
3866.806823,-536.266849,-74.020594,10881.027347
3866.807138,-766.095498,740.205942,9696.697840
3866.807453,-459.657299,-0.000000,9918.759623
3866.807768,383.047749,444.123565,10807.006753
3866.808082,459.657299,148.041188,10066.800811
3866.808397,0.000000,-0.000000,9474.636058
3866.808712,0.000000,370.102971,9770.718434
3866.809027,0.000000,518.144159,10510.924376
3866.809342,459.657299,-296.082377,9844.739029
3866.809657,76.609550,-74.020594,10288.862594
3866.809971,-306.438199,666.185348,9622.677246
3866.810286,-306.438199,-0.000000,8808.450710
3866.810601,0.000000,-296.082377,9474.636058
3866.810916,536.266849,-444.123565,9696.697840
3866.811231,459.657299,-518.144159,9548.656652
3866.811545,0.000000,592.164754,8438.347739
3866.811860,383.047749,518.144159,8882.471304
3866.812175,689.485948,-74.020594,9326.594869
3866.812490,1072.533697,-74.020594,9252.574275
3866.812805,459.657299,-148.041188,9252.574275
3866.813119,76.609550,296.082377,9030.512492
3866.813434,-306.438199,814.226536,9178.553681
3866.813749,383.047749,444.123565,9622.677246
3866.814064,995.924147,-0.000000,9474.636058
3866.814379,76.609550,-0.000000,9770.718434
3866.814694,-306.438199,-0.000000,9326.594869
3866.815008,-229.828649,-148.041188,9622.677246
3866.815323,229.828649,-148.041188,9622.677246
3866.815638,612.876398,-592.164754,9474.636058
3866.815953,0.000000,-0.000000,9474.636058
3866.816268,0.000000,222.061783,9326.594869
3866.816582,383.047749,148.041188,9474.636058
3866.816897,612.876398,-666.185348,9474.636058
3866.817212,306.438199,-74.020594,9696.697840
3866.817527,-689.485948,592.164754,9178.553681
3866.817842,-766.095498,-592.164754,9696.697840
3866.818156,153.219100,-1036.288319,10436.903782
3866.818471,-306.438199,-888.247130,10288.862594
3866.818786,153.219100,-592.164754,9622.677246
3866.819101,-459.657299,222.061783,9326.594869
3866.819416,-459.657299,592.164754,9844.739029
3866.819731,383.047749,-148.041188,9992.780217
3866.820045,536.266849,-148.041188,9622.677246
3866.820360,306.438199,-370.102971,9696.697840
3866.820675,-229.828649,-0.000000,9696.697840
3866.820990,0.000000,370.102971,9770.718434
3866.821305,153.219100,-518.144159,9844.739029
3866.821619,229.828649,-1110.308913,10436.903782
3866.821934,0.000000,888.247130,9548.656652
3866.822249,0.000000,-0.000000,9178.553681
3866.822564,0.000000,-0.000000,9844.739029
3866.822879,383.047749,-74.020594,10214.842000
3866.823193,919.314598,-222.061783,9548.656652
3866.823508,-689.485948,222.061783,9326.594869
3866.823823,-689.485948,444.123565,9844.739029
3866.824138,153.219100,666.185348,9548.656652
3866.824453,229.828649,-0.000000,9918.759623
3866.824767,229.828649,370.102971,9474.636058
3866.825082,-383.047749,740.205942,9326.594869
3866.825397,-306.438199,666.185348,9622.677246
3866.825712,0.000000,1110.308913,9326.594869
3866.826027,0.000000,666.185348,9770.718434
3866.826342,0.000000,666.185348,9030.512492
3866.826656,-383.047749,814.226536,8512.368333
3866.826971,-383.047749,296.082377,8586.388927
3866.827286,-459.657299,-148.041188,9178.553681
3866.827601,-1225.752797,-444.123565,9474.636058
3866.827916,-1762.019645,-814.226536,9474.636058
3866.828230,-1302.362347,-444.123565,9844.739029
3866.828545,-1915.238745,-814.226536,10658.965565
3866.828860,-1991.848295,-740.205942,10584.944971
3866.829175,-1378.971896,-888.247130,10881.027347
3866.829490,-1838.629195,-0.000000,10362.883188
3866.829804,-1072.533697,-0.000000,10066.800811
3866.830119,-1225.752797,-0.000000,9844.739029
3866.830434,-306.438199,-296.082377,9474.636058
3866.830749,-229.828649,-296.082377,9252.574275
3866.831064,-1072.533697,-518.144159,9474.636058
3866.831379,-1685.410096,-1406.391290,9474.636058
3866.831693,-1685.410096,-1776.494261,9844.739029
3866.832008,-1149.143247,-1628.453072,9844.739029
3866.832323,-1225.752797,-1628.453072,10362.883188
3866.832638,-1378.971896,-592.164754,10140.821405
3866.832953,-1302.362347,-444.123565,9474.636058
3866.833267,-1532.190996,-740.205942,9252.574275
3866.833582,-1455.581446,-1406.391290,9622.677246
3866.833897,-842.705048,-1554.432478,9844.739029
3866.834212,-1378.971896,-1406.391290,9844.739029
3866.834527,-1991.848295,-1332.370696,9252.574275
3866.834841,-1991.848295,-1628.453072,9548.656652
3866.835156,-1838.629195,-1554.432478,9326.594869
3866.835471,-1608.800546,-2072.576638,9252.574275
3866.835786,-1838.629195,-2368.659014,9918.759623
3866.836101,-2298.286494,-2368.659014,9696.697840
3866.836415,-2834.553343,-2442.679609,9918.759623
3866.836730,-2757.943793,-2664.741391,9400.615463
3866.837045,-2221.676944,-2664.741391,9992.780217
3866.837360,-2298.286494,-2368.659014,10140.821405
3866.837675,-1838.629195,-2664.741391,9992.780217
3866.837990,-2451.505594,-2590.720797,9400.615463
3866.838304,-1991.848295,-2442.679609,9178.553681
3866.838619,-612.876398,-1850.514855,8438.347739
3866.838934,-306.438199,-2368.659014,9030.512492
3866.839249,-995.924147,-888.247130,7624.121203
3866.839564,-689.485948,-3256.906145,8438.347739
3866.839878,-1608.800546,-2220.617826,7846.182985
3866.840193,-1532.190996,-3256.906145,8216.285956
3866.840508,-1532.190996,-3701.029710,9548.656652
3866.840823,-2298.286494,-3552.988522,9178.553681
3866.841138,-2451.505594,-3627.009116,9992.780217
3866.841452,-3447.429741,-3849.070898,10066.800811
3866.841767,-3294.210641,-3330.926739,9770.718434
3866.842082,-2451.505594,-3923.091493,10140.821405
3866.842397,-1991.848295,-2738.761985,10214.842000
3866.842712,-1455.581446,-2442.679609,9770.718434
3866.843027,-1149.143247,-2146.597232,9474.636058
3866.843341,-919.314598,-1480.411884,9178.553681
3866.843656,-919.314598,-888.247130,8142.265362
3866.843971,-1302.362347,-1850.514855,8882.471304
3866.844286,-1302.362347,-2442.679609,9326.594869
3866.844601,-1532.190996,-2812.782580,9992.780217
3866.844915,-1915.238745,-3034.844362,10658.965565
3866.845230,-3524.039291,-3182.885551,10288.862594
3866.845545,-3830.477490,-3034.844362,10362.883188
3866.845860,-3447.429741,-3627.009116,9918.759623
3866.846175,-2604.724693,-3552.988522,9918.759623
3866.846490,-2298.286494,-3701.029710,10288.862594
3866.846804,-2374.896044,-2738.761985,9326.594869
3866.847119,-2451.505594,-1998.556043,9030.512492
3866.847434,-2451.505594,-1776.494261,8808.450710
3866.847749,-1608.800546,-888.247130,8512.368333
3866.848064,-1149.143247,-1036.288319,8956.491898
3866.848379,-1072.533697,-1702.473667,9030.512492
3866.848694,-1608.800546,-2220.617826,9474.636058
3866.849009,-2374.896044,-1850.514855,10140.821405
3866.849323,-2374.896044,-2294.638420,10732.986159
3866.849638,-2757.943793,-1702.473667,9992.780217
3866.849953,-2374.896044,-1554.432478,9474.636058
3866.850268,-1991.848295,-2146.597232,9400.615463
3866.850583,-1455.581446,-1998.556043,9548.656652
3866.850898,-1685.410096,-1850.514855,9326.594869
3866.851213,-1838.629195,-1702.473667,9178.553681
3866.851528,-1455.581446,-1406.391290,8586.388927
3866.851842,-1072.533697,-888.247130,8364.327145
3866.852157,-766.095498,-370.102971,8290.306550
3866.852472,-995.924147,-962.267725,8364.327145
3866.852787,-1302.362347,-1776.494261,9474.636058
3866.853102,-1838.629195,-2072.576638,10214.842000
3866.853417,-2374.896044,-1628.453072,10807.006753
3866.853732,-2528.115143,-1480.411884,10881.027347
3866.854046,-2374.896044,-1406.391290,11103.089130
3866.854361,-2451.505594,-740.205942,10807.006753
3866.854676,-2298.286494,-592.164754,9992.780217
3866.854991,-2145.067394,-962.267725,9992.780217
3866.855306,-1762.019645,-1258.350101,10436.903782
3866.855621,-1532.190996,-962.267725,10436.903782
3866.855936,-1149.143247,-1110.308913,9844.739029
3866.856251,-1149.143247,-1258.350101,10066.800811
3866.856565,-766.095498,-1036.288319,10288.862594
3866.856880,-995.924147,-888.247130,10140.821405
3866.857195,-1149.143247,-814.226536,9474.636058
3866.857510,-1455.581446,-814.226536,8956.491898
3866.857825,-1302.362347,-740.205942,8660.409521
3866.858140,-1915.238745,-1480.411884,8734.430116
3866.858455,-2068.457845,-2220.617826,9548.656652
3866.858769,-2451.505594,-2886.803174,10140.821405
3866.859084,-2911.162892,-2812.782580,11029.068536
3866.859399,-2911.162892,-2368.659014,10807.006753
3866.859714,-2451.505594,-1332.370696,10214.842000
3866.860029,-2451.505594,-1776.494261,9844.739029
3866.860344,-2068.457845,-1480.411884,9844.739029
3866.860659,-1608.800546,-1628.453072,9770.718434
3866.860974,-1608.800546,-1480.411884,9622.677246
3866.861288,-1302.362347,-1554.432478,9252.574275
3866.861603,-1532.190996,-1480.411884,9770.718434
3866.861918,-1608.800546,-1480.411884,9622.677246
3866.862233,-1532.190996,-1258.350101,9104.533087
3866.862548,-1532.190996,-1480.411884,8660.409521
3866.862863,-1455.581446,-1776.494261,8512.368333
3866.863178,-1608.800546,-2072.576638,8290.306550
3866.863492,-1762.019645,-2516.700203,8734.430116
3866.863807,-2145.067394,-3627.009116,8882.471304
3866.864122,-2451.505594,-3997.112087,9474.636058
3866.864437,-1991.848295,-3849.070898,9918.759623
3866.864752,-2681.334243,-2960.823768,10510.924376
3866.865067,-2528.115143,-2294.638420,10436.903782
3866.865382,-1685.410096,-1184.329507,9918.759623
3866.865697,-1608.800546,-518.144159,8734.430116
3866.866011,-1225.752797,-1110.308913,8808.450710
3866.866326,-1072.533697,-1332.370696,8364.327145
3866.866641,-1072.533697,-1924.535449,8660.409521
3866.866956,-1608.800546,-2738.761985,8956.491898
3866.867271,-1838.629195,-3108.864956,9474.636058
3866.867586,-2451.505594,-3256.906145,10658.965565
3866.867901,-2604.724693,-3108.864956,10955.047942
3866.868216,-2757.943793,-2738.761985,11325.150913
3866.868530,-2757.943793,-2368.659014,11103.089130
3866.868845,-2528.115143,-2368.659014,10362.883188
3866.869160,-2374.896044,-2146.597232,9992.780217
3866.869475,-1838.629195,-1850.514855,8956.491898
3866.869790,-1455.581446,-1850.514855,8068.244768
3866.870105,-1225.752797,-2220.617826,7550.100608
3866.870420,-995.924147,-2516.700203,7105.977043
3866.870734,-459.657299,-2220.617826,7698.141797
3866.871049,-919.314598,-2146.597232,8512.368333
3866.871364,-1762.019645,-2442.679609,9622.677246
3866.871679,-2298.286494,-2886.803174,10732.986159
3866.871994,-2987.772442,-2590.720797,11029.068536
3866.872309,-3140.991542,-3034.844362,11843.295072
3866.872624,-3447.429741,-2886.803174,11695.253884
3866.872939,-2911.162892,-2146.597232,10436.903782
3866.873253,-2451.505594,-1480.411884,9696.697840
3866.873568,-1915.238745,-296.082377,9030.512492
3866.873883,-1072.533697,-0.000000,7994.224174
3866.874198,-766.095498,-296.082377,7105.977043
3866.874513,-459.657299,-962.267725,7772.162391
3866.874828,-1072.533697,-1850.514855,8808.450710
3866.875143,-2068.457845,-2812.782580,9844.739029
3866.875457,-2298.286494,-3330.926739,11177.109724
3866.875772,-3217.601092,-2664.741391,11917.315666
3866.876087,-3447.429741,-1998.556043,11843.295072
3866.876402,-3294.210641,-1850.514855,10732.986159
3866.876717,-2604.724693,-1332.370696,10362.883188
3866.877032,-2374.896044,-666.185348,9622.677246
3866.877347,-2068.457845,-888.247130,8290.306550
3866.877662,-842.705048,-666.185348,7994.224174
3866.877976,-229.828649,-1850.514855,8438.347739
3866.878291,76.609550,-1406.391290,8290.306550
3866.878606,-306.438199,-1406.391290,9252.574275
3866.878921,-689.485948,-2072.576638,9992.780217
3866.879236,-1072.533697,-1406.391290,10436.903782
3866.879551,-1991.848295,-1480.411884,10658.965565
3866.879866,-2298.286494,-814.226536,10732.986159
3866.880180,-2681.334243,-1110.308913,10140.821405
3866.880495,-3140.991542,-962.267725,9622.677246
3866.880810,-2987.772442,-1850.514855,9178.553681
3866.881125,-2681.334243,-2220.617826,8660.409521
3866.881440,-2145.067394,-2368.659014,8660.409521
3866.881755,-2298.286494,-2442.679609,9400.615463
3866.882070,-2221.676944,-2516.700203,9770.718434
3866.882385,-1991.848295,-2368.659014,10362.883188
3866.882699,-1608.800546,-1924.535449,10807.006753
3866.883014,-1762.019645,-2072.576638,11251.130318
3866.883329,-1685.410096,-1406.391290,11325.150913
3866.883644,-1915.238745,-740.205942,10510.924376
3866.883959,-1762.019645,-222.061783,9030.512492
3866.884274,-1302.362347,-148.041188,8216.285956
3866.884589,-1072.533697,-296.082377,7772.162391
3866.884904,-919.314598,-1184.329507,7254.018232
3866.885218,-689.485948,-2072.576638,7698.141797
3866.885533,-1685.410096,-2664.741391,8808.450710
3866.885848,-1991.848295,-2960.823768,9252.574275
3866.886163,-2604.724693,-3552.988522,10510.924376
3866.886478,-2911.162892,-3849.070898,11473.192101
3866.886793,-3294.210641,-3182.885551,11917.315666
3866.887108,-3217.601092,-2368.659014,11029.068536
3866.887422,-2834.553343,-1332.370696,10510.924376
3866.887737,-1762.019645,-222.061783,10066.800811
3866.888052,-1225.752797,222.061783,8956.491898
3866.888367,-459.657299,-0.000000,7624.121203
3866.888682,229.828649,-518.144159,7402.059420
3866.888997,536.266849,-962.267725,7994.224174
3866.889312,0.000000,-1332.370696,8216.285956
3866.889627,-842.705048,-1776.494261,9252.574275
3866.889941,-1762.019645,-2664.741391,9918.759623
3866.890256,-2374.896044,-3478.967927,10658.965565
3866.890571,-3294.210641,-3552.988522,11399.171507
3866.890886,-3907.087040,-3108.864956,11473.192101
3866.891201,-4060.306139,-3034.844362,10955.047942
3866.891516,-3370.820191,-2516.700203,10140.821405
3866.891831,-2604.724693,-2368.659014,9030.512492
3866.892145,-1608.800546,-1628.453072,8808.450710
3866.892460,-689.485948,-1184.329507,8290.306550
3866.892775,-229.828649,-814.226536,8364.327145
3866.893090,229.828649,-1036.288319,9474.636058
3866.893405,689.485948,-370.102971,9104.533087
3866.893720,383.047749,-888.247130,10140.821405
3866.894035,0.000000,-1480.411884,10510.924376
3866.894350,-536.266849,-1850.514855,10288.862594
3866.894664,-689.485948,-1332.370696,9844.739029
3866.894979,-919.314598,-1924.535449,9770.718434
3866.895294,-919.314598,-1184.329507,9178.553681
3866.895609,-995.924147,-1406.391290,8068.244768
3866.895924,-1225.752797,-1332.370696,7550.100608
3866.896239,-1302.362347,-1998.556043,8216.285956
3866.896554,-1378.971896,-2368.659014,8364.327145
3866.896868,-1608.800546,-2442.679609,8956.491898
3866.897183,-1838.629195,-2442.679609,9622.677246
3866.897498,-1838.629195,-2146.597232,10362.883188
3866.897813,-1991.848295,-1850.514855,10584.944971
3866.898128,-2451.505594,-1184.329507,11177.109724
3866.898443,-2451.505594,-518.144159,11769.274478
3866.898758,-2451.505594,222.061783,10584.944971
3866.899073,-2451.505594,370.102971,10066.800811
3866.899387,-2681.334243,444.123565,9696.697840
3866.899702,-2298.286494,-370.102971,9770.718434
3866.900017,-2451.505594,-888.247130,9548.656652
3866.900332,-2604.724693,-1554.432478,9474.636058
3866.900647,-2374.896044,-1850.514855,9770.718434
3866.900962,-3217.601092,-1924.535449,10066.800811
3866.901277,-3677.258390,-2294.638420,10288.862594
3866.901592,-4060.306139,-2590.720797,10732.986159
3866.901906,-4213.525239,-2738.761985,10881.027347
3866.902221,-4213.525239,-3182.885551,10288.862594
3866.902536,-4060.306139,-2812.782580,10140.821405
3866.902851,-4060.306139,-2590.720797,10807.006753
3866.903166,-3294.210641,-2812.782580,9992.780217
3866.903481,-3064.381992,-2368.659014,9474.636058
3866.903796,-2451.505594,-1628.453072,9918.759623
3866.904110,-2298.286494,-1554.432478,9104.533087
3866.904425,-1532.190996,-1776.494261,9474.636058
3866.904740,-1455.581446,-1924.535449,9474.636058
3866.905055,-1608.800546,-2146.597232,9622.677246
3866.905370,-1991.848295,-2960.823768,9474.636058
3866.905685,-2298.286494,-2886.803174,9696.697840
3866.906000,-2451.505594,-3182.885551,9918.759623
3866.906315,-2757.943793,-3478.967927,9548.656652
3866.906629,-2834.553343,-3923.091493,9622.677246
3866.906944,-2834.553343,-3997.112087,9770.718434
3866.907259,-2911.162892,-3775.050304,9474.636058
3866.907574,-2451.505594,-3627.009116,8956.491898
3866.907889,-1915.238745,-3627.009116,8586.388927
3866.908204,-1378.971896,-3330.926739,8364.327145
3866.908519,-1302.362347,-3256.906145,7698.141797
3866.908833,-919.314598,-2664.741391,7550.100608
3866.909148,-536.266849,-2368.659014,8290.306550
3866.909463,-612.876398,-1850.514855,8586.388927
3866.909778,-1225.752797,-1776.494261,8512.368333
3866.910093,-995.924147,-2442.679609,8882.471304
3866.910408,-1532.190996,-2886.803174,9622.677246
3866.910723,-1762.019645,-3182.885551,10807.006753
3866.911038,-1915.238745,-3478.967927,10881.027347
3866.911352,-2145.067394,-3182.885551,10436.903782
3866.911667,-1378.971896,-2812.782580,9474.636058
3866.911982,-612.876398,-2516.700203,9104.533087
3866.912297,-383.047749,-1628.453072,8142.265362
3866.912612,-306.438199,-1184.329507,7179.997637
3866.912927,0.000000,-1554.432478,6957.935855
3866.913242,-383.047749,-2220.617826,6735.874072
3866.913556,0.000000,-2220.617826,7179.997637
3866.913871,-383.047749,-1998.556043,7476.080014
3866.914186,-1608.800546,-2590.720797,8364.327145
3866.914501,-2298.286494,-2812.782580,9844.739029
3866.914816,-3064.381992,-3404.947333,10510.924376
3866.915131,-3370.820191,-2590.720797,11251.130318
3866.915446,-3217.601092,-2442.679609,11695.253884
3866.915761,-2911.162892,-1998.556043,11325.150913
3866.916075,-2834.553343,-1998.556043,10436.903782
3866.916390,-2374.896044,-1036.288319,10214.842000
3866.916705,-1991.848295,-370.102971,9696.697840
3866.917020,-1608.800546,-0.000000,8808.450710
3866.917335,-919.314598,296.082377,8438.347739
3866.917650,-842.705048,370.102971,8956.491898
3866.917965,-1302.362347,-296.082377,9622.677246
3866.918279,-2374.896044,-1110.308913,10584.944971
3866.918594,-3524.039291,-1480.411884,11547.212695
3866.918909,-3524.039291,-2442.679609,12287.418637
3866.919224,-3753.867940,-2220.617826,12583.501014
3866.919539,-3830.477490,-1554.432478,12139.377449
3866.919854,-3447.429741,-1184.329507,11991.336260
3866.920169,-3370.820191,-74.020594,10807.006753
3866.920484,-2604.724693,888.247130,9252.574275
3866.920798,-1532.190996,1036.288319,7994.224174
3866.921113,-766.095498,666.185348,7550.100608
3866.921428,-306.438199,-74.020594,8068.244768
3866.921743,-842.705048,-666.185348,9104.533087
3866.922058,-2068.457845,-1258.350101,10288.862594
3866.922373,-2604.724693,-1850.514855,11991.336260
3866.922688,-3064.381992,-1998.556043,13249.686362
3866.923003,-2681.334243,-1406.391290,13249.686362
3866.923317,-3064.381992,-370.102971,12583.501014
3866.923632,-2911.162892,-518.144159,11621.233289
3866.923947,-2068.457845,222.061783,9252.574275
3866.924262,-766.095498,-222.061783,8808.450710
3866.924577,0.000000,-296.082377,7105.977043
3866.924892,153.219100,-740.205942,5921.647536
3866.925207,-306.438199,-1702.473667,6735.874072
3866.925521,76.609550,-3108.864956,7920.203579
3866.925836,-689.485948,-3478.967927,9696.697840
3866.926151,-1608.800546,-3404.947333,10881.027347
3866.926466,-2834.553343,-2590.720797,10881.027347
3866.926781,-3447.429741,-2812.782580,11547.212695
3866.927096,-2834.553343,-2590.720797,11029.068536
3866.927411,-2451.505594,-2072.576638,10214.842000
3866.927726,-2451.505594,-1850.514855,8142.265362
3866.928040,-1685.410096,-1850.514855,7328.038826
3866.928355,-459.657299,-2590.720797,7476.080014
3866.928670,76.609550,-2072.576638,7994.224174
3866.928985,-229.828649,-1628.453072,8068.244768
3866.929300,-1072.533697,-1628.453072,8586.388927
3866.929615,-919.314598,-2442.679609,9622.677246
3866.929930,-1532.190996,-2812.782580,10436.903782
3866.930244,-2221.676944,-2812.782580,10732.986159
3866.930559,-2681.334243,-3256.906145,10658.965565
3866.930874,-2681.334243,-3849.070898,10584.944971
3866.931189,-2451.505594,-3256.906145,10362.883188
3866.931504,-2604.724693,-2738.761985,8438.347739
3866.931819,-2451.505594,-1628.453072,7254.018232
3866.932134,-1838.629195,-1406.391290,7105.977043
3866.932449,-842.705048,-888.247130,6883.915261
3866.932763,-1532.190996,-1406.391290,7328.038826
3866.933078,-1532.190996,-3182.885551,8512.368333
3866.933393,-1838.629195,-4071.132681,10214.842000
3866.933708,-2681.334243,-4367.215058,11325.150913
3866.934023,-2911.162892,-3034.844362,12065.356855
3866.934338,-3294.210641,-2368.659014,11251.130318
3866.934653,-3524.039291,-1776.494261,11029.068536
3866.934967,-3140.991542,-1258.350101,10288.862594
3866.935282,-3064.381992,-962.267725,8660.409521
3866.935597,-2528.115143,-1702.473667,8142.265362
3866.935912,-1991.848295,-1702.473667,8956.491898
3866.936227,-2145.067394,-2294.638420,8882.471304
3866.936542,-2068.457845,-2812.782580,9474.636058
3866.936857,-1915.238745,-2590.720797,9918.759623
3866.937172,-2145.067394,-2516.700203,11029.068536
3866.937486,-2145.067394,-2886.803174,10881.027347
3866.937801,-2068.457845,-2812.782580,11399.171507
3866.938116,-2604.724693,-1998.556043,11029.068536
3866.938431,-2987.772442,-1332.370696,9696.697840
3866.938746,-2987.772442,-1776.494261,8956.491898
3866.939061,-2681.334243,-1480.411884,8216.285956
3866.939376,-2221.676944,-1998.556043,8142.265362
3866.939691,-1838.629195,-2368.659014,8364.327145
3866.940005,-1915.238745,-2664.741391,8882.471304
3866.940320,-2145.067394,-2220.617826,9030.512492
3866.940635,-1762.019645,-2220.617826,9696.697840
3866.940950,-1838.629195,-2220.617826,10214.842000
3866.941265,-1915.238745,-2812.782580,11251.130318
3866.941580,-2221.676944,-3034.844362,12287.418637
3866.941895,-1838.629195,-2516.700203,11621.233289
3866.942209,-2681.334243,-592.164754,10436.903782
3866.942524,-1838.629195,-0.000000,9326.594869
3866.942839,-919.314598,814.226536,7772.162391
3866.943154,153.219100,-0.000000,7328.038826
3866.943469,919.314598,-1480.411884,7772.162391
3866.943784,0.000000,-1776.494261,8290.306550
3866.944099,-1378.971896,-2220.617826,8660.409521
3866.944414,-1072.533697,-2886.803174,9918.759623
3866.944728,-1378.971896,-2294.638420,9992.780217
3866.945043,-1685.410096,-1998.556043,9696.697840
3866.945358,-1072.533697,-2590.720797,10732.986159
3866.945673,-2145.067394,-1998.556043,10807.006753
3866.945988,-2757.943793,-666.185348,9474.636058
3866.946303,-1838.629195,-888.247130,9030.512492
3866.946618,-2068.457845,296.082377,8586.388927
3866.946932,-1225.752797,518.144159,7698.141797
3866.947247,-459.657299,-1332.370696,9252.574275
3866.947562,-1838.629195,-1702.473667,9030.512492
3866.947877,-1608.800546,-2146.597232,9622.677246
3866.948192,-1532.190996,-1628.453072,9992.780217
3866.948507,-2221.676944,-1036.288319,10807.006753
3866.948822,-1302.362347,-1406.391290,11399.171507
3866.949137,-2374.896044,-1998.556043,11621.233289
3866.949451,-3447.429741,-1332.370696,10436.903782
3866.949766,-3217.601092,-1554.432478,10584.944971
3866.950081,-2834.553343,-1184.329507,9400.615463
3866.950396,-1915.238745,-666.185348,8512.368333
3866.950711,-1302.362347,-1184.329507,8808.450710
3866.951026,-1762.019645,-518.144159,7550.100608
3866.951341,-1608.800546,-1480.411884,8438.347739
3866.951655,-1149.143247,-1554.432478,9030.512492
3866.951970,-1302.362347,-2738.761985,10362.883188
3866.952285,-1915.238745,-2516.700203,11473.192101
3866.952600,-2298.286494,-2442.679609,11473.192101
3866.952915,-2757.943793,-1036.288319,11399.171507
3866.953230,-2221.676944,-888.247130,11991.336260
3866.953545,-1378.971896,-370.102971,11103.089130
3866.953859,-689.485948,148.041188,10288.862594
3866.954174,-306.438199,814.226536,8956.491898
3866.954489,-306.438199,-0.000000,7920.203579
3866.954804,689.485948,-222.061783,7476.080014
3866.955119,536.266849,-1258.350101,8142.265362
3866.955434,153.219100,-2220.617826,8586.388927
3866.955749,-689.485948,-2368.659014,9178.553681
3866.956064,-919.314598,-2516.700203,9548.656652
3866.956378,-842.705048,-2368.659014,10066.800811
3866.956693,-766.095498,-2516.700203,10732.986159
3866.957008,-1532.190996,-888.247130,9844.739029
3866.957323,-2145.067394,-518.144159,9400.615463
3866.957638,-1302.362347,-0.000000,8956.491898
3866.957953,-306.438199,-370.102971,8660.409521
3866.958268,842.705048,-888.247130,9178.553681
3866.958582,1072.533697,-370.102971,8438.347739
3866.958897,995.924147,-666.185348,8290.306550
3866.959212,995.924147,-444.123565,9474.636058
3866.959527,1455.581446,-370.102971,10066.800811
3866.959842,1685.410096,-370.102971,10658.965565
3866.960157,1072.533697,-370.102971,10362.883188
3866.960472,383.047749,-0.000000,9770.718434
3866.960787,306.438199,370.102971,9622.677246
3866.961101,689.485948,370.102971,8734.430116
3866.961416,766.095498,296.082377,9178.553681
3866.961731,459.657299,518.144159,7994.224174
3866.962046,383.047749,370.102971,7550.100608
3866.962361,229.828649,666.185348,7846.182985
3866.962676,995.924147,-74.020594,9326.594869
3866.962991,995.924147,-444.123565,9918.759623
3866.963305,76.609550,-740.205942,9622.677246
3866.963620,-1149.143247,-444.123565,10955.047942
3866.963935,-1072.533697,-148.041188,10732.986159
3866.964250,-229.828649,-296.082377,11547.212695
3866.964565,0.000000,444.123565,10584.944971
3866.964880,-306.438199,2146.597232,9696.697840
3866.965195,-1149.143247,2664.741391,9326.594869
3866.965509,-306.438199,2368.659014,8956.491898
3866.965824,459.657299,1258.350101,9548.656652
3866.966139,459.657299,666.185348,9252.574275
3866.966454,-766.095498,444.123565,9252.574275
3866.966769,-459.657299,-0.000000,9844.739029
3866.967084,-229.828649,-814.226536,11621.233289
3866.967399,-766.095498,-592.164754,11917.315666
3866.967714,-1378.971896,-0.000000,11843.295072
3866.968028,-2221.676944,740.205942,11547.212695
3866.968343,-1532.190996,2294.638420,10362.883188
3866.968658,-306.438199,2368.659014,10214.842000
3866.968973,612.876398,1776.494261,9252.574275
3866.969288,689.485948,1628.453072,8290.306550
3866.969603,459.657299,1332.370696,7698.141797
3866.969918,1302.362347,1110.308913,7772.162391
3866.970232,1149.143247,740.205942,8808.450710
3866.970547,1685.410096,-0.000000,9992.780217
3866.970862,1455.581446,370.102971,9030.512492
3866.971177,459.657299,-0.000000,9178.553681
3866.971492,229.828649,148.041188,10362.883188
3866.971807,0.000000,-74.020594,10955.047942
3866.972122,-612.876398,-0.000000,10510.924376
3866.972437,-306.438199,222.061783,9622.677246
3866.972751,-536.266849,1332.370696,8882.471304
3866.973066,842.705048,1480.411884,8438.347739
3866.973381,1991.848295,222.061783,9474.636058
3866.973696,1838.629195,222.061783,9178.553681
3866.974011,1608.800546,1184.329507,8438.347739
3866.974326,1532.190996,1036.288319,8290.306550
3866.974641,2145.067394,-0.000000,9918.759623
3866.974955,1838.629195,222.061783,10362.883188
3866.975270,1225.752797,444.123565,8956.491898
3866.975585,306.438199,-148.041188,9474.636058
3866.975900,-306.438199,1258.350101,9474.636058
3866.976215,383.047749,-0.000000,10584.944971
3866.976530,153.219100,-0.000000,9696.697840
3866.976845,0.000000,-0.000000,9400.615463
3866.977160,-229.828649,-74.020594,8808.450710
3866.977474,153.219100,-296.082377,8586.388927
3866.977789,842.705048,-814.226536,10288.862594
3866.978104,842.705048,-814.226536,9992.780217
3866.978419,306.438199,370.102971,8956.491898
3866.978734,0.000000,518.144159,9030.512492
3866.979049,76.609550,666.185348,9992.780217
3866.979364,459.657299,518.144159,10140.821405
3866.979678,229.828649,296.082377,9548.656652
3866.979993,-1608.800546,518.144159,9622.677246
3866.980308,-2374.896044,-74.020594,10436.903782
3866.980623,-1838.629195,-370.102971,10510.924376
3866.980938,-1149.143247,-1628.453072,11251.130318
3866.981253,-995.924147,-1258.350101,10066.800811
3866.981568,-995.924147,-1406.391290,9548.656652
3866.981882,-766.095498,-592.164754,9326.594869
3866.982197,0.000000,-740.205942,10436.903782
3866.982512,383.047749,-518.144159,9770.718434
3866.982827,0.000000,222.061783,9104.533087
3866.983142,153.219100,370.102971,9030.512492
3866.983457,-612.876398,814.226536,9178.553681
3866.983772,-229.828649,222.061783,9400.615463
3866.984087,229.828649,-444.123565,9178.553681
3866.984401,-229.828649,-296.082377,9178.553681
3866.984716,-842.705048,-74.020594,9474.636058
3866.985031,-1072.533697,-518.144159,9622.677246
3866.985346,-383.047749,-1406.391290,10807.006753
3866.985661,-383.047749,-1406.391290,10066.800811
3866.985976,-689.485948,-740.205942,9178.553681
3866.986291,-919.314598,-740.205942,9400.615463
3866.986605,0.000000,222.061783,9696.697840
3866.986920,306.438199,-0.000000,9696.697840
3866.987235,153.219100,-0.000000,9178.553681
3866.987550,-459.657299,1036.288319,9918.759623
3866.987865,-383.047749,962.267725,10140.821405
3866.988180,689.485948,444.123565,9622.677246
3866.988495,1378.971896,-592.164754,10807.006753
3866.988810,1378.971896,-296.082377,9104.533087
3866.989124,995.924147,-518.144159,9104.533087
3866.989439,229.828649,-0.000000,8586.388927
3866.989754,1149.143247,-0.000000,9104.533087
3866.990069,1378.971896,-666.185348,9104.533087
3866.990384,1532.190996,-518.144159,8512.368333
3866.990699,229.828649,-740.205942,8882.471304
3866.991014,995.924147,-0.000000,9252.574275
3866.991328,1149.143247,-0.000000,9548.656652
3866.991643,1225.752797,-148.041188,9696.697840
3866.991958,919.314598,592.164754,9326.594869
3866.992273,76.609550,888.247130,9252.574275
3866.992588,1302.362347,666.185348,8882.471304
3866.992903,2374.896044,740.205942,10066.800811
3866.993218,1762.019645,592.164754,9326.594869
3866.993532,689.485948,962.267725,9474.636058
3866.993847,76.609550,962.267725,9548.656652
3866.994162,0.000000,1036.288319,10066.800811
3866.994477,0.000000,518.144159,10658.965565
3866.994792,-229.828649,592.164754,10288.862594
3866.995107,-766.095498,1258.350101,10066.800811
3866.995422,-1532.190996,888.247130,10362.883188
3866.995737,-689.485948,444.123565,10658.965565
3866.996051,-459.657299,-370.102971,10436.903782
3866.996366,0.000000,148.041188,9622.677246
3866.996681,-383.047749,888.247130,9770.718434
3866.996996,-459.657299,1480.411884,8734.430116
3866.997311,229.828649,592.164754,9696.697840
3866.997626,612.876398,1110.308913,9844.739029
3866.997941,-383.047749,1332.370696,8734.430116
3866.998255,-1072.533697,1554.432478,9326.594869
3866.998570,-1455.581446,888.247130,9696.697840
3866.998885,-842.705048,-0.000000,10658.965565
3866.999200,-842.705048,-370.102971,10140.821405
3866.999515,-1455.581446,-518.144159,10732.986159
3866.999830,-1991.848295,518.144159,10362.883188
3867.000145,-2221.676944,370.102971,9992.780217
3867.000460,-76.609550,-0.000000,10288.862594
3867.000774,0.000000,592.164754,9844.739029
3867.001089,-459.657299,1036.288319,9178.553681
3867.001404,-229.828649,1184.329507,9178.553681
3867.001719,0.000000,888.247130,10066.800811
3867.002034,306.438199,296.082377,10066.800811
3867.002349,689.485948,-370.102971,9326.594869
3867.002664,-842.705048,-518.144159,9474.636058
3867.002978,-306.438199,-222.061783,9918.759623
3867.003293,229.828649,-592.164754,9622.677246
3867.003608,689.485948,-1258.350101,9992.780217
3867.003923,229.828649,-444.123565,9030.512492
3867.004238,0.000000,-370.102971,9400.615463
3867.004553,459.657299,-222.061783,7920.203579
3867.004868,842.705048,-518.144159,9622.677246
3867.005182,1685.410096,-518.144159,9400.615463
3867.005497,919.314598,-296.082377,8364.327145
3867.005812,689.485948,-222.061783,9104.533087
3867.006127,1072.533697,-74.020594,9548.656652
3867.006442,1302.362347,-888.247130,10362.883188
3867.006757,1838.629195,-296.082377,9030.512492
3867.007072,612.876398,-0.000000,9474.636058
3867.007387,229.828649,148.041188,9252.574275
3867.007701,842.705048,-74.020594,8808.450710
3867.008016,1072.533697,-1110.308913,9844.739029
3867.008331,1225.752797,-1110.308913,8808.450710
3867.008646,0.000000,-518.144159,8956.491898
3867.008961,-153.219100,-222.061783,9030.512492
3867.009276,919.314598,-1406.391290,10436.903782
3867.009591,1149.143247,-888.247130,10140.821405
3867.009905,842.705048,-296.082377,9548.656652
3867.010220,306.438199,666.185348,9326.594869
3867.010535,0.000000,740.205942,8808.450710
3867.010850,766.095498,148.041188,9178.553681
3867.011165,1762.019645,-0.000000,9548.656652
3867.011480,766.095498,-0.000000,8438.347739
3867.011795,153.219100,444.123565,9400.615463
3867.012110,766.095498,518.144159,9400.615463
3867.012424,1149.143247,-74.020594,10436.903782
3867.012739,842.705048,-222.061783,10140.821405
3867.013054,-612.876398,-0.000000,9252.574275
3867.013369,-1378.971896,-370.102971,10066.800811
3867.013684,-1455.581446,-296.082377,9992.780217
3867.013999,-689.485948,-740.205942,10584.944971
3867.014314,0.000000,-222.061783,9844.739029
3867.014628,-1302.362347,-222.061783,9622.677246
3867.014943,-1455.581446,296.082377,9548.656652
3867.015258,-1149.143247,-370.102971,10066.800811
3867.015573,-229.828649,-148.041188,10510.924376
3867.015888,-689.485948,1036.288319,9474.636058
3867.016203,-612.876398,1110.308913,8734.430116
3867.016518,-459.657299,1480.411884,9178.553681
3867.016832,0.000000,1332.370696,9326.594869
3867.017147,0.000000,444.123565,9622.677246
3867.017462,-229.828649,592.164754,8956.491898
3867.017777,-995.924147,1110.308913,10362.883188
3867.018092,-1149.143247,1036.288319,9622.677246
3867.018407,-536.266849,-0.000000,10658.965565
3867.018722,0.000000,370.102971,10362.883188
3867.019037,-383.047749,518.144159,9548.656652
3867.019351,-1149.143247,888.247130,9622.677246
3867.019666,-995.924147,888.247130,9548.656652
3867.019981,0.000000,222.061783,9992.780217
3867.020296,842.705048,296.082377,8734.430116
3867.020611,229.828649,666.185348,9178.553681
3867.020926,229.828649,740.205942,8882.471304
3867.021241,612.876398,592.164754,9474.636058
3867.021555,1225.752797,444.123565,10436.903782
3867.021870,1608.800546,518.144159,9474.636058
3867.022185,842.705048,1036.288319,9474.636058
3867.022500,689.485948,1406.391290,9030.512492
3867.022815,842.705048,740.205942,9548.656652
3867.023130,842.705048,-148.041188,10955.047942
3867.023445,689.485948,518.144159,9622.677246
3867.023760,229.828649,-74.020594,9400.615463
3867.024074,0.000000,740.205942,9474.636058
3867.024389,995.924147,-0.000000,10732.986159
3867.024704,1455.581446,-74.020594,9844.739029
3867.025019,1532.190996,-296.082377,9622.677246
3867.025334,459.657299,592.164754,9992.780217
3867.025649,306.438199,1036.288319,8956.491898
3867.025964,536.266849,666.185348,9992.780217
3867.026278,995.924147,-0.000000,9770.718434
3867.026593,842.705048,-0.000000,9252.574275
3867.026908,306.438199,444.123565,9104.533087
3867.027223,76.609550,-0.000000,9474.636058
3867.027538,459.657299,-962.267725,11177.109724
3867.027853,536.266849,-814.226536,9696.697840
3867.028168,-459.657299,444.123565,9252.574275
3867.028482,-612.876398,666.185348,8956.491898
3867.028797,0.000000,-0.000000,10436.903782
3867.029112,229.828649,-74.020594,10362.883188
3867.029427,-153.219100,740.205942,9104.533087
3867.029742,-153.219100,518.144159,9104.533087
3867.030057,-536.266849,592.164754,9400.615463
3867.030372,153.219100,-74.020594,10214.842000
3867.030687,459.657299,-962.267725,10214.842000
3867.031001,229.828649,-296.082377,9622.677246
3867.031316,-689.485948,-0.000000,9030.512492
3867.031631,-689.485948,814.226536,9104.533087
3867.031946,0.000000,222.061783,9474.636058
3867.032261,229.828649,-0.000000,9400.615463
3867.032576,-689.485948,-222.061783,8734.430116
3867.032891,-1762.019645,-148.041188,8956.491898
3867.033205,-995.924147,-592.164754,9770.718434
3867.033520,-153.219100,-814.226536,10955.047942
3867.033835,0.000000,-518.144159,9770.718434
3867.034150,-306.438199,-0.000000,9030.512492
3867.034465,-612.876398,-0.000000,9622.677246
3867.034780,-459.657299,296.082377,9548.656652
3867.035095,459.657299,-296.082377,10658.965565
3867.035410,383.047749,-0.000000,9178.553681
3867.035724,229.828649,444.123565,8142.265362
3867.036039,0.000000,-0.000000,8808.450710
3867.036354,383.047749,-296.082377,9548.656652
3867.036669,306.438199,-888.247130,10362.883188
3867.036984,383.047749,-222.061783,9474.636058
3867.037299,0.000000,-74.020594,9918.759623
3867.037614,0.000000,444.123565,9622.677246
3867.037928,229.828649,-666.185348,10214.842000
3867.038243,766.095498,-222.061783,9844.739029
3867.038558,689.485948,-148.041188,9178.553681
3867.038873,383.047749,444.123565,8512.368333
3867.039188,306.438199,592.164754,8512.368333
3867.039503,919.314598,-0.000000,10140.821405
3867.039818,1149.143247,-74.020594,9252.574275
3867.040132,689.485948,-148.041188,9178.553681
3867.040447,0.000000,740.205942,9178.553681
3867.040762,0.000000,740.205942,9622.677246
3867.041077,459.657299,518.144159,10436.903782
3867.041392,383.047749,-148.041188,9918.759623
3867.041707,-612.876398,-74.020594,9548.656652
3867.042022,-306.438199,370.102971,9326.594869
3867.042337,-383.047749,666.185348,10214.842000
3867.042651,459.657299,-222.061783,10955.047942
3867.042966,612.876398,296.082377,9178.553681
3867.043281,0.000000,1184.329507,9178.553681
3867.043596,0.000000,296.082377,9770.718434
3867.043911,153.219100,592.164754,9992.780217
3867.044226,459.657299,296.082377,10066.800811
3867.044541,919.314598,814.226536,9326.594869
3867.044855,0.000000,1628.453072,9252.574275
3867.045170,153.219100,888.247130,8142.265362
3867.045485,842.705048,-444.123565,10658.965565
3867.045800,612.876398,222.061783,10288.862594
3867.046115,153.219100,296.082377,9548.656652
3867.046430,0.000000,888.247130,9400.615463
3867.046745,-153.219100,1258.350101,9696.697840
3867.047060,229.828649,-0.000000,10584.944971
3867.047376,153.219100,-444.123565,9770.718434
3867.047691,-536.266849,-148.041188,9696.697840
3867.048005,-995.924147,814.226536,9548.656652
3867.048320,-536.266849,592.164754,10288.862594
3867.048635,0.000000,222.061783,11103.089130
3867.048950,0.000000,-0.000000,10510.924376
3867.049265,-459.657299,-0.000000,9474.636058
3867.049579,-153.219100,888.247130,9326.594869
3867.049894,612.876398,-0.000000,9474.636058
3867.050209,919.314598,-296.082377,9770.718434
3867.050524,766.095498,592.164754,8290.306550
3867.050839,-383.047749,-0.000000,9178.553681
3867.051153,-306.438199,370.102971,8808.450710
3867.051468,383.047749,-444.123565,10362.883188
3867.051783,842.705048,-666.185348,9918.759623
3867.052098,-229.828649,-0.000000,8734.430116
3867.052413,-306.438199,148.041188,9400.615463
3867.052727,536.266849,-0.000000,8882.471304
3867.053042,842.705048,-0.000000,9770.718434
3867.053357,689.485948,-0.000000,9770.718434
3867.053672,-306.438199,444.123565,8364.327145
3867.053987,-689.485948,370.102971,9104.533087
3867.054301,76.609550,740.205942,9622.677246
3867.054616,689.485948,-296.082377,10140.821405
3867.054931,536.266849,-222.061783,9622.677246
3867.055246,-919.314598,-148.041188,9844.739029
3867.055561,-995.924147,-148.041188,10214.842000
3867.055875,-229.828649,-518.144159,9918.759623
3867.056190,459.657299,-1184.329507,10584.944971
3867.056505,153.219100,-444.123565,9844.739029
3867.056820,-383.047749,-0.000000,9400.615463
3867.057135,0.000000,-0.000000,8956.491898
3867.057449,459.657299,-444.123565,9918.759623
3867.057764,766.095498,-740.205942,9770.718434
3867.058079,306.438199,296.082377,8734.430116
3867.058394,153.219100,-370.102971,9474.636058
3867.058709,689.485948,-0.000000,9474.636058
3867.059023,383.047749,-222.061783,10658.965565
3867.059338,153.219100,-814.226536,10214.842000
3867.059653,-306.438199,-0.000000,9622.677246
3867.059968,-1149.143247,370.102971,9548.656652
3867.060283,-383.047749,-0.000000,10436.903782
3867.060597,306.438199,-296.082377,10955.047942
3867.060912,76.609550,-296.082377,9844.739029
3867.061227,-536.266849,222.061783,8734.430116
3867.061542,-459.657299,296.082377,9178.553681
3867.061857,76.609550,-0.000000,9770.718434
3867.062171,229.828649,-74.020594,10362.883188
3867.062486,612.876398,-0.000000,9178.553681
3867.062801,-536.266849,-0.000000,8956.491898
3867.063116,-842.705048,592.164754,9030.512492
3867.063431,0.000000,-74.020594,10732.986159
3867.063745,306.438199,-148.041188,10510.924376
3867.064060,0.000000,370.102971,9474.636058
3867.064375,-306.438199,518.144159,8586.388927
3867.064690,-306.438199,370.102971,8956.491898
3867.065005,612.876398,-370.102971,9474.636058
3867.065319,766.095498,-296.082377,9622.677246
3867.065634,229.828649,-0.000000,9104.533087
3867.065949,-229.828649,666.185348,9030.512492
3867.066264,612.876398,148.041188,9844.739029
3867.066579,995.924147,-0.000000,10362.883188
3867.066893,1149.143247,222.061783,9622.677246
3867.067208,459.657299,518.144159,9622.677246
3867.067523,383.047749,740.205942,9326.594869
