#time,accel_x,accel_y,accel_z
3696.266432,2145.067394,2294.638420,9548.656652
3696.266746,1991.848295,1924.535449,9252.574275
3696.267061,1762.019645,1702.473667,9326.594869
3696.267376,1455.581446,1702.473667,9178.553681
3696.267690,1149.143247,1184.329507,8734.430116
3696.268005,995.924147,592.164754,9178.553681
3696.268320,842.705048,-0.000000,9178.553681
3696.268634,459.657299,-296.082377,9400.615463
3696.268949,153.219100,-518.144159,9474.636058
3696.269264,0.000000,-444.123565,9548.656652
3696.269578,0.000000,-222.061783,9622.677246
3696.269893,153.219100,-148.041188,9326.594869
3696.270208,0.000000,444.123565,9178.553681
3696.270522,459.657299,296.082377,8956.491898
3696.270837,766.095498,296.082377,8956.491898
3696.271152,459.657299,370.102971,8882.471304
3696.271466,689.485948,-222.061783,9252.574275
3696.271781,229.828649,-296.082377,9622.677246
3696.272096,0.000000,-592.164754,10214.842000
3696.272410,0.000000,-740.205942,10214.842000
3696.272725,-383.047749,-592.164754,10066.800811
3696.273040,-229.828649,-296.082377,9918.759623
3696.273354,-306.438199,-592.164754,9474.636058
3696.273669,-383.047749,-592.164754,9474.636058
3696.273984,229.828649,-592.164754,9252.574275
3696.274298,0.000000,-814.226536,9178.553681
3696.274613,306.438199,-814.226536,9548.656652
3696.274928,536.266849,-1184.329507,9548.656652
3696.275242,306.438199,-962.267725,9474.636058
3696.275557,229.828649,-962.267725,9548.656652
3696.275872,612.876398,-666.185348,9770.718434
3696.276187,689.485948,-1036.288319,9474.636058
3696.276501,536.266849,-666.185348,9178.553681
3696.276816,536.266849,-592.164754,9548.656652
3696.277131,306.438199,-222.061783,9104.533087
3696.277445,459.657299,-296.082377,9178.553681
3696.277760,459.657299,-740.205942,9400.615463
3696.278075,229.828649,-444.123565,9400.615463
3696.278389,76.609550,-592.164754,9178.553681
3696.278704,-229.828649,-592.164754,9326.594869
3696.279019,0.000000,-666.185348,9474.636058
3696.279333,-153.219100,-962.267725,9548.656652
3696.279648,-612.876398,-518.144159,9474.636058
3696.279963,-536.266849,-444.123565,9252.574275
3696.280277,-459.657299,-148.041188,9252.574275
3696.280592,0.000000,-0.000000,9104.533087
3696.280907,-153.219100,222.061783,8882.471304
3696.281221,76.609550,370.102971,9474.636058
3696.281536,229.828649,740.205942,9548.656652
3696.281851,153.219100,518.144159,9548.656652
3696.282165,229.828649,592.164754,9474.636058
3696.282480,229.828649,740.205942,9696.697840
3696.282795,229.828649,444.123565,9770.718434
3696.283109,459.657299,740.205942,9696.697840
3696.283424,306.438199,1036.288319,9474.636058
3696.283739,306.438199,888.247130,9622.677246
3696.284053,383.047749,814.226536,9104.533087
3696.284368,229.828649,814.226536,9474.636058
3696.284683,306.438199,740.205942,9844.739029
3696.284997,0.000000,666.185348,9696.697840
3696.285312,229.828649,814.226536,9992.780217
3696.285627,76.609550,370.102971,9844.739029
3696.285941,383.047749,666.185348,10288.862594
3696.286256,459.657299,962.267725,10362.883188
3696.286571,153.219100,592.164754,10214.842000
3696.286885,689.485948,962.267725,10436.903782
3696.287200,306.438199,1406.391290,10436.903782
3696.287515,383.047749,962.267725,10362.883188
3696.287829,306.438199,1036.288319,10362.883188
3696.288144,153.219100,888.247130,10140.821405
3696.288459,0.000000,296.082377,9918.759623
3696.288773,76.609550,740.205942,10066.800811
3696.289088,0.000000,740.205942,10288.862594
3696.289403,-306.438199,444.123565,9918.759623
3696.289717,-229.828649,370.102971,10140.821405
3696.290032,0.000000,-0.000000,10066.800811
3696.290347,306.438199,444.123565,10214.842000
3696.290661,76.609550,518.144159,9992.780217
3696.290976,0.000000,296.082377,9992.780217
3696.291291,76.609550,518.144159,9770.718434
3696.291605,842.705048,518.144159,9474.636058
3696.291920,842.705048,592.164754,9696.697840
3696.292235,0.000000,148.041188,9770.718434
3696.292549,0.000000,370.102971,9548.656652
3696.292864,76.609550,296.082377,9474.636058
3696.293179,229.828649,148.041188,9548.656652
3696.293493,153.219100,-0.000000,9252.574275
3696.293808,0.000000,-74.020594,9400.615463
3696.294123,-153.219100,-74.020594,9326.594869
3696.294437,0.000000,-0.000000,9326.594869
3696.294752,0.000000,-962.267725,8882.471304
3696.295067,76.609550,-296.082377,9326.594869
3696.295381,-153.219100,-296.082377,9178.553681
3696.295696,-383.047749,-296.082377,9178.553681
3696.296011,-153.219100,-592.164754,9178.553681
3696.296325,0.000000,-148.041188,9252.574275
3696.296640,0.000000,-444.123565,9548.656652
3696.296955,-229.828649,-296.082377,9030.512492
3696.297269,76.609550,-444.123565,8808.450710
3696.297584,0.000000,-518.144159,9178.553681
3696.297899,229.828649,-296.082377,9400.615463
3696.298213,536.266849,-518.144159,9178.553681
3696.298528,153.219100,-296.082377,9326.594869
3696.298843,76.609550,-444.123565,9474.636058
3696.299157,153.219100,-592.164754,9178.553681
3696.299472,229.828649,-592.164754,9104.533087
3696.299787,76.609550,-888.247130,9474.636058
3696.300101,229.828649,-740.205942,9474.636058
3696.300416,76.609550,-814.226536,9474.636058
3696.300731,76.609550,-888.247130,9474.636058
3696.301045,229.828649,-592.164754,9696.697840
3696.301360,306.438199,-444.123565,9622.677246
3696.301675,229.828649,-444.123565,9622.677246
3696.301989,0.000000,-444.123565,9770.718434
3696.302304,383.047749,-222.061783,9770.718434
3696.302619,153.219100,-296.082377,9474.636058
3696.302933,153.219100,-148.041188,9992.780217
3696.303248,0.000000,-0.000000,9844.739029
3696.303563,-153.219100,-0.000000,9548.656652
3696.303877,0.000000,-148.041188,9992.780217
3696.304192,0.000000,74.020594,10140.821405
3696.304507,-306.438199,-0.000000,9770.718434
3696.304821,-229.828649,296.082377,9326.594869
3696.305136,0.000000,-74.020594,9548.656652
3696.305451,0.000000,148.041188,9696.697840
3696.305765,0.000000,444.123565,9474.636058
3696.306080,0.000000,444.123565,9474.636058
3696.306395,0.000000,222.061783,9696.697840
3696.306709,229.828649,592.164754,9992.780217
3696.307024,0.000000,518.144159,9622.677246
3696.307338,0.000000,444.123565,9474.636058
3696.307653,229.828649,740.205942,9474.636058
3696.307967,383.047749,592.164754,9104.533087
3696.308282,0.000000,888.247130,9326.594869
3696.308596,229.828649,740.205942,9548.656652
3696.308911,0.000000,814.226536,9474.636058
3696.309225,76.609550,888.247130,9326.594869
3696.309540,306.438199,740.205942,9696.697840
3696.309854,306.438199,444.123565,9548.656652
3696.310169,383.047749,814.226536,9548.656652
3696.310483,229.828649,592.164754,9918.759623
3696.310798,0.000000,296.082377,9770.718434
3696.311112,459.657299,444.123565,9992.780217
3696.311427,306.438199,-0.000000,9918.759623
3696.311741,459.657299,592.164754,9992.780217
3696.312056,306.438199,814.226536,10214.842000
3696.312370,383.047749,814.226536,9918.759623
3696.312685,229.828649,666.185348,9844.739029
3696.312999,459.657299,592.164754,9770.718434
3696.313314,459.657299,148.041188,9770.718434
3696.313628,536.266849,370.102971,10140.821405
3696.313943,0.000000,370.102971,10214.842000
3696.314257,0.000000,-0.000000,10214.842000
3696.314572,229.828649,-0.000000,9918.759623
3696.314886,383.047749,222.061783,9918.759623
3696.315201,0.000000,-0.000000,9770.718434
3696.315515,76.609550,370.102971,10066.800811
3696.315830,153.219100,-0.000000,9696.697840
3696.316144,0.000000,-148.041188,9696.697840
3696.316459,0.000000,-0.000000,10140.821405
3696.316773,0.000000,-0.000000,9548.656652
3696.317088,0.000000,148.041188,9622.677246
3696.317402,0.000000,-0.000000,9696.697840
3696.317717,-229.828649,-0.000000,9474.636058
3696.318031,0.000000,-222.061783,9104.533087
3696.318346,153.219100,-0.000000,9178.553681
3696.318660,0.000000,222.061783,9548.656652
3696.318975,-229.828649,-0.000000,8956.491898
3696.319289,153.219100,-222.061783,9474.636058
3696.319604,0.000000,-74.020594,9030.512492
3696.319918,0.000000,-370.102971,8956.491898
3696.320233,153.219100,-148.041188,9178.553681
3696.320547,76.609550,-0.000000,9104.533087
3696.320862,306.438199,-148.041188,9178.553681
3696.321176,383.047749,-222.061783,8734.430116
3696.321491,306.438199,-148.041188,9030.512492
3696.321805,76.609550,-74.020594,9252.574275
3696.322120,76.609550,-148.041188,9178.553681
3696.322434,383.047749,-0.000000,9474.636058
3696.322749,459.657299,-74.020594,9400.615463
3696.323064,306.438199,-0.000000,9326.594869
3696.323378,459.657299,-74.020594,9252.574275
3696.323693,153.219100,-148.041188,9474.636058
3696.324007,459.657299,-222.061783,9474.636058
3696.324322,229.828649,-0.000000,9474.636058
3696.324636,153.219100,-222.061783,9622.677246
3696.324951,0.000000,-0.000000,9844.739029
3696.325265,0.000000,-74.020594,9770.718434
3696.325580,306.438199,-0.000000,9696.697840
3696.325894,0.000000,-0.000000,10288.862594
3696.326209,0.000000,-0.000000,10436.903782
3696.326523,0.000000,-0.000000,10066.800811
3696.326838,0.000000,148.041188,9696.697840
3696.327152,306.438199,-148.041188,10214.842000
3696.327467,-306.438199,-0.000000,10214.842000
3696.327781,0.000000,222.061783,10214.842000
3696.328096,-229.828649,370.102971,9918.759623
3696.328410,0.000000,370.102971,10066.800811
3696.328725,0.000000,-0.000000,9622.677246
3696.329039,0.000000,518.144159,9474.636058
3696.329354,0.000000,518.144159,10140.821405
3696.329668,0.000000,222.061783,9696.697840
3696.329983,153.219100,666.185348,9622.677246
3696.330297,153.219100,222.061783,9548.656652
3696.330612,0.000000,518.144159,9696.697840
3696.330926,383.047749,592.164754,9548.656652
3696.331241,229.828649,666.185348,9548.656652
3696.331555,383.047749,592.164754,9548.656652
3696.331870,459.657299,740.205942,9326.594869
3696.332184,153.219100,666.185348,9252.574275
3696.332499,153.219100,518.144159,9474.636058
3696.332813,306.438199,666.185348,9474.636058
3696.333128,-306.438199,444.123565,9400.615463
3696.333442,153.219100,370.102971,9400.615463
3696.333757,306.438199,296.082377,9696.697840
3696.334071,153.219100,518.144159,9178.553681
3696.334386,306.438199,592.164754,9474.636058
3696.334700,612.876398,370.102971,10362.883188
3696.335015,383.047749,444.123565,9770.718434
3696.335329,229.828649,370.102971,9770.718434
3696.335644,383.047749,370.102971,9696.697840
3696.335958,383.047749,296.082377,9622.677246
3696.336273,459.657299,592.164754,9696.697840
3696.336587,383.047749,-0.000000,9844.739029
3696.336902,76.609550,-74.020594,10140.821405
3696.337216,383.047749,-0.000000,9770.718434
3696.337531,153.219100,-0.000000,9400.615463
3696.337845,229.828649,-0.000000,9622.677246
3696.338160,153.219100,-0.000000,10066.800811
3696.338474,76.609550,-148.041188,9696.697840
3696.338789,0.000000,-74.020594,9622.677246
3696.339103,0.000000,-148.041188,9770.718434
3696.339418,76.609550,-222.061783,9474.636058
3696.339732,153.219100,-296.082377,9696.697840
3696.340047,76.609550,-148.041188,9474.636058
3696.340361,0.000000,-222.061783,9252.574275
3696.340676,0.000000,-296.082377,9400.615463
3696.340990,0.000000,-222.061783,9474.636058
3696.341305,-306.438199,-222.061783,9622.677246
3696.341619,0.000000,-0.000000,9622.677246
3696.341934,0.000000,-222.061783,9252.574275
3696.342248,229.828649,-370.102971,9326.594869
3696.342563,383.047749,-0.000000,9252.574275
3696.342877,229.828649,-222.061783,9252.574275
3696.343192,0.000000,-592.164754,9400.615463
3696.343506,-229.828649,-74.020594,9030.512492
3696.343821,153.219100,-518.144159,9178.553681
3696.344135,229.828649,-0.000000,9178.553681
3696.344450,306.438199,-74.020594,9548.656652
3696.344764,0.000000,-0.000000,9178.553681
3696.345079,229.828649,222.061783,9104.533087
3696.345393,306.438199,-0.000000,9104.533087
3696.345708,229.828649,-148.041188,9400.615463
3696.346023,536.266849,-74.020594,9696.697840
3696.346337,229.828649,-0.000000,9548.656652
3696.346652,229.828649,-0.000000,9696.697840
3696.346966,229.828649,-148.041188,9548.656652
3696.347281,153.219100,-0.000000,9474.636058
3696.347595,76.609550,-296.082377,9474.636058
3696.347910,153.219100,222.061783,9474.636058
3696.348224,0.000000,-0.000000,9474.636058
3696.348539,229.828649,370.102971,9474.636058
3696.348853,76.609550,296.082377,9696.697840
3696.349168,0.000000,-0.000000,9992.780217
3696.349482,0.000000,-0.000000,9474.636058
3696.349797,229.828649,-74.020594,9770.718434
3696.350111,153.219100,-0.000000,9844.739029
3696.350426,153.219100,-0.000000,9548.656652
3696.350740,76.609550,370.102971,9770.718434
3696.351055,76.609550,-0.000000,9696.697840
3696.351369,0.000000,-0.000000,9844.739029
3696.351684,229.828649,-0.000000,9992.780217
3696.351998,153.219100,-0.000000,9844.739029
3696.352313,0.000000,222.061783,9918.759623
3696.352627,536.266849,-0.000000,9474.636058
3696.352942,0.000000,370.102971,9770.718434
3696.353256,0.000000,518.144159,9770.718434
3696.353571,76.609550,444.123565,9696.697840
3696.353885,306.438199,296.082377,9770.718434
3696.354200,0.000000,222.061783,9844.739029
3696.354514,0.000000,-0.000000,9474.636058
3696.354829,76.609550,518.144159,9548.656652
3696.355143,0.000000,296.082377,9844.739029
3696.355458,-229.828649,296.082377,9548.656652
3696.355772,0.000000,592.164754,9992.780217
3696.356087,153.219100,-0.000000,9326.594869
3696.356401,306.438199,222.061783,9326.594869
3696.356716,0.000000,370.102971,9770.718434
3696.357030,0.000000,444.123565,9770.718434
3696.357345,0.000000,296.082377,9548.656652
3696.357659,76.609550,148.041188,9474.636058
3696.357974,76.609550,222.061783,9622.677246
3696.358288,306.438199,222.061783,9548.656652
3696.358603,229.828649,444.123565,9474.636058
3696.358917,459.657299,370.102971,9770.718434
3696.359232,153.219100,222.061783,9474.636058
3696.359546,0.000000,222.061783,9548.656652
3696.359861,536.266849,-148.041188,9622.677246
3696.360175,76.609550,-148.041188,9400.615463
3696.360490,0.000000,-0.000000,9400.615463
3696.360804,383.047749,-0.000000,9474.636058
3696.361119,76.609550,-74.020594,9696.697840
3696.361433,0.000000,-0.000000,9770.718434
3696.361748,76.609550,222.061783,9622.677246
3696.362062,153.219100,-0.000000,9474.636058
3696.362377,229.828649,-296.082377,9548.656652
3696.362691,229.828649,-0.000000,9844.739029
3696.363006,153.219100,-370.102971,9548.656652
3696.363320,153.219100,-222.061783,9474.636058
3696.363635,76.609550,-74.020594,9474.636058
3696.363949,229.828649,-0.000000,9548.656652
3696.364264,842.705048,-74.020594,9844.739029
3696.364578,229.828649,-740.205942,9030.512492
3696.364893,0.000000,-74.020594,9326.594869
3696.365207,-153.219100,-370.102971,9252.574275
3696.365522,0.000000,-0.000000,9474.636058
3696.365836,153.219100,-0.000000,9548.656652
3696.366151,306.438199,-148.041188,9622.677246
3696.366465,76.609550,-0.000000,9770.718434
3696.366780,76.609550,-0.000000,9474.636058
3696.367094,0.000000,148.041188,9326.594869
3696.367409,229.828649,74.020594,9252.574275
3696.367723,383.047749,148.041188,9770.718434
3696.368038,-383.047749,-74.020594,9400.615463
3696.368352,-229.828649,-0.000000,9474.636058
3696.368667,76.609550,222.061783,9696.697840
3696.368981,76.609550,370.102971,9622.677246
3696.369296,76.609550,296.082377,9400.615463
3696.369611,0.000000,370.102971,9474.636058
3696.369925,153.219100,-0.000000,9474.636058
3696.370240,76.609550,-0.000000,9696.697840
3696.370554,306.438199,518.144159,9548.656652
3696.370869,0.000000,-148.041188,9474.636058
3696.371183,153.219100,370.102971,9622.677246
3696.371498,153.219100,370.102971,9548.656652
3696.371812,459.657299,444.123565,9844.739029
3696.372127,76.609550,222.061783,9696.697840
3696.372441,0.000000,148.041188,9622.677246
3696.372756,0.000000,-0.000000,9474.636058
3696.373070,76.609550,370.102971,9918.759623
3696.373385,153.219100,296.082377,9622.677246
3696.373699,153.219100,222.061783,9548.656652
3696.374014,0.000000,666.185348,9696.697840
3696.374328,76.609550,444.123565,9326.594869
3696.374643,536.266849,518.144159,9326.594869
3696.374957,383.047749,296.082377,9918.759623
3696.375272,153.219100,370.102971,10066.800811
3696.375586,76.609550,222.061783,9770.718434
3696.375901,76.609550,296.082377,9696.697840
3696.376215,0.000000,370.102971,9918.759623
3696.376530,229.828649,370.102971,9918.759623
3696.376844,0.000000,592.164754,9844.739029
3696.377159,306.438199,370.102971,9474.636058
3696.377473,0.000000,370.102971,9696.697840
3696.377788,0.000000,444.123565,9548.656652
3696.378102,229.828649,296.082377,9326.594869
3696.378417,306.438199,740.205942,9844.739029
3696.378731,76.609550,-0.000000,9474.636058
3696.379046,0.000000,-0.000000,9474.636058
3696.379360,0.000000,222.061783,9474.636058
3696.379675,0.000000,370.102971,9770.718434
3696.379989,-153.219100,148.041188,9844.739029
3696.380304,229.828649,444.123565,9474.636058
3696.380618,76.609550,296.082377,9548.656652
3696.380933,76.609550,-0.000000,9770.718434
3696.381247,153.219100,-0.000000,9696.697840
3696.381562,459.657299,-0.000000,9696.697840
3696.381876,0.000000,-0.000000,9474.636058
3696.382191,153.219100,-74.020594,9474.636058
3696.382505,229.828649,-0.000000,9622.677246
3696.382820,153.219100,-0.000000,9474.636058
3696.383134,153.219100,-0.000000,9474.636058
3696.383449,0.000000,-0.000000,9548.656652
3696.383763,153.219100,-0.000000,9474.636058
3696.384078,383.047749,-0.000000,9326.594869
3696.384392,0.000000,-74.020594,9548.656652
3696.384707,-153.219100,-222.061783,9696.697840
3696.385021,229.828649,-0.000000,9548.656652
3696.385336,229.828649,-0.000000,9474.636058
3696.385650,229.828649,-148.041188,9326.594869
3696.385965,76.609550,-148.041188,9696.697840
3696.386279,306.438199,-74.020594,9474.636058
3696.386594,383.047749,-0.000000,9400.615463
3696.386908,306.438199,-222.061783,9622.677246
3696.387223,229.828649,-0.000000,9622.677246
3696.387537,229.828649,-74.020594,9622.677246
3696.387852,0.000000,-296.082377,9252.574275
3696.388166,153.219100,-0.000000,9252.574275
3696.388481,229.828649,-0.000000,9844.739029
3696.388795,153.219100,-0.000000,9622.677246
3696.389110,229.828649,-0.000000,9844.739029
3696.389424,-153.219100,-0.000000,9770.718434
3696.389739,0.000000,-222.061783,9474.636058
3696.390053,229.828649,296.082377,10066.800811
3696.390368,76.609550,-0.000000,9770.718434
3696.390682,459.657299,222.061783,9918.759623
3696.390997,153.219100,-74.020594,9696.697840
3696.391311,76.609550,-0.000000,9326.594869
3696.391626,153.219100,-0.000000,9622.677246
3696.391940,76.609550,296.082377,9770.718434
3696.392255,0.000000,222.061783,9696.697840
3696.392570,0.000000,370.102971,9622.677246
3696.392884,153.219100,296.082377,9474.636058
3696.393199,76.609550,222.061783,9400.615463
3696.393513,153.219100,148.041188,9548.656652
3696.393828,0.000000,-0.000000,9844.739029
3696.394142,-229.828649,-0.000000,9474.636058
3696.394457,153.219100,222.061783,9696.697840
3696.394771,76.609550,-0.000000,9622.677246
3696.395086,229.828649,296.082377,9474.636058
3696.395400,612.876398,-0.000000,9548.656652
3696.395715,229.828649,518.144159,9696.697840
3696.396029,383.047749,370.102971,9622.677246
3696.396344,536.266849,370.102971,9326.594869
3696.396658,229.828649,370.102971,9474.636058
3696.396973,153.219100,-0.000000,9844.739029
3696.397287,0.000000,-0.000000,9474.636058
3696.397602,153.219100,-0.000000,9474.636058
3696.397916,229.828649,148.041188,9696.697840
3696.398231,-229.828649,296.082377,10140.821405
3696.398545,0.000000,370.102971,9474.636058
3696.398860,-306.438199,518.144159,9178.553681
3696.399174,306.438199,-0.000000,9918.759623
3696.399489,153.219100,222.061783,9770.718434
3696.399803,76.609550,222.061783,9770.718434
3696.400118,76.609550,296.082377,9474.636058
3696.400432,76.609550,444.123565,9474.636058
3696.400747,153.219100,444.123565,9548.656652
3696.401061,229.828649,-0.000000,9696.697840
3696.401376,0.000000,-0.000000,9770.718434
3696.401690,0.000000,-0.000000,9548.656652
3696.402005,0.000000,222.061783,9400.615463
3696.402319,153.219100,-0.000000,9696.697840
3696.402634,459.657299,-74.020594,9992.780217
3696.402948,153.219100,444.123565,9770.718434
3696.403263,0.000000,-0.000000,9400.615463
3696.403577,76.609550,-0.000000,9622.677246
3696.403892,229.828649,-0.000000,9326.594869
3696.404206,0.000000,444.123565,9474.636058
3696.404521,0.000000,-0.000000,9696.697840
3696.404835,0.000000,-444.123565,9696.697840
3696.405150,153.219100,-148.041188,9548.656652
3696.405464,153.219100,222.061783,9548.656652
3696.405779,306.438199,-296.082377,9474.636058
3696.406093,76.609550,-0.000000,9622.677246
3696.406408,0.000000,-0.000000,9622.677246
3696.406722,0.000000,-148.041188,9696.697840
3696.407037,766.095498,-74.020594,9400.615463
3696.407351,229.828649,-0.000000,9326.594869
3696.407666,229.828649,-0.000000,9474.636058
3696.407980,229.828649,-0.000000,9474.636058
3696.408295,229.828649,-0.000000,9400.615463
3696.408609,229.828649,-0.000000,9548.656652
3696.408924,153.219100,-0.000000,9400.615463
3696.409238,306.438199,370.102971,9178.553681
3696.409553,229.828649,-0.000000,9474.636058
3696.409867,229.828649,-74.020594,9474.636058
3696.410182,0.000000,-74.020594,9622.677246
3696.410496,0.000000,222.061783,9844.739029
3696.410811,0.000000,296.082377,9844.739029
3696.411125,153.219100,-0.000000,9548.656652
3696.411440,76.609550,-0.000000,9474.636058
3696.411755,153.219100,-0.000000,9622.677246
3696.412069,0.000000,296.082377,9696.697840
3696.412384,76.609550,222.061783,9474.636058
3696.412698,306.438199,370.102971,9474.636058
3696.413013,0.000000,-0.000000,9474.636058
3696.413327,536.266849,-0.000000,9548.656652
3696.413642,153.219100,222.061783,9622.677246
3696.413956,153.219100,370.102971,9918.759623
3696.414271,0.000000,-0.000000,9770.718434
3696.414585,76.609550,-0.000000,9400.615463
3696.414900,76.609550,-0.000000,9918.759623
3696.415214,0.000000,-0.000000,9622.677246
3696.415529,76.609550,-0.000000,9622.677246
3696.415843,0.000000,370.102971,10140.821405
3696.416158,306.438199,-0.000000,9696.697840
3696.416472,153.219100,-0.000000,9770.718434
3696.416787,383.047749,-0.000000,9918.759623
3696.417102,459.657299,-0.000000,9992.780217
3696.417416,459.657299,222.061783,9844.739029
3696.417731,153.219100,518.144159,9696.697840
3696.418045,919.314598,444.123565,9992.780217
3696.418360,995.924147,814.226536,9252.574275
3696.418674,689.485948,444.123565,9252.574275
3696.418989,689.485948,296.082377,9326.594869
3696.419303,842.705048,814.226536,9474.636058
3696.419618,1991.848295,740.205942,9474.636058
3696.419932,1072.533697,666.185348,9326.594869
3696.420247,1225.752797,666.185348,9696.697840
3696.420561,1225.752797,592.164754,9474.636058
3696.420876,1149.143247,814.226536,9622.677246
3696.421190,1685.410096,814.226536,10214.842000
3696.421505,2068.457845,1332.370696,10140.821405
3696.421819,2451.505594,1554.432478,9622.677246
3696.422134,2451.505594,1628.453072,9474.636058
3696.422448,2911.162892,2146.597232,9178.553681
3696.422763,3217.601092,2516.700203,9178.553681
3696.423078,3140.991542,2516.700203,9030.512492
3696.423392,3370.820191,2664.741391,8956.491898
3696.423707,3600.648841,2738.761985,8512.368333
3696.424021,3677.258390,2812.782580,9178.553681
3696.424336,3524.039291,2590.720797,9104.533087
3696.424650,2834.553343,2294.638420,9252.574275
3696.424965,2757.943793,2516.700203,9696.697840
3696.425279,2528.115143,2886.803174,9178.553681
3696.425594,2681.334243,2960.823768,9178.553681
3696.425908,2757.943793,2738.761985,9400.615463
3696.426223,2681.334243,3034.844362,8734.430116
3696.426537,2374.896044,3034.844362,9178.553681
3696.426852,2221.676944,3108.864956,9252.574275
3696.427166,2068.457845,3034.844362,10066.800811
3696.427481,2451.505594,2960.823768,10288.862594
3696.427795,2068.457845,3108.864956,10436.903782
3696.428110,2068.457845,3478.967927,10584.944971
3696.428425,2528.115143,3923.091493,10510.924376
3696.428739,2451.505594,4071.132681,11399.171507
3696.429054,2681.334243,4959.379811,11029.068536
3696.429368,3064.381992,4737.318029,10066.800811
3696.429683,3064.381992,4663.297435,9474.636058
3696.429997,3217.601092,4811.338623,9252.574275
3696.430312,3830.477490,4515.256246,9252.574275
3696.430626,3447.429741,3404.947333,9622.677246
3696.430941,2451.505594,2738.761985,9918.759623
3696.431255,1762.019645,2294.638420,10066.800811
3696.431570,1455.581446,2442.679609,10510.924376
3696.431884,1455.581446,1998.556043,11325.150913
3696.432199,1455.581446,2072.576638,11695.253884
3696.432513,1302.362347,2516.700203,11325.150913
3696.432828,1378.971896,3330.926739,10807.006753
3696.433142,2145.067394,4293.194464,10214.842000
3696.433457,2451.505594,4663.297435,9252.574275
3696.433771,3524.039291,4515.256246,8290.306550
3696.434086,3370.820191,4441.235652,7698.141797
3696.434401,2834.553343,3923.091493,7846.182985
3696.434715,2298.286494,2886.803174,8808.450710
3696.435030,1838.629195,2072.576638,9548.656652
3696.435344,459.657299,962.267725,10584.944971
3696.435659,-229.828649,444.123565,11177.109724
3696.435973,-919.314598,296.082377,11843.295072
3696.436288,-995.924147,-0.000000,12139.377449
3696.436602,0.000000,518.144159,11843.295072
3696.436917,536.266849,1554.432478,10955.047942
3696.437231,1455.581446,2368.659014,9474.636058
3696.437546,2987.772442,3256.906145,8512.368333
3696.437860,4290.134789,3627.009116,7328.038826
3696.438175,4903.011187,3627.009116,7179.997637
3696.438489,4979.620737,3330.926739,7105.977043
3696.438804,4826.401637,2442.679609,6957.935855
3696.439118,4290.134789,1998.556043,7698.141797
3696.439433,2987.772442,1036.288319,8660.409521
3696.439748,1685.410096,-0.000000,9696.697840
3696.440062,-383.047749,-888.247130,10140.821405
3696.440377,-995.924147,-1184.329507,10362.883188
3696.440691,-1072.533697,-1332.370696,10881.027347
3696.441006,-306.438199,-1258.350101,11103.089130
3696.441320,153.219100,-888.247130,10955.047942
3696.441635,766.095498,-0.000000,9844.739029
3696.441949,1838.629195,1628.453072,9178.553681
3696.442264,2987.772442,2664.741391,8660.409521
3696.442578,3983.696590,3330.926739,8586.388927
3696.442893,4519.963438,3034.844362,8512.368333
3696.443207,4366.744339,2812.782580,8142.265362
3696.443522,3370.820191,2220.617826,8216.285956
3696.443836,2145.067394,1406.391290,9326.594869
3696.444151,689.485948,666.185348,9474.636058
3696.444465,-689.485948,-74.020594,10658.965565
3696.444780,-1608.800546,-962.267725,10584.944971
3696.445094,-2451.505594,-2072.576638,11029.068536
3696.445409,-2528.115143,-2368.659014,12509.480420
3696.445724,-2528.115143,-1998.556043,11917.315666
3696.446038,-1532.190996,-888.247130,11621.233289
3696.446353,0.000000,-0.000000,11177.109724
3696.446667,919.314598,666.185348,10066.800811
3696.446982,2757.943793,1776.494261,9104.533087
3696.447296,3753.867940,2516.700203,8364.327145
3696.447611,3983.696590,2960.823768,7476.080014
3696.447925,3677.258390,3256.906145,7179.997637
3696.448240,3217.601092,2886.803174,7254.018232
3696.448554,1915.238745,1850.514855,7772.162391
3696.448869,766.095498,-0.000000,8808.450710
3696.449183,-536.266849,-1258.350101,10288.862594
3696.449498,-1915.238745,-2442.679609,11695.253884
3696.449812,-2528.115143,-2738.761985,12213.398043
3696.450127,-2834.553343,-2664.741391,12509.480420
3696.450441,-2221.676944,-1776.494261,11695.253884
3696.450756,-1302.362347,-370.102971,11103.089130
3696.451071,153.219100,962.267725,9474.636058
3696.451385,1302.362347,1850.514855,7994.224174
3696.451700,2681.334243,2590.720797,7105.977043
3696.452014,2834.553343,2886.803174,7105.977043
3696.452329,2911.162892,2442.679609,6883.915261
3696.452643,2681.334243,1702.473667,7772.162391
3696.452958,1608.800546,962.267725,9400.615463
3696.453272,536.266849,222.061783,10288.862594
3696.453587,-842.705048,-518.144159,11473.192101
3696.453901,-1838.629195,-814.226536,11917.315666
3696.454216,-2221.676944,-1036.288319,11769.274478
3696.454530,-1378.971896,-888.247130,10658.965565
3696.454845,-766.095498,-74.020594,8956.491898
3696.455159,0.000000,296.082377,8290.306550
3696.455474,919.314598,814.226536,7179.997637
3696.455788,1762.019645,962.267725,6513.812290
3696.456103,2298.286494,1110.308913,7476.080014
3696.456417,1991.848295,444.123565,7994.224174
3696.456732,1532.190996,370.102971,9474.636058
3696.457047,612.876398,148.041188,10584.944971
3696.457361,0.000000,296.082377,10955.047942
3696.457676,-612.876398,370.102971,11473.192101
3696.457990,-1072.533697,962.267725,10955.047942
3696.458305,-842.705048,962.267725,10881.027347
3696.458619,-536.266849,1110.308913,9474.636058
3696.458934,459.657299,888.247130,8068.244768
3696.459248,1149.143247,962.267725,7994.224174
3696.459563,689.485948,222.061783,8364.327145
3696.459877,459.657299,-666.185348,8956.491898
3696.460192,76.609550,-962.267725,9770.718434
3696.460506,-383.047749,-1332.370696,10881.027347
3696.460821,-919.314598,-814.226536,11769.274478
3696.461135,-1378.971896,-592.164754,11917.315666
3696.461450,-1225.752797,148.041188,11843.295072
3696.461764,-842.705048,370.102971,10955.047942
3696.462079,0.000000,888.247130,9770.718434
3696.462394,689.485948,1850.514855,8364.327145
3696.462708,1762.019645,1850.514855,7254.018232
3696.463023,2145.067394,1480.411884,7105.977043
3696.463337,2145.067394,518.144159,7402.059420
3696.463652,1302.362347,-666.185348,8660.409521
3696.463966,306.438199,-1406.391290,10584.944971
3696.464281,-1225.752797,-2146.597232,12065.356855
3696.464595,-2221.676944,-2220.617826,12435.459826
3696.464910,-2451.505594,-1628.453072,13175.665768
3696.465224,-2451.505594,-962.267725,12065.356855
3696.465539,-2145.067394,-222.061783,11473.192101
3696.465853,-766.095498,962.267725,9548.656652
3696.466168,766.095498,1776.494261,7624.121203
3696.466482,1915.238745,1850.514855,6291.750507
3696.466797,2834.553343,1554.432478,5921.647536
3696.467111,2681.334243,814.226536,6957.935855
3696.467426,2221.676944,-518.144159,8364.327145
3696.467740,689.485948,-1184.329507,9770.718434
3696.468055,-766.095498,-1924.535449,11325.150913
3696.468370,-2068.457845,-2146.597232,12435.459826
3696.468684,-2451.505594,-1850.514855,12287.418637
3696.468999,-2757.943793,-1110.308913,11621.233289
3696.469313,-2298.286494,-666.185348,10362.883188
3696.469628,-1455.581446,296.082377,9326.594869
3696.469942,229.828649,740.205942,7105.977043
3696.470257,1915.238745,1184.329507,6365.771101
3696.470571,2604.724693,1332.370696,6217.729913
3696.470886,2987.772442,148.041188,7105.977043
3696.471200,2374.896044,-518.144159,8142.265362
3696.471515,1455.581446,-1036.288319,9992.780217
3696.471829,383.047749,-1702.473667,11621.233289
3696.472144,-1302.362347,-1480.411884,12139.377449
3696.472458,-1915.238745,-666.185348,11917.315666
3696.472773,-1838.629195,-370.102971,11177.109724
3696.473087,-1532.190996,-0.000000,9696.697840
3696.473402,-995.924147,666.185348,8364.327145
3696.473717,229.828649,1184.329507,7328.038826
3696.474031,1149.143247,1110.308913,6735.874072
3696.474346,1762.019645,592.164754,6957.935855
3696.474660,2068.457845,-74.020594,7920.203579
3696.474975,995.924147,-592.164754,9992.780217
3696.475289,153.219100,-1258.350101,11843.295072
3696.475604,-919.314598,-1702.473667,12583.501014
3696.475918,-1455.581446,-222.061783,12879.583391
3696.476233,-1302.362347,518.144159,12213.398043
3696.476547,-1378.971896,1480.411884,10510.924376
3696.476862,-919.314598,2368.659014,9178.553681
3696.477176,76.609550,2886.803174,7402.059420
3696.477491,1378.971896,2294.638420,6365.771101
3696.477805,2298.286494,1924.535449,6513.812290
3696.478120,2145.067394,592.164754,7328.038826
3696.478434,1532.190996,-0.000000,8586.388927
3696.478749,383.047749,-962.267725,10658.965565
3696.479063,-536.266849,-1628.453072,12287.418637
3696.479378,-1532.190996,-1184.329507,13027.624579
3696.479693,-2221.676944,-444.123565,12509.480420
3696.480007,-1838.629195,888.247130,11769.274478
3696.480322,-1455.581446,1702.473667,10288.862594
3696.480636,-306.438199,2590.720797,8586.388927
3696.480951,1455.581446,2664.741391,6957.935855
3696.481265,1762.019645,3034.844362,6735.874072
3696.481580,2911.162892,2294.638420,6809.894666
3696.481894,2681.334243,962.267725,7994.224174
3696.482209,1991.848295,222.061783,9400.615463
3696.482523,1072.533697,-1036.288319,11547.212695
3696.482838,-612.876398,-1776.494261,12583.501014
3696.483152,-1762.019645,-1628.453072,12953.603985
3696.483467,-2451.505594,-1184.329507,12583.501014
3696.483781,-2221.676944,-0.000000,11103.089130
3696.484096,-1072.533697,888.247130,9844.739029
3696.484410,-689.485948,1702.473667,8808.450710
3696.484725,536.266849,1998.556043,7476.080014
3696.485040,1915.238745,1776.494261,5995.668130
3696.485354,2528.115143,962.267725,6735.874072
3696.485669,2604.724693,148.041188,8734.430116
3696.485983,2068.457845,-518.144159,9696.697840
3696.486298,612.876398,-1406.391290,11399.171507
3696.486612,-459.657299,-1480.411884,12287.418637
3696.486927,-612.876398,-1776.494261,12287.418637
3696.487241,-1225.752797,-740.205942,11621.233289
3696.487556,-1532.190996,666.185348,10362.883188
3696.487870,-1072.533697,1110.308913,9030.512492
3696.488185,0.000000,1110.308913,7550.100608
3696.488499,995.924147,1702.473667,6735.874072
3696.488814,1455.581446,814.226536,6735.874072
3696.489128,1685.410096,-148.041188,7254.018232
3696.489443,1302.362347,-740.205942,8438.347739
3696.489757,689.485948,-1628.453072,10288.862594
3696.490072,-229.828649,-1998.556043,11695.253884
3696.490386,-1072.533697,-1776.494261,12361.439231
3696.490701,-1225.752797,-1184.329507,12287.418637
3696.491016,-1532.190996,-0.000000,11251.130318
3696.491330,-1072.533697,962.267725,9474.636058
3696.491645,0.000000,1332.370696,8068.244768
3696.491959,536.266849,1702.473667,6735.874072
3696.492274,1685.410096,1702.473667,6217.729913
3696.492588,1915.238745,740.205942,6587.832884
3696.492903,2068.457845,-0.000000,7846.182985
3696.493217,1225.752797,-1554.432478,9696.697840
3696.493532,76.609550,-2146.597232,11251.130318
3696.493846,-689.485948,-2590.720797,12213.398043
3696.494161,-1378.971896,-2220.617826,12805.562797
3696.494475,-1455.581446,-1258.350101,12435.459826
3696.494790,-1378.971896,296.082377,10955.047942
3696.495104,-995.924147,1110.308913,9326.594869
3696.495419,0.000000,1998.556043,7846.182985
3696.495733,1149.143247,2368.659014,6439.791695
3696.496048,1378.971896,1998.556043,6513.812290
3696.496362,2451.505594,1110.308913,7328.038826
3696.496677,1608.800546,-0.000000,9178.553681
3696.496992,459.657299,-1184.329507,10732.986159
3696.497306,-383.047749,-1924.535449,12139.377449
3696.497621,-1225.752797,-1998.556043,13471.748144
3696.497935,-2145.067394,-1406.391290,13841.851115
3696.498250,-1915.238745,-370.102971,12805.562797
3696.498564,-1608.800546,592.164754,10732.986159
3696.498879,-842.705048,1628.453072,9104.533087
3696.499193,383.047749,1998.556043,7476.080014
3696.499508,1378.971896,2220.617826,6143.709319
3696.499822,2145.067394,1554.432478,6735.874072
3696.500137,2145.067394,740.205942,7550.100608
3696.500451,1455.581446,-0.000000,8882.471304
3696.500766,766.095498,-740.205942,11251.130318
3696.501080,-459.657299,-1480.411884,12213.398043
3696.501395,-1225.752797,-1480.411884,12731.542202
3696.501709,-1762.019645,-962.267725,12509.480420
3696.502024,-1532.190996,370.102971,11029.068536
3696.502339,-995.924147,1036.288319,9548.656652
3696.502653,-306.438199,1924.535449,7698.141797
3696.502968,612.876398,2442.679609,6957.935855
3696.503282,1685.410096,2368.659014,6291.750507
3696.503597,2374.896044,1184.329507,7105.977043
3696.503911,1838.629195,370.102971,8512.368333
3696.504226,536.266849,-740.205942,10436.903782
3696.504540,0.000000,-1332.370696,11547.212695
3696.504855,-689.485948,-1332.370696,12287.418637
3696.505169,-1302.362347,-1258.350101,12657.521608
3696.505484,-1072.533697,-296.082377,11917.315666
3696.505798,-1072.533697,518.144159,10362.883188
3696.506113,-383.047749,1554.432478,8808.450710
3696.506427,306.438199,2146.597232,7254.018232
3696.506742,1532.190996,2590.720797,6883.915261
3696.507056,2145.067394,1850.514855,6661.853478
3696.507371,2374.896044,666.185348,7476.080014
3696.507685,1455.581446,-148.041188,9252.574275
3696.508000,536.266849,-962.267725,10436.903782
3696.508315,-153.219100,-1554.432478,12213.398043
3696.508629,-1302.362347,-1332.370696,12731.542202
3696.508944,-995.924147,-1110.308913,13175.665768
3696.509258,-1302.362347,222.061783,11251.130318
3696.509573,-842.705048,1110.308913,9474.636058
3696.509887,0.000000,1702.473667,8364.327145
3696.510202,842.705048,2220.617826,6957.935855
3696.510516,1838.629195,2072.576638,6439.791695
3696.510831,1838.629195,1184.329507,7105.977043
3696.511145,1532.190996,-0.000000,7994.224174
3696.511460,766.095498,-740.205942,9770.718434
3696.511774,0.000000,-1406.391290,11843.295072
3696.512089,-536.266849,-1850.514855,12953.603985
3696.512403,-1072.533697,-1406.391290,13027.624579
3696.512718,-1455.581446,-518.144159,11917.315666
3696.513032,-1378.971896,740.205942,10510.924376
3696.513347,-383.047749,1184.329507,8956.491898
3696.513661,842.705048,1776.494261,7476.080014
3696.513976,1685.410096,2220.617826,6439.791695
3696.514290,2221.676944,1332.370696,6883.915261
3696.514605,2068.457845,444.123565,6735.874072
3696.514919,1149.143247,-296.082377,8734.430116
3696.515234,689.485948,-1110.308913,10732.986159
3696.515548,-306.438199,-1702.473667,11769.274478
3696.515863,-1378.971896,-1924.535449,12731.542202
3696.516177,-1149.143247,-1554.432478,12361.439231
3696.516492,-1225.752797,-222.061783,11547.212695
3696.516806,-1072.533697,814.226536,9548.656652
3696.517121,-229.828649,1628.453072,7920.203579
3696.517435,766.095498,1702.473667,6735.874072
3696.517750,1608.800546,1776.494261,6439.791695
3696.518064,1608.800546,888.247130,6735.874072
3696.518379,1685.410096,-0.000000,8068.244768
3696.518693,766.095498,-666.185348,9622.677246
3696.519008,-459.657299,-1480.411884,11547.212695
3696.519322,-1225.752797,-1702.473667,12657.521608
3696.519637,-1762.019645,-1924.535449,13101.645173
3696.519951,-1685.410096,-1258.350101,12583.501014
3696.520266,-1685.410096,-0.000000,10732.986159
3696.520580,-1302.362347,518.144159,9104.533087
3696.520895,0.000000,1110.308913,7772.162391
3696.521209,689.485948,1702.473667,6291.750507
3696.521524,1149.143247,1036.288319,6291.750507
3696.521838,1685.410096,-0.000000,6957.935855
3696.522153,1072.533697,-444.123565,8512.368333
3696.522467,383.047749,-1628.453072,10658.965565
3696.522782,-383.047749,-1776.494261,11843.295072
3696.523096,-1378.971896,-1998.556043,12731.542202
3696.523411,-1378.971896,-1480.411884,12583.501014
3696.523725,-1455.581446,-666.185348,11399.171507
3696.524040,-842.705048,592.164754,9622.677246
3696.524354,306.438199,1110.308913,8142.265362
3696.524669,1072.533697,1776.494261,6735.874072
3696.524983,1762.019645,1776.494261,6439.791695
3696.525298,2451.505594,1406.391290,6883.915261
3696.525612,1685.410096,444.123565,7476.080014
3696.525927,919.314598,-740.205942,9696.697840
3696.526241,153.219100,-1332.370696,11103.089130
3696.526556,-842.705048,-1850.514855,12583.501014
3696.526870,-1302.362347,-1480.411884,12657.521608
3696.527185,-1225.752797,-888.247130,12657.521608
3696.527499,-1072.533697,370.102971,11029.068536
3696.527814,-229.828649,1406.391290,9104.533087
3696.528128,842.705048,1924.535449,7550.100608
3696.528443,1762.019645,2146.597232,6587.832884
3696.528757,2298.286494,1998.556043,6735.874072
3696.529072,2145.067394,666.185348,7254.018232
3696.529386,1608.800546,370.102971,8734.430116
3696.529701,766.095498,-444.123565,10510.924376
3696.530015,153.219100,-1406.391290,11991.336260
3696.530330,-1072.533697,-1554.432478,12583.501014
3696.530644,-1302.362347,-1184.329507,12879.583391
3696.530959,-1532.190996,148.041188,11621.233289
3696.531273,-1149.143247,592.164754,10362.883188
3696.531588,153.219100,1702.473667,8734.430116
3696.531902,1072.533697,2220.617826,7179.997637
3696.532217,1608.800546,2220.617826,6365.771101
3696.532531,1991.848295,1332.370696,6883.915261
3696.532846,1608.800546,518.144159,8216.285956
3696.533160,995.924147,-148.041188,9696.697840
3696.533475,0.000000,-962.267725,11325.150913
3696.533789,-1225.752797,-1184.329507,12509.480420
3696.534104,-1685.410096,-1036.288319,12953.603985
3696.534418,-1378.971896,-592.164754,12509.480420
3696.534733,-995.924147,740.205942,11251.130318
3696.535047,-689.485948,1406.391290,9030.512492
3696.535362,76.609550,1850.514855,7994.224174
3696.535676,919.314598,2442.679609,6513.812290
3696.535991,1991.848295,1850.514855,6439.791695
3696.536305,1915.238745,814.226536,7328.038826
3696.536620,995.924147,-0.000000,8438.347739
3696.536934,76.609550,-888.247130,10214.842000
3696.537249,-766.095498,-1332.370696,11695.253884
3696.537563,-1149.143247,-1628.453072,12435.459826
3696.537878,-1455.581446,-1258.350101,12657.521608
3696.538192,-1532.190996,-148.041188,11621.233289
3696.538507,-1072.533697,666.185348,10288.862594
3696.538821,0.000000,1406.391290,8290.306550
3696.539136,1378.971896,1998.556043,6883.915261
3696.539450,1685.410096,2220.617826,6365.771101
3696.539765,1608.800546,1480.411884,6735.874072
3696.540079,1762.019645,296.082377,7920.203579
3696.540394,459.657299,-222.061783,9474.636058
3696.540708,-229.828649,-1406.391290,11103.089130
3696.541023,-1302.362347,-2072.576638,12583.501014
3696.541337,-1915.238745,-1776.494261,13101.645173
3696.541652,-1685.410096,-962.267725,12657.521608
3696.541966,-1455.581446,-0.000000,11029.068536
3696.542281,-612.876398,444.123565,9400.615463
3696.542595,153.219100,1480.411884,8068.244768
3696.542910,766.095498,2072.576638,6587.832884
3696.543224,2068.457845,1258.350101,6513.812290
3696.543539,2145.067394,592.164754,6883.915261
3696.543853,1455.581446,-592.164754,8142.265362
3696.544168,459.657299,-1554.432478,9696.697840
3696.544482,-306.438199,-1850.514855,11177.109724
3696.544797,-1378.971896,-1924.535449,12361.439231
3696.545111,-1455.581446,-1850.514855,12213.398043
3696.545426,-842.705048,-592.164754,11917.315666
3696.545740,-995.924147,444.123565,9992.780217
3696.546055,0.000000,1184.329507,8660.409521
3696.546369,766.095498,1554.432478,7105.977043
3696.546684,2451.505594,1776.494261,6365.771101
3696.546998,2451.505594,1184.329507,6883.915261
3696.547313,2145.067394,296.082377,7550.100608
3696.547627,1149.143247,-592.164754,9326.594869
3696.547942,383.047749,-1258.350101,10881.027347
3696.548256,-766.095498,-1776.494261,11917.315666
3696.548571,-1302.362347,-1258.350101,13101.645173
3696.548885,-1378.971896,-1184.329507,12435.459826
3696.549200,-995.924147,-0.000000,11399.171507
3696.549514,-689.485948,666.185348,9622.677246
3696.549829,536.266849,1110.308913,7772.162391
3696.550143,1378.971896,1628.453072,7254.018232
3696.550458,1991.848295,1628.453072,6513.812290
3696.550772,1991.848295,740.205942,7179.997637
3696.551087,1532.190996,222.061783,8438.347739
3696.551401,1072.533697,-888.247130,10066.800811
3696.551716,0.000000,-1332.370696,11843.295072
3696.552030,-995.924147,-1480.411884,12657.521608
3696.552345,-1225.752797,-1332.370696,12509.480420
3696.552659,-1072.533697,-592.164754,11843.295072
3696.552974,-689.485948,666.185348,10436.903782
3696.553288,-306.438199,1406.391290,8512.368333
3696.553603,612.876398,1924.535449,7105.977043
3696.553917,1302.362347,2072.576638,6735.874072
3696.554232,1608.800546,962.267725,6661.853478
3696.554546,1378.971896,296.082377,7994.224174
3696.554861,689.485948,-592.164754,9104.533087
3696.555175,0.000000,-1554.432478,11103.089130
3696.555490,-1302.362347,-1554.432478,12213.398043
3696.555804,-1378.971896,-1258.350101,12657.521608
3696.556119,-1762.019645,-888.247130,12287.418637
3696.556433,-1991.848295,296.082377,11177.109724
3696.556748,-919.314598,1036.288319,9548.656652
3696.557062,383.047749,1924.535449,7994.224174
3696.557377,1608.800546,2442.679609,6143.709319
3696.557691,2374.896044,1924.535449,6587.832884
3696.558006,2068.457845,1036.288319,7105.977043
3696.558320,1455.581446,-0.000000,8290.306550
3696.558635,612.876398,-814.226536,9770.718434
3696.558949,-536.266849,-1258.350101,11621.233289
3696.559264,-1378.971896,-1702.473667,12583.501014
3696.559578,-2068.457845,-1332.370696,12657.521608
3696.559893,-1685.410096,-444.123565,11991.336260
3696.560207,-1225.752797,740.205942,10584.944971
3696.560522,-383.047749,1258.350101,9030.512492
3696.560836,689.485948,1776.494261,7476.080014
3696.561151,1685.410096,1924.535449,6957.935855
3696.561465,2221.676944,1628.453072,6661.853478
3696.561780,2145.067394,888.247130,7698.141797
3696.562094,1532.190996,222.061783,8882.471304
3696.562409,459.657299,-444.123565,10955.047942
3696.562723,0.000000,-888.247130,12361.439231
3696.563038,-919.314598,-1110.308913,12509.480420
3696.563352,-1378.971896,-1110.308913,12435.459826
3696.563667,-1455.581446,-74.020594,11547.212695
3696.563981,-995.924147,888.247130,10214.842000
3696.564296,0.000000,1258.350101,8512.368333
3696.564610,1302.362347,1776.494261,6809.894666
3696.564925,1762.019645,1332.370696,6513.812290
3696.565239,2451.505594,740.205942,6957.935855
3696.565554,1762.019645,-0.000000,7994.224174
3696.565868,766.095498,-444.123565,10066.800811
3696.566183,-153.219100,-1184.329507,11103.089130
3696.566497,-383.047749,-1258.350101,12287.418637
3696.566812,-1149.143247,-1184.329507,12583.501014
3696.567126,-1225.752797,-666.185348,12065.356855
3696.567441,-1149.143247,814.226536,11177.109724
3696.567755,-306.438199,1258.350101,9030.512492
3696.568070,1225.752797,1850.514855,8216.285956
3696.568384,1685.410096,1998.556043,6217.729913
3696.568699,1991.848295,1258.350101,6587.832884
3696.569013,1838.629195,444.123565,7254.018232
3696.569328,842.705048,-148.041188,8882.471304
3696.569642,306.438199,-1258.350101,10510.924376
3696.569957,-459.657299,-1702.473667,11695.253884
3696.570271,-1225.752797,-1554.432478,12139.377449
3696.570586,-1225.752797,-1110.308913,12065.356855
3696.570900,-1455.581446,-148.041188,11399.171507
3696.571215,-919.314598,1036.288319,9770.718434
3696.571529,459.657299,1628.453072,8142.265362
3696.571844,919.314598,1924.535449,7031.956449
3696.572158,2068.457845,2220.617826,6513.812290
3696.572473,2221.676944,1036.288319,6661.853478
3696.572787,1762.019645,370.102971,7846.182985
3696.573102,612.876398,-666.185348,9992.780217
3696.573416,-383.047749,-1332.370696,11695.253884
3696.573731,-1378.971896,-1628.453072,12287.418637
3696.574045,-2068.457845,-1258.350101,13027.624579
3696.574360,-2068.457845,-962.267725,12287.418637
3696.574674,-1838.629195,-0.000000,11399.171507
3696.574989,-842.705048,888.247130,9548.656652
3696.575303,-153.219100,1332.370696,7920.203579
3696.575618,689.485948,1924.535449,6883.915261
3696.575932,2068.457845,1702.473667,6513.812290
3696.576247,2145.067394,592.164754,7179.997637
3696.576561,1302.362347,-0.000000,8512.368333
3696.576876,0.000000,-740.205942,10214.842000
3696.577190,-536.266849,-1332.370696,11769.274478
3696.577505,-1455.581446,-1480.411884,12287.418637
3696.577819,-1762.019645,-1184.329507,12361.439231
3696.578134,-1608.800546,-74.020594,11769.274478
3696.578448,-1302.362347,592.164754,9992.780217
3696.578763,0.000000,1184.329507,9030.512492
3696.579077,766.095498,1776.494261,7254.018232
3696.579392,1685.410096,2072.576638,6291.750507
3696.579706,2068.457845,1332.370696,7179.997637
3696.580021,2145.067394,-222.061783,7846.182985
3696.580335,689.485948,-666.185348,9622.677246
3696.580650,0.000000,-1184.329507,11177.109724
3696.580964,-766.095498,-1480.411884,12361.439231
3696.581279,-1149.143247,-1258.350101,12731.542202
3696.581593,-995.924147,-814.226536,12435.459826
3696.581908,-766.095498,592.164754,10807.006753
3696.582222,-612.876398,1184.329507,9326.594869
3696.582537,995.924147,1850.514855,7698.141797
3696.582851,1455.581446,2146.597232,6439.791695
3696.583166,2604.724693,1036.288319,6735.874072
3696.583480,2221.676944,296.082377,7105.977043
3696.583795,1608.800546,-666.185348,8586.388927
3696.584109,536.266849,-1480.411884,10584.944971
3696.584424,-153.219100,-1480.411884,12509.480420
3696.584738,-1302.362347,-1554.432478,12805.562797
3696.585053,-1225.752797,-1258.350101,12657.521608
3696.585367,-995.924147,-0.000000,12139.377449
3696.585682,-1072.533697,814.226536,10140.821405
3696.585996,0.000000,1480.411884,8290.306550
3696.586311,919.314598,2072.576638,6809.894666
3696.586625,2145.067394,2146.597232,6365.771101
3696.586940,2298.286494,1480.411884,6957.935855
3696.587254,2145.067394,370.102971,7328.038826
3696.587569,1149.143247,-1258.350101,9474.636058
3696.587883,306.438199,-1924.535449,11399.171507
3696.588198,-766.095498,-1776.494261,12139.377449
3696.588512,-1608.800546,-1850.514855,13101.645173
3696.588827,-1532.190996,-666.185348,12805.562797
3696.589141,-1532.190996,-0.000000,11103.089130
3696.589456,-689.485948,1110.308913,9178.553681
3696.589770,383.047749,1628.453072,7328.038826
3696.590085,1608.800546,1998.556043,6439.791695
3696.590399,2145.067394,1702.473667,5995.668130
3696.590714,2068.457845,962.267725,7031.956449
3696.591028,1762.019645,370.102971,8734.430116
3696.591343,612.876398,-148.041188,9992.780217
3696.591657,-383.047749,-1110.308913,11843.295072
3696.591972,-1455.581446,-1332.370696,12805.562797
3696.592286,-1608.800546,-1110.308913,13027.624579
3696.592601,-1608.800546,-444.123565,11843.295072
3696.592915,-1685.410096,740.205942,10510.924376
3696.593230,-919.314598,1258.350101,9104.533087
3696.593544,76.609550,2220.617826,7402.059420
3696.593859,1225.752797,2072.576638,6513.812290
3696.594173,1608.800546,1480.411884,6661.853478
3696.594488,1685.410096,592.164754,7920.203579
3696.594802,919.314598,-148.041188,9104.533087
3696.595117,-383.047749,-962.267725,11029.068536
3696.595431,-1225.752797,-1628.453072,12657.521608
3696.595746,-1762.019645,-1628.453072,12805.562797
3696.596060,-1532.190996,-814.226536,12509.480420
3696.596375,-1608.800546,518.144159,11547.212695
3696.596689,-1225.752797,814.226536,9918.759623
3696.597004,0.000000,1702.473667,8142.265362
3696.597318,995.924147,2146.597232,6661.853478
3696.597633,2068.457845,1628.453072,6513.812290
3696.597947,2068.457845,666.185348,6957.935855
3696.598262,1455.581446,-148.041188,8068.244768
3696.598576,459.657299,-1258.350101,10066.800811
3696.598891,-689.485948,-1480.411884,11695.253884
3696.599205,-1302.362347,-1850.514855,12657.521608
3696.599520,-1455.581446,-1924.535449,12731.542202
3696.599834,-1072.533697,-666.185348,12213.398043
3696.600149,-612.876398,592.164754,10510.924376
3696.600463,229.828649,1628.453072,8290.306550
3696.600778,1302.362347,2294.638420,7031.956449
3696.601092,1762.019645,2294.638420,6291.750507
3696.601407,2298.286494,1110.308913,6143.709319
3696.601721,2145.067394,518.144159,7698.141797
3696.602036,1378.971896,-814.226536,8956.491898
3696.602350,459.657299,-1850.514855,10955.047942
3696.602665,-689.485948,-1924.535449,12139.377449
3696.602979,-1302.362347,-1554.432478,12731.542202
3696.603294,-1302.362347,-1184.329507,12731.542202
3696.603608,-1072.533697,222.061783,11029.068536
3696.603923,-536.266849,962.267725,9696.697840
3696.604237,383.047749,1628.453072,7846.182985
3696.604552,1532.190996,1998.556043,6143.709319
3696.604866,1991.848295,1850.514855,5773.606348
3696.605181,2374.896044,814.226536,6587.832884
3696.605495,1608.800546,222.061783,8068.244768
3696.605810,306.438199,-740.205942,9992.780217
3696.606124,-459.657299,-1924.535449,11399.171507
3696.606439,-1149.143247,-1554.432478,12583.501014
3696.606753,-1378.971896,-1628.453072,12805.562797
3696.607068,-1838.629195,-592.164754,12139.377449
3696.607382,-1685.410096,222.061783,10436.903782
3696.607697,-612.876398,962.267725,8808.450710
3696.608011,689.485948,1776.494261,7031.956449
3696.608326,1532.190996,1924.535449,6365.771101
3696.608640,1838.629195,1480.411884,6587.832884
3696.608955,1608.800546,740.205942,7550.100608
3696.609269,1072.533697,-74.020594,9030.512492
3696.609584,0.000000,-1110.308913,11029.068536
3696.609898,-995.924147,-1776.494261,12361.439231
3696.610213,-1685.410096,-1628.453072,13175.665768
3696.610527,-1685.410096,-1184.329507,12879.583391
3696.610842,-1225.752797,-0.000000,11695.253884
3696.611156,-919.314598,1036.288319,9992.780217
3696.611471,-229.828649,1406.391290,8216.285956
3696.611785,842.705048,2368.659014,6957.935855
3696.612100,2145.067394,1998.556043,6291.750507
3696.612414,2068.457845,962.267725,6809.894666
3696.612729,1225.752797,-0.000000,8512.368333
3696.613043,153.219100,-740.205942,10362.883188
3696.613358,-383.047749,-1258.350101,11843.295072
3696.613672,-1302.362347,-1480.411884,12805.562797
3696.613987,-1532.190996,-1184.329507,13175.665768
3696.614301,-1072.533697,-296.082377,12139.377449
3696.614616,-1225.752797,740.205942,10510.924376
3696.614930,0.000000,1480.411884,9178.553681
3696.615245,1149.143247,1998.556043,7550.100608
3696.615559,1838.629195,2590.720797,6365.771101
3696.615874,2451.505594,1924.535449,6439.791695
3696.616188,2145.067394,1036.288319,7254.018232
3696.616503,1991.848295,-0.000000,9326.594869
3696.616817,612.876398,-1258.350101,10584.944971
3696.617132,-153.219100,-1850.514855,11695.253884
3696.617446,-1225.752797,-1924.535449,12953.603985
3696.617761,-1378.971896,-1258.350101,12361.439231
3696.618075,-1149.143247,-370.102971,11843.295072
3696.618390,-995.924147,444.123565,9770.718434
3696.618704,76.609550,888.247130,8216.285956
3696.619019,1072.533697,1554.432478,6661.853478
3696.619333,1991.848295,1702.473667,6291.750507
3696.619648,1762.019645,888.247130,7031.956449
3696.619963,1455.581446,-0.000000,7624.121203
3696.620277,919.314598,-740.205942,9622.677246
3696.620592,153.219100,-1480.411884,11103.089130
3696.620906,-459.657299,-1776.494261,12139.377449
3696.621221,-919.314598,-1554.432478,12731.542202
3696.621535,-842.705048,-666.185348,11991.336260
3696.621850,-842.705048,518.144159,10362.883188
3696.622164,-383.047749,1110.308913,8660.409521
3696.622479,689.485948,1702.473667,7179.997637
3696.622793,1532.190996,1850.514855,6513.812290
3696.623108,2145.067394,1258.350101,5921.647536
3696.623422,1915.238745,296.082377,7254.018232
3696.623737,1225.752797,-0.000000,8808.450710
3696.624051,76.609550,-1036.288319,10436.903782
3696.624366,-1072.533697,-1406.391290,11695.253884
3696.624680,-1608.800546,-1628.453072,12435.459826
3696.624995,-1532.190996,-888.247130,12805.562797
3696.625309,-1378.971896,-0.000000,11621.233289
3696.625624,-689.485948,962.267725,10214.842000
3696.625938,229.828649,1998.556043,8660.409521
3696.626253,842.705048,2072.576638,6883.915261
3696.626567,1685.410096,2294.638420,6439.791695
3696.626882,1838.629195,1258.350101,7254.018232
3696.627196,1608.800546,222.061783,9104.533087
3696.627511,612.876398,-444.123565,9992.780217
3696.627825,-689.485948,-1184.329507,11177.109724
3696.628140,-1225.752797,-1258.350101,12583.501014
3696.628454,-1991.848295,-1332.370696,12879.583391
3696.628769,-1608.800546,-740.205942,12509.480420
3696.629083,-1302.362347,592.164754,11251.130318
3696.629398,-536.266849,1258.350101,9030.512492
3696.629712,306.438199,1776.494261,7402.059420
3696.630027,1149.143247,2220.617826,6735.874072
3696.630341,2221.676944,1924.535449,7105.977043
3696.630656,1762.019645,592.164754,7624.121203
3696.630970,842.705048,-0.000000,8956.491898
3696.631285,76.609550,-1036.288319,10881.027347
3696.631599,-689.485948,-1332.370696,12139.377449
3696.631914,-1225.752797,-1406.391290,12805.562797
3696.632228,-1608.800546,-1406.391290,12953.603985
3696.632543,-1685.410096,-444.123565,11769.274478
3696.632857,-995.924147,222.061783,10140.821405
3696.633172,153.219100,888.247130,8586.388927
3696.633486,1532.190996,1628.453072,7105.977043
3696.633801,2068.457845,1776.494261,6143.709319
3696.634115,2374.896044,740.205942,6513.812290
3696.634430,2145.067394,370.102971,8142.265362
3696.634744,1378.971896,-370.102971,9696.697840
3696.635059,0.000000,-1480.411884,10658.965565
3696.635373,-459.657299,-1776.494261,11843.295072
3696.635688,-1225.752797,-1776.494261,12361.439231
3696.636002,-919.314598,-814.226536,12065.356855
3696.636317,-1302.362347,296.082377,11029.068536
3696.636631,-766.095498,740.205942,9252.574275
3696.636946,766.095498,1480.411884,7624.121203
3696.637260,1685.410096,2146.597232,6587.832884
3696.637575,1915.238745,1554.432478,6439.791695
3696.637889,1991.848295,740.205942,7179.997637
3696.638204,995.924147,-592.164754,8734.430116
3696.638518,689.485948,-592.164754,10362.883188
3696.638833,76.609550,-1332.370696,11325.150913
3696.639148,-1225.752797,-1628.453072,12361.439231
3696.639462,-1225.752797,-1480.411884,12065.356855
3696.639777,-1225.752797,-148.041188,10955.047942
3696.640091,-1072.533697,740.205942,9770.718434
3696.640406,0.000000,1332.370696,8068.244768
3696.640720,689.485948,1998.556043,6809.894666
3696.641035,1608.800546,1628.453072,5921.647536
3696.641349,1915.238745,888.247130,6957.935855
3696.641664,1378.971896,296.082377,7994.224174
3696.641978,383.047749,-444.123565,9474.636058
3696.642293,-383.047749,-1332.370696,11399.171507
3696.642607,-1225.752797,-1332.370696,12361.439231
3696.642922,-1838.629195,-1184.329507,12879.583391
3696.643236,-1685.410096,-74.020594,12213.398043
3696.643551,-1455.581446,814.226536,11103.089130
3696.643865,-842.705048,1406.391290,9474.636058
3696.644180,0.000000,1850.514855,7920.203579
3696.644494,766.095498,2294.638420,6735.874072
3696.644809,1685.410096,1258.350101,6439.791695
3696.645123,2068.457845,814.226536,7179.997637
3696.645438,1072.533697,-0.000000,9178.553681
3696.645752,153.219100,-888.247130,10955.047942
3696.646067,-842.705048,-1110.308913,12213.398043
3696.646381,-1685.410096,-1332.370696,12583.501014
3696.646696,-1608.800546,-1110.308913,12509.480420
3696.647010,-1225.752797,-148.041188,11991.336260
3696.647325,-1991.848295,666.185348,10362.883188
3696.647639,-459.657299,1554.432478,8364.327145
3696.647954,766.095498,2220.617826,7402.059420
3696.648268,1225.752797,2294.638420,6735.874072
3696.648583,1685.410096,1702.473667,6957.935855
3696.648897,1302.362347,814.226536,7994.224174
3696.649212,536.266849,-222.061783,10066.800811
3696.649526,-383.047749,-1258.350101,11399.171507
3696.649841,-1302.362347,-1258.350101,12583.501014
3696.650155,-2221.676944,-1554.432478,13249.686362
3696.650470,-1608.800546,-962.267725,12509.480420
3696.650784,-1302.362347,370.102971,11103.089130
3696.651099,-612.876398,888.247130,9400.615463
3696.651413,689.485948,1184.329507,7698.141797
3696.651728,1608.800546,1850.514855,6735.874072
3696.652042,2068.457845,1628.453072,5995.668130
3696.652357,2145.067394,666.185348,7105.977043
3696.652671,1608.800546,-222.061783,8438.347739
3696.652986,1072.533697,-1406.391290,9992.780217
3696.653300,-153.219100,-2368.659014,11325.150913
3696.653615,-1149.143247,-2146.597232,12435.459826
3696.653929,-1455.581446,-1850.514855,12435.459826
3696.654244,-1302.362347,-740.205942,11473.192101
3696.654558,-995.924147,592.164754,10436.903782
3696.654873,153.219100,666.185348,8364.327145
3696.655187,1072.533697,1480.411884,7031.956449
3696.655502,2068.457845,1850.514855,6143.709319
3696.655816,2374.896044,1110.308913,6661.853478
3696.656131,2604.724693,-0.000000,7920.203579
3696.656445,1149.143247,-814.226536,9696.697840
3696.656760,229.828649,-1628.453072,10881.027347
3696.657074,-459.657299,-1554.432478,11917.315666
3696.657389,-1302.362347,-1258.350101,12435.459826
3696.657704,-919.314598,-1110.308913,12435.459826
3696.658018,-995.924147,296.082377,10658.965565
3696.658333,-766.095498,1036.288319,9400.615463
3696.658647,383.047749,1554.432478,7698.141797
3696.658962,1532.190996,1850.514855,6513.812290
3696.659276,1838.629195,1332.370696,6439.791695
3696.659591,1915.238745,592.164754,7254.018232
3696.659905,995.924147,-0.000000,8290.306550
3696.660220,689.485948,-740.205942,10066.800811
3696.660534,-229.828649,-1258.350101,11695.253884
3696.660849,-1378.971896,-1480.411884,12509.480420
3696.661163,-1455.581446,-1332.370696,12731.542202
3696.661478,-1762.019645,-0.000000,11991.336260
3696.661792,-1455.581446,888.247130,10214.842000
3696.662107,-459.657299,1036.288319,8586.388927
3696.662421,612.876398,1998.556043,7254.018232
3696.662736,1608.800546,2072.576638,6365.771101
3696.663050,1532.190996,1480.411884,6587.832884
3696.663365,842.705048,370.102971,8142.265362
3696.663679,536.266849,-740.205942,9474.636058
3696.663994,-383.047749,-1110.308913,11843.295072
3696.664308,-1149.143247,-1702.473667,12583.501014
3696.664623,-1991.848295,-1258.350101,12805.562797
3696.664937,-1762.019645,-518.144159,12583.501014
3696.665252,-1608.800546,370.102971,11325.150913
3696.665566,-842.705048,1184.329507,10066.800811
3696.665881,459.657299,1554.432478,8290.306550
3696.666195,1378.971896,2072.576638,6513.812290
3696.666510,2221.676944,1776.494261,6587.832884
3696.666824,2604.724693,666.185348,7402.059420
3696.667139,1915.238745,296.082377,8438.347739
3696.667453,766.095498,-592.164754,9918.759623
3696.667768,-383.047749,-1332.370696,11325.150913
3696.668082,-1149.143247,-1332.370696,12805.562797
3696.668397,-1302.362347,-1554.432478,12509.480420
3696.668711,-1225.752797,-370.102971,12065.356855
3696.669026,-766.095498,518.144159,10881.027347
3696.669340,-229.828649,1554.432478,8512.368333
3696.669655,689.485948,2146.597232,7105.977043
3696.669969,1915.238745,1924.535449,6735.874072
3696.670284,2068.457845,1332.370696,7105.977043
3696.670598,2068.457845,222.061783,7624.121203
3696.670913,1072.533697,-444.123565,9178.553681
3696.671227,-383.047749,-1332.370696,11029.068536
3696.671542,-995.924147,-1406.391290,12509.480420
3696.671856,-1455.581446,-1406.391290,12879.583391
3696.672171,-1455.581446,-1258.350101,12731.542202
3696.672485,-689.485948,-0.000000,11251.130318
3696.672800,-766.095498,666.185348,9474.636058
3696.673114,536.266849,1702.473667,7698.141797
3696.673429,2374.896044,1554.432478,6735.874072
3696.673743,2451.505594,1702.473667,5625.565159
3696.674058,2528.115143,888.247130,6365.771101
3696.674372,1838.629195,148.041188,7624.121203
3696.674687,766.095498,-962.267725,9696.697840
3696.675001,76.609550,-1702.473667,11103.089130
3696.675316,-766.095498,-1924.535449,12213.398043
3696.675630,-995.924147,-1332.370696,12657.521608
3696.675945,-1072.533697,-370.102971,11769.274478
3696.676259,-766.095498,370.102971,10066.800811
3696.676574,-383.047749,1332.370696,8808.450710
3696.676889,842.705048,2072.576638,6957.935855
3696.677203,1608.800546,2294.638420,6365.771101
3696.677518,1915.238745,1554.432478,6957.935855
3696.677832,1838.629195,666.185348,8512.368333
3696.678147,842.705048,-444.123565,9326.594869
3696.678461,0.000000,-1036.288319,10881.027347
3696.678776,-995.924147,-1628.453072,12583.501014
3696.679090,-1455.581446,-1258.350101,13175.665768
3696.679405,-2298.286494,-592.164754,12879.583391
3696.679719,-1532.190996,518.144159,11473.192101
3696.680034,-1149.143247,1258.350101,9400.615463
3696.680348,229.828649,1998.556043,7920.203579
3696.680663,919.314598,2368.659014,6587.832884
3696.680977,1762.019645,1924.535449,6291.750507
3696.681292,1532.190996,1110.308913,7031.956449
3696.681606,995.924147,-0.000000,8068.244768
3696.681921,229.828649,-666.185348,10214.842000
3696.682235,-459.657299,-1332.370696,11843.295072
3696.682550,-1455.581446,-1258.350101,12731.542202
3696.682864,-2221.676944,-1110.308913,13027.624579
3696.683179,-2068.457845,-0.000000,12509.480420
3696.683493,-1762.019645,740.205942,10955.047942
3696.683808,-1072.533697,1332.370696,9326.594869
3696.684122,229.828649,1998.556043,7476.080014
3696.684437,1225.752797,2368.659014,6883.915261
3696.684751,1838.629195,1776.494261,6957.935855
3696.685066,1608.800546,962.267725,7624.121203
3696.685380,1149.143247,-222.061783,9178.553681
3696.685695,153.219100,-1406.391290,10955.047942
3696.686009,-689.485948,-1628.453072,11991.336260
3696.686324,-1302.362347,-1776.494261,12879.583391
3696.686638,-1608.800546,-1776.494261,12583.501014
3696.686953,-919.314598,-148.041188,11177.109724
3696.687267,-1149.143247,222.061783,9548.656652
3696.687582,0.000000,1036.288319,8216.285956
3696.687896,1225.752797,1628.453072,6809.894666
3696.688211,1838.629195,1628.453072,6217.729913
3696.688525,2451.505594,666.185348,6809.894666
3696.688840,1762.019645,-0.000000,7698.141797
3696.689154,842.705048,-814.226536,9844.739029
3696.689469,306.438199,-1406.391290,11621.233289
3696.689783,-612.876398,-1850.514855,12509.480420
3696.690098,-995.924147,-1628.453072,12805.562797
3696.690412,-842.705048,-518.144159,12287.418637
3696.690727,-919.314598,296.082377,10807.006753
3696.691041,0.000000,1036.288319,8956.491898
3696.691356,1149.143247,1554.432478,7254.018232
3696.691670,1608.800546,1776.494261,6513.812290
3696.691985,1991.848295,1258.350101,6439.791695
3696.692299,2374.896044,370.102971,7105.977043
3696.692614,1302.362347,-888.247130,8586.388927
3696.692928,459.657299,-1850.514855,10140.821405
3696.693243,-919.314598,-2220.617826,11843.295072
3696.693557,-1378.971896,-1850.514855,12065.356855
3696.693872,-1149.143247,-1406.391290,12139.377449
3696.694186,-1149.143247,-222.061783,11251.130318
3696.694501,-612.876398,592.164754,9696.697840
3696.694815,229.828649,1628.453072,7550.100608
3696.695130,1225.752797,1332.370696,6439.791695
3696.695445,1762.019645,1628.453072,6809.894666
3696.695759,1608.800546,1332.370696,6883.915261
3696.696074,1608.800546,-0.000000,8068.244768
3696.696388,459.657299,-1036.288319,9844.739029
3696.696703,-153.219100,-1554.432478,11695.253884
3696.697017,-1225.752797,-2220.617826,12509.480420
3696.697332,-1685.410096,-1406.391290,12805.562797
3696.697646,-1532.190996,-518.144159,13027.624579
3696.697961,-1455.581446,814.226536,10807.006753
3696.698275,-459.657299,1332.370696,8734.430116
3696.698590,459.657299,1998.556043,7105.977043
3696.698904,1149.143247,2368.659014,6143.709319
3696.699219,1991.848295,1702.473667,6809.894666
3696.699533,1608.800546,740.205942,7698.141797
3696.699848,766.095498,-0.000000,8956.491898
3696.700162,-229.828649,-1036.288319,10584.944971
3696.700477,-995.924147,-1036.288319,11917.315666
3696.700791,-1915.238745,-1554.432478,13397.727550
3696.701106,-2068.457845,-1110.308913,13619.789333
3696.701420,-1915.238745,-0.000000,12139.377449
3696.701735,-1532.190996,1332.370696,10288.862594
3696.702049,0.000000,2220.617826,8512.368333
3696.702364,919.314598,2812.782580,7624.121203
3696.702678,1838.629195,2516.700203,6809.894666
3696.702993,2451.505594,1702.473667,6957.935855
3696.703307,2145.067394,592.164754,7846.182985
3696.703622,919.314598,-666.185348,9696.697840
3696.703936,-383.047749,-962.267725,11547.212695
3696.704251,-1532.190996,-1554.432478,12805.562797
3696.704565,-1838.629195,-1776.494261,12657.521608
3696.704880,-1762.019645,-1036.288319,12065.356855
3696.705194,-919.314598,-0.000000,11325.150913
3696.705509,-766.095498,962.267725,8956.491898
3696.705823,536.266849,1850.514855,7328.038826
3696.706138,1762.019645,2146.597232,6291.750507
3696.706452,1991.848295,1776.494261,6069.688724
3696.706767,2451.505594,888.247130,7105.977043
3696.707081,1455.581446,-74.020594,8660.409521
3696.707396,842.705048,-1036.288319,10066.800811
3696.707710,-229.828649,-1406.391290,11473.192101
3696.708025,-1072.533697,-1258.350101,12361.439231
3696.708339,-1532.190996,-1332.370696,13249.686362
3696.708654,-1532.190996,-444.123565,11843.295072
3696.708968,-1072.533697,444.123565,9844.739029
3696.709283,76.609550,962.267725,8290.306550
3696.709597,1302.362347,1776.494261,7105.977043
3696.709912,1762.019645,1628.453072,6513.812290
3696.710226,2221.676944,1184.329507,6883.915261
3696.710541,1838.629195,222.061783,7624.121203
3696.710855,1225.752797,-814.226536,9104.533087
3696.711170,306.438199,-1332.370696,11029.068536
3696.711484,-383.047749,-1628.453072,11843.295072
3696.711799,-919.314598,-1110.308913,12583.501014
3696.712114,-1072.533697,-666.185348,12065.356855
3696.712429,-766.095498,370.102971,10732.986159
3696.712743,-536.266849,1554.432478,9178.553681
3696.713058,536.266849,1702.473667,7846.182985
3696.713372,1378.971896,1924.535449,6735.874072
3696.713686,2068.457845,1850.514855,6217.729913
3696.714001,2145.067394,666.185348,7105.977043
3696.714315,1532.190996,-74.020594,8660.409521
3696.714630,229.828649,-1184.329507,10066.800811
3696.714944,-459.657299,-1480.411884,12139.377449
3696.715259,-1685.410096,-2146.597232,13027.624579
3696.715573,-1685.410096,-1184.329507,12657.521608
3696.715887,-1455.581446,-518.144159,12065.356855
3696.716202,-1149.143247,444.123565,10584.944971
3696.716516,-383.047749,1628.453072,8882.471304
3696.716831,766.095498,2368.659014,6809.894666
3696.717145,1378.971896,2368.659014,6513.812290
3696.717460,1838.629195,1406.391290,6883.915261
3696.717774,1072.533697,444.123565,7846.182985
3696.718088,689.485948,-222.061783,9400.615463
3696.718403,-229.828649,-1332.370696,11029.068536
3696.718717,-995.924147,-1628.453072,12361.439231
3696.719032,-1762.019645,-1628.453072,12509.480420
3696.719346,-1762.019645,-962.267725,13027.624579
3696.719661,-1915.238745,222.061783,11473.192101
3696.719975,-1685.410096,1036.288319,9548.656652
3696.720289,229.828649,1480.411884,7772.162391
3696.720604,919.314598,2072.576638,7105.977043
3696.720918,1685.410096,1998.556043,7105.977043
3696.721233,1991.848295,814.226536,7031.956449
3696.721547,1378.971896,518.144159,8290.306550
3696.721861,459.657299,-518.144159,10436.903782
3696.722176,-383.047749,-1480.411884,11547.212695
3696.722490,-1455.581446,-1406.391290,13175.665768
3696.722805,-1532.190996,-1406.391290,13027.624579
3696.723119,-1762.019645,-740.205942,12213.398043
3696.723434,-1072.533697,370.102971,10510.924376
3696.723748,-229.828649,962.267725,9178.553681
3696.724062,536.266849,1776.494261,7846.182985
3696.724377,1225.752797,1998.556043,6143.709319
3696.724691,1915.238745,1036.288319,6661.853478
3696.725006,1838.629195,592.164754,7328.038826
3696.725320,1072.533697,-370.102971,9252.574275
3696.725635,76.609550,-1480.411884,11251.130318
3696.725949,-689.485948,-1850.514855,12139.377449
3696.726263,-1532.190996,-1776.494261,12731.542202
3696.726578,-766.095498,-1480.411884,12065.356855
3696.726892,-689.485948,296.082377,10955.047942
3696.727207,-459.657299,888.247130,9548.656652
3696.727521,766.095498,1554.432478,7698.141797
3696.727836,1302.362347,2294.638420,6217.729913
3696.728150,2221.676944,1628.453072,5773.606348
3696.728464,2451.505594,814.226536,6735.874072
3696.728779,1838.629195,-0.000000,7698.141797
3696.729093,766.095498,-1258.350101,9992.780217
3696.729408,-153.219100,-2146.597232,11621.233289
3696.729722,-919.314598,-2368.659014,12287.418637
3696.730036,-1532.190996,-1702.473667,12731.542202
3696.730351,-1378.971896,-740.205942,11695.253884
3696.730665,-919.314598,740.205942,10584.944971
3696.730980,0.000000,1036.288319,8734.430116
3696.731294,1302.362347,1998.556043,7254.018232
3696.731609,2068.457845,2294.638420,6513.812290
3696.731923,2374.896044,1406.391290,6365.771101
3696.732237,2451.505594,962.267725,7105.977043
3696.732552,1838.629195,-0.000000,9326.594869
3696.732866,229.828649,-1110.308913,10955.047942
3696.733181,-536.266849,-1406.391290,12287.418637
3696.733495,-1685.410096,-1480.411884,13175.665768
3696.733810,-1532.190996,-1480.411884,12953.603985
3696.734124,-995.924147,-0.000000,11473.192101
3696.734438,-1072.533697,1258.350101,10214.842000
3696.734753,0.000000,1628.453072,8586.388927
3696.735067,1072.533697,2220.617826,7105.977043
3696.735382,1685.410096,1998.556043,5995.668130
3696.735696,2451.505594,1184.329507,6587.832884
3696.736010,1225.752797,148.041188,8290.306550
3696.736325,306.438199,-444.123565,10362.883188
3696.736639,-536.266849,-1332.370696,11769.274478
3696.736954,-1455.581446,-1480.411884,12805.562797
3696.737268,-2068.457845,-1184.329507,12879.583391
3696.737583,-1915.238745,-222.061783,12361.439231
3696.737897,-1991.848295,592.164754,10807.006753
3696.738211,-919.314598,1628.453072,9178.553681
3696.738526,76.609550,2146.597232,7550.100608
3696.738840,1225.752797,2146.597232,6513.812290
3696.739155,1455.581446,1332.370696,6957.935855
3696.739469,1378.971896,666.185348,7920.203579
3696.739784,766.095498,-296.082377,9252.574275
3696.740098,0.000000,-1258.350101,11029.068536
3696.740412,-689.485948,-1850.514855,11843.295072
3696.740727,-1378.971896,-1480.411884,13027.624579
3696.741041,-1685.410096,-1184.329507,12879.583391
3696.741356,-1072.533697,-0.000000,11325.150913
3696.741670,-536.266849,814.226536,9622.677246
3696.741985,612.876398,1554.432478,7920.203579
3696.742299,1225.752797,2368.659014,6883.915261
3696.742613,1991.848295,2072.576638,6069.688724
3696.742928,2068.457845,962.267725,6661.853478
3696.743242,1302.362347,-0.000000,7772.162391
3696.743557,689.485948,-1258.350101,10288.862594
3696.743871,-76.609550,-1702.473667,11917.315666
3696.744185,-1149.143247,-2072.576638,13101.645173
3696.744500,-1532.190996,-1480.411884,13249.686362
3696.744814,-1455.581446,-740.205942,12361.439231
3696.745129,-612.876398,814.226536,10658.965565
3696.745443,0.000000,1258.350101,9252.574275
3696.745758,1149.143247,1924.535449,7476.080014
3696.746072,2298.286494,2516.700203,6217.729913
3696.746386,2681.334243,1924.535449,5773.606348
3696.746701,2451.505594,888.247130,7105.977043
3696.747015,1455.581446,-444.123565,8586.388927
3696.747330,383.047749,-1480.411884,10510.924376
3696.747644,-536.266849,-2072.576638,11769.274478
3696.747959,-1149.143247,-2294.638420,12879.583391
3696.748273,-1302.362347,-2294.638420,13175.665768
3696.748587,-1378.971896,-444.123565,11621.233289
3696.748902,-1378.971896,370.102971,9474.636058
3696.749216,76.609550,1480.411884,7994.224174
3696.749531,1455.581446,1924.535449,6587.832884
3696.749845,1991.848295,2072.576638,5995.668130
3696.750159,2451.505594,1258.350101,6587.832884
3696.750474,2145.067394,296.082377,7476.080014
3696.750788,1072.533697,-592.164754,9474.636058
3696.751103,0.000000,-1184.329507,11029.068536
3696.751417,-612.876398,-1628.453072,12583.501014
3696.751732,-1532.190996,-1924.535449,12879.583391
3696.752046,-1532.190996,-888.247130,12435.459826
3696.752360,-1532.190996,518.144159,10955.047942
3696.752675,-766.095498,1184.329507,8956.491898
3696.752989,306.438199,1776.494261,7698.141797
3696.753304,842.705048,2220.617826,6513.812290
3696.753618,1532.190996,1406.391290,6365.771101
3696.753933,1302.362347,444.123565,7105.977043
3696.754247,995.924147,-296.082377,8734.430116
3696.754561,229.828649,-740.205942,10584.944971
3696.754876,-919.314598,-1110.308913,12065.356855
3696.755190,-1838.629195,-1184.329507,12805.562797
3696.755505,-1685.410096,-814.226536,12805.562797
3696.755819,-1455.581446,370.102971,11917.315666
3696.756134,-1455.581446,962.267725,10066.800811
3696.756448,-229.828649,1924.535449,8216.285956
3696.756762,536.266849,2294.638420,7402.059420
3696.757077,995.924147,1850.514855,6735.874072
3696.757391,1225.752797,1036.288319,6661.853478
3696.757706,1149.143247,-0.000000,7920.203579
3696.758020,153.219100,-1036.288319,10140.821405
3696.758334,-689.485948,-1480.411884,11399.171507
3696.758649,-1225.752797,-1776.494261,12805.562797
3696.758963,-1915.238745,-1628.453072,13175.665768
3696.759278,-1532.190996,-888.247130,12509.480420
3696.759592,-1302.362347,444.123565,10362.883188
3696.759907,-459.657299,1258.350101,9030.512492
3696.760221,1149.143247,2146.597232,7402.059420
3696.760535,1608.800546,2442.679609,6365.771101
3696.760850,1991.848295,1924.535449,6143.709319
3696.761164,1838.629195,666.185348,7031.956449
3696.761479,1149.143247,-148.041188,8808.450710
3696.761793,612.876398,-1110.308913,10732.986159
3696.762108,-536.266849,-1924.535449,12287.418637
3696.762422,-1685.410096,-2368.659014,12805.562797
3696.762736,-1532.190996,-1776.494261,12805.562797
3696.763051,-1455.581446,-814.226536,11769.274478
3696.763365,-536.266849,370.102971,9770.718434
3696.763680,383.047749,1628.453072,8364.327145
3696.763994,1685.410096,1924.535449,6735.874072
3696.764309,2451.505594,1924.535449,5995.668130
3696.764623,2834.553343,814.226536,5921.647536
3696.764937,2298.286494,296.082377,7624.121203
3696.765252,1608.800546,-444.123565,8882.471304
3696.765566,383.047749,-1258.350101,10881.027347
3696.765881,-306.438199,-1628.453072,12213.398043
3696.766195,-1225.752797,-1924.535449,12435.459826
3696.766509,-1378.971896,-1258.350101,12435.459826
3696.766824,-1455.581446,-148.041188,10881.027347
3696.767138,-766.095498,814.226536,9548.656652
3696.767453,459.657299,1184.329507,7624.121203
3696.767767,1072.533697,1776.494261,6735.874072
3696.768082,1915.238745,1554.432478,6513.812290
3696.768396,1838.629195,666.185348,6957.935855
3696.768710,1378.971896,-370.102971,8660.409521
3696.769025,689.485948,-1184.329507,10732.986159
3696.769339,-536.266849,-1628.453072,11547.212695
3696.769654,-1302.362347,-1702.473667,12435.459826
3696.769968,-1608.800546,-1036.288319,12361.439231
3696.770283,-1302.362347,-592.164754,12065.356855
3696.770597,-1302.362347,518.144159,10288.862594
3696.770911,-306.438199,1554.432478,8660.409521
3696.771226,612.876398,2072.576638,6661.853478
3696.771540,1225.752797,1924.535449,6291.750507
3696.771855,1685.410096,1184.329507,6809.894666
3696.772169,1608.800546,-0.000000,7772.162391
3696.772483,383.047749,-814.226536,9400.615463
3696.772798,-306.438199,-1554.432478,11547.212695
3696.773112,-1608.800546,-1480.411884,12657.521608
3696.773427,-2221.676944,-1480.411884,13249.686362
3696.773741,-1608.800546,-592.164754,12731.542202
3696.774056,-1149.143247,296.082377,10955.047942
3696.774370,-842.705048,1036.288319,9400.615463
3696.774684,306.438199,2072.576638,8364.327145
3696.774999,1532.190996,1998.556043,6513.812290
3696.775313,1991.848295,1998.556043,5995.668130
3696.775628,2221.676944,1036.288319,7105.977043
3696.775942,1532.190996,222.061783,8512.368333
3696.776257,459.657299,-666.185348,10436.903782
3696.776571,-459.657299,-1628.453072,11843.295072
3696.776885,-1838.629195,-1628.453072,12731.542202
3696.777200,-1838.629195,-1184.329507,13249.686362
3696.777514,-1532.190996,-296.082377,12213.398043
3696.777829,-1072.533697,740.205942,11251.130318
3696.778143,-306.438199,1184.329507,8808.450710
3696.778458,1072.533697,1702.473667,7031.956449
3696.778772,1915.238745,2220.617826,6513.812290
3696.779086,2145.067394,1406.391290,6883.915261
3696.779401,2068.457845,370.102971,7624.121203
3696.779715,766.095498,-148.041188,8956.491898
3696.780030,306.438199,-1110.308913,11029.068536
3696.780344,-612.876398,-1628.453072,11917.315666
3696.780658,-1072.533697,-1258.350101,12879.583391
3696.780973,-1225.752797,-1110.308913,13027.624579
3696.781287,-842.705048,370.102971,11473.192101
3696.781602,-536.266849,1110.308913,9400.615463
3696.781916,766.095498,1702.473667,7698.141797
3696.782231,1838.629195,2220.617826,6587.832884
3696.782545,2298.286494,1850.514855,5847.626942
3696.782859,2681.334243,814.226536,7031.956449
3696.783174,1991.848295,-0.000000,7994.224174
3696.783488,919.314598,-962.267725,9474.636058
3696.783803,0.000000,-1110.308913,11029.068536
3696.784117,-842.705048,-1258.350101,12139.377449
3696.784432,-1225.752797,-1480.411884,12805.562797
3696.784746,-1149.143247,-296.082377,12065.356855
3696.785060,-995.924147,1036.288319,10436.903782
3696.785375,-306.438199,1776.494261,9104.533087
3696.785689,995.924147,2072.576638,7624.121203
3696.786004,1991.848295,2220.617826,6069.688724
3696.786318,2221.676944,1480.411884,6735.874072
3696.786632,1915.238745,518.144159,7772.162391
3696.786947,766.095498,-0.000000,9548.656652
3696.787261,-306.438199,-740.205942,11251.130318
3696.787576,-995.924147,-1258.350101,12435.459826
3696.787890,-1838.629195,-1258.350101,13249.686362
3696.788205,-1532.190996,-888.247130,12879.583391
3696.788519,-1532.190996,222.061783,11547.212695
3696.788833,-842.705048,1184.329507,9844.739029
3696.789148,76.609550,1628.453072,7994.224174
3696.789462,1225.752797,2442.679609,6291.750507
3696.789777,1685.410096,1850.514855,6143.709319
3696.790091,1838.629195,962.267725,6957.935855
3696.790406,1149.143247,222.061783,8290.306550
3696.790720,306.438199,-962.267725,9770.718434
3696.791034,-689.485948,-1628.453072,11695.253884
3696.791349,-1532.190996,-1554.432478,12583.501014
3696.791663,-1991.848295,-1628.453072,13101.645173
3696.791978,-2068.457845,-814.226536,12509.480420
3696.792292,-1685.410096,-0.000000,10955.047942
3696.792607,-459.657299,1480.411884,9178.553681
3696.792921,612.876398,2072.576638,7550.100608
3696.793235,1378.971896,2442.679609,6439.791695
3696.793550,2374.896044,1480.411884,6735.874072
3696.793864,1838.629195,666.185348,7402.059420
3696.794179,995.924147,-148.041188,8882.471304
3696.794493,229.828649,-1184.329507,10807.006753
3696.794807,-459.657299,-1998.556043,12213.398043
3696.795122,-2068.457845,-2072.576638,13027.624579
3696.795436,-1532.190996,-1628.453072,12657.521608
3696.795751,-1455.581446,-444.123565,11399.171507
3696.796065,-995.924147,666.185348,9844.739029
3696.796380,153.219100,1332.370696,8364.327145
3696.796694,1302.362347,1924.535449,6809.894666
3696.797008,2145.067394,1924.535449,5625.565159
3696.797323,2451.505594,962.267725,6661.853478
3696.797637,1838.629195,-0.000000,8290.306550
3696.797952,995.924147,-1332.370696,10066.800811
3696.798266,153.219100,-1776.494261,11177.109724
3696.798581,-995.924147,-1628.453072,11991.336260
3696.798895,-1378.971896,-1406.391290,12731.542202
3696.799209,-1302.362347,-518.144159,12287.418637
3696.799524,-1225.752797,222.061783,10807.006753
3696.799838,-459.657299,1036.288319,9400.615463
3696.800153,459.657299,1480.411884,7328.038826
3696.800467,1302.362347,1554.432478,6735.874072
3696.800782,1685.410096,888.247130,6513.812290
3696.801096,1685.410096,-0.000000,7698.141797
3696.801410,919.314598,-962.267725,9104.533087
3696.801725,0.000000,-1554.432478,10584.944971
3696.802039,-383.047749,-1702.473667,12139.377449
3696.802354,-1302.362347,-1850.514855,12509.480420
3696.802668,-1532.190996,-1406.391290,12583.501014
3696.802982,-919.314598,-222.061783,11251.130318
3696.803297,-536.266849,962.267725,9400.615463
3696.803611,459.657299,1776.494261,8068.244768
3696.803926,1378.971896,2072.576638,7031.956449
3696.804240,1455.581446,1628.453072,6439.791695
3696.804555,2221.676944,740.205942,6291.750507
3696.804869,1302.362347,148.041188,7698.141797
3696.805183,383.047749,-888.247130,10066.800811
3696.805498,0.000000,-1332.370696,11325.150913
3696.805812,-1302.362347,-1332.370696,12731.542202
3696.806127,-1838.629195,-1628.453072,12509.480420
3696.806441,-1532.190996,-740.205942,12065.356855
3696.806756,-1149.143247,518.144159,10732.986159
3696.807070,-612.876398,1480.411884,9474.636058
3696.807384,842.705048,2368.659014,7772.162391
3696.807699,1915.238745,2738.761985,6513.812290
3696.808013,2145.067394,2442.679609,6587.832884
3696.808328,1915.238745,740.205942,7698.141797
3696.808642,1072.533697,-0.000000,9030.512492
3696.808956,0.000000,-1258.350101,10732.986159
3696.809271,-995.924147,-1332.370696,11843.295072
3696.809585,-1762.019645,-1258.350101,12583.501014
3696.809900,-1915.238745,-1258.350101,12731.542202
3696.810214,-1608.800546,-0.000000,11917.315666
3696.810529,-1149.143247,1036.288319,10066.800811
3696.810843,76.609550,1998.556043,7920.203579
3696.811157,919.314598,2516.700203,6587.832884
3696.811472,2145.067394,2516.700203,6735.874072
3696.811786,1685.410096,1554.432478,6957.935855
3696.812101,1225.752797,-0.000000,7772.162391
3696.812415,459.657299,-518.144159,9548.656652
3696.812730,-536.266849,-1480.411884,11325.150913
3696.813044,-1072.533697,-1332.370696,12509.480420
3696.813358,-1915.238745,-1480.411884,13027.624579
3696.813673,-1762.019645,-888.247130,12287.418637
3696.813987,-1378.971896,444.123565,11177.109724
3696.814302,-689.485948,1258.350101,9474.636058
3696.814616,0.000000,1702.473667,7624.121203
3696.814930,1378.971896,2146.597232,7031.956449
3696.815245,1838.629195,1628.453072,6439.791695
3696.815559,2221.676944,888.247130,7105.977043
3696.815874,1608.800546,-296.082377,8660.409521
3696.816188,536.266849,-1332.370696,10732.986159
3696.816502,-153.219100,-1480.411884,11843.295072
3696.816817,-1225.752797,-1332.370696,12287.418637
3696.817131,-1302.362347,-1554.432478,12879.583391
3696.817446,-995.924147,-518.144159,11991.336260
3696.817760,-766.095498,592.164754,10140.821405
3696.818075,306.438199,1332.370696,7994.224174
3696.818389,1455.581446,1850.514855,6809.894666
3696.818703,2221.676944,2294.638420,6661.853478
3696.819018,2911.162892,1332.370696,6439.791695
3696.819332,1915.238745,592.164754,7846.182985
3696.819647,1072.533697,-666.185348,9474.636058
3696.819961,306.438199,-1258.350101,10955.047942
3696.820275,-689.485948,-1628.453072,12139.377449
3696.820590,-919.314598,-1480.411884,12731.542202
3696.820904,-1455.581446,-814.226536,12361.439231
3696.821219,-1225.752797,444.123565,10658.965565
3696.821533,-536.266849,888.247130,9104.533087
3696.821847,612.876398,1554.432478,7624.121203
3696.822162,1302.362347,1924.535449,6365.771101
3696.822476,1915.238745,1702.473667,6291.750507
3696.822791,1378.971896,444.123565,7105.977043
3696.823105,689.485948,-370.102971,8586.388927
3696.823419,76.609550,-1184.329507,10214.842000
3696.823734,-536.266849,-1998.556043,11843.295072
3696.824048,-1762.019645,-1554.432478,12953.603985
3696.824363,-1915.238745,-1258.350101,13027.624579
3696.824677,-1608.800546,-148.041188,11843.295072
3696.824992,-766.095498,1110.308913,10214.842000
3696.825306,229.828649,1776.494261,8586.388927
3696.825620,1225.752797,2220.617826,7031.956449
3696.825935,1762.019645,1850.514855,6587.832884
3696.826249,2298.286494,1110.308913,7031.956449
3696.826564,1915.238745,296.082377,7402.059420
3696.826878,766.095498,-740.205942,9252.574275
3696.827192,-612.876398,-1480.411884,11325.150913
3696.827507,-1532.190996,-1924.535449,12287.418637
3696.827821,-1762.019645,-1776.494261,12361.439231
3696.828136,-1762.019645,-1036.288319,12287.418637
3696.828450,-1455.581446,296.082377,10881.027347
3696.828764,-766.095498,1258.350101,9178.553681
3696.829079,306.438199,1998.556043,7772.162391
3696.829393,1378.971896,2368.659014,6883.915261
3696.829708,1838.629195,1480.411884,6957.935855
3696.830022,2145.067394,814.226536,7550.100608
3696.830336,1225.752797,370.102971,8734.430116
3696.830651,153.219100,-296.082377,10362.883188
3696.830965,-766.095498,-1110.308913,11917.315666
3696.831280,-1915.238745,-1110.308913,13027.624579
3696.831594,-1532.190996,-1258.350101,13397.727550
3696.831909,-1532.190996,-370.102971,12065.356855
3696.832223,-1072.533697,592.164754,10288.862594
3696.832537,-229.828649,1258.350101,8586.388927
3696.832852,1302.362347,1850.514855,7105.977043
3696.833166,1762.019645,1998.556043,6291.750507
3696.833481,2221.676944,1554.432478,6365.771101
3696.833795,1915.238745,518.144159,7179.997637
3696.834109,766.095498,-370.102971,8660.409521
3696.834424,383.047749,-1036.288319,11103.089130
3696.834738,-919.314598,-1702.473667,12065.356855
3696.835053,-1378.971896,-1554.432478,12879.583391
3696.835367,-1302.362347,-962.267725,12731.542202
3696.835681,-1149.143247,222.061783,11251.130318
3696.835996,-459.657299,1258.350101,9548.656652
3696.836310,536.266849,1924.535449,8068.244768
3696.836625,1608.800546,2294.638420,6809.894666
3696.836939,2221.676944,1702.473667,6661.853478
3696.837253,2221.676944,740.205942,7031.956449
3696.837568,1608.800546,-148.041188,8660.409521
3696.837882,306.438199,-1184.329507,10288.862594
3696.838197,-306.438199,-1628.453072,11991.336260
3696.838511,-1302.362347,-1628.453072,12583.501014
3696.838826,-1455.581446,-1406.391290,12435.459826
3696.839140,-1455.581446,-592.164754,11547.212695
3696.839454,-383.047749,740.205942,10140.821405
3696.839769,306.438199,1850.514855,8586.388927
3696.840083,1378.971896,2146.597232,6883.915261
3696.840398,1685.410096,2220.617826,6069.688724
3696.840712,2451.505594,1332.370696,6883.915261
3696.841026,1991.848295,370.102971,7772.162391
3696.841341,1072.533697,-814.226536,9400.615463
3696.841655,0.000000,-1406.391290,11177.109724
3696.841970,-1302.362347,-1628.453072,12435.459826
3696.842284,-1915.238745,-1406.391290,12953.603985
3696.842598,-1991.848295,-962.267725,13101.645173
3696.842913,-1532.190996,444.123565,11473.192101
3696.843227,-1072.533697,1036.288319,9474.636058
3696.843542,153.219100,1776.494261,7920.203579
3696.843856,1072.533697,2072.576638,6809.894666
3696.844170,1762.019645,1702.473667,6291.750507
3696.844485,1991.848295,814.226536,6809.894666
3696.844799,842.705048,-0.000000,8068.244768
3696.845114,76.609550,-1258.350101,10214.842000
3696.845428,-995.924147,-1776.494261,11399.171507
3696.845743,-2298.286494,-1850.514855,12509.480420
3696.846057,-2451.505594,-1850.514855,12805.562797
3696.846371,-1991.848295,-740.205942,11917.315666
3696.846686,-1685.410096,370.102971,10288.862594
3696.847000,-459.657299,1258.350101,8734.430116
3696.847315,919.314598,1998.556043,7402.059420
3696.847629,1685.410096,2072.576638,6069.688724
3696.847943,1915.238745,1776.494261,6365.771101
3696.848258,1455.581446,74.020594,7772.162391
3696.848572,459.657299,-370.102971,9178.553681
3696.848887,-229.828649,-1406.391290,10732.986159
3696.849201,-995.924147,-1776.494261,12287.418637
3696.849515,-1149.143247,-1554.432478,12805.562797
3696.849830,-1378.971896,-1110.308913,12731.542202
3696.850144,-1455.581446,296.082377,11325.150913
3696.850459,-612.876398,666.185348,9474.636058
3696.850773,383.047749,1406.391290,7772.162391
3696.851087,1302.362347,1628.453072,6513.812290
3696.851402,2221.676944,1850.514855,6143.709319
3696.851716,2068.457845,518.144159,6957.935855
3696.852031,1072.533697,-296.082377,8142.265362
3696.852345,536.266849,-962.267725,10362.883188
3696.852660,-459.657299,-1702.473667,11473.192101
3696.852974,-1072.533697,-1924.535449,12509.480420
3696.853288,-1302.362347,-1480.411884,13175.665768
3696.853603,-1225.752797,-592.164754,12287.418637
3696.853917,-766.095498,814.226536,10362.883188
3696.854232,0.000000,1554.432478,8882.471304
3696.854546,1302.362347,2294.638420,6957.935855
3696.854860,2145.067394,2368.659014,6217.729913
3696.855175,2298.286494,1480.411884,6661.853478
3696.855489,2145.067394,296.082377,7402.059420
3696.855804,1685.410096,-666.185348,8956.491898
3696.856118,612.876398,-1406.391290,10807.006753
3696.856432,-689.485948,-1776.494261,11843.295072
3696.856747,-1149.143247,-1776.494261,12583.501014
3696.857061,-1378.971896,-1110.308913,12731.542202
3696.857376,-995.924147,296.082377,11251.130318
3696.857690,-383.047749,1036.288319,9548.656652
3696.858004,536.266849,2072.576638,7698.141797
3696.858319,1608.800546,2294.638420,6513.812290
3696.858633,2298.286494,1998.556043,6217.729913
3696.858948,2068.457845,888.247130,7105.977043
3696.859262,1378.971896,-148.041188,8512.368333
3696.859577,536.266849,-962.267725,10510.924376
3696.859891,-689.485948,-1258.350101,11621.233289
3696.860205,-1072.533697,-1406.391290,12879.583391
3696.860520,-1532.190996,-1110.308913,13545.768739
3696.860834,-1608.800546,-148.041188,12657.521608
3696.861149,-1302.362347,888.247130,11029.068536
3696.861463,-306.438199,1702.473667,8956.491898
3696.861777,1149.143247,2368.659014,7254.018232
3696.862092,1532.190996,2664.741391,6439.791695
3696.862406,2068.457845,1776.494261,6661.853478
3696.862721,1762.019645,518.144159,7624.121203
3696.863035,842.705048,-370.102971,8882.471304
3696.863349,-229.828649,-962.267725,10807.006753
3696.863664,-1225.752797,-1184.329507,12509.480420
3696.863978,-1838.629195,-1332.370696,13175.665768
3696.864293,-2145.067394,-1110.308913,13027.624579
3696.864607,-1838.629195,-0.000000,11695.253884
3696.864921,-1302.362347,1036.288319,9844.739029
3696.865236,153.219100,2220.617826,8142.265362
3696.865550,995.924147,2368.659014,6957.935855
3696.865865,1378.971896,2368.659014,6143.709319
3696.866179,1915.238745,1406.391290,6883.915261
3696.866494,1378.971896,222.061783,7920.203579
3696.866808,459.657299,-888.247130,10066.800811
3696.867122,-689.485948,-1480.411884,11769.274478
3696.867437,-1838.629195,-1702.473667,12435.459826
3696.867751,-2068.457845,-1406.391290,13027.624579
3696.868066,-2221.676944,-888.247130,12361.439231
3696.868380,-1608.800546,-74.020594,11029.068536
3696.868694,-612.876398,1110.308913,8586.388927
3696.869009,459.657299,1628.453072,7105.977043
3696.869323,1685.410096,2368.659014,6365.771101
3696.869638,2221.676944,1628.453072,5995.668130
3696.869952,2068.457845,592.164754,6513.812290
3696.870266,1608.800546,-296.082377,8364.327145
3696.870581,612.876398,-1258.350101,10066.800811
3696.870895,-306.438199,-1776.494261,11991.336260
3696.871210,-1149.143247,-1776.494261,12657.521608
3696.871524,-1378.971896,-1480.411884,12953.603985
3696.871839,-1378.971896,-592.164754,11769.274478
3696.872153,-842.705048,444.123565,10140.821405
3696.872467,0.000000,962.267725,8364.327145
3696.872782,995.924147,1628.453072,7105.977043
3696.873096,1991.848295,1924.535449,6217.729913
3696.873411,2145.067394,1110.308913,6587.832884
3696.873725,2374.896044,-0.000000,7772.162391
3696.874039,1302.362347,-1036.288319,9918.759623
3696.874354,306.438199,-1554.432478,11547.212695
3696.874668,-612.876398,-2146.597232,13027.624579
3696.874983,-1149.143247,-1184.329507,13101.645173
3696.875297,-919.314598,-370.102971,12435.459826
3696.875611,-919.314598,962.267725,10955.047942
3696.875926,0.000000,1554.432478,8956.491898
3696.876240,1149.143247,1850.514855,7402.059420
3696.876555,1838.629195,2220.617826,6291.750507
3696.876869,1915.238745,1628.453072,6217.729913
3696.877183,1915.238745,444.123565,7105.977043
3696.877498,1455.581446,-370.102971,8438.347739
3696.877812,0.000000,-1258.350101,10732.986159
3696.878127,-1378.971896,-2072.576638,12509.480420
3696.878441,-1455.581446,-1776.494261,12879.583391
3696.878756,-1838.629195,-1554.432478,13249.686362
3696.879070,-1608.800546,-370.102971,11917.315666
3696.879384,-1072.533697,962.267725,10214.842000
3696.879699,153.219100,1776.494261,8068.244768
3696.880013,1149.143247,2220.617826,6809.894666
3696.880328,2298.286494,2368.659014,5773.606348
3696.880642,2068.457845,1184.329507,6439.791695
3696.880956,1838.629195,-74.020594,7624.121203
3696.881271,536.266849,-740.205942,9474.636058
3696.881585,0.000000,-1776.494261,11473.192101
3696.881900,-1455.581446,-1702.473667,12583.501014
3696.882214,-2145.067394,-2072.576638,13175.665768
3696.882528,-1991.848295,-888.247130,12583.501014
3696.882843,-1838.629195,-74.020594,10881.027347
3696.883157,-995.924147,666.185348,8882.471304
3696.883472,306.438199,1480.411884,7994.224174
3696.883786,1225.752797,2220.617826,6587.832884
3696.884100,1762.019645,1776.494261,5921.647536
3696.884415,1532.190996,1258.350101,7105.977043
3696.884729,536.266849,-74.020594,8808.450710
3696.885044,0.000000,-666.185348,10510.924376
3696.885358,-919.314598,-1332.370696,12213.398043
3696.885673,-1915.238745,-1332.370696,13323.706956
3696.885987,-1838.629195,-1332.370696,13027.624579
3696.886301,-1149.143247,-74.020594,11621.233289
3696.886616,-1302.362347,518.144159,10066.800811
3696.886930,0.000000,1554.432478,8512.368333
3696.887245,766.095498,1998.556043,6661.853478
3696.887559,2298.286494,1924.535449,5921.647536
3696.887873,2451.505594,1332.370696,6069.688724
3696.888188,2221.676944,-0.000000,7402.059420
3696.888502,1072.533697,-888.247130,8734.430116
3696.888817,76.609550,-1998.556043,10658.965565
3696.889131,-919.314598,-1776.494261,12435.459826
3696.889445,-1532.190996,-1406.391290,12213.398043
3696.889760,-1455.581446,-1184.329507,12731.542202
3696.890074,-1225.752797,296.082377,11695.253884
3696.890389,-689.485948,1628.453072,9474.636058
3696.890703,1072.533697,1850.514855,7698.141797
3696.891017,1991.848295,2590.720797,6735.874072
3696.891332,2451.505594,2072.576638,6513.812290
3696.891646,2068.457845,1184.329507,6957.935855
3696.891961,1302.362347,-0.000000,8586.388927
3696.892275,689.485948,-1332.370696,10658.965565
3696.892590,-383.047749,-1776.494261,11843.295072
3696.892904,-689.485948,-1480.411884,13027.624579
3696.893218,-1225.752797,-1110.308913,13101.645173
3696.893533,-766.095498,-74.020594,11843.295072
3696.893847,-383.047749,1036.288319,9844.739029
3696.894162,383.047749,1998.556043,8290.306550
3696.894476,1225.752797,2738.761985,6809.894666
3696.894790,2145.067394,2516.700203,5921.647536
3696.895105,2374.896044,1332.370696,6217.729913
3696.895419,2221.676944,370.102971,7550.100608
3696.895734,1072.533697,-370.102971,9696.697840
3696.896048,-306.438199,-1332.370696,11621.233289
3696.896362,-995.924147,-1258.350101,12657.521608
3696.896677,-1838.629195,-1406.391290,13693.809927
3696.896991,-1838.629195,-962.267725,13175.665768
3696.897306,-1608.800546,444.123565,11843.295072
3696.897620,-1072.533697,1184.329507,9844.739029
3696.897934,76.609550,2072.576638,8068.244768
3696.898249,1225.752797,2590.720797,6587.832884
3696.898563,1915.238745,1776.494261,6291.750507
3696.898878,2528.115143,666.185348,7031.956449
3696.899192,1378.971896,-370.102971,8142.265362
3696.899507,459.657299,-1184.329507,9844.739029
3696.899821,-459.657299,-1628.453072,11473.192101
3696.900135,-1378.971896,-1628.453072,12139.377449
3696.900450,-1685.410096,-1480.411884,12953.603985
3696.900764,-1685.410096,-740.205942,11917.315666
3696.901079,-1072.533697,222.061783,10140.821405
3696.901393,-229.828649,1184.329507,8364.327145
3696.901707,842.705048,1702.473667,6957.935855
3696.902022,1838.629195,1554.432478,6217.729913
3696.902336,2068.457845,1184.329507,6291.750507
3696.902651,1838.629195,222.061783,7698.141797
3696.902965,612.876398,-592.164754,8808.450710
3696.903279,0.000000,-1480.411884,11103.089130
3696.903594,-1072.533697,-1850.514855,12361.439231
3696.903908,-1838.629195,-1702.473667,13027.624579
3696.904223,-1685.410096,-1110.308913,13175.665768
3696.904537,-1608.800546,-0.000000,11177.109724
3696.904851,-842.705048,1036.288319,9400.615463
3696.905166,766.095498,1628.453072,7920.203579
3696.905480,1072.533697,1850.514855,6809.894666
3696.905795,1149.143247,1332.370696,6291.750507
3696.906109,1685.410096,592.164754,6587.832884
3696.906424,1072.533697,-370.102971,7994.224174
3696.906738,459.657299,-1036.288319,10066.800811
3696.907052,-459.657299,-1554.432478,11547.212695
3696.907367,-1149.143247,-1924.535449,12287.418637
3696.907681,-1532.190996,-1702.473667,12731.542202
3696.907996,-1225.752797,-518.144159,12287.418637
3696.908310,-919.314598,518.144159,10807.006753
3696.908624,0.000000,1628.453072,8882.471304
3696.908939,842.705048,2146.597232,7254.018232
3696.909253,2068.457845,2146.597232,5995.668130
3696.909568,2528.115143,1258.350101,6439.791695
3696.909882,1838.629195,370.102971,7624.121203
3696.910196,842.705048,-592.164754,9474.636058
3696.910511,-229.828649,-1406.391290,11103.089130
3696.910825,-1149.143247,-1776.494261,12287.418637
3696.911140,-1532.190996,-1554.432478,12879.583391
3696.911454,-1532.190996,-1332.370696,12953.603985
3696.911768,-766.095498,-148.041188,11843.295072
3696.912083,-536.266849,1110.308913,9770.718434
3696.912397,689.485948,1850.514855,8068.244768
3696.912712,1685.410096,2368.659014,6661.853478
3696.913026,2221.676944,2294.638420,6217.729913
3696.913341,2221.676944,1110.308913,6883.915261
3696.913655,2068.457845,-74.020594,7846.182985
3696.913970,1072.533697,-592.164754,9918.759623
3696.914284,-306.438199,-1554.432478,11547.212695
3696.914599,-995.924147,-1702.473667,12287.418637
3696.914913,-1225.752797,-1332.370696,12953.603985
3696.915228,-1378.971896,-444.123565,12065.356855
3696.915542,-689.485948,740.205942,10658.965565
3696.915857,0.000000,1776.494261,8882.471304
3696.916171,919.314598,2146.597232,7179.997637
3696.916486,1608.800546,2220.617826,6143.709319
3696.916800,2145.067394,1554.432478,6513.812290
3696.917115,1685.410096,296.082377,7476.080014
3696.917429,689.485948,-370.102971,9178.553681
3696.917744,0.000000,-1184.329507,11251.130318
3696.918058,-689.485948,-1480.411884,11991.336260
3696.918373,-1455.581446,-1258.350101,12731.542202
3696.918687,-1532.190996,-518.144159,12953.603985
3696.919002,-1225.752797,-0.000000,11325.150913
3696.919317,-612.876398,1258.350101,9770.718434
3696.919631,383.047749,1924.535449,7994.224174
3696.919946,383.047749,2442.679609,6291.750507
3696.920260,1762.019645,1850.514855,5921.647536
3696.920575,1762.019645,814.226536,6735.874072
3696.920889,1149.143247,-74.020594,8216.285956
3696.921204,76.609550,-888.247130,10140.821405
3696.921518,-536.266849,-1850.514855,11695.253884
3696.921833,-1991.848295,-1628.453072,12435.459826
3696.922147,-1838.629195,-1406.391290,12583.501014
3696.922462,-1455.581446,-518.144159,12287.418637
3696.922776,-1149.143247,592.164754,10732.986159
3696.923091,-153.219100,1554.432478,9104.533087
3696.923405,842.705048,2368.659014,7254.018232
3696.923720,1685.410096,2294.638420,6143.709319
3696.924034,1762.019645,1776.494261,5995.668130
3696.924349,2145.067394,666.185348,7105.977043
3696.924663,995.924147,-814.226536,9548.656652
3696.924978,-306.438199,-1628.453072,10807.006753
3696.925292,-1225.752797,-2220.617826,12657.521608
3696.925607,-1991.848295,-1850.514855,12657.521608
3696.925921,-1838.629195,-1480.411884,13027.624579
3696.926236,-1302.362347,-296.082377,11917.315666
3696.926550,-766.095498,666.185348,10288.862594
3696.926865,612.876398,2072.576638,8586.388927
3696.927180,1608.800546,2368.659014,6809.894666
3696.927494,2374.896044,2146.597232,6291.750507
3696.927809,2451.505594,1332.370696,6735.874072
3696.928123,1838.629195,-0.000000,7994.224174
3696.928438,995.924147,-814.226536,10066.800811
3696.928752,0.000000,-1554.432478,11621.233289
3696.929067,-1072.533697,-1776.494261,12361.439231
3696.929381,-1455.581446,-1332.370696,13101.645173
3696.929696,-1685.410096,-814.226536,12583.501014
3696.930010,-1378.971896,222.061783,11325.150913
3696.930325,-766.095498,1036.288319,9400.615463
3696.930639,689.485948,1628.453072,7550.100608
3696.930954,2221.676944,2146.597232,6365.771101
3696.931268,2451.505594,1702.473667,6513.812290
3696.931583,2145.067394,888.247130,7031.956449
3696.931897,1378.971896,-222.061783,8512.368333
3696.932212,689.485948,-1110.308913,10436.903782
3696.932526,76.609550,-1776.494261,11843.295072
3696.932841,-1149.143247,-1332.370696,12509.480420
3696.933155,-1455.581446,-1184.329507,12731.542202
3696.933470,-1378.971896,-444.123565,11621.233289
3696.933784,-1149.143247,444.123565,9918.759623
3696.934099,229.828649,1406.391290,7920.203579
3696.934413,766.095498,1406.391290,6661.853478
3696.934728,1378.971896,1184.329507,6143.709319
3696.935043,1532.190996,740.205942,6291.750507
3696.935357,919.314598,-0.000000,7994.224174
3696.935672,229.828649,-962.267725,9992.780217
3696.935986,-306.438199,-1702.473667,11473.192101
3696.936301,-1608.800546,-1554.432478,12583.501014
3696.936615,-1532.190996,-1406.391290,13175.665768
3696.936930,-1455.581446,-666.185348,12435.459826
3696.937244,-1455.581446,1110.308913,10807.006753
3696.937559,-842.705048,1776.494261,9252.574275
3696.937873,689.485948,2294.638420,7105.977043
3696.938188,1378.971896,2294.638420,6069.688724
3696.938502,2068.457845,1628.453072,6143.709319
3696.938817,1915.238745,592.164754,7105.977043
3696.939131,612.876398,-592.164754,8808.450710
3696.939446,-459.657299,-1258.350101,10658.965565
3696.939760,-1378.971896,-1628.453072,12213.398043
3696.940075,-2451.505594,-1850.514855,12805.562797
3696.940389,-2374.896044,-1628.453072,13323.706956
3696.940704,-1608.800546,-148.041188,11991.336260
3696.941018,-1149.143247,962.267725,9918.759623
3696.941333,153.219100,2442.679609,8142.265362
3696.941647,1685.410096,2812.782580,6439.791695
3696.941962,2068.457845,2368.659014,5847.626942
3696.942276,2298.286494,1628.453072,6291.750507
3696.942591,1685.410096,-0.000000,7550.100608
3696.942906,766.095498,-740.205942,9770.718434
3696.943220,-229.828649,-1406.391290,11547.212695
3696.943535,-1302.362347,-1776.494261,12805.562797
3696.943849,-1838.629195,-1776.494261,13619.789333
3696.944164,-1762.019645,-962.267725,13323.706956
3696.944478,-1149.143247,-0.000000,11473.192101
3696.944793,-153.219100,1036.288319,9474.636058
3696.945107,919.314598,2072.576638,7846.182985
3696.945422,1991.848295,2220.617826,6439.791695
3696.945736,2528.115143,1628.453072,5995.668130
3696.946051,2911.162892,592.164754,6587.832884
3696.946365,1915.238745,-74.020594,8290.306550
3696.946680,919.314598,-1110.308913,10214.842000
3696.946994,0.000000,-1628.453072,11843.295072
3696.947309,-1149.143247,-1776.494261,13027.624579
3696.947623,-1302.362347,-1406.391290,12731.542202
3696.947938,-1072.533697,-592.164754,11843.295072
3696.948252,-612.876398,518.144159,10658.965565
3696.948567,0.000000,1184.329507,8586.388927
3696.948881,919.314598,1998.556043,6883.915261
3696.949196,2221.676944,1850.514855,5921.647536
3696.949510,2374.896044,1480.411884,6587.832884
3696.949825,1532.190996,-148.041188,7772.162391
3696.950139,689.485948,-888.247130,9622.677246
3696.950454,0.000000,-1554.432478,11177.109724
3696.950769,-1072.533697,-1998.556043,12287.418637
3696.951083,-1762.019645,-2072.576638,13101.645173
3696.951398,-1608.800546,-1110.308913,13101.645173
3696.951712,-1608.800546,296.082377,11177.109724
3696.952027,-842.705048,1184.329507,9178.553681
3696.952341,612.876398,1850.514855,7031.956449
3696.952656,1072.533697,2220.617826,6069.688724
3696.952970,1532.190996,1628.453072,5625.565159
3696.953285,1685.410096,740.205942,6587.832884
3696.953599,612.876398,-518.144159,8142.265362
3696.953914,-229.828649,-1850.514855,10362.883188
3696.954228,-1072.533697,-2072.576638,12213.398043
3696.954543,-2145.067394,-1998.556043,12879.583391
3696.954857,-1991.848295,-1702.473667,13175.665768
3696.955172,-1608.800546,-74.020594,12287.418637
3696.955486,-1225.752797,1406.391290,10140.821405
3696.955801,0.000000,1998.556043,8586.388927
3696.956115,919.314598,2442.679609,6809.894666
3696.956430,2068.457845,2294.638420,5847.626942
3696.956744,2221.676944,1628.453072,5773.606348
3696.957059,2068.457845,222.061783,7550.100608
3696.957373,1225.752797,-888.247130,9474.636058
3696.957688,0.000000,-1258.350101,11547.212695
3696.958002,-919.314598,-1480.411884,12139.377449
3696.958317,-1762.019645,-1776.494261,13027.624579
3696.958632,-1762.019645,-962.267725,13397.727550
3696.958946,-1302.362347,-0.000000,11621.233289
3696.959261,-919.314598,1480.411884,9622.677246
3696.959575,229.828649,1776.494261,8142.265362
3696.959890,1378.971896,2294.638420,6217.729913
3696.960204,1991.848295,1776.494261,6143.709319
3696.960519,2068.457845,1036.288319,6957.935855
3696.960833,1302.362347,-0.000000,8808.450710
3696.961148,459.657299,-740.205942,10510.924376
3696.961462,-459.657299,-1554.432478,11621.233289
3696.961777,-1455.581446,-1628.453072,13397.727550
3696.962091,-1685.410096,-1628.453072,13619.789333
3696.962406,-1149.143247,-888.247130,12879.583391
3696.962720,-1072.533697,666.185348,10732.986159
3696.963035,0.000000,1850.514855,9252.574275
3696.963349,1149.143247,2442.679609,6587.832884
3696.963664,1991.848295,2368.659014,5625.565159
3696.963978,2528.115143,1776.494261,5995.668130
3696.964293,1915.238745,222.061783,6809.894666
3696.964607,1302.362347,-1036.288319,8882.471304
3696.964922,459.657299,-1480.411884,10881.027347
3696.965236,-995.924147,-1702.473667,12213.398043
3696.965551,-1685.410096,-1702.473667,13027.624579
3696.965865,-1762.019645,-1110.308913,13323.706956
3696.966180,-1149.143247,-0.000000,11695.253884
3696.966495,-995.924147,1332.370696,9326.594869
3696.966809,306.438199,2072.576638,7328.038826
3696.967124,1072.533697,2368.659014,6365.771101
3696.967438,2451.505594,1924.535449,5477.523971
3696.967753,2145.067394,1480.411884,6883.915261
3696.968067,1685.410096,-0.000000,7846.182985
3696.968382,995.924147,-888.247130,9918.759623
3696.968696,-383.047749,-1776.494261,11695.253884
3696.969011,-1149.143247,-2072.576638,12361.439231
3696.969325,-1378.971896,-1554.432478,13249.686362
3696.969640,-1685.410096,-740.205942,12509.480420
3696.969954,-1149.143247,444.123565,10584.944971
3696.970269,-383.047749,1480.411884,8882.471304
3696.970583,919.314598,1924.535449,6809.894666
3696.970898,1991.848295,2294.638420,5699.585753
3696.971212,2221.676944,1110.308913,6143.709319
3696.971527,1915.238745,-0.000000,7550.100608
3696.971841,842.705048,-444.123565,9474.636058
3696.972156,229.828649,-1332.370696,10807.006753
3696.972470,-306.438199,-1554.432478,12583.501014
3696.972785,-1225.752797,-1628.453072,13027.624579
3696.973099,-1532.190996,-962.267725,12953.603985
3696.973414,-1072.533697,-0.000000,11843.295072
3696.973728,0.000000,1036.288319,9770.718434
3696.974043,536.266849,2146.597232,7476.080014
3696.974358,1378.971896,2664.741391,6143.709319
3696.974672,1838.629195,2146.597232,6735.874072
3696.974987,2298.286494,814.226536,6587.832884
3696.975301,1225.752797,-296.082377,8216.285956
3696.975616,0.000000,-1036.288319,10214.842000
3696.975930,-766.095498,-1702.473667,11843.295072
3696.976245,-1532.190996,-1998.556043,13101.645173
3696.976559,-2145.067394,-1628.453072,13323.706956
3696.976874,-1608.800546,-888.247130,12953.603985
3696.977188,-1149.143247,592.164754,11103.089130
3696.977503,-306.438199,1850.514855,8882.471304
3696.977817,1149.143247,2294.638420,7105.977043
3696.978132,1991.848295,2072.576638,5699.585753
3696.978446,2757.943793,2072.576638,5995.668130
3696.978761,2528.115143,740.205942,7031.956449
3696.979075,1378.971896,-296.082377,8734.430116
3696.979390,306.438199,-1184.329507,10807.006753
3696.979704,-612.876398,-1628.453072,12065.356855
3696.980019,-1685.410096,-1850.514855,12953.603985
3696.980333,-2298.286494,-1554.432478,13101.645173
3696.980648,-1532.190996,-370.102971,12287.418637
3696.980962,-1225.752797,370.102971,9844.739029
3696.981277,-459.657299,962.267725,7994.224174
3696.981591,536.266849,1924.535449,7105.977043
3696.981906,1455.581446,2072.576638,6439.791695
3696.982220,1762.019645,1184.329507,6957.935855
3696.982535,1532.190996,148.041188,8142.265362
3696.982850,229.828649,-444.123565,9696.697840
3696.983164,0.000000,-1628.453072,11399.171507
3696.983479,-1072.533697,-1554.432478,12583.501014
3696.983793,-1915.238745,-1702.473667,13027.624579
3696.984108,-1532.190996,-1036.288319,11917.315666
3696.984422,-1225.752797,370.102971,10955.047942
3696.984737,-536.266849,1406.391290,8882.471304
3696.985051,612.876398,1850.514855,7105.977043
3696.985366,1378.971896,1998.556043,6143.709319
3696.985680,2145.067394,740.205942,5625.565159
3696.985995,1685.410096,296.082377,6957.935855
3696.986309,842.705048,-740.205942,8290.306550
3696.986624,0.000000,-1628.453072,10362.883188
3696.986938,-536.266849,-1924.535449,11991.336260
3696.987253,-1302.362347,-1850.514855,12879.583391
3696.987567,-1225.752797,-1554.432478,12731.542202
3696.987882,-995.924147,-148.041188,11547.212695
3696.988196,-612.876398,1110.308913,10140.821405
3696.988511,306.438199,2072.576638,8216.285956
3696.988825,1455.581446,2368.659014,6439.791695
3696.989140,2298.286494,2072.576638,6069.688724
3696.989454,2451.505594,888.247130,6365.771101
3696.989769,1838.629195,-0.000000,8068.244768
3696.990083,229.828649,-1184.329507,9992.780217
3696.990398,0.000000,-1924.535449,11547.212695
3696.990713,-1149.143247,-1924.535449,12657.521608
3696.991027,-1302.362347,-1184.329507,13397.727550
3696.991342,-1149.143247,-888.247130,13027.624579
3696.991656,-766.095498,962.267725,11103.089130
3696.991971,0.000000,1628.453072,9178.553681
3696.992285,1149.143247,2368.659014,7179.997637
3696.992600,2451.505594,2368.659014,6069.688724
3696.992914,2374.896044,1924.535449,5847.626942
3696.993229,2374.896044,1036.288319,7105.977043
3696.993543,1149.143247,-222.061783,8586.388927
3696.993858,229.828649,-1110.308913,10436.903782
3696.994172,-689.485948,-1702.473667,12065.356855
3696.994487,-1915.238745,-1628.453072,13027.624579
3696.994801,-2298.286494,-1554.432478,13027.624579
3696.995116,-1915.238745,-592.164754,12287.418637
3696.995430,-1225.752797,518.144159,10510.924376
3696.995745,0.000000,1332.370696,8808.450710
3696.996059,306.438199,2072.576638,6883.915261
3696.996374,1762.019645,2072.576638,5995.668130
3696.996688,2145.067394,1480.411884,6217.729913
3696.997003,1762.019645,370.102971,7328.038826
3696.997317,689.485948,-814.226536,9622.677246
3696.997632,-306.438199,-1554.432478,11325.150913
3696.997946,-842.705048,-1776.494261,12435.459826
3696.998261,-1378.971896,-1554.432478,12509.480420
3696.998576,-1302.362347,-814.226536,12287.418637
3696.998890,-1455.581446,222.061783,11325.150913
3696.999205,-229.828649,740.205942,9548.656652
3696.999519,229.828649,1480.411884,7920.203579
3696.999834,1685.410096,2294.638420,6291.750507
3697.000148,2221.676944,2072.576638,5921.647536
3697.000463,2451.505594,814.226536,6587.832884
3697.000777,2068.457845,-0.000000,8290.306550
3697.001092,459.657299,-1110.308913,10066.800811
3697.001406,-459.657299,-1332.370696,11547.212695
3697.001721,-919.314598,-1332.370696,12435.459826
3697.002035,-1302.362347,-1184.329507,12731.542202
3697.002350,-1149.143247,-0.000000,12879.583391
3697.002664,-1149.143247,1036.288319,10584.944971
3697.002979,76.609550,1998.556043,8290.306550
3697.003293,995.924147,2220.617826,6735.874072
3697.003608,1302.362347,2368.659014,6291.750507
3697.003922,1685.410096,1554.432478,7105.977043
3697.004237,1378.971896,370.102971,7772.162391
3697.004551,612.876398,-814.226536,9474.636058
3697.004866,-229.828649,-1480.411884,11399.171507
3697.005180,-1072.533697,-1850.514855,12657.521608
3697.005495,-1532.190996,-1554.432478,13471.748144
3697.005809,-1532.190996,-962.267725,12879.583391
3697.006124,-995.924147,518.144159,11177.109724
3697.006439,0.000000,1628.453072,9104.533087
3697.006753,842.705048,2516.700203,7179.997637
3697.007068,1685.410096,2368.659014,6513.812290
3697.007382,2451.505594,1776.494261,5625.565159
3697.007697,2298.286494,740.205942,6587.832884
3697.008011,1302.362347,-444.123565,8586.388927
3697.008326,0.000000,-1036.288319,10658.965565
3697.008640,-842.705048,-1554.432478,11843.295072
3697.008955,-1378.971896,-1480.411884,12805.562797
3697.009269,-1378.971896,-1258.350101,13027.624579
3697.009584,-1532.190996,-74.020594,12139.377449
3697.009898,-919.314598,740.205942,10584.944971
3697.010213,-383.047749,1776.494261,8808.450710
3697.010527,766.095498,2442.679609,6957.935855
3697.010842,1532.190996,2442.679609,5847.626942
3697.011156,1838.629195,1924.535449,6365.771101
3697.011471,1685.410096,-0.000000,7772.162391
3697.011785,766.095498,-592.164754,9326.594869
3697.012100,0.000000,-1406.391290,11177.109724
3697.012414,-1378.971896,-1554.432478,12583.501014
3697.012729,-2298.286494,-1406.391290,13175.665768
3697.013043,-2068.457845,-1184.329507,13175.665768
3697.013358,-1685.410096,-0.000000,11547.212695
3697.013672,-1225.752797,666.185348,9474.636058
3697.013987,306.438199,1332.370696,7550.100608
3697.014302,995.924147,1998.556043,6957.935855
3697.014616,1838.629195,1332.370696,6587.832884
3697.014931,1991.848295,740.205942,7031.956449
3697.015245,1532.190996,-0.000000,7846.182985
3697.015560,995.924147,-1258.350101,9992.780217
3697.015874,0.000000,-1776.494261,11251.130318
3697.016189,-842.705048,-1702.473667,12657.521608
3697.016503,-1532.190996,-1554.432478,12805.562797
3697.016818,-1378.971896,-814.226536,11991.336260
3697.017132,-995.924147,-74.020594,10436.903782
3697.017447,-229.828649,1184.329507,8512.368333
3697.017761,995.924147,1628.453072,7105.977043
3697.018076,1685.410096,1850.514855,5995.668130
3697.018390,2374.896044,1332.370696,5699.585753
3697.018705,1915.238745,370.102971,7254.018232
3697.019019,612.876398,-1036.288319,9400.615463
3697.019334,0.000000,-1480.411884,11251.130318
3697.019648,-612.876398,-1850.514855,12139.377449
3697.019963,-1378.971896,-1924.535449,12953.603985
3697.020277,-995.924147,-1258.350101,13027.624579
3697.020592,-1149.143247,222.061783,11325.150913
3697.020906,-153.219100,1184.329507,9474.636058
3697.021221,766.095498,1924.535449,7624.121203
3697.021535,1532.190996,2368.659014,6365.771101
3697.021850,2681.334243,2146.597232,5847.626942
3697.022164,2451.505594,1110.308913,6587.832884
3697.022479,1762.019645,-222.061783,8068.244768
3697.022793,842.705048,-1258.350101,9918.759623
3697.023107,-229.828649,-1776.494261,11917.315666
3697.023422,-842.705048,-1480.411884,13175.665768
3697.023736,-1072.533697,-1184.329507,13841.851115
3697.024051,-1302.362347,-0.000000,12361.439231
3697.024365,-995.924147,1110.308913,10362.883188
3697.024680,-153.219100,1998.556043,8734.430116
3697.024994,1378.971896,2294.638420,7624.121203
3697.025309,1608.800546,2294.638420,6365.771101
3697.025623,1762.019645,1702.473667,6661.853478
3697.025938,1225.752797,444.123565,7328.038826
3697.026252,76.609550,-740.205942,9474.636058
3697.026567,-766.095498,-1702.473667,11103.089130
3697.026881,-1762.019645,-1554.432478,12805.562797
3697.027196,-2298.286494,-1628.453072,13323.706956
3697.027510,-2298.286494,-1110.308913,13249.686362
3697.027825,-1532.190996,-0.000000,11695.253884
3697.028139,-1225.752797,1110.308913,9844.739029
3697.028454,76.609550,1702.473667,7920.203579
3697.028768,1225.752797,2220.617826,6661.853478
3697.029083,1762.019645,2368.659014,6143.709319
3697.029397,2145.067394,1036.288319,6069.688724
3697.029712,1532.190996,222.061783,7772.162391
3697.030026,612.876398,-814.226536,9770.718434
3697.030341,-459.657299,-1332.370696,11325.150913
3697.030655,-1378.971896,-1850.514855,12361.439231
3697.030970,-1762.019645,-1924.535449,12805.562797
3697.031284,-1302.362347,-1036.288319,12509.480420
3697.031599,-1608.800546,370.102971,10510.924376
3697.031913,-689.485948,1332.370696,8586.388927
3697.032228,459.657299,1850.514855,6957.935855
3697.032542,1302.362347,1850.514855,6069.688724
3697.032857,2068.457845,1406.391290,6143.709319
3697.033171,1838.629195,518.144159,7402.059420
3697.033486,842.705048,-444.123565,8956.491898
3697.033800,0.000000,-1184.329507,10584.944971
3697.034115,-689.485948,-1702.473667,12361.439231
3697.034429,-1302.362347,-1184.329507,13397.727550
3697.034744,-1225.752797,-740.205942,13175.665768
3697.035058,-689.485948,-0.000000,11621.233289
3697.035373,-1378.971896,1702.473667,9622.677246
3697.035687,689.485948,2442.679609,7846.182985
3697.036002,1838.629195,2886.803174,6143.709319
3697.036316,2451.505594,2220.617826,5551.544565
3697.036631,2528.115143,962.267725,6513.812290
3697.036945,2068.457845,-370.102971,7772.162391
3697.037260,612.876398,-1184.329507,9548.656652
3697.037574,-229.828649,-1850.514855,11695.253884
3697.037889,-1072.533697,-1850.514855,12583.501014
3697.038203,-1455.581446,-1554.432478,13175.665768
3697.038518,-1302.362347,-370.102971,12509.480420
3697.038832,-995.924147,740.205942,11177.109724
3697.039146,76.609550,1924.535449,8660.409521
3697.039461,1149.143247,2368.659014,6661.853478
3697.039775,2068.457845,2738.761985,6069.688724
3697.040090,1838.629195,1702.473667,6069.688724
3697.040404,1685.410096,148.041188,7624.121203
3697.040719,766.095498,-592.164754,9474.636058
3697.041033,0.000000,-1110.308913,11695.253884
3697.041348,-1149.143247,-1924.535449,12731.542202
3697.041662,-2068.457845,-1628.453072,13767.830521
3697.041977,-1838.629195,-1406.391290,13397.727550
3697.042291,-1685.410096,-0.000000,11917.315666
3697.042606,-842.705048,1184.329507,9770.718434
3697.042920,76.609550,1924.535449,8364.327145
3697.043235,1455.581446,2146.597232,6513.812290
3697.043549,1991.848295,2072.576638,6143.709319
3697.043864,1991.848295,1258.350101,6883.915261
3697.044178,1149.143247,-666.185348,8290.306550
3697.044493,536.266849,-740.205942,9918.759623
3697.044807,0.000000,-1332.370696,11251.130318
3697.045122,-1378.971896,-1924.535449,12583.501014
3697.045436,-1608.800546,-1628.453072,13471.748144
3697.045751,-1608.800546,-814.226536,12435.459826
3697.046065,-1608.800546,592.164754,10732.986159
3697.046380,-459.657299,1924.535449,8882.471304
3697.046694,229.828649,2294.638420,7328.038826
3697.047009,1225.752797,1776.494261,6291.750507
3697.047323,1532.190996,1036.288319,6069.688724
3697.047638,1302.362347,444.123565,7402.059420
3697.047952,459.657299,-592.164754,9178.553681
3697.048267,-306.438199,-1702.473667,10955.047942
3697.048581,-1378.971896,-2146.597232,12509.480420
3697.048896,-1838.629195,-2072.576638,13323.706956
3697.049210,-1915.238745,-1628.453072,12731.542202
3697.049525,-1608.800546,-444.123565,11325.150913
3697.049839,-612.876398,962.267725,9622.677246
3697.050154,383.047749,1998.556043,7920.203579
3697.050468,1149.143247,2220.617826,6217.729913
3697.050783,2068.457845,1776.494261,5181.441594
3697.051097,2451.505594,1184.329507,6217.729913
3697.051412,1762.019645,-148.041188,7550.100608
3697.051726,919.314598,-1258.350101,9474.636058
3697.052041,153.219100,-1702.473667,11251.130318
3697.052355,-689.485948,-1924.535449,12287.418637
3697.052670,-1302.362347,-2072.576638,12731.542202
3697.052984,-1378.971896,-1110.308913,12361.439231
3697.053299,-1225.752797,296.082377,10955.047942
3697.053613,0.000000,1332.370696,8586.388927
3697.053928,1225.752797,1850.514855,7105.977043
