#time,accel_x,accel_y,accel_z
4157.954012,612.876398,-0.000000,9326.594869
4157.954328,0.000000,148.041188,8956.491898
4157.954643,0.000000,296.082377,9326.594869
4157.954959,0.000000,296.082377,9548.656652
4157.955274,76.609550,222.061783,9252.574275
4157.955590,536.266849,-0.000000,9474.636058
4157.955905,153.219100,148.041188,9474.636058
4157.956221,153.219100,222.061783,9474.636058
4157.956537,229.828649,592.164754,9622.677246
4157.956852,229.828649,-0.000000,9696.697840
4157.957168,689.485948,296.082377,9474.636058
4157.957483,383.047749,-0.000000,9548.656652
4157.957799,0.000000,222.061783,9474.636058
4157.958114,229.828649,-74.020594,9400.615463
4157.958430,306.438199,-0.000000,9474.636058
4157.958745,229.828649,-0.000000,9178.553681
4157.959061,153.219100,222.061783,9992.780217
4157.959377,229.828649,-0.000000,9918.759623
4157.959692,0.000000,-0.000000,9548.656652
4157.960008,612.876398,-0.000000,9622.677246
4157.960323,-153.219100,-148.041188,9474.636058
4157.960639,0.000000,148.041188,10066.800811
4157.960954,0.000000,370.102971,9770.718434
4157.961270,0.000000,370.102971,9622.677246
4157.961585,0.000000,370.102971,9770.718434
4157.961901,76.609550,222.061783,9696.697840
4157.962217,0.000000,-0.000000,9696.697840
4157.962532,-153.219100,148.041188,9696.697840
4157.962848,0.000000,-74.020594,9548.656652
4157.963163,76.609550,148.041188,9474.636058
4157.963479,229.828649,592.164754,9474.636058
4157.963794,0.000000,-0.000000,9770.718434
4157.964110,306.438199,-74.020594,9474.636058
4157.964425,76.609550,296.082377,9400.615463
4157.964741,306.438199,148.041188,9474.636058
4157.965056,76.609550,-0.000000,9326.594869
4157.965372,76.609550,370.102971,9548.656652
4157.965688,76.609550,296.082377,9844.739029
4157.966003,306.438199,-0.000000,9326.594869
4157.966319,0.000000,-0.000000,9178.553681
4157.966634,76.609550,-0.000000,9326.594869
4157.966950,0.000000,-0.000000,9548.656652
4157.967265,153.219100,-0.000000,9400.615463
4157.967581,459.657299,-0.000000,9474.636058
4157.967896,306.438199,222.061783,9622.677246
4157.968212,229.828649,-0.000000,9548.656652
4157.968528,306.438199,296.082377,9474.636058
4157.968843,229.828649,-0.000000,9474.636058
4157.969159,459.657299,296.082377,9474.636058
4157.969474,306.438199,148.041188,9770.718434
4157.969790,0.000000,222.061783,9474.636058
4157.970105,0.000000,296.082377,9696.697840
4157.970421,76.609550,-148.041188,9696.697840
4157.970736,0.000000,148.041188,9696.697840
4157.971052,76.609550,-0.000000,9696.697840
4157.971368,383.047749,-0.000000,10214.842000
4157.971683,0.000000,-148.041188,9770.718434
4157.971999,0.000000,74.020594,9474.636058
4157.972314,153.219100,-0.000000,9992.780217
4157.972630,0.000000,-0.000000,9770.718434
4157.972945,0.000000,-0.000000,9696.697840
4157.973261,76.609550,222.061783,10066.800811
4157.973576,0.000000,-0.000000,9622.677246
4157.973892,0.000000,296.082377,9474.636058
4157.974208,76.609550,-0.000000,9400.615463
4157.974523,229.828649,-0.000000,9770.718434
4157.974839,0.000000,222.061783,9548.656652
4157.975154,306.438199,222.061783,9474.636058
4157.975470,76.609550,-0.000000,9474.636058
4157.975785,229.828649,-0.000000,9474.636058
4157.976101,0.000000,-0.000000,9474.636058
4157.976416,-306.438199,296.082377,9400.615463
4157.976732,-229.828649,296.082377,9326.594869
4157.977047,76.609550,-0.000000,9326.594869
4157.977363,0.000000,444.123565,9252.574275
4157.977679,0.000000,740.205942,9548.656652
4157.977994,-383.047749,370.102971,9474.636058
4157.978310,-536.266849,222.061783,9474.636058
4157.978625,-536.266849,518.144159,9696.697840
4157.978941,-612.876398,518.144159,9918.759623
4157.979256,-612.876398,444.123565,9548.656652
4157.979572,0.000000,296.082377,9474.636058
4157.979887,-459.657299,814.226536,9696.697840
4157.980203,-306.438199,962.267725,9400.615463
4157.980519,-306.438199,1110.308913,9474.636058
4157.980834,-919.314598,666.185348,9474.636058
4157.981150,-1302.362347,1184.329507,9030.512492
4157.981465,-1302.362347,1332.370696,9104.533087
4157.981781,-1915.238745,1332.370696,9400.615463
4157.982096,-2298.286494,1036.288319,9770.718434
4157.982412,-2528.115143,1110.308913,9622.677246
4157.982727,-2834.553343,888.247130,9252.574275
4157.983043,-2987.772442,1184.329507,9844.739029
4157.983359,-2987.772442,1332.370696,10288.862594
4157.983674,-2911.162892,1406.391290,9992.780217
4157.983990,-3140.991542,1850.514855,10140.821405
4157.984305,-2911.162892,2294.638420,9622.677246
4157.984621,-2528.115143,2590.720797,9104.533087
4157.984936,-2451.505594,2590.720797,9178.553681
4157.985252,-1838.629195,3108.864956,9770.718434
4157.985567,-2374.896044,3034.844362,9178.553681
4157.985883,-2757.943793,2886.803174,9400.615463
4157.986199,-2451.505594,2886.803174,9474.636058
4157.986514,-2374.896044,2664.741391,9918.759623
4157.986830,-2528.115143,2442.679609,10288.862594
4157.987145,-2451.505594,2368.659014,10214.842000
4157.987461,-2068.457845,2146.597232,10214.842000
4157.987776,-1532.190996,2368.659014,9548.656652
4157.988092,-1225.752797,2960.823768,9400.615463
4157.988407,-1072.533697,3256.906145,9030.512492
4157.988723,-766.095498,3997.112087,8438.347739
4157.989038,-689.485948,4145.153275,8290.306550
4157.989354,-1072.533697,4145.153275,8956.491898
4157.989670,-1378.971896,3627.009116,8956.491898
4157.989985,-2451.505594,3552.988522,9770.718434
4157.990301,-2681.334243,3182.885551,10066.800811
4157.990616,-2681.334243,2516.700203,10881.027347
4157.990932,-2451.505594,2516.700203,11547.212695
4157.991247,-2987.772442,2516.700203,11399.171507
4157.991563,-1991.848295,2960.823768,11325.150913
4157.991878,-2298.286494,3775.050304,10436.903782
4157.992194,-1762.019645,3923.091493,9844.739029
4157.992510,-1302.362347,4663.297435,9252.574275
4157.992825,-1302.362347,4367.215058,9104.533087
4157.993141,-1991.848295,4367.215058,9104.533087
4157.993456,-2068.457845,3478.967927,9030.512492
4157.993772,-2221.676944,3108.864956,9918.759623
4157.994087,-2528.115143,2368.659014,10436.903782
4157.994403,-2681.334243,1924.535449,11029.068536
4157.994718,-2604.724693,1554.432478,11473.192101
4157.995034,-2221.676944,1554.432478,10955.047942
4157.995350,-1608.800546,1554.432478,10732.986159
4157.995665,-383.047749,2294.638420,10140.821405
4157.995981,76.609550,2960.823768,9844.739029
4157.996296,459.657299,2886.803174,8586.388927
4157.996612,459.657299,3552.988522,7772.162391
4157.996927,459.657299,3404.947333,7328.038826
4157.997243,-153.219100,3552.988522,7402.059420
4157.997558,-1225.752797,2960.823768,8068.244768
4157.997874,-2374.896044,2294.638420,8734.430116
4157.998190,-3217.601092,1480.411884,9474.636058
4157.998505,-3830.477490,814.226536,10288.862594
4157.998821,-4979.620737,222.061783,11325.150913
4157.999136,-4519.963438,148.041188,11103.089130
4157.999452,-4213.525239,370.102971,11103.089130
4157.999767,-3370.820191,592.164754,10807.006753
4158.000083,-2451.505594,1110.308913,10658.965565
4158.000398,-1378.971896,2146.597232,10214.842000
4158.000714,-689.485948,2812.782580,9474.636058
4158.001029,459.657299,3404.947333,8586.388927
4158.001345,536.266849,3627.009116,7994.224174
4158.001661,919.314598,3108.864956,7994.224174
4158.001976,0.000000,2812.782580,7772.162391
4158.002292,-1149.143247,2294.638420,7772.162391
4158.002607,-2451.505594,1554.432478,7994.224174
4158.002923,-3217.601092,222.061783,8438.347739
4158.003238,-4443.353888,-444.123565,9178.553681
4158.003554,-5286.058936,-1184.329507,10881.027347
4158.003869,-5975.544884,-1036.288319,11251.130318
4158.004185,-5286.058936,-1036.288319,10881.027347
4158.004501,-4596.572988,-592.164754,12139.377449
4158.004816,-2911.162892,-814.226536,12065.356855
4158.005132,-1149.143247,666.185348,11399.171507
4158.005447,612.876398,1850.514855,10214.842000
4158.005763,1991.848295,3849.070898,8734.430116
4158.006078,2451.505594,5403.503377,6883.915261
4158.006394,2451.505594,6513.812290,5847.626942
4158.006709,1608.800546,5847.626942,5181.441594
4158.007025,0.000000,5181.441594,5403.503377
4158.007341,-2374.896044,3701.029710,7328.038826
4158.007656,-4826.401637,370.102971,9252.574275
4158.007972,-6128.763984,-3108.864956,12583.501014
4158.008287,-7277.907231,-3997.112087,12953.603985
4158.008603,-7890.783629,-4515.256246,15100.201217
4158.008918,-6205.373534,-4219.173869,15396.283594
4158.009234,-4596.572988,-1924.535449,12509.480420
4158.009549,-1225.752797,2146.597232,9326.594869
4158.009865,1072.533697,4959.379811,6883.915261
4158.010180,2451.505594,8364.327145,4885.359217
4158.010496,3600.648841,10214.842000,4293.194464
4158.010812,2757.943793,9918.759623,3552.988522
4158.011127,995.924147,7846.182985,6291.750507
4158.011443,-995.924147,5255.462188,9400.615463
4158.011758,-2757.943793,1184.329507,11843.295072
4158.012074,-4366.744339,-2886.803174,14656.077652
4158.012389,-5592.497135,-3404.947333,15988.448347
4158.012705,-5056.230287,-3627.009116,15692.365970
4158.013020,-4213.525239,-2294.638420,12731.542202
4158.013336,-2604.724693,518.144159,10732.986159
4158.013652,-1455.581446,3923.091493,8734.430116
4158.013967,0.000000,5773.606348,5699.585753
4158.014283,766.095498,7402.059420,4219.173869
4158.014598,1455.581446,7772.162391,4441.235652
4158.014914,-306.438199,6883.915261,6217.729913
4158.015229,-1072.533697,3849.070898,8364.327145
4158.015545,-1915.238745,1924.535449,10288.862594
4158.015860,-1838.629195,222.061783,11769.274478
4158.016176,-2451.505594,148.041188,12879.583391
4158.016492,-3447.429741,296.082377,12953.603985
4158.016807,-3600.648841,444.123565,12657.521608
4158.017123,-3294.210641,1776.494261,11843.295072
4158.017438,-3370.820191,3108.864956,10288.862594
4158.017754,-3217.601092,3997.112087,8512.368333
4158.018069,-2757.943793,3478.967927,8068.244768
4158.018385,-1991.848295,3478.967927,7254.018232
4158.018700,-1685.410096,3330.926739,7105.977043
4158.019016,-1685.410096,4071.132681,8068.244768
4158.019332,-2068.457845,3552.988522,9696.697840
4158.019647,-1685.410096,2294.638420,11769.274478
4158.019963,-2068.457845,2368.659014,11325.150913
4158.020278,-1532.190996,296.082377,11843.295072
4158.020594,-612.876398,-370.102971,11843.295072
4158.020909,-536.266849,888.247130,10214.842000
4158.021225,-1225.752797,2072.576638,8438.347739
4158.021540,-1149.143247,2886.803174,8142.265362
4158.021856,-995.924147,4219.173869,7772.162391
4158.022171,-995.924147,4811.338623,7772.162391
4158.022486,-1378.971896,3552.988522,8956.491898
4158.022801,-1915.238745,1702.473667,9400.615463
4158.023116,-995.924147,-518.144159,10807.006753
4158.023431,-536.266849,-1184.329507,11769.274478
4158.023747,-919.314598,-1110.308913,11917.315666
4158.024062,153.219100,-296.082377,12213.398043
4158.024377,689.485948,-0.000000,11473.192101
4158.024692,1225.752797,1998.556043,9622.677246
4158.025007,1762.019645,2664.741391,8660.409521
4158.025323,2374.896044,3330.926739,7550.100608
4158.025638,2451.505594,2960.823768,6957.935855
4158.025953,1532.190996,2664.741391,6735.874072
4158.026268,0.000000,444.123565,8512.368333
4158.026583,-842.705048,-74.020594,9548.656652
4158.026898,-1762.019645,-1332.370696,10881.027347
4158.027214,-1915.238745,-2664.741391,11547.212695
4158.027529,-1149.143247,-3552.988522,11917.315666
4158.027844,-306.438199,-3182.885551,12287.418637
4158.028159,0.000000,-2960.823768,12065.356855
4158.028474,0.000000,-1036.288319,11177.109724
4158.028790,383.047749,962.267725,9622.677246
4158.029105,1072.533697,2442.679609,7994.224174
4158.029420,1915.238745,1776.494261,7254.018232
4158.029735,2911.162892,518.144159,6809.894666
4158.030050,3140.991542,740.205942,7105.977043
4158.030365,1532.190996,-0.000000,7476.080014
4158.030681,229.828649,-518.144159,9622.677246
4158.030996,-1685.410096,-962.267725,10732.986159
4158.031311,-2604.724693,-1850.514855,11177.109724
4158.031626,-2528.115143,-3701.029710,11843.295072
4158.031941,-1838.629195,-4367.215058,11029.068536
4158.032257,-1455.581446,-4145.153275,10436.903782
4158.032572,-842.705048,-2960.823768,10288.862594
4158.032887,-383.047749,-814.226536,9030.512492
4158.033202,0.000000,1628.453072,8142.265362
4158.033517,153.219100,2516.700203,6587.832884
4158.033832,995.924147,2368.659014,6513.812290
4158.034148,1532.190996,1628.453072,6809.894666
4158.034463,1455.581446,666.185348,7846.182985
4158.034778,536.266849,-74.020594,9030.512492
4158.035093,-229.828649,-814.226536,10658.965565
4158.035408,-995.924147,-1036.288319,11177.109724
4158.035724,-1455.581446,-1702.473667,11917.315666
4158.036039,-1225.752797,-1850.514855,11399.171507
4158.036354,-842.705048,-1850.514855,10436.903782
4158.036669,-612.876398,-962.267725,9474.636058
4158.036984,-689.485948,296.082377,8290.306550
4158.037299,-612.876398,1702.473667,7402.059420
4158.037615,-612.876398,1554.432478,7550.100608
4158.037930,0.000000,1332.370696,7624.121203
4158.038245,459.657299,222.061783,7920.203579
4158.038560,1302.362347,-370.102971,9178.553681
4158.038875,536.266849,-592.164754,9992.780217
4158.039191,153.219100,-0.000000,10807.006753
4158.039506,0.000000,592.164754,11547.212695
4158.039821,-919.314598,888.247130,11103.089130
4158.040136,0.000000,370.102971,10584.944971
4158.040451,766.095498,148.041188,9918.759623
4158.040766,842.705048,1036.288319,9178.553681
4158.041082,306.438199,1036.288319,8956.491898
4158.041397,76.609550,1628.453072,9030.512492
4158.041712,0.000000,1850.514855,9770.718434
4158.042027,-612.876398,1406.391290,9548.656652
4158.042342,153.219100,444.123565,10584.944971
4158.042658,612.876398,-518.144159,10807.006753
4158.042973,842.705048,-1184.329507,11029.068536
4158.043288,842.705048,-592.164754,11251.130318
4158.043603,536.266849,444.123565,11177.109724
4158.043918,536.266849,1702.473667,10362.883188
4158.044233,689.485948,2442.679609,9474.636058
4158.044549,1685.410096,2072.576638,8660.409521
4158.044864,2374.896044,1998.556043,8512.368333
4158.045179,1608.800546,1776.494261,8512.368333
4158.045494,459.657299,1406.391290,9178.553681
4158.045809,-459.657299,1110.308913,9696.697840
4158.046125,-1149.143247,740.205942,10436.903782
4158.046440,-1378.971896,-74.020594,11103.089130
4158.046755,-612.876398,-962.267725,11325.150913
4158.047070,153.219100,-1258.350101,11399.171507
4158.047385,153.219100,-740.205942,10732.986159
4158.047700,459.657299,-0.000000,9992.780217
4158.048016,689.485948,962.267725,9104.533087
4158.048331,612.876398,2590.720797,8438.347739
4158.048646,995.924147,2812.782580,7772.162391
4158.048961,1685.410096,1776.494261,7179.997637
4158.049276,1762.019645,740.205942,7550.100608
4158.049592,766.095498,444.123565,7994.224174
4158.049907,-612.876398,-370.102971,9030.512492
4158.050222,-1915.238745,-222.061783,10066.800811
4158.050537,-2221.676944,-888.247130,10658.965565
4158.050852,-919.314598,-2220.617826,11177.109724
4158.051167,-1072.533697,-2442.679609,11029.068536
4158.051483,-536.266849,-1480.411884,10066.800811
4158.051798,-459.657299,-814.226536,9178.553681
4158.052113,0.000000,222.061783,8956.491898
4158.052428,459.657299,1184.329507,8216.285956
4158.052743,306.438199,1998.556043,7920.203579
4158.053059,766.095498,1258.350101,7624.121203
4158.053374,1225.752797,444.123565,8364.327145
4158.053689,1072.533697,-222.061783,8882.471304
4158.054004,229.828649,-1184.329507,10288.862594
4158.054319,-995.924147,-814.226536,10881.027347
4158.054634,-1915.238745,-1258.350101,11251.130318
4158.054950,-1455.581446,-962.267725,10955.047942
4158.055265,-383.047749,-1998.556043,10658.965565
4158.055580,383.047749,-1702.473667,10214.842000
4158.055895,919.314598,-814.226536,9252.574275
4158.056210,383.047749,814.226536,9178.553681
4158.056525,536.266849,1332.370696,8660.409521
4158.056841,306.438199,2146.597232,8438.347739
4158.057156,459.657299,1628.453072,8512.368333
4158.057471,1072.533697,518.144159,9474.636058
4158.057786,995.924147,-592.164754,9918.759623
4158.058101,459.657299,-1110.308913,10288.862594
4158.058417,-229.828649,-1258.350101,11029.068536
4158.058732,-689.485948,-1110.308913,11251.130318
4158.059047,-1149.143247,-148.041188,11177.109724
4158.059362,-383.047749,-0.000000,10881.027347
4158.059677,383.047749,-74.020594,9474.636058
4158.059992,1149.143247,-222.061783,9474.636058
4158.060308,842.705048,666.185348,8956.491898
4158.060623,-229.828649,962.267725,8438.347739
4158.060938,-459.657299,962.267725,9252.574275
4158.061253,-383.047749,888.247130,9474.636058
4158.061568,306.438199,-222.061783,10140.821405
4158.061884,612.876398,-1184.329507,9770.718434
4158.062199,383.047749,-1332.370696,10584.944971
4158.062514,306.438199,-1332.370696,10732.986159
4158.062829,0.000000,-740.205942,10288.862594
4158.063144,0.000000,666.185348,10510.924376
4158.063459,-153.219100,814.226536,9252.574275
4158.063775,76.609550,962.267725,8586.388927
4158.064090,995.924147,-0.000000,8068.244768
4158.064405,919.314598,-0.000000,7994.224174
4158.064720,0.000000,518.144159,9178.553681
4158.065035,-689.485948,888.247130,9326.594869
4158.065351,-1455.581446,592.164754,10066.800811
4158.065666,-1072.533697,222.061783,9918.759623
4158.065981,-536.266849,-888.247130,10584.944971
4158.066296,0.000000,-1332.370696,10881.027347
4158.066611,-383.047749,-1036.288319,10658.965565
4158.066926,-383.047749,-0.000000,9918.759623
4158.067242,153.219100,1258.350101,9104.533087
4158.067557,76.609550,2516.700203,8438.347739
4158.067872,842.705048,2220.617826,7994.224174
4158.068187,1378.971896,1554.432478,7698.141797
4158.068502,1455.581446,1258.350101,8068.244768
4158.068818,766.095498,740.205942,8364.327145
4158.069133,0.000000,444.123565,9696.697840
4158.069448,-689.485948,444.123565,10140.821405
4158.069763,-1225.752797,296.082377,10140.821405
4158.070078,-612.876398,-666.185348,10955.047942
4158.070393,229.828649,-1554.432478,10732.986159
4158.070709,842.705048,-740.205942,9918.759623
4158.071024,306.438199,370.102971,9104.533087
4158.071339,536.266849,1554.432478,9252.574275
4158.071654,459.657299,2368.659014,8586.388927
4158.071969,612.876398,3034.844362,7920.203579
4158.072285,1378.971896,1628.453072,8586.388927
4158.072600,1378.971896,888.247130,8882.471304
4158.072915,919.314598,518.144159,9326.594869
4158.073230,153.219100,-444.123565,9548.656652
4158.073545,-383.047749,-296.082377,11177.109724
4158.073860,-766.095498,-0.000000,11843.295072
4158.074176,-1149.143247,-148.041188,11769.274478
4158.074491,0.000000,-666.185348,10658.965565
4158.074806,459.657299,-518.144159,10214.842000
4158.075121,689.485948,-0.000000,9326.594869
4158.075436,689.485948,592.164754,9474.636058
4158.075752,689.485948,1628.453072,9178.553681
4158.076067,306.438199,1924.535449,9104.533087
4158.076382,153.219100,1332.370696,8882.471304
4158.076697,842.705048,592.164754,9326.594869
4158.077012,919.314598,-740.205942,9918.759623
4158.077327,153.219100,-962.267725,10658.965565
4158.077643,-383.047749,-1184.329507,11325.150913
4158.077958,-612.876398,-740.205942,11399.171507
4158.078273,-1072.533697,-74.020594,10881.027347
4158.078588,-459.657299,-296.082377,10436.903782
4158.078903,383.047749,296.082377,9918.759623
4158.079219,919.314598,-0.000000,9030.512492
4158.079534,536.266849,148.041188,8586.388927
4158.079849,612.876398,592.164754,8734.430116
4158.080164,153.219100,740.205942,8734.430116
4158.080479,-842.705048,962.267725,8882.471304
4158.080794,-919.314598,-0.000000,9252.574275
4158.081110,0.000000,-1554.432478,9770.718434
4158.081425,306.438199,-1850.514855,10140.821405
4158.081740,0.000000,-1480.411884,10066.800811
4158.082055,-766.095498,-962.267725,10214.842000
4158.082370,-995.924147,-296.082377,10066.800811
4158.082686,-842.705048,296.082377,9326.594869
4158.083001,383.047749,-74.020594,8882.471304
4158.083316,536.266849,-444.123565,7994.224174
4158.083631,536.266849,-74.020594,7920.203579
4158.083946,766.095498,222.061783,7698.141797
4158.084261,0.000000,-148.041188,8882.471304
4158.084577,-995.924147,148.041188,9474.636058
4158.084892,-1455.581446,-370.102971,9622.677246
4158.085207,-766.095498,-1258.350101,9844.739029
4158.085522,0.000000,-2294.638420,9844.739029
4158.085837,0.000000,-1850.514855,10066.800811
4158.086153,-153.219100,-1776.494261,10140.821405
4158.086468,-306.438199,-74.020594,9844.739029
4158.086783,-536.266849,1258.350101,9030.512492
4158.087098,0.000000,1184.329507,8290.306550
4158.087413,689.485948,740.205942,8142.265362
4158.087728,1915.238745,740.205942,8290.306550
4158.088044,1378.971896,518.144159,8956.491898
4158.088359,612.876398,-0.000000,9770.718434
4158.088674,-306.438199,962.267725,10140.821405
4158.088989,-536.266849,370.102971,10288.862594
4158.089304,-383.047749,-222.061783,11029.068536
4158.089620,0.000000,-222.061783,11177.109724
4158.089935,766.095498,-888.247130,10807.006753
4158.090250,919.314598,-222.061783,10436.903782
4158.090565,459.657299,888.247130,10288.862594
4158.090880,459.657299,1702.473667,9696.697840
4158.091195,383.047749,2072.576638,8808.450710
4158.091511,919.314598,1702.473667,9178.553681
4158.091826,1608.800546,888.247130,8734.430116
4158.092141,2145.067394,296.082377,9992.780217
4158.092456,766.095498,444.123565,9918.759623
4158.092771,-153.219100,222.061783,10288.862594
4158.093087,-995.924147,888.247130,10881.027347
4158.093402,-689.485948,592.164754,10584.944971
4158.093717,-689.485948,-74.020594,10881.027347
4158.094032,536.266849,-518.144159,10140.821405
4158.094347,842.705048,148.041188,9400.615463
4158.094662,459.657299,296.082377,9696.697840
4158.094978,306.438199,1554.432478,9696.697840
4158.095293,229.828649,1924.535449,9104.533087
4158.095608,153.219100,1998.556043,9474.636058
4158.095923,689.485948,814.226536,9474.636058
4158.096238,1225.752797,-74.020594,9696.697840
4158.096554,1072.533697,-74.020594,9770.718434
4158.096869,306.438199,-666.185348,10362.883188
4158.097184,-459.657299,222.061783,10510.924376
4158.097499,-1072.533697,814.226536,10214.842000
4158.097814,-383.047749,518.144159,9474.636058
4158.098129,766.095498,-518.144159,9030.512492
4158.098445,1149.143247,-518.144159,8882.471304
4158.098760,306.438199,-0.000000,8512.368333
4158.099075,-229.828649,-0.000000,9030.512492
4158.099390,-459.657299,1036.288319,9326.594869
4158.099705,-536.266849,1110.308913,9104.533087
4158.100020,-536.266849,-0.000000,9252.574275
4158.100336,536.266849,-592.164754,9992.780217
4158.100651,1072.533697,-444.123565,9622.677246
4158.100966,306.438199,-296.082377,9696.697840
4158.101281,0.000000,-592.164754,9918.759623
4158.101596,-842.705048,444.123565,9918.759623
4158.101912,-689.485948,1184.329507,9474.636058
4158.102227,0.000000,222.061783,9178.553681
4158.102542,153.219100,-148.041188,9104.533087
4158.102857,536.266849,-518.144159,8438.347739
4158.103172,-306.438199,-74.020594,9030.512492
4158.103487,-1149.143247,-0.000000,9844.739029
4158.103803,-1378.971896,370.102971,9252.574275
4158.104118,-1532.190996,-296.082377,9622.677246
4158.104433,-383.047749,-1110.308913,9844.739029
4158.104748,0.000000,-1628.453072,9992.780217
4158.105063,76.609550,-1184.329507,9770.718434
4158.105379,229.828649,-518.144159,9622.677246
4158.105694,0.000000,296.082377,9400.615463
4158.106009,0.000000,962.267725,8734.430116
4158.106324,0.000000,814.226536,8660.409521
4158.106639,0.000000,666.185348,8364.327145
4158.106954,383.047749,-222.061783,9030.512492
4158.107270,76.609550,-518.144159,9400.615463
4158.107585,-766.095498,-962.267725,9844.739029
4158.107900,-1072.533697,-592.164754,10436.903782
4158.108215,-1378.971896,-148.041188,11103.089130
4158.108530,-689.485948,-74.020594,10807.006753
4158.108846,153.219100,-666.185348,10584.944971
4158.109161,1072.533697,-296.082377,9844.739029
4158.109476,1378.971896,-74.020594,9178.553681
4158.109791,1302.362347,592.164754,9400.615463
4158.110106,919.314598,1702.473667,9178.553681
4158.110421,459.657299,2072.576638,8734.430116
4158.110737,383.047749,1702.473667,8956.491898
4158.111052,536.266849,222.061783,9622.677246
4158.111367,842.705048,-222.061783,9548.656652
4158.111682,0.000000,-740.205942,9992.780217
4158.111997,-306.438199,-592.164754,11029.068536
4158.112313,-995.924147,222.061783,11251.130318
4158.112628,-689.485948,814.226536,10658.965565
4158.112943,0.000000,444.123565,10881.027347
4158.113258,995.924147,222.061783,9770.718434
4158.113573,1072.533697,-0.000000,9622.677246
4158.113888,1532.190996,962.267725,8882.471304
4158.114204,1302.362347,1332.370696,9400.615463
4158.114519,306.438199,2368.659014,8808.450710
4158.114834,153.219100,1924.535449,9326.594869
4158.115149,612.876398,370.102971,9400.615463
4158.115464,919.314598,-592.164754,9474.636058
4158.115780,459.657299,-666.185348,9548.656652
4158.116095,0.000000,-1184.329507,9992.780217
4158.116410,-383.047749,-814.226536,10658.965565
4158.116725,-306.438199,-74.020594,10732.986159
4158.117040,-459.657299,296.082377,9622.677246
4158.117355,229.828649,-370.102971,9622.677246
4158.117671,1225.752797,-0.000000,8956.491898
4158.117986,1072.533697,444.123565,8586.388927
4158.118301,1149.143247,-74.020594,8586.388927
4158.118616,306.438199,1036.288319,9326.594869
4158.118931,-459.657299,1332.370696,8808.450710
4158.119247,-383.047749,296.082377,8956.491898
4158.119562,153.219100,-444.123565,10140.821405
4158.119877,0.000000,-1184.329507,10066.800811
4158.120192,-153.219100,-888.247130,10140.821405
4158.120507,-536.266849,-888.247130,10807.006753
4158.120822,-1225.752797,222.061783,10140.821405
4158.121138,-1072.533697,592.164754,9918.759623
4158.121453,-383.047749,962.267725,9252.574275
4158.121768,306.438199,370.102971,9104.533087
4158.122083,612.876398,370.102971,8438.347739
4158.122398,766.095498,592.164754,8364.327145
4158.122714,0.000000,740.205942,9030.512492
4158.123029,-459.657299,1258.350101,9252.574275
4158.123344,-1225.752797,518.144159,10066.800811
4158.123660,-459.657299,-0.000000,9992.780217
4158.123975,0.000000,-1036.288319,10362.883188
4158.124291,153.219100,-444.123565,9104.533087
4158.124606,-153.219100,-592.164754,10436.903782
4158.124921,-842.705048,222.061783,9474.636058
4158.125237,-536.266849,962.267725,9622.677246
4158.125552,-766.095498,1480.411884,8956.491898
4158.125867,153.219100,740.205942,8734.430116
4158.126183,1149.143247,-0.000000,9252.574275
4158.126498,612.876398,-148.041188,8956.491898
4158.126814,-306.438199,-74.020594,9474.636058
4158.127129,-229.828649,-222.061783,10066.800811
4158.127444,-842.705048,-0.000000,9918.759623
4158.127760,-536.266849,-0.000000,9474.636058
4158.128075,306.438199,-666.185348,10140.821405
4158.128390,459.657299,-740.205942,9400.615463
4158.128706,612.876398,-222.061783,9104.533087
4158.129021,536.266849,-222.061783,9844.739029
4158.129336,0.000000,666.185348,9844.739029
4158.129652,-536.266849,1332.370696,9326.594869
4158.129967,0.000000,666.185348,9400.615463
4158.130283,536.266849,-0.000000,9918.759623
4158.130598,1225.752797,-518.144159,9770.718434
4158.130913,536.266849,-740.205942,9548.656652
4158.131229,0.000000,-370.102971,10140.821405
4158.131544,-229.828649,592.164754,10436.903782
4158.131859,-306.438199,1036.288319,10140.821405
4158.132175,536.266849,370.102971,9770.718434
4158.132490,766.095498,-0.000000,9992.780217
4158.132806,1072.533697,-74.020594,9622.677246
4158.133121,995.924147,740.205942,8956.491898
4158.133436,383.047749,888.247130,9474.636058
4158.133752,153.219100,666.185348,9844.739029
4158.134067,-229.828649,1480.411884,9622.677246
4158.134382,153.219100,370.102971,9696.697840
4158.134698,919.314598,-814.226536,10066.800811
4158.135013,1225.752797,-888.247130,9474.636058
4158.135329,536.266849,-1258.350101,9770.718434
4158.135644,0.000000,-370.102971,9770.718434
4158.135959,-383.047749,370.102971,9548.656652
4158.136275,-76.609550,666.185348,9252.574275
4158.136590,995.924147,296.082377,8734.430116
4158.136905,1378.971896,370.102971,8586.388927
4158.137221,1225.752797,222.061783,8364.327145
4158.137536,766.095498,-296.082377,8808.450710
4158.137851,0.000000,-0.000000,9030.512492
4158.138167,-842.705048,296.082377,9474.636058
4158.138482,-612.876398,-148.041188,10066.800811
4158.138798,-306.438199,-1332.370696,10732.986159
4158.139113,306.438199,-1258.350101,10362.883188
4158.139428,153.219100,-962.267725,9918.759623
4158.139744,0.000000,-814.226536,9770.718434
4158.140059,306.438199,-148.041188,9918.759623
4158.140374,-383.047749,962.267725,9474.636058
4158.140690,-306.438199,740.205942,8586.388927
4158.141005,383.047749,-0.000000,8956.491898
4158.141321,766.095498,-148.041188,8882.471304
4158.141636,0.000000,-222.061783,9030.512492
4158.141951,-766.095498,-222.061783,9770.718434
4158.142267,-1378.971896,-0.000000,10288.862594
4158.142582,-1225.752797,-0.000000,10214.842000
4158.142897,-383.047749,-296.082377,10436.903782
4158.143213,-459.657299,-740.205942,10807.006753
4158.143528,306.438199,-222.061783,10140.821405
4158.143844,383.047749,-0.000000,9474.636058
4158.144159,229.828649,666.185348,9918.759623
4158.144474,153.219100,1850.514855,9474.636058
4158.144790,306.438199,1702.473667,9104.533087
4158.145105,689.485948,1628.453072,8586.388927
4158.145420,1302.362347,814.226536,8734.430116
4158.145736,995.924147,296.082377,8734.430116
4158.146051,766.095498,-222.061783,9252.574275
4158.146366,-536.266849,-518.144159,10288.862594
4158.146682,-1149.143247,-0.000000,10510.924376
4158.146997,-1149.143247,-296.082377,10288.862594
4158.147313,-306.438199,-666.185348,10066.800811
4158.147628,612.876398,-888.247130,9474.636058
4158.147943,536.266849,-296.082377,9104.533087
4158.148259,689.485948,296.082377,9326.594869
4158.148574,229.828649,740.205942,8882.471304
4158.148889,229.828649,1776.494261,9030.512492
4158.149205,229.828649,1184.329507,9326.594869
4158.149520,842.705048,592.164754,9474.636058
4158.149836,995.924147,-74.020594,9400.615463
4158.150151,995.924147,-740.205942,10066.800811
4158.150466,0.000000,-370.102971,10066.800811
4158.150782,-1225.752797,-740.205942,10881.027347
4158.151097,-1378.971896,-444.123565,10658.965565
4158.151412,-612.876398,-592.164754,10288.862594
4158.151728,306.438199,-518.144159,9696.697840
4158.152043,995.924147,-518.144159,9474.636058
4158.152359,1149.143247,-0.000000,8956.491898
4158.152674,766.095498,888.247130,9104.533087
4158.152989,229.828649,1628.453072,8882.471304
4158.153305,0.000000,1258.350101,8956.491898
4158.153620,536.266849,814.226536,9178.553681
4158.153935,1302.362347,-0.000000,9696.697840
4158.154251,689.485948,-296.082377,9918.759623
4158.154566,306.438199,-74.020594,10288.862594
4158.154881,-306.438199,-74.020594,10362.883188
4158.155197,-306.438199,444.123565,10658.965565
4158.155512,-766.095498,740.205942,9992.780217
4158.155828,-306.438199,370.102971,9548.656652
4158.156143,536.266849,296.082377,8882.471304
4158.156458,995.924147,740.205942,8882.471304
4158.156774,536.266849,740.205942,9326.594869
4158.157089,153.219100,518.144159,9326.594869
4158.157404,-306.438199,1036.288319,9696.697840
4158.157720,-229.828649,1258.350101,9400.615463
4158.158035,76.609550,370.102971,9252.574275
4158.158351,995.924147,-666.185348,9400.615463
4158.158666,612.876398,-296.082377,9326.594869
4158.158981,-306.438199,-518.144159,9992.780217
4158.159297,-766.095498,-444.123565,10214.842000
4158.159612,-842.705048,592.164754,10140.821405
4158.159927,-689.485948,296.082377,8956.491898
4158.160243,-306.438199,-74.020594,9400.615463
4158.160558,306.438199,-0.000000,9548.656652
4158.160874,229.828649,-0.000000,9252.574275
4158.161189,0.000000,-0.000000,9474.636058
4158.161504,-383.047749,222.061783,10214.842000
4158.161820,-383.047749,1110.308913,10658.965565
4158.162135,0.000000,740.205942,9918.759623
4158.162450,459.657299,-518.144159,10140.821405
4158.162766,1302.362347,-592.164754,10288.862594
4158.163081,919.314598,-370.102971,9548.656652
4158.163396,459.657299,-0.000000,9548.656652
4158.163712,153.219100,296.082377,9844.739029
4158.164027,-229.828649,814.226536,9474.636058
4158.164343,0.000000,370.102971,9104.533087
4158.164658,459.657299,-518.144159,9696.697840
4158.164973,536.266849,-592.164754,9400.615463
4158.165289,383.047749,-370.102971,9844.739029
4158.165604,153.219100,-592.164754,10140.821405
4158.165919,0.000000,444.123565,10214.842000
4158.166235,-459.657299,370.102971,10362.883188
4158.166550,0.000000,-0.000000,9696.697840
4158.166866,612.876398,-148.041188,9696.697840
4158.167181,842.705048,296.082377,8882.471304
4158.167496,612.876398,370.102971,9252.574275
4158.167812,459.657299,-74.020594,9252.574275
4158.168127,-459.657299,740.205942,9844.739029
4158.168442,-306.438199,888.247130,9252.574275
4158.168758,229.828649,-0.000000,8660.409521
4158.169073,383.047749,-740.205942,9178.553681
4158.169389,0.000000,-518.144159,9548.656652
4158.169704,-306.438199,-1036.288319,9400.615463
4158.170019,-459.657299,-518.144159,10214.842000
4158.170335,-689.485948,-0.000000,9474.636058
4158.170650,-536.266849,222.061783,8808.450710
4158.170965,459.657299,-296.082377,8586.388927
4158.171281,612.876398,-296.082377,8438.347739
4158.171596,536.266849,-74.020594,8586.388927
4158.171911,76.609550,-0.000000,8956.491898
4158.172227,-306.438199,444.123565,9548.656652
4158.172542,0.000000,1406.391290,9474.636058
4158.172858,-459.657299,666.185348,9548.656652
4158.173173,306.438199,-370.102971,9622.677246
4158.173488,229.828649,-666.185348,9770.718434
4158.173804,76.609550,-666.185348,10140.821405
4158.174119,-229.828649,-518.144159,10436.903782
4158.174434,-229.828649,666.185348,10214.842000
4158.174750,-306.438199,1036.288319,9770.718434
4158.175065,0.000000,1110.308913,9252.574275
4158.175381,766.095498,444.123565,9474.636058
4158.175696,842.705048,666.185348,9474.636058
4158.176011,459.657299,740.205942,9474.636058
4158.176327,76.609550,518.144159,9918.759623
4158.176642,-306.438199,1258.350101,9622.677246
4158.176957,0.000000,-0.000000,10584.944971
4158.177273,76.609550,222.061783,10140.821405
4158.177588,612.876398,-0.000000,9992.780217
4158.177903,689.485948,-222.061783,10066.800811
4158.178219,459.657299,-0.000000,10066.800811
4158.178534,153.219100,814.226536,10288.862594
4158.178850,-229.828649,1110.308913,9844.739029
4158.179165,0.000000,1406.391290,9104.533087
4158.179480,536.266849,740.205942,9104.533087
4158.179796,612.876398,-148.041188,9030.512492
4158.180111,459.657299,-0.000000,9400.615463
4158.180426,-229.828649,-0.000000,10066.800811
4158.180742,-459.657299,-296.082377,10140.821405
4158.181057,0.000000,518.144159,10288.862594
4158.181373,-689.485948,-0.000000,9696.697840
4158.181688,0.000000,-888.247130,9992.780217
4158.182003,995.924147,-444.123565,9770.718434
4158.182319,995.924147,-148.041188,8808.450710
4158.182634,459.657299,666.185348,9030.512492
4158.182949,306.438199,1036.288319,9770.718434
4158.183265,76.609550,1332.370696,9178.553681
4158.183580,0.000000,592.164754,9326.594869
4158.183896,383.047749,-148.041188,9326.594869
4158.184211,842.705048,-592.164754,9474.636058
4158.184526,-153.219100,-740.205942,9696.697840
4158.184842,-383.047749,-740.205942,10510.924376
4158.185157,-766.095498,-666.185348,10658.965565
4158.185472,-689.485948,-296.082377,10510.924376
4158.185788,306.438199,-222.061783,9918.759623
4158.186103,1378.971896,-148.041188,8438.347739
4158.186418,1378.971896,296.082377,8512.368333
4158.186734,919.314598,444.123565,8586.388927
4158.187049,842.705048,370.102971,8512.368333
4158.187365,459.657299,1036.288319,8808.450710
4158.187680,229.828649,518.144159,9326.594869
4158.187995,153.219100,370.102971,9326.594869
4158.188311,919.314598,-518.144159,9474.636058
4158.188626,306.438199,-222.061783,9474.636058
4158.188941,-612.876398,-740.205942,9992.780217
4158.189257,-842.705048,-962.267725,10066.800811
4158.189572,-1455.581446,-148.041188,10732.986159
4158.189888,-995.924147,592.164754,10140.821405
4158.190203,-306.438199,-222.061783,9844.739029
4158.190518,766.095498,-0.000000,8808.450710
4158.190834,612.876398,-222.061783,8956.491898
4158.191149,306.438199,296.082377,8956.491898
4158.191464,0.000000,888.247130,9030.512492
4158.191780,-383.047749,1924.535449,9252.574275
4158.192095,-229.828649,1258.350101,9844.739029
4158.192411,-153.219100,-74.020594,9474.636058
4158.192726,229.828649,-1036.288319,9622.677246
4158.193041,0.000000,-1406.391290,9844.739029
4158.193357,-842.705048,-1554.432478,10362.883188
4158.193672,-995.924147,-444.123565,11103.089130
4158.193987,-842.705048,740.205942,10288.862594
4158.194303,-383.047749,1036.288319,9918.759623
4158.194618,995.924147,592.164754,9104.533087
4158.194933,1302.362347,370.102971,8734.430116
4158.195249,919.314598,518.144159,8882.471304
4158.195564,229.828649,888.247130,9844.739029
4158.195880,-229.828649,1258.350101,9770.718434
4158.196195,-229.828649,1184.329507,9770.718434
4158.196510,229.828649,444.123565,10140.821405
4158.196826,919.314598,-0.000000,10436.903782
4158.197141,383.047749,-444.123565,10436.903782
4158.197456,153.219100,-370.102971,9992.780217
4158.197772,0.000000,-0.000000,10214.842000
4158.198087,0.000000,962.267725,9548.656652
4158.198403,-459.657299,740.205942,9696.697840
4158.198718,0.000000,814.226536,8882.471304
4158.199033,766.095498,-0.000000,9548.656652
4158.199349,1225.752797,-0.000000,8808.450710
4158.199664,995.924147,-370.102971,9770.718434
4158.199979,306.438199,666.185348,9548.656652
4158.200295,-995.924147,962.267725,9474.636058
4158.200610,0.000000,1110.308913,9548.656652
4158.200926,536.266849,-0.000000,9622.677246
4158.201241,995.924147,-444.123565,9474.636058
4158.201556,1072.533697,-444.123565,9400.615463
4158.201872,383.047749,-296.082377,9474.636058
4158.202187,153.219100,740.205942,9178.553681
4158.202502,-383.047749,1332.370696,9178.553681
4158.202818,0.000000,666.185348,9474.636058
4158.203133,766.095498,-222.061783,9030.512492
4158.203448,842.705048,-666.185348,8660.409521
4158.203764,842.705048,-740.205942,9400.615463
4158.204079,306.438199,-370.102971,9252.574275
4158.204395,0.000000,444.123565,9400.615463
4158.204710,0.000000,740.205942,9622.677246
4158.205025,0.000000,148.041188,9474.636058
4158.205341,689.485948,-296.082377,9104.533087
4158.205656,1072.533697,-296.082377,8808.450710
4158.205971,919.314598,-74.020594,8956.491898
4158.206287,229.828649,518.144159,9770.718434
4158.206602,-459.657299,888.247130,9400.615463
4158.206918,-1072.533697,296.082377,9548.656652
4158.207233,-229.828649,-0.000000,9770.718434
4158.207548,-153.219100,-592.164754,9992.780217
4158.207864,0.000000,-740.205942,10584.944971
4158.208179,0.000000,-518.144159,10214.842000
4158.208494,-536.266849,-0.000000,10140.821405
4158.208810,-842.705048,370.102971,10362.883188
4158.209125,-919.314598,1184.329507,9622.677246
4158.209441,0.000000,444.123565,9548.656652
4158.209756,612.876398,-0.000000,9178.553681
4158.210071,459.657299,370.102971,8956.491898
4158.210387,-306.438199,370.102971,9474.636058
4158.210702,-919.314598,222.061783,9696.697840
4158.211017,-1302.362347,592.164754,10066.800811
4158.211333,-1225.752797,-0.000000,10362.883188
4158.211648,-536.266849,-74.020594,10362.883188
4158.211963,0.000000,-740.205942,10288.862594
4158.212279,0.000000,-592.164754,10288.862594
4158.212594,-229.828649,-370.102971,10066.800811
4158.212910,-306.438199,740.205942,9696.697840
4158.213225,-536.266849,1332.370696,9178.553681
4158.213540,-306.438199,1332.370696,9474.636058
4158.213856,459.657299,444.123565,9104.533087
4158.214171,842.705048,-0.000000,8956.491898
4158.214486,459.657299,-370.102971,9104.533087
4158.214802,-306.438199,-666.185348,9696.697840
4158.215117,-766.095498,-0.000000,10288.862594
4158.215433,-1225.752797,296.082377,10362.883188
4158.215748,-306.438199,-74.020594,10362.883188
4158.216063,76.609550,-740.205942,9992.780217
4158.216379,766.095498,-592.164754,9474.636058
4158.216694,842.705048,-444.123565,9474.636058
4158.217009,612.876398,-148.041188,9770.718434
4158.217325,536.266849,1036.288319,9030.512492
4158.217640,383.047749,1332.370696,8808.450710
4158.217956,536.266849,1036.288319,8956.491898
4158.218271,1149.143247,-0.000000,9104.533087
4158.218586,1302.362347,-0.000000,9622.677246
4158.218902,383.047749,-296.082377,9696.697840
4158.219217,0.000000,-222.061783,9844.739029
4158.219532,-306.438199,222.061783,10140.821405
4158.219848,-306.438199,-0.000000,9918.759623
4158.220163,536.266849,-518.144159,9992.780217
4158.220478,995.924147,-518.144159,9918.759623
4158.220794,995.924147,-222.061783,9474.636058
4158.221109,842.705048,370.102971,9252.574275
4158.221425,459.657299,1110.308913,8882.471304
4158.221740,229.828649,1554.432478,8808.450710
4158.222055,306.438199,1554.432478,8808.450710
4158.222371,766.095498,814.226536,9030.512492
4158.222686,689.485948,-222.061783,9400.615463
4158.223001,536.266849,-592.164754,9548.656652
4158.223317,76.609550,-444.123565,10362.883188
4158.223632,-383.047749,-0.000000,10955.047942
4158.223947,-689.485948,666.185348,10584.944971
4158.224263,-306.438199,-0.000000,10362.883188
4158.224578,459.657299,-0.000000,9770.718434
4158.224893,1225.752797,-0.000000,9326.594869
4158.225209,919.314598,518.144159,8882.471304
4158.225524,536.266849,1036.288319,9400.615463
4158.225839,229.828649,1554.432478,9400.615463
4158.226155,459.657299,1184.329507,9474.636058
4158.226470,229.828649,740.205942,9696.697840
4158.226785,76.609550,-222.061783,9696.697840
4158.227101,536.266849,-518.144159,9622.677246
4158.227416,0.000000,-1036.288319,10436.903782
4158.227731,-536.266849,-296.082377,10362.883188
4158.228047,-1149.143247,296.082377,11029.068536
4158.228362,-1072.533697,740.205942,9992.780217
4158.228677,-229.828649,666.185348,9548.656652
4158.228993,0.000000,-74.020594,9474.636058
4158.229308,766.095498,-0.000000,9252.574275
4158.229623,229.828649,518.144159,9474.636058
4158.229939,0.000000,370.102971,9548.656652
4158.230254,-536.266849,740.205942,9770.718434
4158.230569,-842.705048,740.205942,9770.718434
4158.230885,0.000000,-296.082377,9548.656652
4158.231200,0.000000,-888.247130,9474.636058
4158.231515,0.000000,-1332.370696,9474.636058
4158.231831,-766.095498,-1332.370696,9992.780217
4158.232146,-1072.533697,-444.123565,9770.718434
4158.232461,-1302.362347,444.123565,9474.636058
4158.232777,-689.485948,-0.000000,8882.471304
4158.233092,-229.828649,-74.020594,8882.471304
4158.233407,383.047749,-0.000000,8956.491898
4158.233723,76.609550,-0.000000,8586.388927
4158.234038,0.000000,-222.061783,9252.574275
4158.234353,-383.047749,-0.000000,9696.697840
4158.234669,-383.047749,592.164754,9474.636058
4158.234984,383.047749,-0.000000,9474.636058
4158.235299,612.876398,-666.185348,9400.615463
4158.235615,459.657299,-814.226536,9326.594869
4158.235930,306.438199,-740.205942,9252.574275
4158.236245,76.609550,-0.000000,9252.574275
4158.236561,-383.047749,-0.000000,9104.533087
4158.236876,-306.438199,222.061783,8956.491898
4158.237191,-306.438199,222.061783,8882.471304
4158.237507,689.485948,-296.082377,9104.533087
4158.237822,689.485948,-444.123565,8882.471304
4158.238137,459.657299,-0.000000,9400.615463
4158.238453,306.438199,-0.000000,10288.862594
4158.238768,229.828649,962.267725,10066.800811
4158.239083,76.609550,1332.370696,10214.842000
4158.239399,842.705048,740.205942,9696.697840
4158.239714,995.924147,592.164754,9474.636058
4158.240029,1378.971896,592.164754,9844.739029
4158.240345,612.876398,666.185348,9696.697840
4158.240660,153.219100,222.061783,9696.697840
4158.240975,0.000000,962.267725,10362.883188
4158.241291,-383.047749,962.267725,9474.636058
4158.241606,0.000000,-148.041188,10140.821405
4158.241921,229.828649,-740.205942,10214.842000
4158.242237,612.876398,-666.185348,10288.862594
4158.242552,459.657299,-296.082377,10066.800811
4158.242867,153.219100,222.061783,10362.883188
4158.243183,0.000000,1036.288319,10288.862594
4158.243498,76.609550,814.226536,9474.636058
4158.243813,919.314598,592.164754,9548.656652
4158.244129,1762.019645,444.123565,8808.450710
4158.244444,995.924147,592.164754,9178.553681
4158.244759,383.047749,740.205942,9548.656652
4158.245075,-306.438199,666.185348,9844.739029
4158.245390,-383.047749,888.247130,10140.821405
4158.245705,-612.876398,-0.000000,10214.842000
4158.246020,76.609550,-888.247130,10362.883188
4158.246336,229.828649,-1036.288319,10807.006753
4158.246651,0.000000,-592.164754,10288.862594
4158.246966,153.219100,-148.041188,10288.862594
4158.247282,0.000000,296.082377,9992.780217
4158.247597,-229.828649,888.247130,9326.594869
4158.247912,612.876398,1036.288319,9030.512492
4158.248228,995.924147,148.041188,8512.368333
4158.248543,1072.533697,148.041188,8512.368333
4158.248858,766.095498,-0.000000,8364.327145
4158.249174,76.609550,-0.000000,8882.471304
4158.249489,-612.876398,296.082377,9622.677246
4158.249804,-842.705048,222.061783,9622.677246
4158.250120,0.000000,-592.164754,9696.697840
4158.250435,306.438199,-814.226536,9770.718434
4158.250750,612.876398,-1258.350101,10362.883188
4158.251066,76.609550,-518.144159,9474.636058
4158.251381,-842.705048,-0.000000,9622.677246
4158.251696,-612.876398,962.267725,9548.656652
4158.252012,-612.876398,888.247130,9178.553681
4158.252327,-229.828649,-0.000000,8882.471304
4158.252642,229.828649,-518.144159,8882.471304
4158.252958,153.219100,-370.102971,8808.450710
4158.253273,-153.219100,-518.144159,9252.574275
4158.253588,-459.657299,-74.020594,9252.574275
4158.253904,-842.705048,444.123565,10066.800811
4158.254219,-1072.533697,-444.123565,9992.780217
4158.254534,0.000000,-1110.308913,9770.718434
4158.254850,689.485948,-1110.308913,9252.574275
4158.255165,536.266849,-518.144159,8808.450710
4158.255480,0.000000,-370.102971,9326.594869
4158.255796,-229.828649,666.185348,9326.594869
4158.256111,-689.485948,1258.350101,9030.512492
4158.256426,-306.438199,370.102971,9326.594869
4158.256742,-153.219100,-370.102971,9548.656652
4158.257057,689.485948,-370.102971,10214.842000
4158.257372,0.000000,-74.020594,10288.862594
4158.257688,-306.438199,-370.102971,10955.047942
4158.258003,-229.828649,666.185348,10732.986159
4158.258318,0.000000,740.205942,10436.903782
4158.258634,306.438199,1184.329507,9992.780217
4158.258949,1149.143247,740.205942,8956.491898
4158.259264,1378.971896,518.144159,9400.615463
4158.259580,1072.533697,814.226536,9326.594869
4158.259895,76.609550,1258.350101,9326.594869
4158.260210,0.000000,1184.329507,9548.656652
4158.260526,-766.095498,1036.288319,9548.656652
4158.260841,0.000000,222.061783,9770.718434
4158.261156,229.828649,-296.082377,9992.780217
4158.261472,536.266849,-666.185348,10807.006753
4158.261787,229.828649,-0.000000,10214.842000
4158.262102,0.000000,370.102971,10066.800811
4158.262418,0.000000,1406.391290,10288.862594
4158.262733,0.000000,1406.391290,9622.677246
4158.263048,919.314598,814.226536,9770.718434
4158.263364,1378.971896,666.185348,9326.594869
4158.263679,1149.143247,592.164754,9326.594869
4158.263994,459.657299,1036.288319,9252.574275
4158.264310,-306.438199,1110.308913,9474.636058
4158.264625,-1072.533697,962.267725,10066.800811
4158.264940,-842.705048,-148.041188,10288.862594
4158.265256,-383.047749,-814.226536,9918.759623
4158.265571,0.000000,-1406.391290,9918.759623
4158.265886,0.000000,-1036.288319,9622.677246
4158.266202,-1072.533697,-296.082377,9844.739029
4158.266517,-459.657299,814.226536,10288.862594
4158.266832,153.219100,1184.329507,9178.553681
4158.267148,536.266849,592.164754,8290.306550
4158.267463,1225.752797,-0.000000,8808.450710
4158.267778,1685.410096,666.185348,8660.409521
4158.268094,766.095498,518.144159,8660.409521
4158.268409,383.047749,-0.000000,9326.594869
4158.268724,-459.657299,740.205942,9548.656652
4158.269040,-536.266849,-0.000000,10214.842000
4158.269355,-689.485948,-222.061783,10140.821405
4158.269670,0.000000,-888.247130,9992.780217
4158.269986,383.047749,-592.164754,9918.759623
4158.270301,0.000000,-0.000000,9696.697840
4158.270616,0.000000,-0.000000,9622.677246
4158.270932,0.000000,962.267725,9548.656652
4158.271247,76.609550,1554.432478,8956.491898
4158.271562,689.485948,814.226536,8586.388927
4158.271877,1378.971896,666.185348,8808.450710
4158.272193,1378.971896,-0.000000,8660.409521
4158.272508,995.924147,-0.000000,9474.636058
4158.272823,-306.438199,370.102971,9622.677246
4158.273139,-689.485948,296.082377,10214.842000
4158.273454,-536.266849,-148.041188,9918.759623
4158.273769,76.609550,-1110.308913,10436.903782
4158.274085,0.000000,-962.267725,9992.780217
4158.274400,0.000000,-888.247130,9400.615463
4158.274715,-459.657299,-0.000000,9918.759623
4158.275031,-612.876398,518.144159,9326.594869
4158.275346,-383.047749,1184.329507,9548.656652
4158.275661,-306.438199,518.144159,9326.594869
4158.275977,612.876398,-148.041188,9474.636058
4158.276292,536.266849,-518.144159,9474.636058
4158.276607,306.438199,-666.185348,9696.697840
4158.276923,-229.828649,-666.185348,10214.842000
4158.277238,-536.266849,148.041188,10658.965565
4158.277553,-612.876398,222.061783,9992.780217
4158.277869,-536.266849,-148.041188,9474.636058
4158.278184,229.828649,-518.144159,9548.656652
4158.278499,153.219100,-666.185348,9252.574275
4158.278815,-229.828649,-814.226536,9400.615463
4158.279130,-842.705048,-0.000000,9400.615463
4158.279445,-995.924147,370.102971,9696.697840
4158.279761,-766.095498,740.205942,9474.636058
4158.280076,-612.876398,-148.041188,10140.821405
4158.280391,153.219100,-370.102971,9696.697840
4158.280707,229.828649,-666.185348,9622.677246
4158.281022,153.219100,-370.102971,9548.656652
4158.281337,0.000000,-0.000000,9992.780217
4158.281653,0.000000,1110.308913,10214.842000
4158.281968,0.000000,962.267725,9548.656652
4158.282283,536.266849,666.185348,9104.533087
4158.282599,1302.362347,666.185348,8734.430116
4158.282914,1762.019645,222.061783,9030.512492
4158.283229,536.266849,370.102971,8956.491898
4158.283545,306.438199,814.226536,9326.594869
4158.283860,-153.219100,666.185348,9548.656652
4158.284175,0.000000,222.061783,9770.718434
4158.284491,536.266849,-814.226536,9400.615463
4158.284806,1072.533697,-666.185348,9770.718434
4158.285121,919.314598,-518.144159,9400.615463
4158.285437,536.266849,-370.102971,9104.533087
4158.285752,229.828649,592.164754,9474.636058
4158.286067,-229.828649,962.267725,9622.677246
4158.286383,0.000000,1036.288319,9252.574275
4158.286698,153.219100,666.185348,9178.553681
4158.287013,1072.533697,-296.082377,9474.636058
4158.287329,689.485948,-0.000000,9400.615463
4158.287644,-229.828649,-370.102971,10658.965565
4158.287959,-689.485948,296.082377,10362.883188
4158.288275,-1225.752797,814.226536,10510.924376
4158.288590,0.000000,-0.000000,10362.883188
4158.288905,306.438199,-296.082377,10436.903782
4158.289221,919.314598,-222.061783,9474.636058
4158.289536,766.095498,-370.102971,9474.636058
4158.289851,229.828649,370.102971,9474.636058
4158.290167,76.609550,1036.288319,9622.677246
4158.290482,-229.828649,1776.494261,9548.656652
4158.290797,0.000000,1036.288319,9400.615463
4158.291113,536.266849,222.061783,9474.636058
4158.291428,766.095498,-370.102971,9548.656652
4158.291743,459.657299,-370.102971,10066.800811
4158.292059,-383.047749,-222.061783,10881.027347
4158.292374,-842.705048,666.185348,10807.006753
4158.292689,-842.705048,1036.288319,10510.924376
4158.293005,153.219100,592.164754,10140.821405
4158.293320,1072.533697,-0.000000,9770.718434
4158.293635,995.924147,444.123565,9104.533087
4158.293951,766.095498,740.205942,8956.491898
4158.294266,153.219100,1184.329507,9400.615463
4158.294581,0.000000,1628.453072,8956.491898
4158.294897,-612.876398,518.144159,9474.636058
4158.295212,0.000000,370.102971,9474.636058
4158.295527,0.000000,-666.185348,9992.780217
4158.295843,-229.828649,-1258.350101,9918.759623
4158.296158,-459.657299,-1110.308913,10362.883188
4158.296473,-689.485948,-666.185348,10436.903782
4158.296789,-995.924147,296.082377,9918.759623
4158.297104,-842.705048,444.123565,9326.594869
4158.297419,459.657299,-74.020594,9252.574275
4158.297734,1225.752797,-74.020594,8660.409521
4158.298050,1532.190996,-0.000000,7994.224174
4158.298365,459.657299,-0.000000,8364.327145
4158.298680,-459.657299,740.205942,8956.491898
4158.298996,0.000000,518.144159,8808.450710
4158.299311,-306.438199,-222.061783,9474.636058
4158.299626,0.000000,-1110.308913,10362.883188
4158.299942,0.000000,-1184.329507,9696.697840
4158.300257,-766.095498,-1480.411884,9844.739029
4158.300572,-766.095498,-1332.370696,10362.883188
4158.300888,-612.876398,-0.000000,10214.842000
4158.301203,-995.924147,444.123565,10140.821405
4158.301518,0.000000,666.185348,9474.636058
4158.301834,842.705048,518.144159,9326.594869
4158.302149,1302.362347,740.205942,8216.285956
4158.302464,919.314598,222.061783,8660.409521
4158.302780,306.438199,296.082377,9474.636058
4158.303095,0.000000,1184.329507,9474.636058
4158.303410,-76.609550,1110.308913,9474.636058
4158.303726,76.609550,-0.000000,9918.759623
4158.304041,536.266849,-444.123565,9770.718434
4158.304356,536.266849,-1036.288319,10140.821405
4158.304672,-383.047749,-666.185348,10288.862594
4158.304987,-536.266849,-0.000000,10436.903782
4158.305302,-612.876398,1036.288319,9548.656652
4158.305618,76.609550,1628.453072,9548.656652
4158.305933,383.047749,592.164754,9400.615463
4158.306248,1072.533697,222.061783,9326.594869
4158.306564,1072.533697,296.082377,9474.636058
4158.306879,842.705048,888.247130,9622.677246
4158.307194,229.828649,1332.370696,9696.697840
4158.307510,-306.438199,1332.370696,9548.656652
4158.307825,-229.828649,518.144159,9992.780217
4158.308140,383.047749,-370.102971,10140.821405
4158.308456,842.705048,-962.267725,9770.718434
4158.308771,536.266849,-1036.288319,9622.677246
4158.309086,-306.438199,-0.000000,10362.883188
4158.309402,-689.485948,592.164754,10288.862594
4158.309717,-383.047749,592.164754,9400.615463
4158.310032,229.828649,296.082377,9474.636058
4158.310348,995.924147,-148.041188,9474.636058
4158.310663,1072.533697,-1036.288319,8808.450710
4158.310978,766.095498,-666.185348,9326.594869
4158.311294,229.828649,-0.000000,9918.759623
4158.311609,-229.828649,666.185348,9918.759623
4158.311924,-383.047749,592.164754,9326.594869
4158.312240,459.657299,-0.000000,10066.800811
4158.312555,842.705048,-370.102971,9992.780217
4158.312870,842.705048,-296.082377,9400.615463
4158.313186,0.000000,-370.102971,8956.491898
4158.313501,0.000000,296.082377,10140.821405
4158.313816,-459.657299,1110.308913,9622.677246
4158.314132,-459.657299,-0.000000,9474.636058
4158.314447,0.000000,-222.061783,9770.718434
4158.314762,766.095498,-370.102971,9474.636058
4158.315078,459.657299,-74.020594,9400.615463
4158.315393,-76.609550,-148.041188,9474.636058
4158.315708,76.609550,592.164754,9770.718434
4158.316024,0.000000,592.164754,8956.491898
4158.316339,76.609550,888.247130,8734.430116
4158.316654,383.047749,370.102971,9030.512492
4158.316970,536.266849,-148.041188,8734.430116
4158.317285,76.609550,444.123565,8882.471304
4158.317600,-612.876398,370.102971,8882.471304
4158.317916,-766.095498,296.082377,9844.739029
4158.318231,-1608.800546,444.123565,9548.656652
4158.318546,-1149.143247,-0.000000,9844.739029
4158.318862,-536.266849,-592.164754,10214.842000
4158.319177,76.609550,-888.247130,9474.636058
4158.319492,76.609550,-444.123565,9326.594869
4158.319808,0.000000,-0.000000,9622.677246
4158.320123,0.000000,962.267725,9548.656652
4158.320438,0.000000,1406.391290,8882.471304
4158.320754,76.609550,1110.308913,8586.388927
4158.321069,689.485948,222.061783,9548.656652
4158.321384,383.047749,-74.020594,8956.491898
4158.321700,-153.219100,-222.061783,9474.636058
4158.322015,-919.314598,-296.082377,10066.800811
4158.322330,-1378.971896,-0.000000,10658.965565
4158.322646,-995.924147,-74.020594,10362.883188
4158.322961,-612.876398,-740.205942,10807.006753
4158.323276,612.876398,-296.082377,11177.109724
4158.323591,919.314598,-0.000000,9770.718434
4158.323907,842.705048,666.185348,9622.677246
4158.324222,766.095498,1258.350101,9844.739029
4158.324538,612.876398,1702.473667,9400.615463
4158.324853,306.438199,2368.659014,9474.636058
4158.325168,842.705048,962.267725,9474.636058
4158.325484,1225.752797,222.061783,9326.594869
4158.325799,536.266849,-0.000000,9770.718434
4158.326114,0.000000,-74.020594,9992.780217
4158.326430,-612.876398,-444.123565,11547.212695
4158.326745,-1072.533697,-148.041188,10584.944971
4158.327060,-229.828649,-0.000000,10436.903782
4158.327376,766.095498,-444.123565,10066.800811
4158.327691,995.924147,-0.000000,9548.656652
4158.328006,1225.752797,-0.000000,9104.533087
4158.328322,995.924147,444.123565,8882.471304
4158.328637,995.924147,1480.411884,8808.450710
4158.328953,536.266849,1924.535449,8586.388927
4158.329268,919.314598,1332.370696,8586.388927
4158.329583,919.314598,-0.000000,9252.574275
4158.329899,459.657299,-888.247130,9252.574275
4158.330214,229.828649,-1554.432478,9696.697840
4158.330529,-536.266849,-1110.308913,10362.883188
4158.330845,-995.924147,-814.226536,10807.006753
4158.331160,-766.095498,-148.041188,10658.965565
4158.331475,76.609550,-444.123565,9178.553681
4158.331791,842.705048,-666.185348,9474.636058
4158.332106,1378.971896,-814.226536,9104.533087
4158.332422,229.828649,592.164754,7994.224174
4158.332737,153.219100,370.102971,9104.533087
4158.333052,459.657299,1184.329507,8956.491898
4158.333368,229.828649,1258.350101,8734.430116
4158.333683,306.438199,-296.082377,9252.574275
4158.333998,383.047749,-1406.391290,9696.697840
4158.334314,459.657299,-1554.432478,9548.656652
4158.334629,-459.657299,-888.247130,9844.739029
4158.334944,-766.095498,-296.082377,10214.842000
4158.335260,-1225.752797,-0.000000,10362.883188
4158.335575,-383.047749,370.102971,9548.656652
4158.335891,0.000000,-370.102971,9474.636058
4158.336206,612.876398,-0.000000,8808.450710
4158.336521,459.657299,592.164754,9326.594869
4158.336837,153.219100,1110.308913,9252.574275
4158.337152,0.000000,1258.350101,9548.656652
4158.337467,-536.266849,1628.453072,9844.739029
4158.337783,-153.219100,666.185348,10584.944971
4158.338098,0.000000,296.082377,9696.697840
4158.338413,536.266849,-666.185348,10362.883188
4158.338729,229.828649,-0.000000,9770.718434
4158.339044,-459.657299,-222.061783,9992.780217
4158.339360,-612.876398,592.164754,10140.821405
4158.339675,-766.095498,1036.288319,9548.656652
4158.339990,-842.705048,814.226536,9252.574275
4158.340306,0.000000,-0.000000,9622.677246
4158.340621,229.828649,370.102971,8660.409521
4158.340936,459.657299,-148.041188,9400.615463
4158.341252,-229.828649,222.061783,9474.636058
4158.341567,-766.095498,592.164754,10066.800811
4158.341882,-766.095498,962.267725,9770.718434
4158.342198,-153.219100,740.205942,10066.800811
4158.342513,536.266849,-148.041188,9696.697840
4158.342829,766.095498,-296.082377,9696.697840
4158.343144,383.047749,-148.041188,9918.759623
4158.343459,-306.438199,-0.000000,9918.759623
4158.343775,-689.485948,740.205942,10362.883188
4158.344090,-689.485948,1184.329507,9400.615463
4158.344405,0.000000,-0.000000,9622.677246
4158.344721,995.924147,-148.041188,9474.636058
4158.345036,1302.362347,-518.144159,8956.491898
4158.345351,1149.143247,-222.061783,9474.636058
4158.345667,842.705048,518.144159,10066.800811
4158.345982,0.000000,1184.329507,9548.656652
4158.346297,383.047749,888.247130,9474.636058
4158.346613,1532.190996,74.020594,9400.615463
4158.346928,1608.800546,-0.000000,9178.553681
4158.347244,1455.581446,-370.102971,9030.512492
4158.347559,536.266849,-0.000000,9622.677246
4158.347874,0.000000,740.205942,9918.759623
4158.348190,0.000000,1184.329507,9252.574275
4158.348505,-153.219100,814.226536,9696.697840
4158.348820,459.657299,-0.000000,9918.759623
4158.349136,536.266849,-370.102971,9696.697840
4158.349451,612.876398,-666.185348,9548.656652
4158.349766,612.876398,-0.000000,9844.739029
4158.350082,153.219100,592.164754,9548.656652
4158.350397,612.876398,1110.308913,9326.594869
4158.350713,1149.143247,666.185348,9104.533087
4158.351028,1532.190996,-0.000000,8882.471304
4158.351343,1762.019645,-0.000000,8142.265362
4158.351659,766.095498,444.123565,8290.306550
4158.351974,0.000000,-0.000000,8364.327145
4158.352289,-612.876398,-0.000000,9474.636058
4158.352605,-766.095498,-444.123565,9918.759623
4158.352920,-383.047749,-1776.494261,10510.924376
4158.353235,-306.438199,-2072.576638,10066.800811
4158.353551,0.000000,-2072.576638,10140.821405
4158.353866,-383.047749,-1110.308913,10584.944971
4158.354182,-383.047749,-148.041188,9696.697840
4158.354497,-306.438199,740.205942,9844.739029
4158.354812,459.657299,1480.411884,9178.553681
4158.355128,919.314598,962.267725,8734.430116
4158.355443,1302.362347,222.061783,8438.347739
4158.355758,919.314598,-0.000000,8808.450710
4158.356074,-153.219100,-74.020594,9400.615463
4158.356389,-919.314598,-0.000000,9918.759623
4158.356704,-1532.190996,370.102971,10510.924376
4158.357020,-1608.800546,-592.164754,10510.924376
4158.357335,-1072.533697,-1184.329507,10732.986159
4158.357651,0.000000,-1480.411884,10584.944971
4158.357966,-919.314598,-888.247130,10214.842000
4158.358281,-689.485948,-74.020594,10436.903782
4158.358597,-536.266849,592.164754,9918.759623
4158.358912,-229.828649,1554.432478,9400.615463
4158.359227,229.828649,1258.350101,9030.512492
4158.359543,842.705048,1332.370696,8882.471304
4158.359858,842.705048,740.205942,9104.533087
4158.360173,229.828649,666.185348,8882.471304
4158.360489,-306.438199,-74.020594,9844.739029
4158.360804,-1149.143247,-518.144159,10436.903782
4158.361120,-1378.971896,-0.000000,10732.986159
4158.361435,-995.924147,-666.185348,10658.965565
4158.361750,-459.657299,-1406.391290,10288.862594
4158.362066,229.828649,-1258.350101,9844.739029
4158.362381,459.657299,-666.185348,9474.636058
4158.362696,229.828649,-0.000000,8734.430116
4158.363012,306.438199,1332.370696,8734.430116
4158.363327,0.000000,1924.535449,8290.306550
4158.363642,306.438199,888.247130,8586.388927
4158.363958,1378.971896,-0.000000,8586.388927
4158.364273,1225.752797,-888.247130,8364.327145
4158.364588,306.438199,-962.267725,9918.759623
4158.364904,-229.828649,-518.144159,10140.821405
4158.365219,-766.095498,-222.061783,10510.924376
4158.365535,-306.438199,-0.000000,10288.862594
4158.365850,229.828649,-74.020594,9844.739029
4158.366165,919.314598,-222.061783,9400.615463
4158.366481,1225.752797,444.123565,8956.491898
4158.366796,919.314598,1184.329507,8808.450710
4158.367111,536.266849,1184.329507,8882.471304
4158.367427,0.000000,1850.514855,9400.615463
4158.367742,-153.219100,1554.432478,9326.594869
4158.368057,1455.581446,444.123565,9326.594869
4158.368373,1225.752797,-0.000000,9844.739029
4158.368688,536.266849,444.123565,9844.739029
4158.369004,229.828649,-0.000000,10436.903782
4158.369319,0.000000,592.164754,10955.047942
4158.369634,-689.485948,1110.308913,10140.821405
4158.369950,76.609550,962.267725,9770.718434
4158.370265,842.705048,888.247130,9474.636058
4158.370580,919.314598,740.205942,9474.636058
4158.370896,383.047749,1406.391290,9178.553681
4158.371211,383.047749,666.185348,9178.553681
4158.371526,-383.047749,1184.329507,9844.739029
4158.371842,-536.266849,1406.391290,10066.800811
4158.372157,-153.219100,740.205942,10362.883188
4158.372473,0.000000,-0.000000,10584.944971
4158.372788,459.657299,-370.102971,10214.842000
4158.373103,76.609550,-592.164754,10214.842000
4158.373419,-459.657299,-0.000000,10510.924376
4158.373734,-689.485948,962.267725,10584.944971
4158.374049,-306.438199,962.267725,9696.697840
4158.374365,229.828649,888.247130,9400.615463
4158.374680,766.095498,518.144159,9030.512492
4158.374995,995.924147,222.061783,8512.368333
4158.375311,229.828649,-370.102971,9400.615463
4158.375626,153.219100,-444.123565,9770.718434
4158.375942,-1072.533697,-0.000000,10362.883188
4158.376257,-459.657299,-0.000000,9844.739029
4158.376572,153.219100,-740.205942,9918.759623
4158.376888,306.438199,-962.267725,9918.759623
4158.377203,-229.828649,-1110.308913,9770.718434
4158.377518,153.219100,-592.164754,9622.677246
4158.377834,76.609550,-74.020594,9548.656652
4158.378149,-153.219100,814.226536,9622.677246
4158.378464,76.609550,814.226536,8882.471304
4158.378780,383.047749,-0.000000,9030.512492
4158.379095,1225.752797,-0.000000,8734.430116
4158.379411,995.924147,-518.144159,9030.512492
4158.379726,153.219100,-370.102971,9474.636058
4158.380041,-229.828649,-370.102971,9696.697840
4158.380357,-766.095498,-0.000000,10066.800811
4158.380672,-459.657299,-222.061783,9474.636058
4158.380987,76.609550,-1258.350101,9474.636058
4158.381303,536.266849,-1480.411884,9252.574275
4158.381618,229.828649,-814.226536,9104.533087
4158.381933,-306.438199,-0.000000,8734.430116
4158.382249,-689.485948,444.123565,9030.512492
4158.382564,-459.657299,1184.329507,8512.368333
4158.382879,-306.438199,370.102971,8512.368333
4158.383195,689.485948,-962.267725,9400.615463
4158.383510,306.438199,-814.226536,9622.677246
4158.383826,153.219100,-518.144159,9474.636058
4158.384141,-536.266849,-370.102971,9622.677246
4158.384456,-536.266849,148.041188,10140.821405
4158.384772,-766.095498,518.144159,9992.780217
4158.385087,0.000000,-74.020594,8956.491898
4158.385402,689.485948,-370.102971,9326.594869
4158.385718,306.438199,-0.000000,8956.491898
4158.386033,-306.438199,-0.000000,9178.553681
4158.386348,-919.314598,740.205942,9696.697840
4158.386664,-995.924147,592.164754,9548.656652
4158.386979,-612.876398,-0.000000,9622.677246
4158.387295,306.438199,-740.205942,10066.800811
4158.387610,689.485948,-222.061783,9474.636058
4158.387925,612.876398,-222.061783,9992.780217
4158.388241,459.657299,296.082377,9474.636058
4158.388556,153.219100,1110.308913,10288.862594
4158.388871,306.438199,1554.432478,10288.862594
4158.389187,383.047749,1702.473667,9474.636058
4158.389502,689.485948,444.123565,9474.636058
4158.389817,995.924147,592.164754,9178.553681
4158.390133,766.095498,592.164754,9400.615463
4158.390448,0.000000,740.205942,9992.780217
4158.390764,-766.095498,888.247130,10658.965565
4158.391079,-689.485948,1406.391290,11103.089130
4158.391394,0.000000,444.123565,10436.903782
4158.391710,383.047749,370.102971,10658.965565
4158.392025,1072.533697,-296.082377,10362.883188
4158.392340,383.047749,296.082377,10288.862594
4158.392656,76.609550,1036.288319,10140.821405
4158.392971,459.657299,1628.453072,9474.636058
4158.393286,766.095498,1628.453072,9326.594869
4158.393602,612.876398,1258.350101,8956.491898
4158.393917,1608.800546,-148.041188,8956.491898
4158.394233,1455.581446,296.082377,9474.636058
4158.394548,612.876398,296.082377,9030.512492
4158.394863,76.609550,-74.020594,9770.718434
4158.395179,-306.438199,518.144159,10288.862594
4158.395494,-229.828649,296.082377,10510.924376
4158.395809,536.266849,-518.144159,10288.862594
4158.396125,1302.362347,-666.185348,9918.759623
4158.396440,1149.143247,-0.000000,9474.636058
4158.396755,842.705048,370.102971,9178.553681
4158.397071,229.828649,962.267725,9178.553681
4158.397386,229.828649,1036.288319,8882.471304
4158.397702,153.219100,888.247130,8660.409521
4158.398017,459.657299,-0.000000,8660.409521
4158.398332,536.266849,-592.164754,9178.553681
4158.398648,0.000000,-814.226536,9252.574275
4158.398963,-995.924147,-1406.391290,9696.697840
4158.399278,-459.657299,-814.226536,9992.780217
4158.399594,-995.924147,-370.102971,10584.944971
4158.399909,-459.657299,-148.041188,9992.780217
4158.400224,-153.219100,-296.082377,9622.677246
4158.400540,612.876398,-0.000000,8882.471304
4158.400855,612.876398,-0.000000,9030.512492
4158.401171,0.000000,370.102971,9104.533087
4158.401486,-383.047749,814.226536,9030.512492
4158.401801,-689.485948,1554.432478,9918.759623
4158.402117,-919.314598,444.123565,9400.615463
4158.402432,-229.828649,-74.020594,9770.718434
4158.402747,0.000000,-962.267725,9770.718434
4158.403063,-689.485948,-1406.391290,10140.821405
4158.403378,-1072.533697,-1480.411884,11029.068536
4158.403693,-919.314598,-740.205942,10584.944971
4158.404009,-1225.752797,-0.000000,9770.718434
4158.404324,-306.438199,-0.000000,9474.636058
4158.404639,306.438199,-518.144159,8956.491898
4158.404955,383.047749,-148.041188,8512.368333
4158.405270,229.828649,-74.020594,8586.388927
4158.405586,-459.657299,444.123565,9252.574275
4158.405901,-995.924147,888.247130,9474.636058
4158.406216,-612.876398,962.267725,9474.636058
4158.406532,0.000000,-222.061783,9770.718434
4158.406847,76.609550,-962.267725,10214.842000
4158.407162,0.000000,-888.247130,10362.883188
4158.407478,-536.266849,-962.267725,10584.944971
4158.407793,-383.047749,-296.082377,11177.109724
4158.408108,-153.219100,666.185348,10436.903782
4158.408424,0.000000,518.144159,9548.656652
4158.408739,1225.752797,592.164754,8808.450710
4158.409055,1302.362347,222.061783,9178.553681
4158.409370,1225.752797,-0.000000,8882.471304
4158.409685,612.876398,-0.000000,8660.409521
4158.410001,689.485948,814.226536,9104.533087
4158.410316,76.609550,888.247130,9548.656652
4158.410631,76.609550,296.082377,9548.656652
4158.410947,689.485948,-888.247130,10362.883188
4158.411262,689.485948,-888.247130,10510.924376
4158.411577,1072.533697,-740.205942,9696.697840
4158.411893,76.609550,-0.000000,10066.800811
4158.412208,306.438199,1184.329507,9696.697840
4158.412524,536.266849,1406.391290,10362.883188
4158.412839,612.876398,1480.411884,9326.594869
4158.413154,1302.362347,1036.288319,9178.553681
4158.413470,1378.971896,1110.308913,8882.471304
4158.413785,842.705048,-0.000000,9548.656652
4158.414100,995.924147,-0.000000,9770.718434
4158.414416,-306.438199,370.102971,10362.883188
4158.414731,-383.047749,740.205942,10510.924376
4158.415046,-459.657299,-0.000000,10140.821405
4158.415362,383.047749,-74.020594,9770.718434
4158.415677,689.485948,-222.061783,9474.636058
4158.415993,229.828649,666.185348,9104.533087
4158.416308,0.000000,296.082377,9474.636058
4158.416623,-306.438199,1036.288319,9326.594869
4158.416939,-536.266849,1332.370696,9252.574275
4158.417254,0.000000,814.226536,9104.533087
4158.417569,612.876398,-0.000000,9252.574275
4158.417885,536.266849,-74.020594,9326.594869
4158.418200,0.000000,-74.020594,9548.656652
4158.418515,-229.828649,370.102971,9992.780217
4158.418831,-766.095498,444.123565,9844.739029
4158.419146,-766.095498,518.144159,9918.759623
4158.419462,0.000000,-0.000000,9696.697840
4158.419777,76.609550,-370.102971,9252.574275
4158.420092,229.828649,-222.061783,9696.697840
4158.420408,-689.485948,296.082377,9252.574275
4158.420723,-229.828649,888.247130,9178.553681
4158.421038,-766.095498,888.247130,9696.697840
4158.421354,-459.657299,888.247130,9844.739029
4158.421669,0.000000,370.102971,9770.718434
4158.421984,153.219100,-222.061783,9770.718434
4158.422300,536.266849,-518.144159,9696.697840
4158.422615,0.000000,-296.082377,9918.759623
4158.422930,0.000000,148.041188,10140.821405
4158.423246,-612.876398,444.123565,10288.862594
4158.423561,0.000000,888.247130,9622.677246
4158.423877,842.705048,444.123565,9104.533087
4158.424192,612.876398,222.061783,8586.388927
4158.424507,0.000000,-0.000000,9178.553681
4158.424823,-229.828649,-0.000000,9696.697840
4158.425138,-919.314598,222.061783,10140.821405
4158.425455,-1072.533697,-0.000000,10066.800811
4158.425770,-612.876398,-666.185348,10140.821405
4158.426085,306.438199,-1110.308913,10140.821405
4158.426400,306.438199,-1110.308913,9548.656652
4158.426715,76.609550,-888.247130,9918.759623
4158.427031,76.609550,-0.000000,9696.697840
4158.427346,229.828649,518.144159,9178.553681
4158.427661,306.438199,1480.411884,8586.388927
4158.427976,612.876398,814.226536,8512.368333
4158.428292,995.924147,-148.041188,8438.347739
4158.428607,612.876398,-740.205942,9400.615463
4158.428922,0.000000,-888.247130,9474.636058
4158.429237,-766.095498,-592.164754,10288.862594
4158.429553,-842.705048,-0.000000,10140.821405
4158.429868,-536.266849,-148.041188,10362.883188
4158.430183,153.219100,-148.041188,9992.780217
4158.430498,766.095498,-666.185348,9696.697840
4158.430813,383.047749,-740.205942,9400.615463
4158.431129,919.314598,-0.000000,9474.636058
4158.431444,612.876398,814.226536,9474.636058
4158.431759,459.657299,1184.329507,9030.512492
4158.432074,459.657299,1480.411884,9104.533087
4158.432390,689.485948,222.061783,9030.512492
4158.432705,842.705048,-0.000000,9252.574275
4158.433020,306.438199,-296.082377,9474.636058
4158.433335,-153.219100,-0.000000,10140.821405
4158.433651,-842.705048,444.123565,10732.986159
4158.433966,-1302.362347,148.041188,10436.903782
4158.434281,-459.657299,-296.082377,10436.903782
4158.434596,383.047749,-518.144159,10436.903782
4158.434912,766.095498,-444.123565,10066.800811
4158.435227,612.876398,222.061783,9474.636058
4158.435542,76.609550,814.226536,9474.636058
4158.435857,153.219100,1332.370696,8734.430116
4158.436172,-306.438199,1332.370696,8956.491898
4158.436488,229.828649,444.123565,8882.471304
4158.436803,689.485948,-518.144159,9326.594869
4158.437118,0.000000,-962.267725,9178.553681
4158.437433,-153.219100,-814.226536,9992.780217
4158.437749,-536.266849,-666.185348,10510.924376
4158.438064,-536.266849,-0.000000,10732.986159
4158.438379,-459.657299,370.102971,10140.821405
4158.438694,229.828649,148.041188,9770.718434
4158.439010,1455.581446,370.102971,9770.718434
4158.439325,1685.410096,296.082377,8956.491898
4158.439640,1378.971896,370.102971,9474.636058
4158.439955,459.657299,1480.411884,9474.636058
4158.440270,-229.828649,962.267725,8956.491898
4158.440586,306.438199,1258.350101,9030.512492
4158.440901,383.047749,592.164754,9770.718434
4158.441216,1149.143247,-888.247130,9770.718434
4158.441531,383.047749,-1480.411884,10214.842000
4158.441847,-229.828649,-666.185348,10140.821405
4158.442162,-612.876398,-296.082377,11029.068536
4158.442477,-766.095498,666.185348,10066.800811
4158.442792,-306.438199,592.164754,9696.697840
4158.443108,383.047749,740.205942,8808.450710
4158.443423,995.924147,222.061783,8956.491898
4158.443738,842.705048,518.144159,8660.409521
4158.444053,306.438199,592.164754,9400.615463
4158.444368,0.000000,1110.308913,9918.759623
4158.444684,-612.876398,962.267725,9844.739029
4158.444999,-842.705048,148.041188,9622.677246
4158.445314,-229.828649,-74.020594,10066.800811
4158.445629,0.000000,-814.226536,10066.800811
4158.445945,-383.047749,-666.185348,9696.697840
4158.446260,-919.314598,-148.041188,10066.800811
4158.446575,-689.485948,296.082377,9548.656652
4158.446890,-842.705048,962.267725,9326.594869
4158.447206,153.219100,296.082377,9474.636058
4158.447521,383.047749,-148.041188,9400.615463
4158.447836,689.485948,-0.000000,8512.368333
4158.448151,612.876398,-0.000000,8734.430116
4158.448466,153.219100,296.082377,9474.636058
4158.448782,0.000000,814.226536,9030.512492
4158.449097,383.047749,518.144159,10140.821405
4158.449412,0.000000,-0.000000,9400.615463
4158.449727,612.876398,-444.123565,9252.574275
4158.450043,76.609550,-962.267725,9252.574275
4158.450358,-536.266849,-962.267725,9474.636058
4158.450673,-766.095498,-0.000000,10436.903782
4158.450988,-919.314598,888.247130,9622.677246
4158.451304,-612.876398,814.226536,9474.636058
4158.451619,153.219100,814.226536,9548.656652
4158.451934,1072.533697,222.061783,9252.574275
4158.452249,612.876398,518.144159,9030.512492
4158.452564,383.047749,296.082377,9326.594869
4158.452880,229.828649,222.061783,9992.780217
4158.453195,-306.438199,962.267725,9992.780217
4158.453510,-153.219100,740.205942,9844.739029
4158.453825,536.266849,-0.000000,9770.718434
4158.454141,766.095498,-0.000000,9622.677246
4158.454456,536.266849,-0.000000,9400.615463
4158.454771,0.000000,-148.041188,9696.697840
4158.455086,-383.047749,296.082377,9918.759623
4158.455402,-612.876398,962.267725,10066.800811
4158.455717,-459.657299,592.164754,9474.636058
4158.456032,459.657299,-222.061783,9992.780217
4158.456347,1149.143247,-370.102971,9696.697840
4158.456662,229.828649,-74.020594,10214.842000
4158.456978,0.000000,-0.000000,10362.883188
4158.457293,0.000000,666.185348,10066.800811
4158.457608,306.438199,444.123565,9844.739029
4158.457923,766.095498,-0.000000,9696.697840
4158.458239,1072.533697,-444.123565,9548.656652
4158.458554,612.876398,-444.123565,8956.491898
4158.458869,-306.438199,-370.102971,9474.636058
4158.459184,-229.828649,-222.061783,9474.636058
4158.459500,-612.876398,-148.041188,9622.677246
4158.459815,-919.314598,-296.082377,9992.780217
4158.460130,-153.219100,-814.226536,9622.677246
4158.460445,612.876398,-962.267725,10140.821405
4158.460761,842.705048,-1184.329507,9696.697840
4158.461076,612.876398,-592.164754,9178.553681
4158.461391,383.047749,-0.000000,9770.718434
4158.461706,306.438199,370.102971,9252.574275
4158.462021,919.314598,666.185348,8956.491898
4158.462337,1149.143247,444.123565,8290.306550
4158.462652,1378.971896,-0.000000,8364.327145
4158.462967,689.485948,-0.000000,8364.327145
4158.463282,0.000000,222.061783,9104.533087
4158.463598,-842.705048,-296.082377,9474.636058
4158.463913,-919.314598,-74.020594,9696.697840
4158.464228,-1302.362347,-296.082377,10362.883188
4158.464543,-536.266849,-1184.329507,10584.944971
4158.464859,153.219100,-740.205942,10140.821405
4158.465174,383.047749,-0.000000,9548.656652
4158.465489,153.219100,444.123565,9844.739029
4158.465804,1149.143247,1406.391290,9400.615463
4158.466119,689.485948,2072.576638,9030.512492
4158.466435,1225.752797,1480.411884,8068.244768
4158.466750,1225.752797,1184.329507,8290.306550
4158.467065,1072.533697,666.185348,8512.368333
4158.467380,536.266849,-0.000000,9104.533087
4158.467696,-612.876398,-0.000000,9474.636058
4158.468011,-1455.581446,-370.102971,10510.924376
4158.468326,-1838.629195,-444.123565,10510.924376
4158.468641,-1149.143247,-888.247130,10807.006753
4158.468957,-306.438199,-1036.288319,10510.924376
4158.469272,-383.047749,-592.164754,9918.759623
4158.469587,-459.657299,-0.000000,9622.677246
4158.469902,0.000000,962.267725,9474.636058
4158.470217,153.219100,2072.576638,9030.512492
4158.470533,306.438199,2294.638420,9178.553681
4158.470848,306.438199,1480.411884,8660.409521
4158.471163,766.095498,-0.000000,9178.553681
4158.471478,842.705048,-0.000000,9400.615463
4158.471794,0.000000,-370.102971,10214.842000
4158.472109,-995.924147,-444.123565,10807.006753
4158.472424,-1455.581446,370.102971,10881.027347
4158.472739,-919.314598,-0.000000,10584.944971
4158.473055,0.000000,-0.000000,9992.780217
4158.473370,383.047749,-0.000000,9918.759623
4158.473685,459.657299,370.102971,9548.656652
4158.474000,153.219100,1110.308913,9400.615463
4158.474315,0.000000,1702.473667,8956.491898
4158.474631,689.485948,1776.494261,9548.656652
4158.474946,612.876398,1480.411884,9548.656652
4158.475261,842.705048,740.205942,10066.800811
4158.475576,919.314598,666.185348,9844.739029
4158.475892,383.047749,-0.000000,10214.842000
4158.476207,383.047749,444.123565,10510.924376
4158.476522,76.609550,370.102971,10658.965565
4158.476837,-229.828649,962.267725,10066.800811
4158.477153,-306.438199,962.267725,9252.574275
4158.477468,306.438199,-74.020594,9178.553681
4158.477783,229.828649,-0.000000,10066.800811
4158.478098,459.657299,592.164754,8808.450710
4158.478413,0.000000,148.041188,9252.574275
4158.478729,0.000000,444.123565,9104.533087
4158.479044,0.000000,518.144159,9770.718434
4158.479359,689.485948,-0.000000,10214.842000
4158.479674,842.705048,-592.164754,9326.594869
4158.479990,766.095498,-592.164754,9474.636058
4158.480305,383.047749,-814.226536,9474.636058
4158.480620,383.047749,-518.144159,9844.739029
4158.480935,0.000000,296.082377,9622.677246
4158.481251,0.000000,296.082377,9400.615463
4158.481566,383.047749,-222.061783,9104.533087
4158.481881,842.705048,-592.164754,8364.327145
4158.482196,766.095498,-962.267725,8364.327145
4158.482512,153.219100,-814.226536,9326.594869
4158.482827,-383.047749,-740.205942,9696.697840
4158.483142,-766.095498,-222.061783,9696.697840
4158.483457,-536.266849,-370.102971,9770.718434
4158.483772,0.000000,-740.205942,9770.718434
4158.484088,459.657299,-1258.350101,9400.615463
4158.484403,612.876398,-888.247130,9918.759623
4158.484718,689.485948,-296.082377,9622.677246
4158.485033,306.438199,740.205942,9030.512492
4158.485349,306.438199,1406.391290,8882.471304
4158.485664,383.047749,1184.329507,8882.471304
4158.485979,766.095498,592.164754,9178.553681
4158.486294,842.705048,-74.020594,9178.553681
4158.486610,459.657299,-740.205942,9104.533087
4158.486925,0.000000,-1110.308913,9918.759623
4158.487240,-766.095498,-370.102971,10288.862594
4158.487555,-1378.971896,-0.000000,10881.027347
4158.487870,-919.314598,-296.082377,10510.924376
4158.488186,0.000000,-592.164754,9696.697840
4158.488501,919.314598,-1036.288319,9326.594869
4158.488816,383.047749,-0.000000,9474.636058
4158.489131,0.000000,370.102971,9474.636058
4158.489447,-306.438199,740.205942,9474.636058
4158.489762,-306.438199,962.267725,9326.594869
4158.490077,76.609550,-0.000000,9696.697840
4158.490392,536.266849,-74.020594,9252.574275
4158.490708,383.047749,-1036.288319,9474.636058
4158.491023,76.609550,-518.144159,9918.759623
4158.491338,-842.705048,-370.102971,10214.842000
4158.491653,-919.314598,148.041188,10584.944971
4158.491968,-1072.533697,296.082377,10214.842000
4158.492284,-536.266849,-0.000000,9622.677246
4158.492599,536.266849,-592.164754,9400.615463
4158.492914,842.705048,-222.061783,8882.471304
4158.493229,0.000000,-0.000000,10066.800811
4158.493545,-459.657299,518.144159,9400.615463
4158.493860,-1302.362347,1110.308913,9844.739029
4158.494175,-536.266849,1036.288319,9844.739029
4158.494490,383.047749,296.082377,9474.636058
4158.494806,919.314598,222.061783,9548.656652
4158.495121,842.705048,74.020594,9696.697840
4158.495436,229.828649,592.164754,10214.842000
4158.495751,0.000000,814.226536,9844.739029
4158.496066,-229.828649,1554.432478,9104.533087
4158.496382,612.876398,1332.370696,9178.553681
4158.496697,1302.362347,814.226536,9474.636058
4158.497012,1455.581446,666.185348,9104.533087
4158.497327,842.705048,740.205942,9030.512492
4158.497643,306.438199,740.205942,9622.677246
4158.497958,0.000000,1258.350101,9992.780217
4158.498273,-306.438199,1036.288319,10288.862594
4158.498588,76.609550,666.185348,10214.842000
4158.498904,1149.143247,-74.020594,9622.677246
4158.499219,995.924147,-296.082377,9548.656652
4158.499534,842.705048,296.082377,9474.636058
4158.499849,0.000000,444.123565,9696.697840
4158.500164,0.000000,1480.411884,9400.615463
4158.500480,0.000000,1480.411884,9400.615463
4158.500795,842.705048,666.185348,9178.553681
4158.501110,919.314598,444.123565,9030.512492
4158.501425,153.219100,296.082377,8956.491898
4158.501741,-306.438199,-0.000000,9844.739029
4158.502056,-689.485948,-518.144159,10881.027347
4158.502371,-612.876398,-0.000000,10584.944971
4158.502686,-1608.800546,-148.041188,10436.903782
4158.503002,153.219100,-518.144159,9696.697840
4158.503317,229.828649,-444.123565,9992.780217
4158.503632,612.876398,-74.020594,8882.471304
4158.503947,536.266849,-0.000000,9696.697840
4158.504262,-229.828649,-0.000000,9104.533087
4158.504578,-536.266849,888.247130,9326.594869
4158.504893,-229.828649,518.144159,8956.491898
4158.505208,459.657299,-0.000000,9178.553681
4158.505523,766.095498,-666.185348,9548.656652
4158.505839,459.657299,-962.267725,9992.780217
4158.506154,-536.266849,-370.102971,10436.903782
4158.506469,-612.876398,-74.020594,10214.842000
4158.506784,-842.705048,-222.061783,10214.842000
4158.507100,-229.828649,-0.000000,9770.718434
4158.507415,612.876398,-148.041188,9622.677246
4158.507730,766.095498,-222.061783,9326.594869
4158.508045,536.266849,444.123565,8660.409521
4158.508361,76.609550,666.185348,8882.471304
4158.508676,0.000000,1036.288319,8882.471304
4158.508991,-229.828649,740.205942,9400.615463
4158.509306,-383.047749,296.082377,9622.677246
4158.509621,0.000000,-518.144159,9400.615463
4158.509937,76.609550,-1036.288319,9622.677246
4158.510252,-536.266849,-888.247130,9844.739029
4158.510567,-766.095498,-666.185348,10066.800811
4158.510882,-995.924147,-148.041188,10288.862594
4158.511198,-1072.533697,-148.041188,9844.739029
4158.511513,-229.828649,-296.082377,9178.553681
4158.511828,383.047749,-222.061783,9030.512492
4158.512143,153.219100,-148.041188,9474.636058
4158.512459,76.609550,-0.000000,8882.471304
4158.512774,-383.047749,-0.000000,8882.471304
4158.513089,-383.047749,-0.000000,9326.594869
4158.513404,-229.828649,296.082377,9548.656652
4158.513719,0.000000,-222.061783,9474.636058
4158.514035,766.095498,-740.205942,9400.615463
4158.514350,689.485948,-888.247130,9696.697840
4158.514665,153.219100,-888.247130,9696.697840
4158.514980,-459.657299,-592.164754,10140.821405
4158.515296,-459.657299,370.102971,10362.883188
4158.515611,0.000000,592.164754,9474.636058
4158.515926,1225.752797,-0.000000,8956.491898
4158.516241,1762.019645,222.061783,8660.409521
4158.516557,1072.533697,296.082377,8956.491898
4158.516872,76.609550,-0.000000,9400.615463
4158.517187,0.000000,592.164754,9992.780217
4158.517502,-153.219100,962.267725,9844.739029
4158.517817,0.000000,370.102971,9696.697840
4158.518133,689.485948,-518.144159,10362.883188
4158.518448,842.705048,-296.082377,10066.800811
4158.518763,383.047749,-222.061783,9622.677246
4158.519078,383.047749,-0.000000,10214.842000
4158.519394,229.828649,1332.370696,9844.739029
4158.519709,383.047749,1554.432478,9400.615463
4158.520024,689.485948,962.267725,8956.491898
4158.520339,1225.752797,962.267725,8734.430116
4158.520655,995.924147,666.185348,8882.471304
4158.520970,229.828649,-0.000000,9548.656652
4158.521285,-153.219100,444.123565,9918.759623
4158.521600,-536.266849,962.267725,10214.842000
4158.521915,-689.485948,370.102971,9918.759623
4158.522231,-459.657299,-0.000000,9992.780217
4158.522546,536.266849,-370.102971,10066.800811
4158.522861,383.047749,-74.020594,10214.842000
4158.523176,0.000000,-0.000000,10066.800811
4158.523492,0.000000,962.267725,9104.533087
4158.523807,0.000000,1480.411884,9104.533087
4158.524122,766.095498,1406.391290,8586.388927
4158.524437,612.876398,888.247130,9252.574275
4158.524753,1225.752797,296.082377,9104.533087
4158.525068,1072.533697,-148.041188,9548.656652
4158.525383,459.657299,-222.061783,9474.636058
4158.525698,-459.657299,-296.082377,9770.718434
4158.526013,-612.876398,-0.000000,10288.862594
4158.526329,-153.219100,-0.000000,10066.800811
4158.526644,153.219100,-0.000000,9400.615463
4158.526959,689.485948,-666.185348,9622.677246
4158.527274,153.219100,-0.000000,9326.594869
4158.527589,-229.828649,518.144159,9622.677246
4158.527905,-153.219100,962.267725,9844.739029
4158.528220,-766.095498,1332.370696,9474.636058
4158.528535,-306.438199,518.144159,9696.697840
4158.528850,153.219100,-0.000000,9992.780217
4158.529165,383.047749,-0.000000,9548.656652
4158.529480,229.828649,-296.082377,9548.656652
4158.529796,0.000000,-222.061783,10140.821405
4158.530111,-153.219100,370.102971,9770.718434
4158.530426,-229.828649,666.185348,9770.718434
4158.530741,-229.828649,518.144159,9474.636058
4158.531056,0.000000,-74.020594,9030.512492
4158.531372,76.609550,-222.061783,8586.388927
4158.531687,-612.876398,-222.061783,9252.574275
4158.532002,-842.705048,-592.164754,9992.780217
4158.532317,-1302.362347,222.061783,9918.759623
4158.532632,-1302.362347,-0.000000,9474.636058
4158.532947,0.000000,-666.185348,9548.656652
4158.533263,0.000000,-888.247130,9844.739029
4158.533578,383.047749,-518.144159,9622.677246
4158.533893,153.219100,-0.000000,9770.718434
4158.534208,76.609550,370.102971,9474.636058
4158.534523,229.828649,888.247130,9252.574275
4158.534839,306.438199,1628.453072,8586.388927
4158.535154,612.876398,518.144159,8660.409521
4158.535469,612.876398,-0.000000,8882.471304
4158.535784,383.047749,-444.123565,8734.430116
4158.536099,76.609550,-1184.329507,9400.615463
4158.536414,-1072.533697,-666.185348,10436.903782
4158.536730,-1608.800546,-740.205942,10584.944971
4158.537045,-766.095498,-1184.329507,10584.944971
4158.537360,76.609550,-1184.329507,10140.821405
4158.537675,536.266849,-1406.391290,9548.656652
4158.537990,1302.362347,-222.061783,9030.512492
4158.538306,766.095498,296.082377,9178.553681
4158.538621,919.314598,1406.391290,9104.533087
4158.538936,842.705048,2146.597232,8660.409521
4158.539251,1378.971896,1480.411884,8290.306550
4158.539566,1838.629195,1036.288319,8808.450710
4158.539881,1685.410096,444.123565,9104.533087
4158.540197,689.485948,-148.041188,9696.697840
4158.540512,0.000000,-370.102971,10807.006753
4158.540827,-766.095498,-666.185348,11695.253884
4158.541142,-1225.752797,-370.102971,11251.130318
4158.541457,-459.657299,-296.082377,11399.171507
4158.541773,383.047749,-0.000000,9918.759623
4158.542088,995.924147,-148.041188,9474.636058
4158.542403,842.705048,222.061783,9252.574275
4158.542718,383.047749,888.247130,9474.636058
4158.543033,229.828649,1776.494261,9178.553681
4158.543348,612.876398,1850.514855,8660.409521
4158.543664,1072.533697,1258.350101,8956.491898
4158.543979,1608.800546,296.082377,9326.594869
4158.544294,995.924147,-296.082377,9474.636058
4158.544609,306.438199,-370.102971,10362.883188
4158.544924,0.000000,-518.144159,10510.924376
4158.545240,-383.047749,-0.000000,10584.944971
4158.545555,-383.047749,-296.082377,10214.842000
4158.545870,153.219100,-370.102971,9548.656652
4158.546185,766.095498,-518.144159,9030.512492
4158.546500,766.095498,-370.102971,8808.450710
4158.546815,0.000000,-0.000000,8956.491898
4158.547131,0.000000,222.061783,9252.574275
4158.547446,-842.705048,814.226536,9326.594869
4158.547761,-536.266849,888.247130,9474.636058
4158.548076,0.000000,-0.000000,9326.594869
4158.548391,919.314598,-962.267725,9622.677246
4158.548706,306.438199,-592.164754,9918.759623
4158.549022,-459.657299,296.082377,10362.883188
4158.549337,-995.924147,1110.308913,10362.883188
4158.549652,-1225.752797,1184.329507,9548.656652
4158.549967,-536.266849,444.123565,9548.656652
4158.550282,0.000000,-0.000000,9474.636058
4158.550598,0.000000,-222.061783,9030.512492
4158.550913,-306.438199,-0.000000,9178.553681
4158.551228,-612.876398,-0.000000,9696.697840
4158.551543,-995.924147,222.061783,9696.697840
4158.551858,-1302.362347,444.123565,9474.636058
4158.552173,-536.266849,-0.000000,9696.697840
4158.552489,536.266849,-444.123565,9844.739029
4158.552804,612.876398,-148.041188,9252.574275
4158.553119,459.657299,222.061783,9548.656652
4158.553434,-536.266849,-148.041188,10066.800811
4158.553749,-842.705048,296.082377,9696.697840
4158.554065,-536.266849,592.164754,9252.574275
4158.554380,0.000000,296.082377,9474.636058
4158.554695,842.705048,592.164754,9474.636058
4158.555010,612.876398,-222.061783,9326.594869
4158.555325,-306.438199,-0.000000,9178.553681
4158.555640,-842.705048,-444.123565,9770.718434
4158.555956,-842.705048,222.061783,9844.739029
4158.556271,0.000000,-148.041188,9770.718434
4158.556586,76.609550,-370.102971,9696.697840
4158.556901,842.705048,-814.226536,9474.636058
4158.557216,383.047749,-888.247130,9326.594869
4158.557532,229.828649,-74.020594,9474.636058
4158.557847,459.657299,370.102971,9400.615463
4158.558162,0.000000,740.205942,9326.594869
4158.558477,153.219100,814.226536,9622.677246
4158.558792,842.705048,-0.000000,8956.491898
4158.559107,1762.019645,-0.000000,9104.533087
4158.559423,1378.971896,-592.164754,9178.553681
4158.559738,306.438199,-148.041188,10066.800811
4158.560053,0.000000,-0.000000,10955.047942
4158.560368,76.609550,962.267725,9548.656652
4158.560683,536.266849,666.185348,9474.636058
4158.560999,1149.143247,-148.041188,10140.821405
4158.561314,1149.143247,-0.000000,9992.780217
4158.561629,995.924147,370.102971,9548.656652
4158.561944,229.828649,518.144159,9400.615463
4158.562259,76.609550,1110.308913,9696.697840
4158.562574,383.047749,1628.453072,10584.944971
4158.562890,536.266849,962.267725,9178.553681
4158.563205,1302.362347,-0.000000,9770.718434
4158.563520,1149.143247,-370.102971,10066.800811
4158.563835,766.095498,-148.041188,10436.903782
4158.564150,-153.219100,444.123565,10436.903782
4158.564466,-459.657299,592.164754,9844.739029
4158.564781,0.000000,814.226536,9548.656652
4158.565096,459.657299,-222.061783,9474.636058
4158.565411,1072.533697,-222.061783,9474.636058
4158.565726,689.485948,-0.000000,8808.450710
4158.566041,-383.047749,592.164754,9030.512492
4158.566357,-995.924147,-0.000000,9844.739029
4158.566672,-919.314598,-0.000000,10140.821405
4158.566987,0.000000,-370.102971,9844.739029
4158.567302,-306.438199,-592.164754,9918.759623
4158.567617,153.219100,-962.267725,9918.759623
4158.567933,0.000000,-962.267725,9770.718434
4158.568248,0.000000,-370.102971,9474.636058
4158.568563,-689.485948,-148.041188,10362.883188
4158.568878,-612.876398,148.041188,9548.656652
4158.569193,-306.438199,-0.000000,9104.533087
4158.569508,459.657299,-0.000000,8438.347739
4158.569824,766.095498,-222.061783,8512.368333
4158.570139,0.000000,-0.000000,8734.430116
4158.570454,-306.438199,-0.000000,9548.656652
4158.570769,-1072.533697,-444.123565,10288.862594
4158.571084,-1225.752797,-74.020594,10066.800811
4158.571399,-383.047749,-962.267725,9696.697840
4158.571715,229.828649,-370.102971,10362.883188
4158.572030,229.828649,-370.102971,9992.780217
4158.572345,153.219100,-148.041188,9844.739029
4158.572660,-306.438199,518.144159,9696.697840
4158.572975,536.266849,1628.453072,9696.697840
4158.573291,459.657299,1628.453072,8956.491898
4158.573606,689.485948,1850.514855,8734.430116
4158.573921,995.924147,1258.350101,8216.285956
4158.574236,459.657299,444.123565,8734.430116
4158.574551,0.000000,-0.000000,9622.677246
4158.574866,-842.705048,-444.123565,10584.944971
4158.575182,-995.924147,-0.000000,10658.965565
4158.575497,-1225.752797,-74.020594,10584.944971
4158.575812,-536.266849,-444.123565,10436.903782
4158.576127,153.219100,-888.247130,9844.739029
4158.576442,459.657299,-592.164754,9548.656652
4158.576758,0.000000,148.041188,9548.656652
4158.577073,-229.828649,740.205942,9030.512492
4158.577388,229.828649,1332.370696,9030.512492
4158.577703,612.876398,1628.453072,8808.450710
4158.578018,1149.143247,814.226536,9030.512492
4158.578333,995.924147,296.082377,9326.594869
4158.578649,536.266849,-0.000000,9252.574275
4158.578964,229.828649,-592.164754,10066.800811
4158.579279,-536.266849,-1036.288319,11695.253884
4158.579594,-689.485948,-296.082377,10807.006753
4158.579909,0.000000,-222.061783,10214.842000
4158.580225,612.876398,-296.082377,9474.636058
4158.580540,1072.533697,222.061783,9252.574275
4158.580855,689.485948,592.164754,9178.553681
4158.581170,229.828649,666.185348,9104.533087
4158.581485,306.438199,666.185348,9104.533087
4158.581800,689.485948,1406.391290,8956.491898
4158.582116,459.657299,1184.329507,8808.450710
4158.582431,689.485948,370.102971,9474.636058
4158.582746,306.438199,-148.041188,9992.780217
4158.583061,153.219100,-74.020594,9844.739029
4158.583376,-306.438199,148.041188,10066.800811
4158.583692,-229.828649,666.185348,10066.800811
4158.584007,-383.047749,1110.308913,9622.677246
4158.584322,76.609550,1184.329507,9474.636058
4158.584637,459.657299,888.247130,9474.636058
4158.584952,459.657299,962.267725,8956.491898
4158.585267,0.000000,370.102971,9400.615463
4158.585583,-306.438199,222.061783,9844.739029
4158.585898,-842.705048,296.082377,10066.800811
4158.586213,-919.314598,222.061783,10436.903782
4158.586528,-612.876398,-518.144159,9992.780217
4158.586843,0.000000,-1036.288319,10140.821405
4158.587159,612.876398,-518.144159,9696.697840
4158.587474,76.609550,-518.144159,9696.697840
4158.587789,459.657299,-0.000000,9696.697840
4158.588104,153.219100,814.226536,9252.574275
4158.588419,766.095498,888.247130,9104.533087
4158.588734,1455.581446,296.082377,8882.471304
4158.589050,1608.800546,666.185348,8808.450710
4158.589365,1225.752797,222.061783,8364.327145
4158.589680,689.485948,-370.102971,9474.636058
4158.589995,0.000000,-74.020594,9696.697840
4158.590310,-689.485948,-370.102971,10584.944971
4158.590626,-766.095498,-740.205942,10658.965565
4158.590941,0.000000,-888.247130,10288.862594
4158.591256,842.705048,-1036.288319,9844.739029
4158.591571,536.266849,-962.267725,9770.718434
4158.591886,536.266849,-444.123565,10140.821405
4158.592201,0.000000,-0.000000,9474.636058
4158.592517,153.219100,1332.370696,8734.430116
4158.592832,766.095498,1036.288319,9104.533087
4158.593147,1608.800546,962.267725,8438.347739
4158.593462,1991.848295,518.144159,8512.368333
4158.593777,919.314598,-74.020594,8660.409521
4158.594093,-306.438199,-962.267725,9474.636058
4158.594408,-306.438199,-740.205942,9918.759623
4158.594723,-612.876398,-222.061783,10288.862594
4158.595038,-229.828649,-222.061783,9992.780217
4158.595353,-76.609550,-740.205942,9696.697840
4158.595668,-459.657299,-666.185348,9474.636058
4158.595984,-689.485948,-296.082377,9474.636058
4158.596299,-1149.143247,148.041188,9696.697840
4158.596614,-766.095498,370.102971,9844.739029
4158.596929,-995.924147,888.247130,9474.636058
4158.597244,306.438199,518.144159,9326.594869
4158.597559,536.266849,-0.000000,9178.553681
4158.597875,306.438199,-0.000000,9178.553681
4158.598190,76.609550,148.041188,10140.821405
4158.598505,-536.266849,296.082377,10214.842000
4158.598820,-1149.143247,888.247130,10066.800811
4158.599135,-842.705048,666.185348,9252.574275
4158.599451,-459.657299,-0.000000,9104.533087
4158.599766,-383.047749,-518.144159,9474.636058
4158.600081,-842.705048,-814.226536,9326.594869
4158.600396,-766.095498,-666.185348,9918.759623
4158.600711,-1225.752797,-222.061783,9548.656652
4158.601026,-1225.752797,-74.020594,9696.697840
4158.601342,-766.095498,518.144159,9918.759623
4158.601657,229.828649,222.061783,9474.636058
4158.601972,1149.143247,-592.164754,10140.821405
4158.602287,536.266849,-0.000000,9844.739029
4158.602602,229.828649,444.123565,9992.780217
4158.602918,536.266849,1184.329507,9474.636058
4158.603233,229.828649,1628.453072,9400.615463
4158.603548,229.828649,1480.411884,9548.656652
4158.603863,919.314598,592.164754,9474.636058
4158.604178,612.876398,-0.000000,9252.574275
4158.604493,0.000000,148.041188,9474.636058
4158.604809,-383.047749,-222.061783,10436.903782
4158.605124,-995.924147,296.082377,10140.821405
4158.605439,-689.485948,-0.000000,9992.780217
4158.605754,306.438199,-222.061783,10362.883188
4158.606069,689.485948,-0.000000,9844.739029
4158.606385,1685.410096,-0.000000,9252.574275
4158.606700,1455.581446,1110.308913,9400.615463
4158.607015,1455.581446,1554.432478,9326.594869
4158.607330,995.924147,1702.473667,8734.430116
4158.607645,612.876398,1702.473667,8882.471304
4158.607960,1149.143247,1036.288319,8808.450710
4158.608276,1455.581446,296.082377,9030.512492
4158.608591,1072.533697,-0.000000,9104.533087
4158.608906,229.828649,-148.041188,10214.842000
4158.609221,-612.876398,-296.082377,10362.883188
4158.609536,-536.266849,-0.000000,10658.965565
4158.609852,0.000000,-222.061783,9992.780217
4158.610167,536.266849,-518.144159,9770.718434
4158.610482,1378.971896,-0.000000,9252.574275
4158.610797,1302.362347,-0.000000,8956.491898
4158.611112,1225.752797,222.061783,9326.594869
4158.611427,842.705048,518.144159,9030.512492
4158.611743,383.047749,1258.350101,8734.430116
4158.612058,842.705048,1110.308913,9030.512492
4158.612373,842.705048,444.123565,9030.512492
4158.612688,766.095498,-666.185348,9326.594869
4158.613003,76.609550,-1110.308913,10066.800811
4158.613319,-766.095498,-1406.391290,10584.944971
4158.613634,-1225.752797,-814.226536,11251.130318
4158.613949,-1149.143247,-0.000000,10510.924376
4158.614264,-459.657299,-370.102971,10732.986159
4158.614579,383.047749,-444.123565,9622.677246
4158.614894,306.438199,-814.226536,9696.697840
4158.615210,76.609550,74.020594,9178.553681
4158.615525,-229.828649,296.082377,9474.636058
4158.615840,-459.657299,666.185348,9474.636058
4158.616155,-153.219100,1184.329507,9474.636058
4158.616470,-536.266849,444.123565,9178.553681
4158.616786,-383.047749,-296.082377,9474.636058
4158.617101,-153.219100,-888.247130,9474.636058
4158.617416,-919.314598,-1036.288319,9918.759623
4158.617731,-1302.362347,-814.226536,10732.986159
4158.618046,-1762.019645,-74.020594,10288.862594
4158.618361,-1532.190996,-148.041188,9918.759623
4158.618677,-383.047749,-370.102971,9104.533087
4158.618992,229.828649,-148.041188,9030.512492
4158.619307,76.609550,-0.000000,8808.450710
4158.619622,0.000000,222.061783,8586.388927
4158.619937,-306.438199,814.226536,9030.512492
4158.620253,-842.705048,1258.350101,9400.615463
4158.620568,-1072.533697,518.144159,9326.594869
4158.620883,-306.438199,-740.205942,9474.636058
4158.621198,76.609550,-1258.350101,9844.739029
4158.621513,153.219100,-888.247130,9696.697840
4158.621828,0.000000,-888.247130,10066.800811
4158.622144,-689.485948,-0.000000,9992.780217
4158.622459,-459.657299,888.247130,9696.697840
4158.622774,612.876398,814.226536,8956.491898
4158.623089,919.314598,370.102971,9030.512492
4158.623404,1532.190996,-0.000000,8512.368333
4158.623719,1608.800546,444.123565,8290.306550
4158.624035,842.705048,296.082377,9474.636058
4158.624350,306.438199,888.247130,9548.656652
4158.624665,0.000000,666.185348,10214.842000
4158.624980,306.438199,222.061783,9918.759623
4158.625295,1302.362347,-148.041188,10066.800811
4158.625611,1149.143247,-74.020594,10066.800811
4158.625926,689.485948,-370.102971,10584.944971
4158.626241,689.485948,370.102971,10362.883188
4158.626556,919.314598,1184.329507,9696.697840
4158.626871,842.705048,1480.411884,9696.697840
4158.627187,1378.971896,1258.350101,9104.533087
4158.627502,1532.190996,1184.329507,8882.471304
4158.627817,1608.800546,814.226536,8882.471304
4158.628132,995.924147,222.061783,9400.615463
4158.628447,306.438199,222.061783,10214.842000
4158.628763,-612.876398,-0.000000,10584.944971
4158.629078,-689.485948,296.082377,10362.883188
4158.629393,0.000000,-296.082377,10214.842000
4158.629708,306.438199,-962.267725,9992.780217
4158.630024,536.266849,-148.041188,10140.821405
4158.630339,-153.219100,222.061783,9252.574275
4158.630654,-459.657299,666.185348,9400.615463
4158.630969,-612.876398,1480.411884,9622.677246
4158.631285,76.609550,1406.391290,9104.533087
4158.631600,306.438199,814.226536,9474.636058
4158.631915,536.266849,148.041188,9030.512492
4158.632230,459.657299,-148.041188,9696.697840
4158.632546,0.000000,-0.000000,9474.636058
4158.632861,-459.657299,-0.000000,9770.718434
4158.633176,-995.924147,740.205942,10288.862594
4158.633491,-995.924147,740.205942,10140.821405
4158.633807,0.000000,-0.000000,9474.636058
4158.634122,0.000000,-222.061783,9548.656652
4158.634437,0.000000,148.041188,8956.491898
4158.634752,-536.266849,-0.000000,9696.697840
4158.635067,-1302.362347,740.205942,9770.718434
4158.635383,-1608.800546,888.247130,9770.718434
4158.635698,-842.705048,148.041188,9918.759623
4158.636013,612.876398,-296.082377,9770.718434
4158.636328,689.485948,-666.185348,9622.677246
4158.636644,306.438199,-296.082377,9918.759623
4158.636959,76.609550,-444.123565,9918.759623
4158.637274,0.000000,-0.000000,9918.759623
4158.637589,-383.047749,296.082377,9252.574275
4158.637905,153.219100,444.123565,8512.368333
4158.638220,919.314598,-222.061783,8956.491898
4158.638535,689.485948,-148.041188,8734.430116
4158.638850,0.000000,-592.164754,8882.471304
4158.639166,-842.705048,-296.082377,9548.656652
4158.639481,-1072.533697,-74.020594,10584.944971
4158.639796,-1149.143247,-444.123565,10584.944971
4158.640111,0.000000,-518.144159,9844.739029
4158.640427,229.828649,-1184.329507,10362.883188
4158.640742,459.657299,-1184.329507,9844.739029
4158.641057,612.876398,-296.082377,9474.636058
4158.641372,459.657299,666.185348,8882.471304
4158.641687,76.609550,1406.391290,8882.471304
4158.642003,766.095498,1406.391290,8586.388927
4158.642318,1608.800546,518.144159,8290.306550
4158.642633,1838.629195,-74.020594,7772.162391
4158.642948,1225.752797,-444.123565,8364.327145
4158.643264,0.000000,-1110.308913,9622.677246
4158.643579,-383.047749,-222.061783,9400.615463
4158.643894,-766.095498,-296.082377,10436.903782
4158.644209,-689.485948,-518.144159,10362.883188
4158.644525,153.219100,-814.226536,10214.842000
4158.644840,842.705048,-1406.391290,9548.656652
4158.645155,842.705048,-74.020594,9918.759623
4158.645470,995.924147,592.164754,9622.677246
4158.645786,306.438199,1850.514855,9474.636058
4158.646101,383.047749,2516.700203,9326.594869
4158.646416,1072.533697,1850.514855,8956.491898
4158.646731,1838.629195,1480.411884,9252.574275
4158.647046,1608.800546,518.144159,9400.615463
4158.647362,766.095498,814.226536,10288.862594
4158.647677,-536.266849,518.144159,10510.924376
4158.647992,-1685.410096,-148.041188,10436.903782
4158.648307,-842.705048,-148.041188,10658.965565
4158.648623,-229.828649,-888.247130,10362.883188
4158.648938,229.828649,-666.185348,10214.842000
4158.649253,0.000000,-592.164754,9918.759623
4158.649568,-689.485948,-0.000000,9844.739029
4158.649884,-536.266849,1036.288319,9918.759623
4158.650199,-842.705048,1924.535449,9326.594869
4158.650514,-306.438199,1406.391290,9474.636058
4158.650829,153.219100,814.226536,9400.615463
4158.651145,1072.533697,-74.020594,9622.677246
4158.651460,229.828649,-74.020594,9696.697840
4158.651775,-536.266849,-222.061783,10732.986159
4158.652090,-842.705048,-0.000000,10584.944971
4158.652406,-1149.143247,518.144159,10362.883188
4158.652721,-612.876398,-222.061783,10066.800811
4158.653036,383.047749,-0.000000,9400.615463
4158.653351,383.047749,-148.041188,8734.430116
4158.653666,689.485948,-74.020594,8956.491898
4158.653982,-689.485948,666.185348,8882.471304
4158.654297,0.000000,592.164754,8882.471304
4158.654612,153.219100,518.144159,9178.553681
4158.654927,0.000000,518.144159,8364.327145
4158.655243,306.438199,-740.205942,9252.574275
4158.655558,689.485948,-962.267725,9770.718434
4158.655873,229.828649,-222.061783,9622.677246
4158.656188,0.000000,-148.041188,9770.718434
4158.656504,-459.657299,444.123565,10214.842000
4158.656819,-306.438199,1258.350101,9326.594869
4158.657134,153.219100,148.041188,9178.553681
4158.657449,1072.533697,-74.020594,8882.471304
4158.657765,689.485948,-0.000000,8734.430116
4158.658080,153.219100,444.123565,9548.656652
4158.658395,76.609550,444.123565,9622.677246
4158.658710,0.000000,148.041188,9178.553681
4158.659026,-306.438199,666.185348,9770.718434
4158.659341,0.000000,-0.000000,9474.636058
4158.659656,306.438199,-592.164754,10066.800811
4158.659971,612.876398,-518.144159,9474.636058
4158.660286,76.609550,-1036.288319,9696.697840
4158.660602,0.000000,-370.102971,9696.697840
4158.660917,-536.266849,222.061783,9844.739029
4158.661232,-153.219100,296.082377,9474.636058
4158.661547,229.828649,296.082377,9400.615463
4158.661863,1455.581446,-296.082377,8660.409521
4158.662178,612.876398,-222.061783,8660.409521
4158.662493,153.219100,-74.020594,9622.677246
4158.662808,-383.047749,296.082377,10362.883188
4158.663124,-842.705048,-0.000000,10584.944971
4158.663439,-306.438199,-222.061783,9992.780217
4158.663754,229.828649,-592.164754,10066.800811
4158.664069,0.000000,-518.144159,9474.636058
4158.664385,229.828649,-148.041188,9474.636058
4158.664700,-459.657299,-74.020594,9844.739029
4158.665015,-306.438199,592.164754,9918.759623
4158.665330,-689.485948,518.144159,9474.636058
4158.665646,-229.828649,370.102971,9400.615463
4158.665961,153.219100,-0.000000,9400.615463
4158.666276,612.876398,-222.061783,9326.594869
4158.666591,153.219100,-74.020594,9548.656652
4158.666906,0.000000,-296.082377,10658.965565
4158.667222,76.609550,-0.000000,10362.883188
4158.667537,-153.219100,1110.308913,9696.697840
4158.667852,383.047749,814.226536,9474.636058
4158.668167,1455.581446,518.144159,9326.594869
4158.668483,1378.971896,222.061783,8808.450710
4158.668798,919.314598,296.082377,9696.697840
4158.669113,306.438199,444.123565,9474.636058
4158.669428,-153.219100,962.267725,9548.656652
4158.669744,0.000000,962.267725,9548.656652
4158.670059,153.219100,296.082377,9696.697840
4158.670374,919.314598,-370.102971,10510.924376
4158.670689,689.485948,-444.123565,9770.718434
4158.671005,153.219100,-444.123565,9844.739029
4158.671320,153.219100,-0.000000,10288.862594
4158.671635,0.000000,370.102971,9992.780217
4158.671950,229.828649,888.247130,9844.739029
4158.672265,919.314598,592.164754,8808.450710
4158.672581,1455.581446,-0.000000,8068.244768
4158.672896,1225.752797,-296.082377,8512.368333
4158.673211,229.828649,-148.041188,8660.409521
4158.673526,0.000000,-0.000000,9844.739029
4158.673842,-1149.143247,370.102971,9844.739029
4158.674157,-919.314598,-740.205942,9770.718434
4158.674472,76.609550,-1184.329507,10362.883188
4158.674787,536.266849,-1258.350101,9770.718434
4158.675103,459.657299,-814.226536,9992.780217
4158.675418,0.000000,-370.102971,10066.800811
4158.675733,76.609550,518.144159,9918.759623
4158.676048,536.266849,1184.329507,8956.491898
4158.676364,842.705048,1110.308913,8216.285956
4158.676679,1302.362347,888.247130,8734.430116
4158.676994,1302.362347,-0.000000,8364.327145
4158.677309,459.657299,592.164754,9104.533087
4158.677625,-229.828649,-74.020594,9622.677246
4158.677940,-1072.533697,518.144159,10288.862594
4158.678255,-1225.752797,222.061783,10066.800811
4158.678570,-766.095498,-888.247130,10658.965565
4158.678885,459.657299,-962.267725,9844.739029
4158.679201,229.828649,-888.247130,10584.944971
4158.679516,153.219100,-74.020594,9992.780217
4158.679831,-306.438199,740.205942,9474.636058
4158.680146,-459.657299,1258.350101,9326.594869
4158.680462,459.657299,1776.494261,9030.512492
4158.680777,766.095498,1554.432478,8660.409521
4158.681092,919.314598,740.205942,8734.430116
4158.681407,306.438199,592.164754,8882.471304
4158.681723,-612.876398,296.082377,9918.759623
4158.682038,-1302.362347,-444.123565,10584.944971
4158.682353,-1532.190996,-444.123565,10881.027347
4158.682668,-1608.800546,-444.123565,11029.068536
4158.682984,-1149.143247,-666.185348,10362.883188
4158.683299,-306.438199,-962.267725,9918.759623
4158.683614,306.438199,-296.082377,9474.636058
4158.683929,-459.657299,296.082377,9178.553681
4158.684245,-459.657299,444.123565,9326.594869
4158.684560,-383.047749,1184.329507,9326.594869
4158.684875,0.000000,1184.329507,8808.450710
4158.685190,612.876398,296.082377,9104.533087
4158.685505,919.314598,-0.000000,9178.553681
4158.685821,306.438199,-0.000000,9474.636058
4158.686136,0.000000,-370.102971,9844.739029
4158.686451,-153.219100,-222.061783,10066.800811
4158.686766,-383.047749,-0.000000,9696.697840
4158.687082,153.219100,-222.061783,10066.800811
4158.687397,766.095498,-148.041188,9252.574275
4158.687712,689.485948,-222.061783,9252.574275
4158.688027,842.705048,-0.000000,9030.512492
4158.688343,536.266849,592.164754,9548.656652
4158.688658,153.219100,592.164754,9252.574275
4158.688973,612.876398,1554.432478,9474.636058
4158.689288,689.485948,518.144159,9548.656652
4158.689604,1685.410096,518.144159,9326.594869
4158.689919,1378.971896,-0.000000,9548.656652
4158.690234,766.095498,-148.041188,10288.862594
4158.690549,383.047749,222.061783,10362.883188
4158.690865,306.438199,666.185348,9918.759623
4158.691180,459.657299,962.267725,9622.677246
4158.691495,1532.190996,518.144159,9178.553681
4158.691810,1378.971896,370.102971,8512.368333
4158.692125,842.705048,-0.000000,8660.409521
4158.692441,229.828649,666.185348,9326.594869
4158.692756,0.000000,-0.000000,9252.574275
4158.693071,-919.314598,592.164754,9696.697840
4158.693386,-536.266849,-0.000000,10214.842000
4158.693702,0.000000,-592.164754,10288.862594
4158.694017,229.828649,-592.164754,9696.697840
4158.694332,0.000000,-888.247130,9918.759623
4158.694647,459.657299,-740.205942,10436.903782
4158.694963,459.657299,666.185348,9770.718434
4158.695278,76.609550,1036.288319,9622.677246
4158.695593,0.000000,1184.329507,9104.533087
4158.695908,1455.581446,888.247130,8364.327145
4158.696224,1225.752797,-0.000000,8364.327145
4158.696539,153.219100,-74.020594,8734.430116
4158.696854,-536.266849,-296.082377,9770.718434
4158.697169,-229.828649,-148.041188,9622.677246
4158.697484,-842.705048,-0.000000,10436.903782
4158.697800,-1072.533697,-444.123565,9992.780217
4158.698115,-612.876398,-1406.391290,10066.800811
4158.698430,-153.219100,-962.267725,9770.718434
4158.698745,-536.266849,-888.247130,9918.759623
4158.699061,-153.219100,-0.000000,9474.636058
4158.699376,0.000000,814.226536,9622.677246
4158.699691,-459.657299,1850.514855,9104.533087
4158.700006,459.657299,1554.432478,8882.471304
4158.700322,536.266849,814.226536,8808.450710
4158.700637,612.876398,222.061783,8808.450710
4158.700952,0.000000,-0.000000,9696.697840
4158.701267,-612.876398,148.041188,10510.924376
4158.701583,-689.485948,-0.000000,10510.924376
4158.701898,-612.876398,-592.164754,10807.006753
4158.702213,-306.438199,-666.185348,10214.842000
4158.702528,-229.828649,-888.247130,9696.697840
4158.702844,-153.219100,-592.164754,9252.574275
4158.703159,-383.047749,-222.061783,9474.636058
4158.703474,-383.047749,148.041188,9030.512492
4158.703789,0.000000,1036.288319,9178.553681
4158.704104,76.609550,962.267725,9400.615463
4158.704420,536.266849,-0.000000,8734.430116
4158.704735,612.876398,-592.164754,9104.533087
4158.705050,689.485948,-296.082377,9548.656652
4158.705365,0.000000,-296.082377,10066.800811
4158.705681,-383.047749,-0.000000,10362.883188
4158.705996,0.000000,-222.061783,10214.842000
4158.706311,-383.047749,-0.000000,9918.759623
4158.706626,153.219100,222.061783,9992.780217
4158.706942,842.705048,-74.020594,9474.636058
4158.707257,612.876398,-0.000000,8438.347739
4158.707572,153.219100,-0.000000,9252.574275
4158.707887,383.047749,518.144159,9400.615463
4158.708203,-689.485948,1258.350101,9474.636058
4158.708518,0.000000,370.102971,9400.615463
4158.708833,766.095498,-740.205942,10066.800811
4158.709148,1532.190996,-592.164754,9104.533087
4158.709464,995.924147,-370.102971,9474.636058
4158.709779,0.000000,-0.000000,10140.821405
4158.710094,0.000000,444.123565,10214.842000
4158.710409,0.000000,1332.370696,9918.759623
4158.710724,229.828649,740.205942,9548.656652
4158.711040,1149.143247,444.123565,9622.677246
4158.711355,1302.362347,370.102971,9178.553681
4158.711670,612.876398,814.226536,9030.512492
4158.711985,0.000000,1036.288319,10140.821405
4158.712301,0.000000,518.144159,11103.089130
4158.712616,0.000000,1184.329507,10436.903782
4158.712931,766.095498,296.082377,9696.697840
4158.713246,1225.752797,-0.000000,9918.759623
4158.713562,1225.752797,222.061783,9474.636058
4158.713877,536.266849,444.123565,10436.903782
4158.714192,153.219100,1036.288319,9918.759623
4158.714507,0.000000,1184.329507,9622.677246
4158.714823,-306.438199,962.267725,9178.553681
4158.715138,153.219100,296.082377,9104.533087
4158.715453,536.266849,-148.041188,9104.533087
4158.715768,0.000000,-666.185348,9104.533087
4158.716084,-536.266849,-1184.329507,9918.759623
4158.716399,-1302.362347,148.041188,10214.842000
4158.716714,-1455.581446,-0.000000,10510.924376
4158.717029,-306.438199,-666.185348,10140.821405
4158.717344,689.485948,-148.041188,9918.759623
4158.717660,995.924147,-148.041188,8956.491898
4158.717975,689.485948,-0.000000,8882.471304
4158.718290,306.438199,888.247130,9252.574275
4158.718605,0.000000,962.267725,8734.430116
4158.718921,-229.828649,1554.432478,8956.491898
4158.719236,-229.828649,222.061783,9400.615463
4158.719551,153.219100,-592.164754,9474.636058
4158.719866,153.219100,-1258.350101,9400.615463
4158.720182,-1072.533697,-1702.473667,9474.636058
4158.720497,-1072.533697,-962.267725,10807.006753
4158.720812,-1225.752797,-592.164754,10214.842000
4158.721127,-842.705048,-74.020594,9770.718434
4158.721443,229.828649,-592.164754,8956.491898
4158.721758,689.485948,148.041188,8882.471304
4158.722073,842.705048,148.041188,8660.409521
4158.722388,689.485948,370.102971,8956.491898
4158.722703,383.047749,1184.329507,9326.594869
4158.723019,76.609550,1332.370696,9178.553681
4158.723334,0.000000,1184.329507,8882.471304
4158.723649,0.000000,592.164754,9548.656652
4158.723964,383.047749,-592.164754,9918.759623
4158.724280,153.219100,-1036.288319,9992.780217
4158.724595,-842.705048,-740.205942,10807.006753
4158.724910,-612.876398,-296.082377,10955.047942
4158.725225,-766.095498,-0.000000,10584.944971
4158.725541,-612.876398,-0.000000,10214.842000
4158.725856,306.438199,-0.000000,9548.656652
4158.726171,1149.143247,-296.082377,8882.471304
4158.726486,1072.533697,-0.000000,8364.327145
4158.726802,689.485948,222.061783,8734.430116
4158.727117,0.000000,666.185348,9400.615463
4158.727432,-229.828649,1110.308913,9770.718434
4158.727747,-153.219100,370.102971,8956.491898
4158.728063,76.609550,-666.185348,9844.739029
4158.728378,459.657299,-1184.329507,10362.883188
4158.728693,0.000000,-888.247130,10066.800811
4158.729009,-766.095498,-370.102971,10510.924376
4158.729324,-919.314598,-0.000000,10436.903782
4158.729639,-536.266849,592.164754,10436.903782
4158.729955,153.219100,740.205942,9474.636058
4158.730270,842.705048,370.102971,8808.450710
4158.730585,1225.752797,148.041188,8438.347739
4158.730901,689.485948,222.061783,9104.533087
4158.731216,153.219100,666.185348,9400.615463
4158.731531,0.000000,888.247130,9770.718434
4158.731847,-153.219100,888.247130,9770.718434
4158.732162,229.828649,-0.000000,9992.780217
4158.732477,1072.533697,-222.061783,9178.553681
4158.732793,1302.362347,-592.164754,10140.821405
4158.733108,689.485948,-296.082377,10658.965565
4158.733423,459.657299,148.041188,10066.800811
4158.733739,229.828649,592.164754,10288.862594
4158.734054,766.095498,740.205942,9844.739029
4158.734369,1838.629195,518.144159,9474.636058
4158.734685,2681.334243,444.123565,9030.512492
4158.735000,2451.505594,-0.000000,8956.491898
4158.735315,2451.505594,-296.082377,9400.615463
4158.735631,1608.800546,-222.061783,9622.677246
4158.735946,995.924147,-0.000000,10214.842000
4158.736261,1072.533697,-0.000000,9844.739029
4158.736577,1455.581446,-1258.350101,9992.780217
4158.736892,1685.410096,-1924.535449,9696.697840
4158.737207,1378.971896,-1924.535449,9622.677246
4158.737522,919.314598,-1258.350101,9474.636058
4158.737838,995.924147,-1110.308913,10214.842000
4158.738153,995.924147,-888.247130,10066.800811
4158.738468,1532.190996,-888.247130,9844.739029
4158.738784,1991.848295,-814.226536,9474.636058
4158.739099,2221.676944,-1184.329507,8956.491898
4158.739414,2681.334243,-1480.411884,8956.491898
4158.739730,2604.724693,-1184.329507,9326.594869
4158.740045,2451.505594,-1258.350101,9474.636058
4158.740360,2221.676944,-1036.288319,10214.842000
4158.740676,1991.848295,-1702.473667,10140.821405
4158.740991,2451.505594,-2294.638420,9696.697840
4158.741306,1991.848295,-2960.823768,10140.821405
4158.741622,2145.067394,-2738.761985,9474.636058
4158.741937,2145.067394,-2738.761985,9326.594869
4158.742252,2145.067394,-2146.597232,9104.533087
4158.742568,842.705048,-2220.617826,9548.656652
4158.742883,1991.848295,-1554.432478,9696.697840
4158.743198,1532.190996,-2072.576638,9474.636058
4158.743514,1915.238745,-2294.638420,9030.512492
4158.743829,2298.286494,-2664.741391,9400.615463
4158.744144,2068.457845,-2442.679609,9548.656652
4158.744460,1685.410096,-1998.556043,8808.450710
4158.744775,1685.410096,-1998.556043,8660.409521
4158.745090,1532.190996,-1998.556043,9548.656652
4158.745406,1532.190996,-2220.617826,9844.739029
4158.745721,1685.410096,-2368.659014,9992.780217
4158.746036,612.876398,-2220.617826,9770.718434
4158.746352,689.485948,-2664.741391,9474.636058
4158.746667,766.095498,-2516.700203,9400.615463
4158.746982,1455.581446,-2442.679609,9030.512492
4158.747298,1302.362347,-2220.617826,9474.636058
4158.747613,919.314598,-2146.597232,9696.697840
4158.747928,1455.581446,-2368.659014,10214.842000
4158.748244,1915.238745,-2516.700203,10140.821405
4158.748559,2145.067394,-2590.720797,9918.759623
4158.748874,2221.676944,-2516.700203,9178.553681
4158.749190,2221.676944,-2590.720797,9104.533087
4158.749505,2374.896044,-2664.741391,8882.471304
4158.749820,2604.724693,-2590.720797,9104.533087
4158.750136,2528.115143,-2220.617826,8438.347739
4158.750451,2528.115143,-1406.391290,8882.471304
4158.750766,2451.505594,-1406.391290,9030.512492
4158.751082,1685.410096,-2368.659014,9696.697840
4158.751397,1225.752797,-3182.885551,9844.739029
4158.751712,919.314598,-4219.173869,10362.883188
4158.752028,995.924147,-4145.153275,9992.780217
4158.752343,1838.629195,-3701.029710,9474.636058
4158.752658,2451.505594,-2664.741391,9104.533087
4158.752974,2681.334243,-1480.411884,8586.388927
4158.753289,2681.334243,-148.041188,8808.450710
4158.753604,2374.896044,592.164754,8808.450710
4158.753920,2068.457845,-0.000000,9474.636058
4158.754235,1762.019645,-592.164754,9770.718434
4158.754550,1915.238745,-1554.432478,10140.821405
4158.754866,2221.676944,-3108.864956,11325.150913
4158.755181,2834.553343,-3034.844362,11473.192101
4158.755496,3294.210641,-3404.947333,11103.089130
4158.755812,3753.867940,-2072.576638,9992.780217
4158.756127,3983.696590,-592.164754,9474.636058
4158.756442,3294.210641,518.144159,9326.594869
4158.756758,3830.477490,888.247130,8586.388927
4158.757073,2757.943793,1258.350101,7772.162391
4158.757388,2528.115143,-296.082377,8290.306550
4158.757704,1915.238745,-2146.597232,10066.800811
4158.758019,1762.019645,-3923.091493,10807.006753
4158.758334,1991.848295,-4737.318029,11769.274478
4158.758650,2604.724693,-3923.091493,11399.171507
4158.758965,3447.429741,-2664.741391,11177.109724
