#time,accel_x,accel_y,accel_z
4258.162242,153.219100,-0.000000,9696.697840
4258.162558,383.047749,296.082377,9770.718434
4258.162873,76.609550,-0.000000,9548.656652
4258.163189,689.485948,-0.000000,9622.677246
4258.163504,153.219100,296.082377,9844.739029
4258.163820,153.219100,-0.000000,9474.636058
4258.164136,76.609550,148.041188,9474.636058
4258.164451,0.000000,-0.000000,9770.718434
4258.164767,153.219100,148.041188,9696.697840
4258.165082,0.000000,222.061783,9474.636058
4258.165398,229.828649,370.102971,9622.677246
4258.165714,0.000000,222.061783,9844.739029
4258.166029,0.000000,296.082377,9770.718434
4258.166345,229.828649,-0.000000,9548.656652
4258.166660,153.219100,-0.000000,9474.636058
4258.166976,306.438199,-0.000000,9474.636058
4258.167292,153.219100,-0.000000,9844.739029
4258.167607,76.609550,518.144159,9918.759623
4258.167923,0.000000,370.102971,9622.677246
4258.168238,0.000000,-0.000000,9400.615463
4258.168554,0.000000,222.061783,9474.636058
4258.168870,76.609550,-0.000000,9474.636058
4258.169185,0.000000,-296.082377,9770.718434
4258.169501,0.000000,222.061783,9474.636058
4258.169816,76.609550,222.061783,9918.759623
4258.170132,229.828649,222.061783,9400.615463
4258.170448,0.000000,-0.000000,9326.594869
4258.170763,0.000000,-0.000000,9696.697840
4258.171079,0.000000,-0.000000,9474.636058
4258.171395,0.000000,-74.020594,9474.636058
4258.171710,153.219100,370.102971,9696.697840
4258.172026,306.438199,444.123565,9992.780217
4258.172341,76.609550,-0.000000,9474.636058
4258.172657,153.219100,222.061783,9178.553681
4258.172973,229.828649,-0.000000,9474.636058
4258.173288,229.828649,-0.000000,9474.636058
4258.173604,459.657299,296.082377,9770.718434
4258.173919,153.219100,222.061783,9622.677246
4258.174235,0.000000,296.082377,9548.656652
4258.174551,-153.219100,370.102971,9622.677246
4258.174866,0.000000,296.082377,9770.718434
4258.175182,459.657299,-74.020594,9696.697840
4258.175497,0.000000,444.123565,9770.718434
4258.175813,0.000000,444.123565,9622.677246
4258.176129,0.000000,-0.000000,9548.656652
4258.176444,153.219100,-0.000000,9770.718434
4258.176760,0.000000,-74.020594,9474.636058
4258.177075,0.000000,-0.000000,9474.636058
4258.177391,0.000000,-0.000000,9474.636058
4258.177707,0.000000,148.041188,9400.615463
4258.178022,76.609550,-0.000000,9252.574275
4258.178338,-459.657299,-0.000000,10066.800811
4258.178653,0.000000,222.061783,9918.759623
4258.178969,229.828649,222.061783,9474.636058
4258.179285,0.000000,-0.000000,9474.636058
4258.179600,0.000000,222.061783,9548.656652
4258.179916,0.000000,222.061783,9400.615463
4258.180231,0.000000,370.102971,9474.636058
4258.180547,153.219100,-0.000000,9992.780217
4258.180863,306.438199,-0.000000,9474.636058
4258.181178,306.438199,-0.000000,9474.636058
4258.181494,306.438199,-148.041188,9696.697840
4258.181809,0.000000,-74.020594,9400.615463
4258.182125,153.219100,-222.061783,9548.656652
4258.182441,153.219100,-0.000000,9770.718434
4258.182756,0.000000,-0.000000,9474.636058
4258.183072,306.438199,222.061783,9622.677246
4258.183387,229.828649,-0.000000,9474.636058
4258.183703,383.047749,-0.000000,9400.615463
4258.184019,306.438199,-0.000000,9474.636058
4258.184334,0.000000,-0.000000,9622.677246
4258.184650,0.000000,-0.000000,9770.718434
4258.184965,0.000000,666.185348,9474.636058
4258.185281,-306.438199,370.102971,9400.615463
4258.185597,-459.657299,148.041188,9548.656652
4258.185912,-919.314598,222.061783,9918.759623
4258.186228,-612.876398,-0.000000,9474.636058
4258.186543,-689.485948,444.123565,9696.697840
4258.186859,-766.095498,592.164754,9548.656652
4258.187175,-536.266849,592.164754,9474.636058
4258.187490,-842.705048,814.226536,9474.636058
4258.187806,-229.828649,962.267725,9770.718434
4258.188121,-919.314598,740.205942,9400.615463
4258.188437,-995.924147,1184.329507,9030.512492
4258.188753,-995.924147,1332.370696,8956.491898
4258.189068,-1838.629195,1184.329507,9104.533087
4258.189384,-2145.067394,962.267725,9326.594869
4258.189699,-2451.505594,1110.308913,9252.574275
4258.190015,-2681.334243,1036.288319,9326.594869
4258.190331,-2681.334243,1110.308913,9474.636058
4258.190646,-2834.553343,1258.350101,9696.697840
4258.190962,-3140.991542,1184.329507,10066.800811
4258.191277,-3140.991542,1332.370696,9844.739029
4258.191593,-2681.334243,1776.494261,9622.677246
4258.191909,-2604.724693,2368.659014,9326.594869
4258.192224,-2757.943793,2368.659014,9400.615463
4258.192540,-3140.991542,2294.638420,9770.718434
4258.192855,-2451.505594,2664.741391,9104.533087
4258.193171,-2374.896044,3108.864956,9326.594869
4258.193487,-2298.286494,2960.823768,9474.636058
4258.193802,-2451.505594,3034.844362,9622.677246
4258.194118,-2221.676944,2960.823768,10140.821405
4258.194433,-2221.676944,2664.741391,10140.821405
4258.194749,-2298.286494,2442.679609,10066.800811
4258.195065,-1991.848295,2220.617826,10214.842000
4258.195380,-1455.581446,2590.720797,10066.800811
4258.195696,-995.924147,2886.803174,9548.656652
4258.196011,-995.924147,3404.947333,9030.512492
4258.196327,-842.705048,3849.070898,9030.512492
4258.196643,-842.705048,4293.194464,8882.471304
4258.196958,-919.314598,4441.235652,8734.430116
4258.197274,-1455.581446,3627.009116,9474.636058
4258.197589,-1762.019645,3330.926739,9770.718434
4258.197905,-2451.505594,3182.885551,10214.842000
4258.198221,-2757.943793,2664.741391,11029.068536
4258.198536,-2987.772442,2516.700203,11325.150913
4258.198852,-2451.505594,2812.782580,11473.192101
4258.199167,-2451.505594,3404.947333,10658.965565
4258.199483,-2068.457845,3849.070898,9992.780217
4258.199799,-1838.629195,4293.194464,9696.697840
4258.200114,-1302.362347,4293.194464,9104.533087
4258.200430,-1685.410096,4663.297435,8882.471304
4258.200745,-1762.019645,4219.173869,8660.409521
4258.201061,-2221.676944,3849.070898,9104.533087
4258.201377,-2298.286494,3330.926739,9844.739029
4258.201692,-2374.896044,2442.679609,10362.883188
4258.202008,-2374.896044,1850.514855,10881.027347
4258.202323,-2298.286494,1628.453072,11177.109724
4258.202639,-2068.457845,1702.473667,11029.068536
4258.202955,-1532.190996,1850.514855,10510.924376
4258.203270,-612.876398,2294.638420,9696.697840
4258.203586,306.438199,2960.823768,9104.533087
4258.203901,76.609550,3256.906145,8438.347739
4258.204217,536.266849,3701.029710,8068.244768
4258.204533,229.828649,3849.070898,7920.203579
4258.204848,-459.657299,3849.070898,7698.141797
4258.205164,-1685.410096,2960.823768,8438.347739
4258.205479,-2221.676944,2220.617826,8882.471304
4258.205795,-3294.210641,1480.411884,9770.718434
4258.206111,-4290.134789,888.247130,10807.006753
4258.206426,-4596.572988,-74.020594,11621.233289
4258.206742,-4673.182538,444.123565,11621.233289
4258.207057,-4290.134789,518.144159,11251.130318
4258.207373,-3830.477490,370.102971,11103.089130
4258.207689,-3140.991542,1184.329507,10658.965565
4258.208004,-1838.629195,1702.473667,9992.780217
4258.208320,-536.266849,2368.659014,9178.553681
4258.208635,306.438199,3404.947333,8586.388927
4258.208951,536.266849,3701.029710,8586.388927
4258.209267,76.609550,3182.885551,8216.285956
4258.209582,-383.047749,2812.782580,7994.224174
4258.209898,-995.924147,2368.659014,7772.162391
4258.210214,-2451.505594,1184.329507,7994.224174
4258.210529,-3294.210641,-0.000000,8364.327145
4258.210845,-4826.401637,-666.185348,9474.636058
4258.211160,-4979.620737,-1036.288319,11103.089130
4258.211476,-5515.887586,-1110.308913,10584.944971
4258.211792,-5132.839837,-1406.391290,11029.068536
4258.212107,-4213.525239,-814.226536,12065.356855
4258.212423,-2757.943793,-740.205942,11991.336260
4258.212738,-842.705048,444.123565,11103.089130
4258.213054,1302.362347,1924.535449,9918.759623
4258.213370,2145.067394,3997.112087,8290.306550
4258.213685,2451.505594,5403.503377,6809.894666
4258.214001,2451.505594,6291.750507,5551.544565
4258.214316,1685.410096,5847.626942,5181.441594
4258.214632,306.438199,5107.421000,5329.482782
4258.214948,-1991.848295,2960.823768,7476.080014
4258.215263,-4903.011187,222.061783,9474.636058
4258.215579,-6358.592633,-2590.720797,13323.706956
4258.215894,-7048.078582,-3775.050304,13323.706956
4258.216210,-7967.393179,-4811.338623,14211.954086
4258.216526,-5975.544884,-3775.050304,15100.201217
4258.216841,-3753.867940,-1702.473667,12805.562797
4258.217157,-1455.581446,2368.659014,9622.677246
4258.217472,1302.362347,5921.647536,6513.812290
4258.217788,2528.115143,8586.388927,5107.421000
4258.218104,3064.381992,10214.842000,3997.112087
4258.218419,1915.238745,9844.739029,4219.173869
4258.218735,536.266849,7550.100608,6587.832884
4258.219050,-766.095498,4293.194464,9844.739029
4258.219366,-2604.724693,518.144159,12435.459826
4258.219682,-4673.182538,-2590.720797,14508.036463
4258.219997,-5822.325785,-3182.885551,15988.448347
4258.220313,-4979.620737,-3330.926739,14804.118840
4258.220628,-3983.696590,-1998.556043,12583.501014
4258.220944,-2221.676944,1036.288319,10881.027347
4258.221260,-1225.752797,4145.153275,8290.306550
4258.221575,-153.219100,6513.812290,4737.318029
4258.221891,842.705048,7550.100608,4441.235652
4258.222206,1072.533697,7402.059420,4663.297435
4258.222522,0.000000,6513.812290,6809.894666
4258.222838,-1225.752797,3330.926739,8290.306550
4258.223153,-1762.019645,1776.494261,10214.842000
4258.223469,-1762.019645,296.082377,11769.274478
4258.223784,-2374.896044,518.144159,13027.624579
4258.224100,-3447.429741,666.185348,13249.686362
4258.224416,-3753.867940,962.267725,12731.542202
4258.224731,-3524.039291,2368.659014,11399.171507
4258.225047,-4213.525239,3182.885551,9474.636058
4258.225362,-3294.210641,4071.132681,8438.347739
4258.225678,-2528.115143,3552.988522,8142.265362
4258.225994,-1991.848295,3701.029710,7550.100608
4258.226309,-1532.190996,3997.112087,7105.977043
4258.226625,-1762.019645,4219.173869,8364.327145
4258.226940,-1991.848295,3404.947333,9992.780217
4258.227256,-2528.115143,3108.864956,11399.171507
4258.227572,-2298.286494,1924.535449,11769.274478
4258.227887,-1762.019645,296.082377,11843.295072
4258.228203,-1838.629195,-74.020594,11251.130318
4258.228518,-2068.457845,666.185348,9770.718434
4258.228834,-2298.286494,2294.638420,8956.491898
4258.229150,-2298.286494,3997.112087,8068.244768
4258.229465,-1608.800546,4737.318029,7624.121203
4258.229781,-2451.505594,5773.606348,7254.018232
4258.230096,-2987.772442,4515.256246,7994.224174
4258.230412,-3294.210641,2146.597232,9696.697840
4258.230728,-3064.381992,-0.000000,11103.089130
4258.231043,-3064.381992,-666.185348,11769.274478
4258.231359,-2987.772442,-1332.370696,12879.583391
4258.231674,-1991.848295,-592.164754,13545.768739
4258.231990,-1302.362347,962.267725,11325.150913
4258.232306,153.219100,2886.803174,8808.450710
4258.232621,1455.581446,3923.091493,7624.121203
4258.232937,1608.800546,4663.297435,5995.668130
4258.233252,1302.362347,4737.318029,5551.544565
4258.233568,76.609550,3923.091493,5921.647536
4258.233884,-2298.286494,3182.885551,6957.935855
4258.234199,-3217.601092,1332.370696,8882.471304
4258.234515,-3677.258390,-666.185348,10658.965565
4258.234830,-3677.258390,-1998.556043,11991.336260
4258.235146,-3830.477490,-2960.823768,13397.727550
4258.235462,-3370.820191,-2220.617826,13471.748144
4258.235777,-3600.648841,-962.267725,13175.665768
4258.236093,-3064.381992,1702.473667,10955.047942
4258.236408,-1225.752797,3404.947333,9622.677246
4258.236724,842.705048,4737.318029,7328.038826
4258.237039,1915.238745,4663.297435,6143.709319
4258.237354,1762.019645,4071.132681,6661.853478
4258.237670,153.219100,4737.318029,6217.729913
4258.237985,-1302.362347,3997.112087,7698.141797
4258.238300,-2145.067394,2220.617826,9548.656652
4258.238616,-2834.553343,-0.000000,11029.068536
4258.238931,-2987.772442,-1924.535449,12287.418637
4258.239246,-3447.429741,-3034.844362,13249.686362
4258.239562,-4136.915689,-2516.700203,12731.542202
4258.239877,-4673.182538,-370.102971,11917.315666
4258.240192,-3064.381992,1258.350101,10066.800811
4258.240508,-766.095498,3330.926739,7698.141797
4258.240823,612.876398,4515.256246,6513.812290
4258.241138,995.924147,4367.215058,6661.853478
4258.241454,-459.657299,5477.523971,6587.832884
4258.241769,-1762.019645,5403.503377,7328.038826
4258.242084,-1991.848295,4071.132681,8882.471304
4258.242400,-1762.019645,2664.741391,10214.842000
4258.242715,-1455.581446,-0.000000,12213.398043
4258.243030,-3294.210641,-1184.329507,12361.439231
4258.243346,-5209.449386,-592.164754,12731.542202
4258.243661,-5209.449386,370.102971,11695.253884
4258.243976,-3600.648841,1702.473667,10140.821405
4258.244292,-2374.896044,3627.009116,8660.409521
4258.244607,-1225.752797,3108.864956,8364.327145
4258.244922,-2604.724693,4367.215058,7031.956449
4258.245238,-2911.162892,3997.112087,7402.059420
4258.245553,-2221.676944,3923.091493,7624.121203
4258.245868,-1991.848295,3552.988522,8660.409521
4258.246184,-1608.800546,1850.514855,9992.780217
4258.246499,-2757.943793,1332.370696,11177.109724
4258.246814,-3753.867940,1554.432478,11325.150913
4258.247130,-2987.772442,1406.391290,11473.192101
4258.247445,-2528.115143,2886.803174,11029.068536
4258.247760,-1455.581446,2516.700203,10362.883188
4258.248076,-2145.067394,3478.967927,9696.697840
4258.248391,-1685.410096,3775.050304,8068.244768
4258.248706,-1378.971896,3552.988522,7920.203579
4258.249022,-689.485948,4441.235652,8512.368333
4258.249337,-153.219100,2812.782580,9400.615463
4258.249652,-1302.362347,2442.679609,9400.615463
4258.249968,-1225.752797,1998.556043,10288.862594
4258.250283,-383.047749,1406.391290,9770.718434
4258.250598,0.000000,1480.411884,10732.986159
4258.250914,229.828649,1036.288319,10658.965565
4258.251229,-383.047749,1184.329507,10807.006753
4258.251544,0.000000,2146.597232,9770.718434
4258.251860,842.705048,2960.823768,8882.471304
4258.252175,1378.971896,3701.029710,8512.368333
4258.252490,229.828649,2738.761985,8882.471304
4258.252806,-842.705048,2590.720797,8734.430116
4258.253121,-1072.533697,1258.350101,10140.821405
4258.253437,-383.047749,1554.432478,8956.491898
4258.253752,-383.047749,740.205942,11473.192101
4258.254067,-919.314598,222.061783,11029.068536
4258.254383,-2298.286494,-1184.329507,12509.480420
4258.254698,-459.657299,-814.226536,11473.192101
4258.255013,766.095498,-74.020594,10436.903782
4258.255329,1991.848295,1480.411884,9548.656652
4258.255644,1838.629195,1924.535449,8956.491898
4258.255959,612.876398,1702.473667,8808.450710
4258.256275,2221.676944,1332.370696,8882.471304
4258.256590,2528.115143,2072.576638,7624.121203
4258.256905,1991.848295,1184.329507,8586.388927
4258.257221,995.924147,-74.020594,9548.656652
4258.257536,-612.876398,-1332.370696,9992.780217
4258.257851,153.219100,-1776.494261,10362.883188
4258.258167,306.438199,-1776.494261,10362.883188
4258.258482,-306.438199,-1998.556043,10362.883188
4258.258797,-1532.190996,-1702.473667,10807.006753
4258.259113,-1225.752797,-1406.391290,9770.718434
4258.259428,-306.438199,-1406.391290,8956.491898
4258.259743,229.828649,-74.020594,7920.203579
4258.260059,-153.219100,518.144159,7994.224174
4258.260374,-383.047749,444.123565,9104.533087
4258.260689,-383.047749,-148.041188,8808.450710
4258.261005,383.047749,-0.000000,8438.347739
4258.261320,306.438199,-592.164754,9622.677246
4258.261635,-1225.752797,-814.226536,10066.800811
4258.261951,-2145.067394,-1924.535449,10732.986159
4258.262266,-1608.800546,-1924.535449,10584.944971
4258.262581,-919.314598,-2220.617826,10658.965565
4258.262897,-1532.190996,-1406.391290,9844.739029
4258.263212,-2681.334243,-1480.411884,10066.800811
4258.263527,-1608.800546,-1406.391290,9992.780217
4258.263843,-1072.533697,-1554.432478,8734.430116
4258.264158,229.828649,-666.185348,8364.327145
4258.264473,-229.828649,-148.041188,7846.182985
4258.264789,-1072.533697,-666.185348,9178.553681
4258.265104,76.609550,-518.144159,8956.491898
4258.265419,1149.143247,-1258.350101,9030.512492
4258.265735,1532.190996,-740.205942,9326.594869
4258.266050,383.047749,-814.226536,9474.636058
4258.266365,383.047749,-1258.350101,9770.718434
4258.266681,995.924147,-1036.288319,9548.656652
4258.266996,1302.362347,-1110.308913,9844.739029
4258.267311,1532.190996,-0.000000,8882.471304
4258.267627,153.219100,-74.020594,9030.512492
4258.267942,153.219100,-0.000000,8512.368333
4258.268257,1225.752797,592.164754,8660.409521
4258.268573,1608.800546,-0.000000,9030.512492
4258.268888,842.705048,-222.061783,9178.553681
4258.269203,0.000000,-666.185348,10066.800811
4258.269519,1072.533697,-666.185348,9844.739029
4258.269834,2604.724693,-222.061783,10436.903782
4258.270149,2145.067394,888.247130,9252.574275
4258.270465,459.657299,740.205942,9770.718434
4258.270780,1455.581446,814.226536,9548.656652
4258.271096,1532.190996,2220.617826,7994.224174
4258.271411,2451.505594,1554.432478,7994.224174
4258.271726,2451.505594,1924.535449,8808.450710
4258.272042,153.219100,1702.473667,9548.656652
4258.272357,-612.876398,814.226536,9178.553681
4258.272672,0.000000,370.102971,10066.800811
4258.272988,-612.876398,296.082377,10658.965565
4258.273303,-1225.752797,-296.082377,11029.068536
4258.273618,-1302.362347,-296.082377,11695.253884
4258.273934,-1149.143247,-0.000000,10807.006753
4258.274249,-153.219100,666.185348,9992.780217
4258.274564,0.000000,1998.556043,10362.883188
4258.274880,-1378.971896,2516.700203,9622.677246
4258.275195,76.609550,2590.720797,9770.718434
4258.275510,1149.143247,2368.659014,9326.594869
4258.275826,919.314598,2294.638420,8956.491898
4258.276141,0.000000,1554.432478,9400.615463
4258.276456,-1455.581446,1554.432478,10362.883188
4258.276772,-1302.362347,1110.308913,11251.130318
4258.277087,-459.657299,962.267725,10510.924376
4258.277402,-995.924147,518.144159,10510.924376
4258.277718,-1762.019645,-592.164754,11177.109724
4258.278033,-1838.629195,-1258.350101,11473.192101
4258.278348,-1608.800546,-0.000000,10288.862594
4258.278664,-229.828649,-0.000000,9548.656652
4258.278979,153.219100,962.267725,8956.491898
4258.279294,0.000000,1184.329507,8956.491898
4258.279610,0.000000,1406.391290,8882.471304
4258.279925,689.485948,1406.391290,8216.285956
4258.280240,1608.800546,1998.556043,8660.409521
4258.280556,76.609550,1406.391290,9326.594869
4258.280871,-766.095498,-0.000000,9992.780217
4258.281186,-306.438199,-814.226536,10140.821405
4258.281502,0.000000,-1406.391290,10658.965565
4258.281817,76.609550,-1332.370696,9844.739029
4258.282132,-1302.362347,-962.267725,10510.924376
4258.282448,-1149.143247,-1184.329507,10288.862594
4258.282763,0.000000,370.102971,9474.636058
4258.283078,842.705048,-148.041188,8586.388927
4258.283394,536.266849,148.041188,8068.244768
4258.283709,229.828649,-0.000000,8586.388927
4258.284024,842.705048,-296.082377,8734.430116
4258.284340,919.314598,-0.000000,8808.450710
4258.284655,1072.533697,-0.000000,9400.615463
4258.284970,689.485948,-888.247130,9474.636058
4258.285286,689.485948,-1998.556043,10436.903782
4258.285601,2145.067394,-666.185348,9770.718434
4258.285916,1915.238745,-962.267725,9918.759623
4258.286232,1915.238745,-0.000000,8438.347739
4258.286547,306.438199,-444.123565,9326.594869
4258.286862,459.657299,-1184.329507,9474.636058
4258.287178,1838.629195,-518.144159,8882.471304
4258.287493,1915.238745,-148.041188,8734.430116
4258.287808,689.485948,-518.144159,8734.430116
4258.288124,76.609550,-1110.308913,9844.739029
4258.288439,229.828649,-592.164754,9252.574275
4258.288755,842.705048,-1110.308913,9622.677246
4258.289070,842.705048,-518.144159,10510.924376
4258.289385,-306.438199,-444.123565,9992.780217
4258.289701,-459.657299,-888.247130,10584.944971
4258.290016,229.828649,-222.061783,9696.697840
4258.290331,842.705048,-74.020594,9622.677246
4258.290647,306.438199,518.144159,9030.512492
4258.290962,-842.705048,370.102971,9474.636058
4258.291277,-229.828649,666.185348,10066.800811
4258.291593,-229.828649,-0.000000,9030.512492
4258.291908,153.219100,740.205942,9622.677246
4258.292223,-1378.971896,444.123565,9474.636058
4258.292539,-2298.286494,-1406.391290,11103.089130
4258.292854,-1762.019645,-1258.350101,10288.862594
4258.293169,-842.705048,-1332.370696,10584.944971
4258.293485,-459.657299,-148.041188,10510.924376
4258.293800,-1378.971896,-0.000000,10140.821405
4258.294115,-1149.143247,222.061783,9474.636058
4258.294431,-459.657299,444.123565,9178.553681
4258.294746,995.924147,-74.020594,8586.388927
4258.295061,459.657299,962.267725,8142.265362
4258.295377,-1072.533697,666.185348,8734.430116
4258.295692,-612.876398,1036.288319,8216.285956
4258.296007,-229.828649,296.082377,8438.347739
4258.296323,0.000000,-222.061783,9400.615463
4258.296638,-1455.581446,-0.000000,9474.636058
4258.296953,-2221.676944,-666.185348,10955.047942
4258.297269,-1608.800546,296.082377,10436.903782
4258.297584,-612.876398,-740.205942,10510.924376
4258.297899,0.000000,888.247130,9622.677246
4258.298215,-1072.533697,592.164754,9770.718434
4258.298530,0.000000,1554.432478,9474.636058
4258.298845,1378.971896,1998.556043,8660.409521
4258.299161,2068.457845,2220.617826,8068.244768
4258.299476,1685.410096,2220.617826,8512.368333
4258.299791,76.609550,1406.391290,9548.656652
4258.300107,536.266849,814.226536,9474.636058
4258.300422,1378.971896,666.185348,10066.800811
4258.300737,1149.143247,888.247130,9474.636058
4258.301053,-612.876398,-74.020594,10584.944971
4258.301368,-766.095498,-592.164754,11325.150913
4258.301683,153.219100,-74.020594,10140.821405
4258.301999,995.924147,370.102971,9918.759623
4258.302314,1378.971896,1110.308913,9622.677246
4258.302629,919.314598,1184.329507,10066.800811
4258.302945,1302.362347,1554.432478,9548.656652
4258.303260,2221.676944,1998.556043,8586.388927
4258.303575,2604.724693,2442.679609,8956.491898
4258.303891,1302.362347,2220.617826,9400.615463
4258.304206,842.705048,814.226536,10288.862594
4258.304521,1532.190996,1406.391290,9992.780217
4258.304837,1838.629195,962.267725,9918.759623
4258.305152,1608.800546,1036.288319,10066.800811
4258.305467,-229.828649,-0.000000,10584.944971
4258.305783,-459.657299,-740.205942,10658.965565
4258.306098,0.000000,-814.226536,10066.800811
4258.306414,383.047749,-444.123565,10066.800811
4258.306729,229.828649,-74.020594,8512.368333
4258.307044,-536.266849,-0.000000,9104.533087
4258.307360,-536.266849,-0.000000,10140.821405
4258.307675,-76.609550,148.041188,9104.533087
4258.307990,842.705048,370.102971,8734.430116
4258.308306,0.000000,518.144159,9326.594869
4258.308621,-383.047749,-74.020594,10436.903782
4258.308936,306.438199,444.123565,9326.594869
4258.309252,919.314598,-444.123565,9918.759623
4258.309567,919.314598,296.082377,9474.636058
4258.309882,-229.828649,-222.061783,9918.759623
4258.310198,-536.266849,-370.102971,9178.553681
4258.310513,76.609550,-0.000000,8956.491898
4258.310828,153.219100,222.061783,9326.594869
4258.311144,-1072.533697,296.082377,9104.533087
4258.311459,-2068.457845,-1110.308913,9622.677246
4258.311774,-1455.581446,-1184.329507,9696.697840
4258.312090,-919.314598,-2220.617826,10510.924376
4258.312405,-766.095498,-888.247130,9918.759623
4258.312720,-2298.286494,-1406.391290,9474.636058
4258.313036,-1685.410096,-1776.494261,10658.965565
4258.313351,-229.828649,-814.226536,9918.759623
4258.313666,995.924147,-296.082377,9104.533087
4258.313982,995.924147,-0.000000,9104.533087
4258.314297,76.609550,-0.000000,9252.574275
4258.314612,536.266849,-0.000000,9474.636058
4258.314928,995.924147,148.041188,8142.265362
4258.315243,1072.533697,222.061783,8882.471304
4258.315558,306.438199,-518.144159,9178.553681
4258.315874,-766.095498,-1628.453072,9844.739029
4258.316189,-306.438199,-1184.329507,9770.718434
4258.316504,-383.047749,-1258.350101,9992.780217
4258.316820,-459.657299,-1628.453072,10288.862594
4258.317135,-612.876398,-1628.453072,10510.924376
4258.317450,-153.219100,-1258.350101,9844.739029
4258.317766,842.705048,-814.226536,9400.615463
4258.318081,1762.019645,-222.061783,9030.512492
4258.318396,1455.581446,962.267725,8438.347739
4258.318712,383.047749,740.205942,8808.450710
4258.319027,1378.971896,1036.288319,7846.182985
4258.319342,1455.581446,222.061783,8438.347739
4258.319658,1378.971896,592.164754,8586.388927
4258.319973,-229.828649,-74.020594,9326.594869
4258.320288,-1149.143247,-740.205942,9918.759623
4258.320604,-612.876398,-1184.329507,11177.109724
4258.320919,-153.219100,-814.226536,11103.089130
4258.321234,-153.219100,-0.000000,10140.821405
4258.321550,-1149.143247,-592.164754,10362.883188
4258.321865,76.609550,-0.000000,9844.739029
4258.322180,1302.362347,1258.350101,9178.553681
4258.322496,2145.067394,1850.514855,8364.327145
4258.322811,1302.362347,1924.535449,8734.430116
4258.323127,766.095498,2072.576638,8956.491898
4258.323442,1532.190996,1480.411884,8882.471304
4258.323757,1378.971896,1406.391290,9104.533087
4258.324073,1378.971896,962.267725,10140.821405
4258.324388,-383.047749,518.144159,10510.924376
4258.324703,-842.705048,-222.061783,10881.027347
4258.325019,-306.438199,-148.041188,11399.171507
4258.325334,459.657299,-0.000000,11251.130318
4258.325649,-459.657299,1776.494261,9770.718434
4258.325965,-766.095498,592.164754,10732.986159
4258.326280,76.609550,2294.638420,9326.594869
4258.326595,153.219100,814.226536,9622.677246
4258.326911,1225.752797,1924.535449,8734.430116
4258.327226,-459.657299,1776.494261,9844.739029
4258.327541,-1072.533697,518.144159,9696.697840
4258.327857,0.000000,222.061783,10214.842000
4258.328172,0.000000,592.164754,9992.780217
4258.328487,0.000000,-296.082377,10288.862594
4258.328803,-1302.362347,-74.020594,10658.965565
4258.329118,-995.924147,-148.041188,10807.006753
4258.329433,0.000000,222.061783,9474.636058
4258.329749,612.876398,444.123565,9104.533087
4258.330064,459.657299,-0.000000,8660.409521
4258.330379,-383.047749,148.041188,9400.615463
4258.330695,383.047749,666.185348,9030.512492
4258.331010,689.485948,-0.000000,8512.368333
4258.331325,919.314598,370.102971,8512.368333
4258.331641,-612.876398,-0.000000,9400.615463
4258.331956,-1149.143247,-74.020594,9400.615463
4258.332272,0.000000,-296.082377,9992.780217
4258.332587,1072.533697,-148.041188,9992.780217
4258.332902,766.095498,-0.000000,9474.636058
4258.333218,-995.924147,-296.082377,9918.759623
4258.333533,-689.485948,-444.123565,10584.944971
4258.333849,229.828649,-222.061783,10140.821405
4258.334164,689.485948,-0.000000,8734.430116
4258.334479,306.438199,666.185348,8734.430116
4258.334795,-995.924147,-0.000000,9474.636058
4258.335110,-383.047749,74.020594,9104.533087
4258.335425,689.485948,-444.123565,9252.574275
4258.335741,383.047749,-0.000000,9400.615463
4258.336056,-306.438199,-666.185348,9918.759623
4258.336372,-306.438199,-888.247130,9992.780217
4258.336687,383.047749,-148.041188,9622.677246
4258.337002,1302.362347,-148.041188,9696.697840
4258.337318,1302.362347,-148.041188,9474.636058
4258.337633,0.000000,296.082377,9400.615463
4258.337949,459.657299,148.041188,8808.450710
4258.338264,1302.362347,370.102971,9400.615463
4258.338579,1378.971896,370.102971,8808.450710
4258.338895,0.000000,592.164754,8734.430116
4258.339210,-306.438199,-518.144159,9844.739029
4258.339526,-383.047749,-1332.370696,10214.842000
4258.339841,0.000000,-1036.288319,9918.759623
4258.340156,-459.657299,-1332.370696,10881.027347
4258.340472,-1608.800546,-1036.288319,11029.068536
4258.340787,-1378.971896,-814.226536,10510.924376
4258.341102,0.000000,-740.205942,10658.965565
4258.341418,1378.971896,666.185348,9178.553681
4258.341733,229.828649,296.082377,8956.491898
4258.342049,153.219100,148.041188,9104.533087
4258.342364,995.924147,740.205942,9622.677246
4258.342679,1455.581446,962.267725,8438.347739
4258.342995,1378.971896,518.144159,8808.450710
4258.343310,0.000000,-0.000000,9474.636058
4258.343626,-536.266849,-222.061783,9696.697840
4258.343941,-306.438199,-814.226536,9992.780217
4258.344256,229.828649,-740.205942,10658.965565
4258.344572,-383.047749,-740.205942,10658.965565
4258.344887,-1072.533697,-1258.350101,11177.109724
4258.345202,-459.657299,-962.267725,10066.800811
4258.345518,229.828649,-0.000000,9844.739029
4258.345833,995.924147,296.082377,9474.636058
4258.346149,306.438199,740.205942,9252.574275
4258.346464,0.000000,962.267725,8734.430116
4258.346779,689.485948,1332.370696,8290.306550
4258.347095,1149.143247,1258.350101,8512.368333
4258.347410,306.438199,592.164754,8734.430116
4258.347726,-995.924147,370.102971,9844.739029
4258.348041,-612.876398,-592.164754,10807.006753
4258.348356,-919.314598,-0.000000,10732.986159
4258.348672,0.000000,-148.041188,9622.677246
4258.348987,-612.876398,-222.061783,9992.780217
4258.349303,-1302.362347,962.267725,9770.718434
4258.349618,-536.266849,666.185348,9770.718434
4258.349933,612.876398,1554.432478,9252.574275
4258.350249,459.657299,1850.514855,8512.368333
4258.350564,-459.657299,1628.453072,8586.388927
4258.350879,-995.924147,222.061783,9252.574275
4258.351195,-153.219100,-0.000000,8956.491898
4258.351510,383.047749,-518.144159,9622.677246
4258.351826,383.047749,666.185348,9918.759623
4258.352141,-766.095498,592.164754,10214.842000
4258.352456,-612.876398,740.205942,10140.821405
4258.352772,229.828649,962.267725,9474.636058
4258.353087,1838.629195,-0.000000,9326.594869
4258.353403,842.705048,518.144159,9622.677246
4258.353718,-153.219100,1036.288319,9178.553681
4258.354033,229.828649,888.247130,8734.430116
4258.354349,689.485948,1332.370696,8956.491898
4258.354664,766.095498,1036.288319,9400.615463
4258.354980,-536.266849,1036.288319,9696.697840
4258.355295,-766.095498,444.123565,10214.842000
4258.355610,0.000000,-0.000000,10066.800811
4258.355926,229.828649,-74.020594,10066.800811
4258.356241,0.000000,-518.144159,10658.965565
4258.356556,-1302.362347,222.061783,11177.109724
4258.356872,-459.657299,-0.000000,11029.068536
4258.357187,842.705048,814.226536,9992.780217
4258.357503,2068.457845,2072.576638,8882.471304
4258.357818,1608.800546,2442.679609,9474.636058
4258.358133,1072.533697,1776.494261,9474.636058
4258.358449,919.314598,1554.432478,8660.409521
4258.358764,1378.971896,-0.000000,9844.739029
4258.359080,766.095498,444.123565,9992.780217
4258.359395,-689.485948,-0.000000,10510.924376
4258.359710,-766.095498,-666.185348,10510.924376
4258.360026,0.000000,-0.000000,10732.986159
4258.360341,383.047749,-888.247130,10362.883188
4258.360656,536.266849,-518.144159,10288.862594
4258.360972,0.000000,296.082377,9696.697840
4258.361287,766.095498,370.102971,9474.636058
4258.361603,1455.581446,962.267725,8586.388927
4258.361918,1685.410096,1554.432478,8512.368333
4258.362233,229.828649,1110.308913,9104.533087
4258.362549,-229.828649,370.102971,8586.388927
4258.362864,76.609550,-296.082377,9992.780217
4258.363180,76.609550,148.041188,9992.780217
4258.363495,-459.657299,-74.020594,9992.780217
4258.363810,-1455.581446,-1110.308913,10658.965565
4258.364126,-1149.143247,-2516.700203,11103.089130
4258.364441,-1378.971896,-1776.494261,10362.883188
4258.364757,76.609550,-1258.350101,9696.697840
4258.365072,-153.219100,-0.000000,8882.471304
4258.365387,0.000000,222.061783,8734.430116
4258.365703,919.314598,740.205942,8734.430116
4258.366018,919.314598,222.061783,8142.265362
4258.366333,919.314598,-148.041188,8734.430116
4258.366649,-306.438199,-666.185348,9104.533087
4258.366964,-919.314598,-1480.411884,9326.594869
4258.367280,-689.485948,-1406.391290,10584.944971
4258.367595,459.657299,-1850.514855,10362.883188
4258.367910,-306.438199,-1184.329507,9918.759623
4258.368226,-842.705048,-814.226536,9770.718434
4258.368541,-459.657299,-518.144159,9844.739029
4258.368857,536.266849,-962.267725,9474.636058
4258.369172,766.095498,370.102971,9104.533087
4258.369487,306.438199,666.185348,9178.553681
4258.369803,-229.828649,-0.000000,8438.347739
4258.370118,229.828649,-370.102971,8956.491898
4258.370433,1225.752797,-0.000000,8586.388927
4258.370749,612.876398,-0.000000,9030.512492
4258.371064,-229.828649,-0.000000,9252.574275
4258.371380,0.000000,-962.267725,10140.821405
4258.371695,229.828649,-74.020594,9844.739029
4258.372010,842.705048,-296.082377,9696.697840
4258.372326,383.047749,-814.226536,9770.718434
4258.372641,-229.828649,-444.123565,10140.821405
4258.372957,383.047749,-0.000000,9474.636058
4258.373272,1378.971896,296.082377,9252.574275
4258.373587,1915.238745,1332.370696,8734.430116
4258.373903,536.266849,1258.350101,9252.574275
4258.374218,153.219100,1480.411884,9178.553681
4258.374534,689.485948,888.247130,8956.491898
4258.374849,919.314598,592.164754,9696.697840
4258.375164,0.000000,592.164754,9474.636058
4258.375480,-1072.533697,-74.020594,10510.924376
4258.375795,-689.485948,-370.102971,10658.965565
4258.376110,76.609550,-74.020594,10584.944971
4258.376426,842.705048,518.144159,9844.739029
4258.376741,-536.266849,814.226536,10510.924376
4258.377057,-995.924147,1776.494261,9326.594869
4258.377372,0.000000,1480.411884,9030.512492
4258.377687,459.657299,1332.370696,8956.491898
4258.378003,76.609550,1332.370696,9326.594869
4258.378318,-1762.019645,1702.473667,9622.677246
4258.378634,-1762.019645,370.102971,10436.903782
4258.378949,-1072.533697,518.144159,10807.006753
4258.379264,-229.828649,-0.000000,11029.068536
4258.379580,-842.705048,-0.000000,11399.171507
4258.379895,-1915.238745,-148.041188,11325.150913
4258.380211,-536.266849,-0.000000,11029.068536
4258.380526,-306.438199,1110.308913,9844.739029
4258.380841,919.314598,1184.329507,9326.594869
4258.381157,383.047749,1184.329507,9178.553681
4258.381472,-383.047749,1184.329507,9252.574275
4258.381787,306.438199,740.205942,8882.471304
4258.382103,766.095498,444.123565,8956.491898
4258.382418,459.657299,962.267725,9326.594869
4258.382734,-689.485948,666.185348,9622.677246
4258.383049,-459.657299,-74.020594,10658.965565
4258.383364,0.000000,-370.102971,10214.842000
4258.383680,229.828649,-592.164754,10362.883188
4258.383995,-153.219100,-222.061783,10362.883188
4258.384311,-1072.533697,222.061783,9548.656652
4258.384626,383.047749,518.144159,9770.718434
4258.384941,1532.190996,1110.308913,9104.533087
4258.385257,1762.019645,1184.329507,8438.347739
4258.385572,612.876398,888.247130,8660.409521
4258.385887,459.657299,370.102971,8882.471304
4258.386203,766.095498,444.123565,8142.265362
4258.386518,766.095498,-148.041188,8512.368333
4258.386834,612.876398,-740.205942,9326.594869
4258.387149,0.000000,-1850.514855,10214.842000
4258.387464,0.000000,-2072.576638,10510.924376
4258.387780,842.705048,-1036.288319,9770.718434
4258.388095,1532.190996,-370.102971,9400.615463
4258.388411,1072.533697,-222.061783,9548.656652
4258.388726,919.314598,-148.041188,9400.615463
4258.389041,1532.190996,-0.000000,8586.388927
4258.389357,2374.896044,444.123565,8216.285956
4258.389672,1915.238745,444.123565,8438.347739
4258.389988,459.657299,592.164754,8956.491898
4258.390303,76.609550,-296.082377,9918.759623
4258.390618,0.000000,-592.164754,9548.656652
4258.390934,689.485948,-888.247130,9770.718434
4258.391249,-306.438199,-1036.288319,10214.842000
4258.391564,-1455.581446,-1702.473667,11029.068536
4258.391880,-1532.190996,-1036.288319,11103.089130
4258.392195,-612.876398,-1258.350101,10140.821405
4258.392511,689.485948,-370.102971,9992.780217
4258.392826,-995.924147,444.123565,8956.491898
4258.393141,-1225.752797,-0.000000,9400.615463
4258.393457,153.219100,-0.000000,9178.553681
4258.393772,459.657299,814.226536,8512.368333
4258.394088,-229.828649,592.164754,9178.553681
4258.394403,-1685.410096,-0.000000,9844.739029
4258.394718,-1072.533697,-666.185348,9992.780217
4258.395034,-612.876398,-222.061783,10066.800811
4258.395349,76.609550,-592.164754,10658.965565
4258.395665,-383.047749,-0.000000,9992.780217
4258.395980,-1378.971896,-592.164754,9992.780217
4258.396295,-842.705048,-296.082377,9844.739029
4258.396611,76.609550,222.061783,8808.450710
4258.396926,536.266849,962.267725,8660.409521
4258.397241,-383.047749,1480.411884,8882.471304
4258.397557,-1149.143247,1036.288319,8882.471304
4258.397872,0.000000,814.226536,8438.347739
4258.398188,919.314598,222.061783,8586.388927
4258.398503,76.609550,1258.350101,9252.574275
4258.398818,-1225.752797,518.144159,9474.636058
4258.399134,-919.314598,-0.000000,10658.965565
4258.399449,306.438199,-74.020594,10362.883188
4258.399765,0.000000,-0.000000,10807.006753
4258.400080,-1302.362347,592.164754,10288.862594
4258.400395,-1455.581446,962.267725,9992.780217
4258.400711,0.000000,962.267725,9770.718434
4258.401026,766.095498,1110.308913,9252.574275
4258.401341,919.314598,1480.411884,9474.636058
4258.401657,229.828649,1776.494261,8882.471304
4258.401972,153.219100,1554.432478,9918.759623
4258.402288,1225.752797,1554.432478,9030.512492
4258.402603,1915.238745,296.082377,9844.739029
4258.402918,1225.752797,888.247130,10584.944971
4258.403234,612.876398,518.144159,9844.739029
4258.403549,842.705048,370.102971,9548.656652
4258.403865,1915.238745,666.185348,9770.718434
4258.404180,2374.896044,1184.329507,9474.636058
4258.404495,1378.971896,1480.411884,9030.512492
4258.404811,612.876398,1184.329507,9030.512492
4258.405126,1455.581446,592.164754,9178.553681
4258.405442,1455.581446,444.123565,9326.594869
4258.405757,459.657299,740.205942,10214.842000
4258.406072,-1072.533697,444.123565,10362.883188
4258.406388,-842.705048,-148.041188,10584.944971
4258.406703,-153.219100,-296.082377,10510.924376
4258.407018,536.266849,-740.205942,10807.006753
4258.407334,-383.047749,222.061783,10955.047942
4258.407649,-842.705048,-74.020594,10066.800811
4258.407965,536.266849,-222.061783,10140.821405
4258.408280,1532.190996,1554.432478,8586.388927
4258.408595,1991.848295,1110.308913,9252.574275
4258.408911,383.047749,1850.514855,7698.141797
4258.409226,0.000000,592.164754,8882.471304
4258.409542,0.000000,666.185348,9178.553681
4258.409857,153.219100,-370.102971,9178.553681
4258.410172,-459.657299,-518.144159,9844.739029
4258.410488,-2145.067394,-1924.535449,10955.047942
4258.410803,-1532.190996,-1406.391290,9992.780217
4258.411119,-536.266849,-1406.391290,10807.006753
4258.411434,-383.047749,-814.226536,10288.862594
4258.411749,-689.485948,148.041188,10214.842000
4258.412065,-1072.533697,814.226536,9104.533087
4258.412380,0.000000,592.164754,8882.471304
4258.412695,995.924147,814.226536,8068.244768
4258.413011,766.095498,370.102971,8068.244768
4258.413326,-766.095498,592.164754,8734.430116
4258.413642,-1378.971896,-592.164754,9696.697840
4258.413957,-536.266849,-1184.329507,9252.574275
4258.414272,0.000000,-1184.329507,9918.759623
4258.414588,-1225.752797,-1554.432478,9770.718434
4258.414903,-2451.505594,-1924.535449,10362.883188
4258.415219,-1302.362347,-1406.391290,10510.924376
4258.415534,-766.095498,-1702.473667,9474.636058
4258.415849,306.438199,-962.267725,8956.491898
4258.416165,76.609550,-518.144159,9326.594869
4258.416480,229.828649,-148.041188,9178.553681
4258.416795,1225.752797,222.061783,8808.450710
4258.417111,1378.971896,1036.288319,7920.203579
4258.417426,1685.410096,296.082377,9400.615463
4258.417742,1149.143247,592.164754,9104.533087
4258.418057,306.438199,-0.000000,9548.656652
4258.418372,766.095498,-592.164754,9696.697840
4258.418688,1302.362347,-1628.453072,10288.862594
4258.419003,0.000000,-1258.350101,10140.821405
4258.419319,-383.047749,-1110.308913,10732.986159
4258.419634,-229.828649,-74.020594,9918.759623
4258.419949,612.876398,-0.000000,8956.491898
4258.420265,1302.362347,444.123565,9104.533087
4258.420580,459.657299,1258.350101,9326.594869
4258.420896,536.266849,740.205942,8734.430116
4258.421211,1302.362347,1480.411884,9400.615463
4258.421526,1685.410096,1332.370696,8438.347739
4258.421842,919.314598,666.185348,9696.697840
4258.422157,-153.219100,592.164754,10214.842000
4258.422472,76.609550,-518.144159,10288.862594
4258.422788,229.828649,444.123565,10807.006753
4258.423103,383.047749,592.164754,10066.800811
4258.423419,0.000000,1110.308913,9548.656652
4258.423734,-612.876398,888.247130,9474.636058
4258.424049,-306.438199,370.102971,9400.615463
4258.424365,536.266849,370.102971,9696.697840
4258.424680,153.219100,1776.494261,9030.512492
4258.424996,-383.047749,1554.432478,9400.615463
4258.425311,0.000000,1110.308913,10066.800811
4258.425626,153.219100,1554.432478,10214.842000
4258.425942,383.047749,592.164754,10510.924376
4258.426257,0.000000,888.247130,10658.965565
4258.426573,-995.924147,888.247130,9992.780217
4258.426888,-229.828649,888.247130,10362.883188
4258.427203,612.876398,1184.329507,10584.944971
4258.427519,383.047749,222.061783,9696.697840
4258.427834,-383.047749,888.247130,9844.739029
4258.428149,-766.095498,1110.308913,9474.636058
4258.428465,-383.047749,666.185348,9104.533087
4258.428780,-229.828649,740.205942,9400.615463
4258.429096,-766.095498,814.226536,9104.533087
4258.429411,-1838.629195,-370.102971,9918.759623
4258.429726,-919.314598,-814.226536,10140.821405
4258.430042,0.000000,-740.205942,10140.821405
4258.430357,153.219100,-666.185348,9992.780217
4258.430673,-229.828649,-0.000000,10510.924376
4258.430988,-306.438199,-0.000000,9474.636058
4258.431303,842.705048,444.123565,9104.533087
4258.431619,1991.848295,-0.000000,8956.491898
4258.431934,1532.190996,-74.020594,8808.450710
4258.432250,-229.828649,222.061783,9104.533087
4258.432565,0.000000,296.082377,8290.306550
4258.432881,0.000000,-0.000000,9252.574275
4258.433196,612.876398,-444.123565,8956.491898
4258.433512,-536.266849,-1110.308913,10214.842000
4258.433827,-1302.362347,-962.267725,9918.759623
4258.434142,-995.924147,-888.247130,9548.656652
4258.434458,-306.438199,-592.164754,10140.821405
4258.434773,612.876398,-370.102971,9770.718434
4258.435089,459.657299,370.102971,9992.780217
4258.435404,76.609550,-0.000000,9178.553681
4258.435720,919.314598,296.082377,8586.388927
4258.436035,1838.629195,814.226536,8290.306550
4258.436351,1149.143247,1036.288319,8808.450710
4258.436666,153.219100,1406.391290,8290.306550
4258.436982,536.266849,-0.000000,9104.533087
4258.437297,919.314598,-0.000000,9030.512492
4258.437613,1302.362347,-1036.288319,9622.677246
4258.437928,153.219100,-888.247130,9252.574275
4258.438244,-1149.143247,-1702.473667,9844.739029
4258.438559,-842.705048,-2220.617826,10584.944971
4258.438875,76.609550,-1406.391290,10288.862594
4258.439190,766.095498,-518.144159,9918.759623
4258.439505,-536.266849,-74.020594,9918.759623
4258.439821,153.219100,148.041188,9844.739029
4258.440136,1072.533697,222.061783,9030.512492
4258.440452,2068.457845,296.082377,9104.533087
4258.440767,1762.019645,1480.411884,9252.574275
4258.441083,-153.219100,814.226536,9548.656652
4258.441398,612.876398,-518.144159,10066.800811
4258.441714,306.438199,-148.041188,10066.800811
4258.442029,842.705048,-740.205942,9844.739029
4258.442345,0.000000,-666.185348,10881.027347
4258.442660,-1225.752797,-518.144159,10436.903782
4258.442976,0.000000,-962.267725,10807.006753
4258.443291,76.609550,-814.226536,9770.718434
4258.443607,459.657299,-74.020594,10140.821405
4258.443922,-1149.143247,592.164754,9104.533087
4258.444238,-919.314598,-0.000000,9326.594869
4258.444553,459.657299,592.164754,9622.677246
4258.444868,1072.533697,1036.288319,9178.553681
4258.445184,0.000000,1480.411884,9252.574275
4258.445499,-766.095498,666.185348,9770.718434
4258.445815,-612.876398,222.061783,10362.883188
4258.446130,842.705048,-370.102971,10510.924376
4258.446446,766.095498,444.123565,9918.759623
4258.446761,-229.828649,1406.391290,9622.677246
4258.447077,-842.705048,-0.000000,9770.718434
4258.447392,459.657299,814.226536,9918.759623
4258.447708,995.924147,888.247130,9326.594869
4258.448023,766.095498,592.164754,9104.533087
4258.448339,0.000000,-0.000000,9326.594869
4258.448654,0.000000,-0.000000,8956.491898
4258.448970,0.000000,296.082377,9400.615463
4258.449285,306.438199,-74.020594,9326.594869
4258.449601,-383.047749,370.102971,9622.677246
4258.449916,-842.705048,592.164754,9770.718434
4258.450231,0.000000,-0.000000,9844.739029
4258.450547,536.266849,222.061783,9622.677246
4258.450862,383.047749,222.061783,9696.697840
4258.451178,-306.438199,518.144159,9474.636058
4258.451493,0.000000,740.205942,9548.656652
4258.451809,383.047749,888.247130,9622.677246
4258.452124,995.924147,666.185348,9992.780217
4258.452440,306.438199,1332.370696,9030.512492
4258.452755,-612.876398,814.226536,9326.594869
4258.453071,0.000000,-0.000000,10066.800811
4258.453386,536.266849,-0.000000,10066.800811
4258.453702,-383.047749,-74.020594,9326.594869
4258.454017,-536.266849,-1036.288319,10584.944971
4258.454333,-383.047749,-740.205942,10288.862594
4258.454648,229.828649,-222.061783,10436.903782
4258.454964,383.047749,-814.226536,9992.780217
4258.455279,919.314598,370.102971,9474.636058
4258.455595,76.609550,1036.288319,9400.615463
4258.455910,766.095498,1036.288319,8956.491898
4258.456225,1149.143247,1480.411884,9104.533087
4258.456541,1838.629195,666.185348,8882.471304
4258.456856,459.657299,592.164754,9992.780217
4258.457172,-995.924147,666.185348,9844.739029
4258.457487,-842.705048,-222.061783,10288.862594
4258.457803,306.438199,-0.000000,10807.006753
4258.458118,76.609550,-666.185348,9918.759623
4258.458434,-842.705048,296.082377,10362.883188
4258.458749,-612.876398,-888.247130,10288.862594
4258.459065,229.828649,-370.102971,9992.780217
4258.459380,1302.362347,370.102971,9770.718434
4258.459696,842.705048,888.247130,9326.594869
4258.460011,76.609550,814.226536,8882.471304
4258.460327,1455.581446,-222.061783,8660.409521
4258.460642,2145.067394,-370.102971,8882.471304
4258.460958,1838.629195,-74.020594,8512.368333
4258.461273,0.000000,296.082377,9030.512492
4258.461588,-1149.143247,-296.082377,9622.677246
4258.461904,-229.828649,-1554.432478,9918.759623
4258.462219,842.705048,-1258.350101,9696.697840
4258.462535,689.485948,-962.267725,10288.862594
4258.462850,-689.485948,-962.267725,10140.821405
4258.463166,-689.485948,-962.267725,9474.636058
4258.463481,229.828649,-222.061783,8882.471304
4258.463797,1608.800546,-0.000000,8438.347739
4258.464112,1225.752797,592.164754,9104.533087
4258.464428,0.000000,814.226536,8660.409521
4258.464743,-229.828649,-518.144159,8956.491898
4258.465059,76.609550,-74.020594,8808.450710
4258.465374,0.000000,-1036.288319,10140.821405
4258.465690,-1838.629195,-666.185348,10066.800811
4258.466005,-1685.410096,-1554.432478,10214.842000
4258.466321,-995.924147,-1628.453072,10362.883188
4258.466636,-383.047749,-1702.473667,10214.842000
4258.466951,-306.438199,-296.082377,8882.471304
4258.467267,-1072.533697,444.123565,9918.759623
4258.467582,-306.438199,592.164754,8808.450710
4258.467898,919.314598,296.082377,8290.306550
4258.468213,1685.410096,1036.288319,8068.244768
4258.468529,0.000000,1036.288319,8512.368333
4258.468844,-612.876398,1480.411884,8660.409521
4258.469160,-153.219100,148.041188,9622.677246
4258.469475,0.000000,666.185348,9696.697840
4258.469791,1149.143247,-0.000000,9622.677246
4258.470106,-842.705048,222.061783,10658.965565
4258.470422,-1072.533697,-0.000000,10362.883188
4258.470737,-306.438199,-0.000000,10584.944971
4258.471053,76.609550,370.102971,9696.697840
4258.471368,-459.657299,814.226536,10214.842000
4258.471684,-1302.362347,1332.370696,9474.636058
4258.471999,0.000000,444.123565,10288.862594
4258.472314,383.047749,814.226536,9770.718434
4258.472630,842.705048,1184.329507,9548.656652
4258.472945,0.000000,1776.494261,10066.800811
4258.473261,-689.485948,1036.288319,10288.862594
4258.473576,0.000000,814.226536,10510.924376
4258.473892,1302.362347,444.123565,10214.842000
4258.474207,1302.362347,740.205942,10584.944971
4258.474523,-153.219100,1036.288319,9844.739029
4258.474838,383.047749,-0.000000,9992.780217
4258.475154,689.485948,814.226536,9992.780217
4258.475469,1608.800546,962.267725,9400.615463
4258.475785,1072.533697,666.185348,9400.615463
4258.476100,0.000000,1110.308913,9548.656652
4258.476416,153.219100,222.061783,9696.697840
4258.476731,919.314598,296.082377,9918.759623
4258.477047,1072.533697,518.144159,9548.656652
4258.477362,-229.828649,444.123565,9696.697840
4258.477677,-459.657299,-222.061783,9770.718434
4258.477993,-459.657299,-592.164754,10214.842000
4258.478308,919.314598,-0.000000,10214.842000
4258.478624,459.657299,-74.020594,9770.718434
4258.478939,-1302.362347,814.226536,9548.656652
4258.479255,0.000000,-148.041188,9030.512492
4258.479570,306.438199,-0.000000,9474.636058
4258.479886,1072.533697,-0.000000,8660.409521
4258.480201,-153.219100,1332.370696,8956.491898
4258.480517,-1378.971896,740.205942,8734.430116
4258.480832,-536.266849,-0.000000,9326.594869
4258.481148,-229.828649,-0.000000,9252.574275
4258.481463,0.000000,-222.061783,9548.656652
4258.481779,-1149.143247,-370.102971,10140.821405
4258.482094,-995.924147,-222.061783,9548.656652
4258.482410,383.047749,-888.247130,9696.697840
4258.482725,383.047749,-222.061783,9918.759623
4258.483040,383.047749,370.102971,9178.553681
4258.483356,-383.047749,592.164754,8808.450710
4258.483671,459.657299,296.082377,8956.491898
4258.483987,1302.362347,444.123565,8512.368333
4258.484302,459.657299,148.041188,8068.244768
4258.484618,-383.047749,-74.020594,9178.553681
4258.484933,-1532.190996,-666.185348,8956.491898
4258.485249,-1072.533697,-1406.391290,9918.759623
4258.485564,0.000000,-1258.350101,10288.862594
4258.485880,-536.266849,-1258.350101,10214.842000
4258.486195,-1608.800546,-666.185348,9918.759623
4258.486511,-995.924147,-740.205942,10288.862594
4258.486826,0.000000,-0.000000,9474.636058
4258.487142,1072.533697,-0.000000,9178.553681
4258.487457,459.657299,888.247130,9252.574275
4258.487773,0.000000,1406.391290,8734.430116
4258.488088,536.266849,296.082377,9474.636058
4258.488403,1378.971896,296.082377,9474.636058
4258.488719,612.876398,222.061783,9474.636058
4258.489034,-612.876398,518.144159,9400.615463
4258.489350,-1225.752797,-740.205942,9992.780217
4258.489665,0.000000,-1554.432478,10658.965565
4258.489981,459.657299,-814.226536,10658.965565
4258.490296,459.657299,-518.144159,10066.800811
4258.490612,-689.485948,-74.020594,10807.006753
4258.490927,459.657299,-148.041188,9770.718434
4258.491243,1685.410096,222.061783,9696.697840
4258.491558,2451.505594,1036.288319,8956.491898
4258.491874,995.924147,2220.617826,9696.697840
4258.492189,306.438199,1776.494261,8956.491898
4258.492505,1455.581446,962.267725,9474.636058
4258.492820,1838.629195,1184.329507,9104.533087
4258.493136,1455.581446,444.123565,10658.965565
4258.493451,-306.438199,1480.411884,10807.006753
4258.493766,-919.314598,-222.061783,10955.047942
4258.494082,153.219100,-0.000000,11325.150913
4258.494397,689.485948,-296.082377,10881.027347
4258.494713,229.828649,148.041188,10140.821405
4258.495028,-766.095498,518.144159,9474.636058
4258.495344,383.047749,-222.061783,9178.553681
4258.495659,842.705048,592.164754,8882.471304
4258.495975,1455.581446,592.164754,8586.388927
4258.496290,459.657299,1184.329507,8216.285956
4258.496606,-612.876398,592.164754,9178.553681
4258.496921,383.047749,-222.061783,9326.594869
4258.497237,1072.533697,-370.102971,9400.615463
4258.497552,229.828649,-296.082377,9548.656652
4258.497868,-842.705048,-74.020594,10288.862594
4258.498183,-612.876398,-518.144159,9696.697840
4258.498499,229.828649,-370.102971,9474.636058
4258.498814,536.266849,-296.082377,8882.471304
4258.499129,0.000000,518.144159,9178.553681
4258.499445,-1072.533697,666.185348,8808.450710
4258.499760,-842.705048,296.082377,9326.594869
4258.500076,-76.609550,370.102971,8882.471304
4258.500391,-306.438199,-0.000000,9030.512492
4258.500707,-1072.533697,-0.000000,9548.656652
4258.501022,-1378.971896,-666.185348,9252.574275
4258.501338,-766.095498,-1554.432478,9992.780217
4258.501653,0.000000,-296.082377,9696.697840
4258.501969,-229.828649,444.123565,9918.759623
4258.502284,-842.705048,962.267725,9030.512492
4258.502600,153.219100,-74.020594,9696.697840
4258.502915,1532.190996,814.226536,9178.553681
4258.503231,1762.019645,666.185348,8438.347739
4258.503546,689.485948,1480.411884,8142.265362
4258.503862,-229.828649,1332.370696,8660.409521
4258.504177,76.609550,-0.000000,9400.615463
4258.504492,612.876398,-0.000000,9992.780217
4258.504808,306.438199,-0.000000,10066.800811
4258.505123,-1225.752797,814.226536,9918.759623
4258.505439,-1149.143247,-592.164754,11103.089130
4258.505754,-383.047749,-148.041188,10955.047942
4258.506070,383.047749,-370.102971,10436.903782
4258.506385,842.705048,-0.000000,10584.944971
4258.506701,229.828649,814.226536,9918.759623
4258.507016,1072.533697,740.205942,8808.450710
4258.507332,1685.410096,1258.350101,9400.615463
4258.507647,1685.410096,1110.308913,9030.512492
4258.507963,459.657299,1702.473667,8882.471304
4258.508278,-383.047749,1258.350101,9326.594869
4258.508594,0.000000,-740.205942,10140.821405
4258.508909,536.266849,-962.267725,10881.027347
4258.509225,-459.657299,-888.247130,10510.924376
4258.509540,-1685.410096,-962.267725,10288.862594
4258.509855,-1225.752797,-1332.370696,10584.944971
4258.510171,-383.047749,-740.205942,11325.150913
4258.510486,612.876398,-222.061783,9474.636058
4258.510802,229.828649,740.205942,9030.512492
4258.511117,-306.438199,1258.350101,8882.471304
4258.511433,919.314598,444.123565,8586.388927
4258.511748,1532.190996,814.226536,8438.347739
4258.512064,1072.533697,592.164754,8956.491898
4258.512379,-612.876398,148.041188,9844.739029
4258.512695,-153.219100,-518.144159,9696.697840
4258.513010,459.657299,-592.164754,10140.821405
4258.513326,919.314598,-592.164754,10214.842000
4258.513641,-383.047749,-0.000000,10066.800811
4258.513957,-1149.143247,-148.041188,9918.759623
4258.514272,-919.314598,-740.205942,10066.800811
4258.514588,0.000000,-0.000000,9104.533087
4258.514903,459.657299,518.144159,8660.409521
4258.515218,0.000000,740.205942,9030.512492
4258.515534,-766.095498,1332.370696,8956.491898
4258.515849,459.657299,518.144159,8956.491898
4258.516165,1378.971896,740.205942,9252.574275
4258.516480,1991.848295,888.247130,9178.553681
4258.516796,-612.876398,740.205942,9770.718434
4258.517111,-612.876398,-0.000000,9474.636058
4258.517427,-153.219100,-148.041188,9918.759623
4258.517742,76.609550,-666.185348,9992.780217
4258.518058,-306.438199,-666.185348,11103.089130
4258.518373,-1302.362347,-0.000000,9622.677246
4258.518689,-153.219100,-740.205942,9474.636058
4258.519004,766.095498,-0.000000,9548.656652
4258.519320,919.314598,-0.000000,8808.450710
4258.519635,76.609550,222.061783,9030.512492
4258.519951,-153.219100,148.041188,8956.491898
4258.520266,459.657299,-296.082377,8956.491898
4258.520582,919.314598,-148.041188,8956.491898
4258.520897,459.657299,-296.082377,9178.553681
4258.521212,-766.095498,-222.061783,9622.677246
4258.521528,-229.828649,-1036.288319,10140.821405
4258.521843,842.705048,-222.061783,9918.759623
4258.522159,689.485948,-148.041188,10362.883188
4258.522474,0.000000,888.247130,9474.636058
4258.522790,-612.876398,814.226536,8808.450710
4258.523105,153.219100,148.041188,9696.697840
4258.523421,1149.143247,666.185348,9622.677246
4258.523736,459.657299,592.164754,9252.574275
4258.524052,-689.485948,888.247130,9622.677246
4258.524367,-1149.143247,444.123565,9474.636058
4258.524683,-459.657299,-0.000000,10732.986159
4258.524998,0.000000,-74.020594,10955.047942
4258.525314,0.000000,-0.000000,9844.739029
4258.525629,-1225.752797,296.082377,11399.171507
4258.525945,-383.047749,-0.000000,9474.636058
4258.526260,689.485948,814.226536,9252.574275
4258.526575,1685.410096,888.247130,9918.759623
4258.526891,689.485948,962.267725,9252.574275
4258.527206,-229.828649,1480.411884,8956.491898
4258.527522,689.485948,296.082377,9918.759623
4258.527837,1149.143247,518.144159,8586.388927
4258.528153,1072.533697,370.102971,9474.636058
4258.528468,-689.485948,1036.288319,9918.759623
4258.528784,-612.876398,-370.102971,9474.636058
4258.529099,-153.219100,-0.000000,10732.986159
4258.529415,459.657299,-666.185348,9992.780217
4258.529730,-229.828649,-0.000000,10288.862594
4258.530046,-995.924147,-74.020594,10140.821405
4258.530361,76.609550,-74.020594,9030.512492
4258.530677,1455.581446,518.144159,9400.615463
4258.530992,1915.238745,1258.350101,8142.265362
4258.531308,229.828649,1480.411884,7846.182985
4258.531623,76.609550,444.123565,8882.471304
4258.531938,842.705048,-296.082377,8882.471304
4258.532254,1455.581446,-148.041188,8882.471304
4258.532569,842.705048,-0.000000,9326.594869
4258.532885,-1532.190996,-222.061783,10140.821405
4258.533200,-1302.362347,-1850.514855,10362.883188
4258.533516,306.438199,-2072.576638,10881.027347
4258.533831,689.485948,-1850.514855,10584.944971
4258.534147,0.000000,-222.061783,9918.759623
4258.534462,0.000000,-370.102971,9918.759623
4258.534777,1378.971896,-0.000000,8808.450710
4258.535093,2834.553343,962.267725,8438.347739
4258.535408,2145.067394,1554.432478,7920.203579
4258.535724,995.924147,1406.391290,8808.450710
4258.536039,1685.410096,666.185348,8660.409521
4258.536355,1608.800546,-148.041188,9400.615463
4258.536670,995.924147,148.041188,9326.594869
4258.536985,-229.828649,-148.041188,10288.862594
4258.537301,-1608.800546,-148.041188,10881.027347
4258.537616,-1225.752797,-1184.329507,11251.130318
4258.537932,-229.828649,-592.164754,11029.068536
4258.538247,-153.219100,-666.185348,10066.800811
4258.538562,-1762.019645,370.102971,10510.924376
4258.538878,-1762.019645,740.205942,9474.636058
4258.539193,-306.438199,222.061783,9918.759623
4258.539509,689.485948,1184.329507,9770.718434
4258.539824,459.657299,1406.391290,9178.553681
4258.540140,-689.485948,2072.576638,8882.471304
4258.540455,-306.438199,740.205942,9178.553681
4258.540770,76.609550,518.144159,9770.718434
4258.541086,766.095498,-74.020594,9696.697840
4258.541401,-306.438199,370.102971,10214.842000
4258.541717,-1149.143247,-370.102971,9992.780217
4258.542032,-459.657299,-74.020594,9326.594869
4258.542348,-459.657299,-888.247130,9548.656652
4258.542663,229.828649,-1110.308913,9622.677246
4258.542978,-1225.752797,370.102971,9474.636058
4258.543294,-1608.800546,222.061783,8882.471304
4258.543609,-766.095498,-74.020594,8956.491898
4258.543925,383.047749,-0.000000,9178.553681
4258.544240,-306.438199,518.144159,9474.636058
4258.544556,-1455.581446,-0.000000,10288.862594
4258.544871,-383.047749,-592.164754,9844.739029
4258.545186,459.657299,-370.102971,9992.780217
4258.545502,1072.533697,-0.000000,10288.862594
4258.545817,76.609550,962.267725,9252.574275
4258.546133,-612.876398,592.164754,9252.574275
4258.546448,689.485948,-74.020594,10140.821405
4258.546764,1302.362347,296.082377,8734.430116
4258.547079,842.705048,888.247130,9104.533087
4258.547394,-612.876398,1258.350101,8734.430116
4258.547710,-766.095498,-148.041188,9696.697840
4258.548025,536.266849,-148.041188,10140.821405
4258.548341,1149.143247,-592.164754,10436.903782
4258.548656,689.485948,-0.000000,9844.739029
4258.548972,-229.828649,444.123565,9844.739029
4258.549287,919.314598,-0.000000,9918.759623
4258.549602,1991.848295,666.185348,10214.842000
4258.549918,2681.334243,1036.288319,9474.636058
4258.550233,1762.019645,1850.514855,9178.553681
4258.550549,612.876398,1258.350101,8586.388927
4258.550864,1532.190996,296.082377,9400.615463
4258.551180,2221.676944,814.226536,8660.409521
4258.551495,1072.533697,592.164754,9474.636058
4258.551810,-842.705048,1036.288319,9770.718434
4258.552126,-1225.752797,-666.185348,10436.903782
4258.552441,76.609550,-592.164754,10584.944971
4258.552757,842.705048,-814.226536,10436.903782
4258.553072,-766.095498,-74.020594,10436.903782
4258.553388,-1225.752797,-222.061783,10658.965565
4258.553703,0.000000,-814.226536,9696.697840
4258.554018,612.876398,-0.000000,9770.718434
4258.554334,1072.533697,592.164754,8364.327145
4258.554649,0.000000,888.247130,8512.368333
4258.554965,0.000000,518.144159,8586.388927
4258.555280,459.657299,-0.000000,8586.388927
4258.555595,536.266849,222.061783,8882.471304
4258.555911,-306.438199,-296.082377,8882.471304
4258.556226,-1915.238745,-444.123565,9844.739029
4258.556542,-1915.238745,-1628.453072,10140.821405
4258.556857,-306.438199,-1332.370696,10658.965565
4258.557173,153.219100,-1110.308913,9992.780217
4258.557488,-919.314598,-444.123565,10066.800811
4258.557803,-1225.752797,-0.000000,9918.759623
4258.558119,153.219100,-222.061783,9252.574275
4258.558434,995.924147,666.185348,9030.512492
4258.558750,1915.238745,1110.308913,8438.347739
4258.559065,-229.828649,1702.473667,8660.409521
4258.559381,-306.438199,814.226536,8734.430116
4258.559696,306.438199,-0.000000,9104.533087
4258.560011,306.438199,-222.061783,9844.739029
4258.560327,-459.657299,1110.308913,10584.944971
4258.560642,-1685.410096,-0.000000,9918.759623
4258.560958,-842.705048,-1036.288319,10288.862594
4258.561273,153.219100,-888.247130,11251.130318
4258.561589,383.047749,-296.082377,9696.697840
4258.561904,-842.705048,740.205942,9474.636058
4258.562219,-1072.533697,592.164754,9696.697840
4258.562535,153.219100,148.041188,8956.491898
4258.562850,1838.629195,222.061783,8956.491898
4258.563166,1455.581446,1036.288319,8364.327145
4258.563481,0.000000,1332.370696,9474.636058
4258.563797,153.219100,222.061783,9252.574275
4258.564112,842.705048,370.102971,9696.697840
4258.564427,995.924147,-296.082377,10066.800811
4258.564743,153.219100,-518.144159,9844.739029
4258.565058,-766.095498,-0.000000,10362.883188
4258.565374,229.828649,-592.164754,9474.636058
4258.565689,766.095498,-0.000000,9844.739029
4258.566005,689.485948,740.205942,8882.471304
4258.566320,-612.876398,296.082377,8660.409521
4258.566635,76.609550,-296.082377,9548.656652
4258.566951,0.000000,-0.000000,9474.636058
4258.567266,612.876398,-518.144159,9252.574275
4258.567582,0.000000,296.082377,9992.780217
4258.567897,-919.314598,-0.000000,9474.636058
4258.568213,-306.438199,-1110.308913,9918.759623
4258.568528,612.876398,-0.000000,10066.800811
4258.568843,1378.971896,-74.020594,10066.800811
4258.569159,76.609550,1036.288319,9474.636058
4258.569474,-383.047749,1036.288319,9770.718434
4258.569790,1532.190996,444.123565,9400.615463
4258.570105,1685.410096,962.267725,9252.574275
4258.570421,1302.362347,518.144159,9326.594869
4258.570736,-383.047749,814.226536,9326.594869
4258.571051,-459.657299,444.123565,10214.842000
4258.571367,76.609550,-74.020594,9992.780217
4258.571682,766.095498,-222.061783,9400.615463
4258.571998,-842.705048,-0.000000,9622.677246
4258.572313,-1455.581446,-296.082377,10214.842000
4258.572628,-459.657299,-74.020594,10288.862594
4258.572944,0.000000,-0.000000,10807.006753
4258.573259,612.876398,148.041188,9548.656652
4258.573575,-766.095498,1036.288319,9918.759623
4258.573890,-383.047749,1110.308913,9326.594869
4258.574206,919.314598,518.144159,8586.388927
4258.574521,1378.971896,888.247130,8808.450710
4258.574836,689.485948,1036.288319,8734.430116
4258.575152,-919.314598,1184.329507,9104.533087
4258.575467,-689.485948,-74.020594,9548.656652
4258.575783,-229.828649,-740.205942,9400.615463
4258.576098,153.219100,-1554.432478,10362.883188
4258.576414,-1532.190996,-1036.288319,10066.800811
4258.576729,-2451.505594,-1332.370696,10288.862594
4258.577044,-766.095498,-1850.514855,10362.883188
4258.577360,766.095498,-592.164754,9252.574275
4258.577675,1378.971896,-0.000000,8512.368333
4258.577991,306.438199,-0.000000,9400.615463
4258.578306,229.828649,370.102971,8586.388927
4258.578622,1455.581446,-148.041188,9474.636058
4258.578937,1991.848295,888.247130,8068.244768
4258.579252,842.705048,296.082377,8290.306550
4258.579568,-306.438199,-0.000000,9696.697840
4258.579883,76.609550,-1332.370696,9770.718434
4258.580199,229.828649,-1036.288319,10584.944971
4258.580514,76.609550,-962.267725,10140.821405
4258.580830,-1149.143247,-296.082377,10807.006753
4258.581145,-1762.019645,-0.000000,11103.089130
4258.581460,-842.705048,-370.102971,9474.636058
4258.581776,0.000000,-814.226536,10436.903782
4258.582091,383.047749,222.061783,10214.842000
4258.582407,0.000000,1184.329507,9770.718434
4258.582722,0.000000,1332.370696,8956.491898
4258.583038,1072.533697,1776.494261,8512.368333
4258.583353,1838.629195,1628.453072,9030.512492
4258.583668,919.314598,1480.411884,9030.512492
4258.583984,-766.095498,1406.391290,9992.780217
4258.584299,-536.266849,-74.020594,9696.697840
4258.584615,0.000000,-74.020594,9992.780217
4258.584930,306.438199,-666.185348,9696.697840
4258.585246,-1225.752797,296.082377,9918.759623
4258.585561,-842.705048,-296.082377,10140.821405
4258.585876,-306.438199,-814.226536,9770.718434
4258.586192,842.705048,-0.000000,9622.677246
4258.586507,1149.143247,1258.350101,8808.450710
4258.586823,-306.438199,2294.638420,9178.553681
4258.587138,0.000000,740.205942,9104.533087
4258.587453,919.314598,518.144159,9326.594869
4258.587769,1608.800546,666.185348,9474.636058
4258.588084,0.000000,814.226536,9622.677246
4258.588400,-229.828649,-0.000000,10362.883188
4258.588715,536.266849,-518.144159,9844.739029
4258.589031,919.314598,-74.020594,9622.677246
4258.589346,995.924147,-0.000000,9548.656652
4258.589661,-1225.752797,296.082377,9622.677246
4258.589977,-612.876398,-0.000000,9400.615463
4258.590292,383.047749,-444.123565,9104.533087
4258.590608,689.485948,222.061783,8808.450710
4258.590923,459.657299,74.020594,8808.450710
4258.591239,-612.876398,444.123565,9474.636058
4258.591554,459.657299,-296.082377,9252.574275
4258.591869,919.314598,-222.061783,10288.862594
4258.592185,919.314598,518.144159,10288.862594
4258.592500,0.000000,962.267725,9178.553681
4258.592816,0.000000,444.123565,9474.636058
4258.593131,766.095498,-518.144159,10214.842000
4258.593447,1225.752797,296.082377,10066.800811
4258.593762,536.266849,962.267725,9622.677246
4258.594077,-612.876398,1184.329507,9400.615463
4258.594393,-153.219100,370.102971,9770.718434
4258.594708,76.609550,-74.020594,9770.718434
4258.595024,306.438199,148.041188,9252.574275
4258.595339,-306.438199,740.205942,9400.615463
4258.595655,-1915.238745,370.102971,9992.780217
4258.595970,-919.314598,-0.000000,9622.677246
4258.596285,-459.657299,-370.102971,10955.047942
4258.596601,0.000000,-74.020594,9992.780217
4258.596916,-612.876398,370.102971,9622.677246
4258.597232,-612.876398,-0.000000,8808.450710
4258.597547,536.266849,-592.164754,9622.677246
4258.597863,1302.362347,-0.000000,8660.409521
4258.598178,459.657299,888.247130,8512.368333
4258.598493,-459.657299,1924.535449,8956.491898
4258.598809,0.000000,666.185348,8512.368333
4258.599124,383.047749,-740.205942,9178.553681
4258.599440,689.485948,-814.226536,10140.821405
4258.599755,-1072.533697,-592.164754,9474.636058
4258.600071,-1608.800546,-1036.288319,10658.965565
4258.600386,-842.705048,-1332.370696,10658.965565
4258.600701,-229.828649,-1258.350101,11399.171507
4258.601017,536.266849,-518.144159,9770.718434
4258.601332,-306.438199,222.061783,9844.739029
4258.601648,153.219100,444.123565,8882.471304
4258.601963,2145.067394,222.061783,9326.594869
4258.602279,2757.943793,592.164754,8586.388927
4258.602594,2528.115143,1184.329507,8068.244768
4258.602909,459.657299,1258.350101,8956.491898
4258.603225,459.657299,-444.123565,8734.430116
4258.603540,766.095498,-962.267725,9178.553681
4258.603856,1149.143247,-1554.432478,10436.903782
4258.604171,-995.924147,-666.185348,10140.821405
4258.604486,-1532.190996,-1332.370696,10658.965565
4258.604802,-459.657299,-2294.638420,10510.924376
4258.605117,459.657299,-1850.514855,11399.171507
4258.605433,459.657299,296.082377,9696.697840
4258.605748,-689.485948,1628.453072,9844.739029
4258.606064,76.609550,1332.370696,9178.553681
4258.606379,2374.896044,1628.453072,8882.471304
4258.606694,2834.553343,1702.473667,8586.388927
4258.607010,1915.238745,2368.659014,8438.347739
4258.607325,-229.828649,1480.411884,9474.636058
4258.607641,229.828649,444.123565,9326.594869
4258.607956,766.095498,-222.061783,10214.842000
4258.608272,842.705048,-888.247130,10510.924376
4258.608587,-1225.752797,-296.082377,10288.862594
4258.608902,-1915.238745,-1110.308913,10214.842000
4258.609218,-536.266849,-1332.370696,10362.883188
4258.609533,0.000000,-666.185348,9696.697840
4258.609849,0.000000,444.123565,8438.347739
4258.610164,-1225.752797,1258.350101,8660.409521
4258.610480,-919.314598,370.102971,9178.553681
4258.610795,766.095498,222.061783,9548.656652
4258.611110,766.095498,592.164754,8438.347739
4258.611426,0.000000,1332.370696,9696.697840
4258.611741,-1302.362347,740.205942,9992.780217
4258.612057,-612.876398,-74.020594,10214.842000
4258.612372,153.219100,-296.082377,10881.027347
4258.612688,0.000000,-0.000000,9992.780217
4258.613003,-1225.752797,-222.061783,9992.780217
4258.613318,-1838.629195,-222.061783,9844.739029
4258.613634,-689.485948,-296.082377,9696.697840
4258.613949,383.047749,-0.000000,9252.574275
4258.614265,-536.266849,370.102971,8290.306550
4258.614580,-1532.190996,296.082377,9844.739029
4258.614896,-842.705048,-0.000000,9548.656652
4258.615211,-229.828649,-148.041188,9992.780217
4258.615526,459.657299,370.102971,9918.759623
4258.615842,-689.485948,592.164754,9474.636058
4258.616157,-612.876398,592.164754,10288.862594
4258.616473,612.876398,740.205942,10214.842000
4258.616788,1072.533697,666.185348,10140.821405
4258.617104,689.485948,962.267725,9992.780217
4258.617419,-383.047749,2220.617826,9548.656652
4258.617734,76.609550,1406.391290,8512.368333
4258.618050,612.876398,518.144159,9696.697840
4258.618365,1225.752797,518.144159,9178.553681
4258.618681,76.609550,740.205942,8660.409521
4258.618996,-1225.752797,444.123565,9918.759623
4258.619312,229.828649,-444.123565,10066.800811
4258.619627,383.047749,-296.082377,9918.759623
4258.619942,1072.533697,-296.082377,9918.759623
4258.620258,459.657299,444.123565,9918.759623
4258.620573,766.095498,-222.061783,9918.759623
4258.620889,1991.848295,-0.000000,9400.615463
4258.621204,2834.553343,814.226536,9918.759623
4258.621519,2604.724693,1480.411884,8216.285956
4258.621835,1378.971896,1702.473667,8586.388927
4258.622150,2528.115143,-222.061783,9474.636058
4258.622466,2221.676944,-0.000000,9474.636058
4258.622781,1302.362347,-518.144159,9252.574275
4258.623097,76.609550,-740.205942,9696.697840
4258.623412,-612.876398,-740.205942,10214.842000
4258.623727,689.485948,-1628.453072,10140.821405
4258.624043,383.047749,-1628.453072,10881.027347
4258.624358,612.876398,-1036.288319,10066.800811
4258.624674,-689.485948,-370.102971,9622.677246
4258.624989,-306.438199,-444.123565,9548.656652
4258.625305,1072.533697,-296.082377,8808.450710
4258.625620,1225.752797,-0.000000,9326.594869
4258.625935,153.219100,814.226536,8512.368333
4258.626251,-1302.362347,1184.329507,8512.368333
4258.626566,-766.095498,-666.185348,9104.533087
4258.626882,-612.876398,-296.082377,9844.739029
4258.627197,-995.924147,-222.061783,10288.862594
4258.627513,-2528.115143,-74.020594,10214.842000
4258.627828,-2681.334243,-1036.288319,10955.047942
4258.628143,-1915.238745,-1628.453072,10288.862594
4258.628459,-1378.971896,-1110.308913,10436.903782
4258.628774,-1302.362347,-296.082377,10066.800811
4258.629090,-2068.457845,370.102971,10140.821405
4258.629405,-1225.752797,370.102971,8882.471304
4258.629721,0.000000,444.123565,8586.388927
4258.630036,383.047749,666.185348,8808.450710
4258.630351,-612.876398,1554.432478,8364.327145
4258.630667,-1302.362347,1110.308913,8216.285956
4258.630982,-459.657299,-222.061783,8882.471304
4258.631298,383.047749,-148.041188,9400.615463
4258.631613,-306.438199,-0.000000,9474.636058
4258.631929,-1762.019645,444.123565,9844.739029
4258.632244,-1608.800546,-518.144159,10658.965565
4258.632559,0.000000,-444.123565,10288.862594
4258.632875,842.705048,-518.144159,10510.924376
4258.633190,-536.266849,518.144159,9326.594869
4258.633506,-1762.019645,296.082377,10584.944971
4258.633820,-153.219100,-370.102971,9622.677246
4258.634135,1762.019645,222.061783,10436.903782
4258.634451,2068.457845,1406.391290,8734.430116
4258.634766,612.876398,1332.370696,8290.306550
4258.635081,842.705048,1036.288319,9030.512492
4258.635397,2374.896044,-0.000000,9030.512492
4258.635712,3294.210641,222.061783,10214.842000
4258.636027,2451.505594,148.041188,9326.594869
4258.636343,995.924147,888.247130,10066.800811
4258.636658,1455.581446,-0.000000,10140.821405
4258.636973,1838.629195,-370.102971,10732.986159
4258.637289,2221.676944,444.123565,10066.800811
4258.637604,766.095498,740.205942,9474.636058
4258.637920,-766.095498,666.185348,10214.842000
4258.638235,0.000000,-0.000000,9770.718434
4258.638550,919.314598,222.061783,9622.677246
4258.638866,1225.752797,666.185348,9770.718434
4258.639181,-766.095498,962.267725,10807.006753
4258.639496,-536.266849,222.061783,10362.883188
4258.639812,1378.971896,-444.123565,10732.986159
4258.640127,2145.067394,888.247130,10140.821405
4258.640442,1455.581446,2220.617826,8290.306550
4258.640758,153.219100,2146.597232,9252.574275
4258.641073,612.876398,1554.432478,9178.553681
4258.641388,1072.533697,1184.329507,8882.471304
4258.641704,1302.362347,1480.411884,8734.430116
4258.642019,0.000000,888.247130,8734.430116
4258.642335,-2068.457845,296.082377,9770.718434
4258.642650,-1149.143247,-444.123565,9548.656652
4258.642965,-612.876398,-518.144159,9992.780217
4258.643281,-689.485948,-888.247130,11029.068536
4258.643596,-1608.800546,-74.020594,10584.944971
4258.643911,-1072.533697,-296.082377,9918.759623
4258.644227,76.609550,-148.041188,9178.553681
4258.644542,612.876398,296.082377,9474.636058
4258.644857,306.438199,1184.329507,8364.327145
4258.645173,-766.095498,1554.432478,8216.285956
4258.645488,76.609550,-0.000000,8216.285956
4258.645803,459.657299,-296.082377,9474.636058
4258.646119,76.609550,-0.000000,9326.594869
4258.646434,-1532.190996,74.020594,9178.553681
4258.646749,-3064.381992,-814.226536,10288.862594
4258.647065,-1915.238745,-2368.659014,10732.986159
4258.647380,-1455.581446,-2220.617826,11029.068536
4258.647696,-1378.971896,-1184.329507,10140.821405
4258.648011,-2451.505594,-740.205942,10955.047942
4258.648326,-1302.362347,-814.226536,10288.862594
4258.648642,383.047749,-370.102971,9918.759623
4258.648957,1225.752797,814.226536,9252.574275
4258.649272,842.705048,1702.473667,8290.306550
4258.649588,459.657299,1036.288319,8438.347739
4258.649903,1149.143247,-296.082377,8734.430116
4258.650218,1608.800546,-74.020594,9326.594869
4258.650534,995.924147,518.144159,8956.491898
4258.650849,-459.657299,518.144159,9104.533087
4258.651164,-919.314598,-1406.391290,10732.986159
4258.651480,612.876398,-1554.432478,10732.986159
4258.651795,1149.143247,-1332.370696,10362.883188
4258.652111,306.438199,-888.247130,10362.883188
4258.652426,-612.876398,666.185348,10066.800811
4258.652741,229.828649,-148.041188,9178.553681
4258.653057,2528.115143,444.123565,9104.533087
4258.653372,2757.943793,1998.556043,8586.388927
4258.653687,1378.971896,2220.617826,7772.162391
4258.654003,612.876398,1480.411884,8808.450710
4258.654318,1455.581446,-0.000000,9178.553681
4258.654633,1532.190996,-0.000000,9770.718434
4258.654949,842.705048,296.082377,9548.656652
4258.655264,-919.314598,-222.061783,10658.965565
4258.655579,-995.924147,-1776.494261,11325.150913
4258.655895,229.828649,-1702.473667,10362.883188
4258.656210,459.657299,-370.102971,10584.944971
4258.656525,0.000000,740.205942,9104.533087
4258.656841,-1072.533697,1110.308913,9474.636058
4258.657156,995.924147,-222.061783,8660.409521
4258.657472,1915.238745,-222.061783,8956.491898
4258.657787,1838.629195,962.267725,9178.553681
4258.658102,536.266849,1332.370696,8216.285956
4258.658418,0.000000,592.164754,9918.759623
4258.658733,995.924147,-666.185348,9252.574275
4258.659048,1302.362347,-518.144159,10214.842000
4258.659364,383.047749,-0.000000,9844.739029
4258.659679,-1455.581446,370.102971,10436.903782
4258.659994,-1378.971896,-222.061783,10140.821405
4258.660310,-306.438199,-740.205942,10140.821405
4258.660625,-612.876398,-0.000000,9696.697840
4258.660940,-1378.971896,1110.308913,8882.471304
4258.661256,-1915.238745,296.082377,9770.718434
4258.661571,-842.705048,222.061783,9474.636058
4258.661887,76.609550,1036.288319,9030.512492
4258.662202,383.047749,1924.535449,8882.471304
4258.662517,-842.705048,1998.556043,9400.615463
4258.662833,-995.924147,888.247130,9622.677246
4258.663148,306.438199,148.041188,9474.636058
4258.663463,766.095498,-0.000000,9844.739029
4258.663779,153.219100,296.082377,8808.450710
4258.664094,-1532.190996,-222.061783,10214.842000
4258.664409,-229.828649,222.061783,9178.553681
4258.664725,689.485948,-370.102971,9474.636058
4258.665040,1685.410096,1258.350101,8364.327145
4258.665355,-383.047749,1184.329507,8290.306550
4258.665671,-536.266849,666.185348,8808.450710
4258.665986,0.000000,-592.164754,9844.739029
4258.666301,153.219100,-222.061783,9770.718434
4258.666617,0.000000,-74.020594,10510.924376
4258.666932,-1302.362347,814.226536,10362.883188
4258.667248,-229.828649,-518.144159,11251.130318
4258.667563,1455.581446,-296.082377,10807.006753
4258.667878,2451.505594,518.144159,9474.636058
4258.668194,2451.505594,1924.535449,8956.491898
4258.668509,766.095498,2442.679609,8808.450710
4258.668824,1838.629195,1110.308913,8808.450710
4258.669140,2221.676944,666.185348,8882.471304
4258.669455,1455.581446,148.041188,8586.388927
4258.669770,-766.095498,-222.061783,9474.636058
4258.670086,-1762.019645,-888.247130,10066.800811
4258.670401,-1302.362347,-1998.556043,10362.883188
4258.670716,-842.705048,-1628.453072,11621.233289
4258.671032,-1302.362347,-1332.370696,10881.027347
4258.671347,-2068.457845,-1184.329507,11473.192101
4258.671663,-689.485948,-592.164754,10510.924376
4258.671978,689.485948,-0.000000,10066.800811
4258.672293,919.314598,1110.308913,9104.533087
4258.672609,1532.190996,1998.556043,8956.491898
4258.672924,536.266849,2368.659014,8438.347739
4258.673239,1302.362347,1332.370696,8290.306550
4258.673555,1838.629195,1184.329507,9178.553681
4258.673870,1149.143247,148.041188,9104.533087
4258.674185,-1072.533697,518.144159,9918.759623
4258.674501,-1455.581446,-888.247130,9992.780217
4258.674816,-689.485948,-2220.617826,11251.130318
4258.675131,0.000000,-2442.679609,11325.150913
4258.675447,-1455.581446,-1628.453072,10140.821405
4258.675762,-2374.896044,-962.267725,10362.883188
4258.676077,-919.314598,-814.226536,9178.553681
4258.676393,919.314598,-962.267725,9400.615463
4258.676708,2145.067394,296.082377,8882.471304
4258.677024,459.657299,1628.453072,7920.203579
4258.677339,383.047749,1480.411884,7920.203579
4258.677654,1685.410096,296.082377,8660.409521
4258.677970,2068.457845,370.102971,9770.718434
4258.678285,1149.143247,592.164754,9992.780217
4258.678600,-766.095498,-0.000000,9474.636058
4258.678916,-153.219100,-1924.535449,10066.800811
4258.679231,1072.533697,-1776.494261,10807.006753
4258.679546,306.438199,-1332.370696,10584.944971
4258.679862,-689.485948,-666.185348,9400.615463
4258.680177,-689.485948,-370.102971,9992.780217
4258.680492,229.828649,-1184.329507,9030.512492
4258.680808,1072.533697,-740.205942,9400.615463
4258.681123,612.876398,370.102971,8364.327145
4258.681439,-383.047749,444.123565,9104.533087
4258.681754,-536.266849,888.247130,8660.409521
4258.682069,1149.143247,-370.102971,8734.430116
4258.682385,1225.752797,-148.041188,10066.800811
4258.682700,-306.438199,296.082377,9474.636058
4258.683015,-1762.019645,1110.308913,9992.780217
4258.683331,-1149.143247,-740.205942,10732.986159
4258.683646,459.657299,-148.041188,10362.883188
4258.683961,76.609550,-0.000000,9992.780217
4258.684277,-1455.581446,1110.308913,8808.450710
4258.684592,-2221.676944,370.102971,10214.842000
4258.684907,-536.266849,-0.000000,9474.636058
4258.685223,383.047749,444.123565,9622.677246
4258.685538,536.266849,1628.453072,8734.430116
4258.685853,-1072.533697,1480.411884,9252.574275
4258.686169,-536.266849,-74.020594,9548.656652
4258.686484,919.314598,518.144159,9770.718434
4258.686800,383.047749,592.164754,9770.718434
4258.687115,153.219100,814.226536,9104.533087
4258.687430,-612.876398,1036.288319,9548.656652
4258.687746,306.438199,592.164754,9400.615463
4258.688061,1302.362347,888.247130,9844.739029
4258.688376,766.095498,1554.432478,8956.491898
4258.688692,-612.876398,2072.576638,9326.594869
4258.689007,-1225.752797,1480.411884,9474.636058
4258.689322,0.000000,370.102971,9622.677246
4258.689638,689.485948,888.247130,9696.697840
4258.689953,0.000000,666.185348,9770.718434
4258.690268,-1838.629195,888.247130,10436.903782
4258.690584,-306.438199,-740.205942,11399.171507
4258.690899,612.876398,-148.041188,10732.986159
4258.691215,995.924147,888.247130,10066.800811
4258.691530,306.438199,1554.432478,9400.615463
4258.691845,-306.438199,1702.473667,9474.636058
4258.692161,1225.752797,592.164754,9770.718434
4258.692476,2068.457845,1332.370696,9770.718434
4258.692791,1378.971896,1776.494261,8512.368333
4258.693107,-229.828649,1036.288319,9178.553681
4258.693422,-306.438199,-0.000000,10140.821405
4258.693737,919.314598,-1036.288319,9770.718434
4258.694053,919.314598,-222.061783,10881.027347
4258.694368,0.000000,-740.205942,10288.862594
4258.694683,-995.924147,-444.123565,11325.150913
4258.694999,0.000000,-740.205942,10436.903782
4258.695314,2145.067394,-222.061783,9844.739029
4258.695629,2145.067394,444.123565,9474.636058
4258.695945,919.314598,370.102971,9178.553681
4258.696260,306.438199,1332.370696,8512.368333
4258.696576,1685.410096,518.144159,7846.182985
4258.696891,1455.581446,370.102971,9474.636058
4258.697206,919.314598,444.123565,8882.471304
4258.697522,-612.876398,444.123565,9252.574275
4258.697837,-1149.143247,-1036.288319,9844.739029
4258.698152,0.000000,-2516.700203,10807.006753
4258.698468,-229.828649,-2664.741391,11103.089130
4258.698783,-689.485948,-1406.391290,10140.821405
4258.699098,-1608.800546,-1332.370696,10510.924376
4258.699414,0.000000,-1110.308913,10066.800811
4258.699729,1762.019645,-1110.308913,9474.636058
4258.700044,2451.505594,-0.000000,8216.285956
4258.700360,1378.971896,1258.350101,7772.162391
4258.700675,689.485948,592.164754,7624.121203
4258.700991,1532.190996,-814.226536,8586.388927
4258.701306,1532.190996,-444.123565,9030.512492
4258.701621,1072.533697,-740.205942,9030.512492
4258.701937,-766.095498,-1184.329507,9992.780217
4258.702252,-842.705048,-2812.782580,10658.965565
4258.702567,0.000000,-2960.823768,11695.253884
4258.702883,919.314598,-2960.823768,11251.130318
4258.703198,995.924147,-2072.576638,10881.027347
4258.703513,459.657299,-1258.350101,10436.903782
4258.703829,2068.457845,-1776.494261,9326.594869
4258.704144,3217.601092,-888.247130,9474.636058
4258.704459,3447.429741,-370.102971,8660.409521
4258.704775,2834.553343,-0.000000,8364.327145
4258.705090,1991.848295,-0.000000,8290.306550
4258.705405,2451.505594,-1628.453072,8364.327145
4258.705721,2604.724693,-1776.494261,9696.697840
4258.706036,2834.553343,-2294.638420,9918.759623
4258.706352,1149.143247,-2368.659014,10584.944971
4258.706667,153.219100,-2664.741391,10881.027347
4258.706982,995.924147,-3849.070898,10584.944971
4258.707298,2451.505594,-2738.761985,11177.109724
4258.707613,2451.505594,-2072.576638,10658.965565
4258.707928,1838.629195,-1406.391290,9474.636058
4258.708244,1991.848295,-1184.329507,8808.450710
4258.708559,2911.162892,-1480.411884,8956.491898
4258.708874,3830.477490,222.061783,8734.430116
4258.709190,3753.867940,444.123565,8142.265362
4258.709505,3447.429741,-740.205942,9252.574275
4258.709820,3217.601092,-888.247130,9104.533087
4258.710136,3217.601092,-2590.720797,9844.739029
4258.710451,3140.991542,-3034.844362,10066.800811
4258.710767,3140.991542,-3108.864956,10881.027347
4258.711082,2451.505594,-2812.782580,10881.027347
4258.711397,1762.019645,-2738.761985,9548.656652
4258.711713,1762.019645,-2516.700203,9326.594869
4258.712028,1762.019645,-2368.659014,8882.471304
4258.712343,2068.457845,-1406.391290,8512.368333
4258.712659,2221.676944,-1184.329507,8142.265362
4258.712974,1685.410096,-1036.288319,7698.141797
4258.713289,1149.143247,-1998.556043,9104.533087
4258.713605,1149.143247,-2516.700203,9400.615463
4258.713920,1685.410096,-2072.576638,10362.883188
4258.714235,1915.238745,-3182.885551,10066.800811
4258.714551,1455.581446,-2812.782580,10584.944971
4258.714866,689.485948,-1776.494261,10214.842000
4258.715181,153.219100,-2072.576638,9622.677246
4258.715497,1149.143247,-1480.411884,9548.656652
4258.715812,1532.190996,-1702.473667,8882.471304
4258.716128,1608.800546,-2368.659014,9104.533087
4258.716443,1302.362347,-1776.494261,9844.739029
4258.716758,-689.485948,-1406.391290,7772.162391
4258.717074,0.000000,-3478.967927,10140.821405
4258.717389,1455.581446,-2294.638420,10140.821405
4258.717704,2068.457845,-2738.761985,9622.677246
4258.718020,3064.381992,-3849.070898,11177.109724
4258.718335,2681.334243,-2220.617826,9992.780217
4258.718650,1915.238745,-1702.473667,9474.636058
4258.718966,1915.238745,-1702.473667,9030.512492
4258.719281,2604.724693,-1406.391290,8956.491898
4258.719596,2757.943793,-1702.473667,8290.306550
4258.719912,3447.429741,-2146.597232,8586.388927
4258.720227,2068.457845,-1184.329507,9622.677246
4258.720543,612.876398,-1702.473667,9770.718434
4258.720858,612.876398,-2294.638420,10732.986159
4258.721173,1302.362347,-2664.741391,10140.821405
4258.721489,2681.334243,-3108.864956,10066.800811
4258.721804,3370.820191,-2590.720797,10362.883188
4258.722119,2604.724693,-2294.638420,10510.924376
4258.722435,1685.410096,-1406.391290,10510.924376
4258.722750,2145.067394,-1258.350101,10066.800811
4258.723065,3294.210641,-1036.288319,8882.471304
4258.723381,4596.572988,-296.082377,8068.244768
4258.723696,4519.963438,-962.267725,8364.327145
4258.724011,3983.696590,-1628.453072,9474.636058
4258.724327,2834.553343,-1998.556043,9844.739029
4258.724642,2068.457845,-2368.659014,9992.780217
4258.724958,2145.067394,-2516.700203,9844.739029
4258.725273,2681.334243,-2590.720797,9992.780217
4258.725588,3600.648841,-3182.885551,9622.677246
4258.725904,3140.991542,-3256.906145,9474.636058
4258.726219,2298.286494,-3404.947333,9992.780217
4258.726534,2451.505594,-2590.720797,9992.780217
4258.726850,2374.896044,-1628.453072,10140.821405
4258.727165,2681.334243,-1332.370696,8808.450710
4258.727480,3064.381992,-1258.350101,8290.306550
4258.727796,3370.820191,-1702.473667,8290.306550
4258.728111,3524.039291,-1628.453072,8364.327145
4258.728426,2451.505594,-1998.556043,9474.636058
4258.728742,1838.629195,-1480.411884,9844.739029
4258.729057,1378.971896,-1628.453072,10288.862594
4258.729372,1608.800546,-1480.411884,10658.965565
4258.729688,1608.800546,-2590.720797,10584.944971
4258.730003,1685.410096,-3108.864956,10288.862594
4258.730319,1302.362347,-3330.926739,9992.780217
4258.730634,1455.581446,-1924.535449,9474.636058
4258.730949,1225.752797,-1036.288319,9326.594869
4258.731265,1762.019645,-148.041188,9178.553681
4258.731580,2681.334243,-518.144159,9178.553681
4258.731895,2068.457845,-1258.350101,9178.553681
4258.732211,1608.800546,-1924.535449,9178.553681
4258.732526,1532.190996,-2368.659014,9622.677246
4258.732841,1762.019645,-2590.720797,9844.739029
4258.733157,1991.848295,-2294.638420,10214.842000
4258.733472,536.266849,-1628.453072,9918.759623
4258.733787,842.705048,-1110.308913,9844.739029
4258.734103,612.876398,-1406.391290,10362.883188
4258.734418,612.876398,-1480.411884,10584.944971
4258.734734,1302.362347,-2146.597232,10362.883188
4258.735049,842.705048,-2072.576638,9770.718434
4258.735364,1225.752797,-1924.535449,9474.636058
4258.735680,1838.629195,-2146.597232,9178.553681
4258.735995,2145.067394,-1480.411884,8956.491898
4258.736310,1915.238745,-888.247130,8882.471304
4258.736626,1532.190996,-888.247130,9178.553681
4258.736941,1608.800546,-888.247130,9252.574275
4258.737256,1302.362347,-1406.391290,9992.780217
4258.737572,919.314598,-2294.638420,10436.903782
4258.737887,766.095498,-3330.926739,10732.986159
4258.738202,1302.362347,-3478.967927,10881.027347
4258.738518,2298.286494,-3034.844362,9770.718434
4258.738833,3217.601092,-1924.535449,8882.471304
4258.739148,3524.039291,-666.185348,8142.265362
4258.739464,3600.648841,-74.020594,7698.141797
4258.739779,3140.991542,370.102971,7994.224174
4258.740095,2987.772442,-518.144159,8438.347739
4258.740410,2681.334243,-1332.370696,9770.718434
4258.740725,2528.115143,-2516.700203,10362.883188
4258.741041,1762.019645,-4145.153275,11103.089130
4258.741356,2298.286494,-4071.132681,11029.068536
4258.741671,2757.943793,-3701.029710,10881.027347
4258.741987,3140.991542,-2220.617826,9696.697840
4258.742302,3140.991542,-518.144159,8512.368333
4258.742617,2987.772442,518.144159,8512.368333
4258.742933,2987.772442,1036.288319,7476.080014
4258.743248,2451.505594,-0.000000,7179.997637
4258.743563,1685.410096,-518.144159,8808.450710
4258.743879,1455.581446,-2368.659014,10510.924376
4258.744194,1378.971896,-3849.070898,12065.356855
4258.744510,1762.019645,-4293.194464,12805.562797
4258.744825,2528.115143,-4515.256246,12953.603985
4258.745140,3753.867940,-3330.926739,12065.356855
4258.745456,4443.353888,-2072.576638,10436.903782
4258.745771,4749.792088,666.185348,8216.285956
4258.746086,4366.744339,1184.329507,7031.956449
4258.746402,4519.963438,1036.288319,5847.626942
4258.746717,3294.210641,222.061783,5699.585753
4258.747032,1685.410096,-962.267725,6735.874072
4258.747348,153.219100,-2664.741391,8808.450710
4258.747663,-842.705048,-4219.173869,10881.027347
4258.747978,-919.314598,-5625.565159,13175.665768
4258.748294,-766.095498,-5625.565159,14211.954086
4258.748609,153.219100,-6069.688724,14285.974681
4258.748924,1762.019645,-4959.379811,12953.603985
4258.749240,3753.867940,-2960.823768,11029.068536
4258.749555,4903.011187,-888.247130,8290.306550
4258.749871,5439.278036,1332.370696,6217.729913
4258.750186,5515.887586,2368.659014,4367.215058
4258.750501,4290.134789,1924.535449,4515.256246
4258.750817,3217.601092,518.144159,5181.441594
4258.751132,1378.971896,-962.267725,7031.956449
4258.751447,-229.828649,-2590.720797,9548.656652
4258.751763,-2374.896044,-4885.359217,11917.315666
4258.752078,-3294.210641,-6735.874072,13989.892304
4258.752393,-2528.115143,-7105.977043,13471.748144
4258.752709,-1455.581446,-6365.771101,13619.789333
4258.753024,0.000000,-4293.194464,12361.439231
4258.753339,1608.800546,-2220.617826,11399.171507
4258.753655,3217.601092,1332.370696,8660.409521
4258.753970,4366.744339,2368.659014,6735.874072
4258.754286,4903.011187,3404.947333,5921.647536
4258.754601,5745.716235,2516.700203,6365.771101
4258.754916,5362.668486,1998.556043,6957.935855
4258.755232,4366.744339,-296.082377,8512.368333
4258.755547,3064.381992,-2368.659014,9918.759623
4258.755862,2145.067394,-4145.153275,11103.089130
4258.756178,1072.533697,-5625.565159,11473.192101
4258.756493,383.047749,-5551.544565,11843.295072
4258.756808,229.828649,-5033.400406,11251.130318
4258.757124,229.828649,-4145.153275,9844.739029
4258.757439,766.095498,-2220.617826,8660.409521
4258.757754,1302.362347,-814.226536,8290.306550
4258.758070,1302.362347,222.061783,7698.141797
4258.758385,2451.505594,370.102971,7698.141797
4258.758700,2528.115143,666.185348,8956.491898
4258.759016,2987.772442,-0.000000,9844.739029
4258.759331,3294.210641,-444.123565,10362.883188
4258.759647,3753.867940,-1036.288319,11029.068536
4258.759962,3600.648841,-1406.391290,11843.295072
4258.760277,3294.210641,-1480.411884,11325.150913
4258.760593,3140.991542,-1998.556043,10214.842000
4258.760908,2451.505594,-1628.453072,9474.636058
4258.761223,1532.190996,-1776.494261,8882.471304
4258.761539,842.705048,-1850.514855,8512.368333
4258.761854,153.219100,-2220.617826,8290.306550
4258.762169,0.000000,-2442.679609,9030.512492
4258.762485,0.000000,-2516.700203,9474.636058
4258.762800,766.095498,-2442.679609,9918.759623
4258.763115,1455.581446,-2442.679609,10807.006753
4258.763431,2528.115143,-2220.617826,11399.171507
4258.763746,3370.820191,-1184.329507,10881.027347
4258.764062,4366.744339,-518.144159,10510.924376
4258.764377,4519.963438,592.164754,9844.739029
4258.764692,4596.572988,962.267725,8808.450710
4258.765008,4596.572988,962.267725,8142.265362
4258.765323,3830.477490,518.144159,8142.265362
4258.765638,2757.943793,444.123565,8364.327145
4258.765954,1608.800546,-962.267725,8882.471304
4258.766269,383.047749,-2220.617826,9548.656652
4258.766584,0.000000,-3552.988522,10288.862594
4258.766900,-229.828649,-4219.173869,11103.089130
4258.767215,-612.876398,-3775.050304,10732.986159
4258.767530,0.000000,-4367.215058,10807.006753
4258.767846,1378.971896,-2812.782580,9992.780217
4258.768161,1149.143247,-1850.514855,8808.450710
4258.768476,766.095498,-888.247130,8586.388927
4258.768792,1302.362347,-0.000000,8290.306550
4258.769107,1225.752797,370.102971,8438.347739
4258.769423,1378.971896,-370.102971,9030.512492
4258.769738,919.314598,-444.123565,9770.718434
4258.770053,0.000000,-370.102971,9548.656652
4258.770369,383.047749,-2072.576638,10658.965565
4258.770684,612.876398,-2072.576638,11103.089130
4258.770999,536.266849,-2960.823768,11473.192101
4258.771315,1378.971896,-3404.947333,11177.109724
4258.771630,1455.581446,-3404.947333,10881.027347
4258.771945,1838.629195,-2886.803174,9844.739029
4258.772261,2221.676944,-2294.638420,9178.553681
4258.772576,2528.115143,-1628.453072,7920.203579
4258.772891,2911.162892,-1406.391290,8068.244768
4258.773207,3064.381992,-1628.453072,7920.203579
4258.773522,3524.039291,-1628.453072,7994.224174
4258.773838,3600.648841,-1702.473667,8808.450710
4258.774153,3524.039291,-2590.720797,9326.594869
4258.774468,3830.477490,-2738.761985,9844.739029
4258.774784,4060.306139,-2886.803174,10807.006753
4258.775099,3753.867940,-2886.803174,10881.027347
4258.775414,3370.820191,-2590.720797,10436.903782
4258.775730,3524.039291,-1924.535449,10140.821405
4258.776045,3524.039291,-1776.494261,10066.800811
4258.776360,3983.696590,-1628.453072,9474.636058
4258.776676,4136.915689,-1628.453072,9178.553681
4258.776991,4136.915689,-1924.535449,8956.491898
4258.777306,4213.525239,-2220.617826,9104.533087
4258.777622,4136.915689,-2516.700203,9474.636058
4258.777937,3830.477490,-3627.009116,10140.821405
4258.778252,3677.258390,-3256.906145,9918.759623
4258.778568,3294.210641,-3108.864956,9770.718434
4258.778883,3600.648841,-2960.823768,9696.697840
4258.779199,3294.210641,-3034.844362,9474.636058
4258.779514,2604.724693,-2516.700203,9326.594869
4258.779829,2374.896044,-2368.659014,9326.594869
4258.780145,1991.848295,-2072.576638,8956.491898
4258.780460,1915.238745,-2590.720797,9104.533087
4258.780775,1991.848295,-2294.638420,9622.677246
4258.781091,1685.410096,-2590.720797,9770.718434
4258.781406,1532.190996,-2738.761985,9622.677246
4258.781721,1532.190996,-2516.700203,10362.883188
4258.782037,1455.581446,-3182.885551,10584.944971
4258.782352,1608.800546,-3034.844362,10584.944971
4258.782667,1838.629195,-2812.782580,9992.780217
4258.782983,1991.848295,-2960.823768,9622.677246
4258.783298,2145.067394,-2664.741391,9104.533087
4258.783614,2451.505594,-2738.761985,8734.430116
4258.783929,2221.676944,-2442.679609,7994.224174
4258.784244,2068.457845,-2368.659014,8068.244768
4258.784560,1685.410096,-2072.576638,7624.121203
4258.784875,1378.971896,-2146.597232,7698.141797
4258.785190,1225.752797,-2072.576638,8290.306550
4258.785506,229.828649,-2220.617826,8808.450710
4258.785821,-459.657299,-2516.700203,9030.512492
4258.786136,-995.924147,-2294.638420,9474.636058
4258.786452,-1302.362347,-2220.617826,10140.821405
4258.786767,-919.314598,-1702.473667,10510.924376
4258.787082,-995.924147,-1406.391290,10881.027347
4258.787398,-612.876398,-1184.329507,10658.965565
4258.787713,153.219100,-814.226536,11029.068536
4258.788028,1225.752797,-740.205942,11103.089130
4258.788344,1991.848295,-518.144159,10362.883188
4258.788659,3064.381992,-0.000000,10436.903782
4258.788975,3753.867940,-0.000000,9474.636058
4258.789290,4443.353888,-74.020594,9030.512492
4258.789605,4519.963438,-222.061783,8882.471304
4258.789921,3983.696590,-148.041188,8808.450710
4258.790236,2757.943793,-370.102971,8438.347739
4258.790551,2221.676944,-888.247130,8068.244768
4258.790867,1608.800546,-1480.411884,8586.388927
4258.791182,689.485948,-2072.576638,8808.450710
4258.791497,229.828649,-2886.803174,10362.883188
4258.791813,0.000000,-2812.782580,11843.295072
4258.792128,842.705048,-2812.782580,12361.439231
4258.792443,1685.410096,-2294.638420,12361.439231
4258.792759,3064.381992,-1924.535449,12065.356855
4258.793074,5132.839837,-1110.308913,11621.233289
4258.793390,6511.811733,444.123565,10214.842000
4258.793705,6588.421283,1628.453072,8512.368333
4258.794020,6588.421283,2368.659014,7031.956449
4258.794336,5822.325785,2516.700203,6365.771101
4258.794651,4596.572988,1480.411884,6439.791695
4258.794966,2298.286494,148.041188,7624.121203
4258.795282,766.095498,-1998.556043,9548.656652
4258.795597,-383.047749,-4515.256246,11843.295072
4258.795912,-995.924147,-6439.791695,14211.954086
4258.796228,-1072.533697,-7105.977043,15100.201217
4258.796543,383.047749,-6661.853478,14508.036463
4258.796858,2451.505594,-5551.544565,13101.645173
4258.797174,4903.011187,-2886.803174,10510.924376
4258.797489,6052.154434,666.185348,6809.894666
4258.797804,6665.030833,3182.885551,4885.359217
4258.798120,6588.421283,4589.276840,3256.906145
4258.798435,5515.887586,3849.070898,3404.947333
4258.798751,3983.696590,1998.556043,5625.565159
4258.799066,1685.410096,-666.185348,8882.471304
4258.799381,-612.876398,-4737.318029,11991.336260
4258.799697,-995.924147,-7402.059420,14063.912898
4258.800012,-1532.190996,-8956.491898,14285.974681
4258.800327,-1072.533697,-8808.450710,15396.283594
4258.800643,-459.657299,-6809.894666,12953.603985
4258.800958,1532.190996,-4589.276840,10510.924376
4258.801273,2987.772442,-592.164754,7550.100608
4258.801589,3907.087040,1628.453072,5255.462188
4258.801904,3753.867940,1998.556043,4441.235652
4258.802219,3370.820191,1702.473667,4589.276840
4258.802535,3064.381992,-444.123565,6735.874072
4258.802850,3140.991542,-2516.700203,8660.409521
4258.803166,2604.724693,-3627.009116,9696.697840
4258.803481,1302.362347,-5107.421000,11399.171507
4258.803796,766.095498,-6069.688724,11991.336260
4258.804112,995.924147,-5773.606348,12435.459826
4258.804427,306.438199,-5329.482782,11991.336260
4258.804742,-229.828649,-4219.173869,10584.944971
4258.805058,-919.314598,-2664.741391,9178.553681
4258.805373,153.219100,-1998.556043,7624.121203
4258.805688,842.705048,-1406.391290,6809.894666
4258.806004,612.876398,-1332.370696,6883.915261
4258.806319,1302.362347,-1258.350101,7698.141797
4258.806634,1532.190996,-1406.391290,9326.594869
4258.806950,2068.457845,-1628.453072,10732.986159
4258.807265,1762.019645,-1628.453072,11843.295072
4258.807580,1991.848295,-2738.761985,12435.459826
4258.807896,2528.115143,-3404.947333,12583.501014
4258.808211,2987.772442,-3701.029710,11843.295072
4258.808527,3753.867940,-3034.844362,10362.883188
4258.808842,3830.477490,-1258.350101,8142.265362
4258.809157,3600.648841,222.061783,7105.977043
4258.809473,2451.505594,1110.308913,7328.038826
4258.809788,1532.190996,962.267725,7031.956449
4258.810103,1455.581446,-592.164754,7920.203579
4258.810419,1225.752797,-1702.473667,9400.615463
4258.810734,995.924147,-3478.967927,10362.883188
4258.811049,1532.190996,-3923.091493,11621.233289
4258.811365,1991.848295,-3330.926739,12361.439231
4258.811680,2298.286494,-2812.782580,12287.418637
4258.811995,2834.553343,-1332.370696,11991.336260
4258.812311,4136.915689,370.102971,9992.780217
4258.812626,4826.401637,1702.473667,8586.388927
4258.812942,5975.544884,1924.535449,7254.018232
4258.813257,4903.011187,2294.638420,7031.956449
4258.813572,3064.381992,1184.329507,7179.997637
4258.813888,2221.676944,-0.000000,8438.347739
4258.814203,1685.410096,-1702.473667,9622.677246
4258.814518,1608.800546,-2738.761985,9992.780217
4258.814834,1685.410096,-4145.153275,11251.130318
4258.815149,2221.676944,-5329.482782,12139.377449
4258.815464,1685.410096,-4515.256246,12805.562797
4258.815780,1225.752797,-3034.844362,11547.212695
4258.816095,1532.190996,-1628.453072,10658.965565
4258.816410,2681.334243,-0.000000,8586.388927
4258.816726,4213.525239,592.164754,7031.956449
4258.817041,4903.011187,1332.370696,6217.729913
4258.817356,4673.182538,1406.391290,6513.812290
4258.817672,2757.943793,-0.000000,8216.285956
4258.817987,1225.752797,222.061783,9400.615463
4258.818303,766.095498,-1184.329507,9918.759623
4258.818618,995.924147,-3034.844362,11325.150913
4258.818933,1532.190996,-4219.173869,11695.253884
4258.819249,689.485948,-4737.318029,12435.459826
4258.819564,-383.047749,-4589.276840,12657.521608
4258.819879,-766.095498,-3701.029710,11177.109724
4258.820195,0.000000,-1480.411884,10066.800811
4258.820510,2374.896044,-888.247130,8216.285956
4258.820825,3983.696590,-518.144159,7328.038826
4258.821141,3907.087040,-0.000000,6513.812290
4258.821456,2834.553343,-666.185348,7105.977043
4258.821771,1532.190996,-592.164754,7624.121203
4258.822087,1532.190996,-962.267725,8660.409521
4258.822402,2987.772442,-3034.844362,10214.842000
4258.822718,3677.258390,-3849.070898,10436.903782
4258.823033,1838.629195,-4515.256246,10658.965565
4258.823348,229.828649,-4885.359217,11769.274478
4258.823664,-383.047749,-3404.947333,11325.150913
4258.823979,536.266849,-2516.700203,10066.800811
4258.824294,2298.286494,-1924.535449,9622.677246
4258.824610,2451.505594,-444.123565,7624.121203
4258.824925,2221.676944,-1110.308913,7105.977043
4258.825240,1762.019645,-962.267725,7698.141797
4258.825556,1225.752797,-1406.391290,8660.409521
4258.825871,2451.505594,-2294.638420,9918.759623
4258.826186,2911.162892,-2442.679609,10066.800811
4258.826502,2145.067394,-3627.009116,11029.068536
4258.826817,1455.581446,-4145.153275,11769.274478
4258.827132,1149.143247,-4293.194464,11399.171507
4258.827448,2145.067394,-3701.029710,11473.192101
4258.827763,2757.943793,-2220.617826,10584.944971
4258.828079,2911.162892,-1406.391290,8364.327145
4258.828394,2604.724693,-518.144159,7772.162391
4258.828709,3600.648841,-592.164754,7105.977043
4258.829025,3370.820191,-1332.370696,7550.100608
4258.829340,2451.505594,-962.267725,8808.450710
4258.829655,1378.971896,-1702.473667,8956.491898
4258.829971,0.000000,-2220.617826,10214.842000
4258.830286,689.485948,-2738.761985,10732.986159
4258.830601,1378.971896,-4441.235652,11695.253884
4258.830917,842.705048,-2886.803174,11103.089130
4258.831232,-536.266849,-3478.967927,9918.759623
4258.831547,612.876398,-3256.906145,10955.047942
4258.831863,1838.629195,222.061783,8660.409521
4258.832178,1991.848295,1184.329507,7698.141797
4258.832494,1762.019645,1998.556043,7402.059420
4258.832809,1378.971896,888.247130,7328.038826
4258.833124,153.219100,-0.000000,7920.203579
4258.833440,766.095498,-444.123565,7846.182985
4258.833755,536.266849,-296.082377,9992.780217
4258.834070,-1532.190996,-1184.329507,11029.068536
4258.834386,-2068.457845,-2664.741391,11917.315666
4258.834701,-1991.848295,-1554.432478,11325.150913
4258.835016,-459.657299,-1406.391290,10881.027347
4258.835332,383.047749,-296.082377,10214.842000
4258.835647,306.438199,1480.411884,8882.471304
4258.835962,0.000000,1480.411884,7550.100608
4258.836278,153.219100,1776.494261,7328.038826
4258.836593,1838.629195,2442.679609,7772.162391
4258.836908,612.876398,2886.803174,8734.430116
4258.837224,-689.485948,1702.473667,9104.533087
4258.837539,-1378.971896,148.041188,10807.006753
4258.837855,-612.876398,-1036.288319,11103.089130
4258.838170,229.828649,-1332.370696,11695.253884
4258.838485,-612.876398,814.226536,12065.356855
4258.838801,-612.876398,-518.144159,12065.356855
4258.839116,306.438199,-148.041188,11621.233289
4258.839431,2298.286494,1258.350101,9770.718434
4258.839747,2911.162892,2442.679609,8734.430116
4258.840062,1378.971896,4145.153275,7402.059420
4258.840377,766.095498,3256.906145,6661.853478
4258.840693,766.095498,1628.453072,8882.471304
4258.841008,1302.362347,2368.659014,8586.388927
4258.841323,-229.828649,1406.391290,10436.903782
4258.841639,-2298.286494,-148.041188,11769.274478
4258.841954,-2374.896044,-1850.514855,13175.665768
4258.842270,-1072.533697,-1184.329507,12731.542202
4258.842585,612.876398,-666.185348,12213.398043
4258.842900,612.876398,1480.411884,11695.253884
4258.843216,0.000000,2368.659014,9918.759623
4258.843531,995.924147,2738.761985,9252.574275
4258.843846,2757.943793,3627.009116,7328.038826
4258.844162,2834.553343,4071.132681,7179.997637
4258.844477,1072.533697,3923.091493,7402.059420
4258.844792,306.438199,1406.391290,7772.162391
4258.845108,-536.266849,370.102971,10066.800811
4258.845423,0.000000,-1554.432478,10807.006753
4258.845738,-1532.190996,-1702.473667,11917.315666
4258.846054,-2757.943793,-1924.535449,11917.315666
4258.846369,-2834.553343,-3108.864956,11991.336260
4258.846684,-1455.581446,-2368.659014,11473.192101
4258.847000,383.047749,-592.164754,10066.800811
4258.847315,-229.828649,1998.556043,8216.285956
4258.847631,-842.705048,2590.720797,7105.977043
4258.847946,229.828649,2664.741391,8216.285956
4258.848261,2068.457845,2516.700203,7550.100608
4258.848577,2068.457845,2664.741391,7550.100608
4258.848892,0.000000,2368.659014,7920.203579
4258.849207,-1532.190996,-222.061783,9622.677246
4258.849523,-842.705048,-1702.473667,11103.089130
4258.849838,229.828649,-2886.803174,11177.109724
4258.850153,-306.438199,-2442.679609,10955.047942
4258.850469,-2757.943793,-1998.556043,10881.027347
4258.850784,-2451.505594,-2516.700203,10732.986159
4258.851099,-229.828649,-1776.494261,9400.615463
4258.851415,842.705048,-148.041188,7994.224174
4258.851730,153.219100,1258.350101,7254.018232
4258.852046,-612.876398,1110.308913,6735.874072
4258.852361,0.000000,-0.000000,8512.368333
4258.852676,2145.067394,-666.185348,8290.306550
4258.852992,1838.629195,-0.000000,9400.615463
4258.853307,536.266849,-1110.308913,10362.883188
4258.853622,-842.705048,-1924.535449,11695.253884
4258.853938,919.314598,-2294.638420,11473.192101
4258.854253,1608.800546,-1776.494261,10881.027347
4258.854568,536.266849,-518.144159,10362.883188
4258.854884,-306.438199,-740.205942,10288.862594
4258.855199,0.000000,222.061783,9400.615463
4258.855514,1532.190996,-0.000000,8586.388927
4258.855830,1532.190996,888.247130,7624.121203
4258.856145,0.000000,814.226536,7846.182985
4258.856460,-383.047749,-666.185348,8290.306550
4258.856776,0.000000,-1702.473667,10881.027347
4258.857091,1608.800546,-2368.659014,10807.006753
4258.857407,1455.581446,-888.247130,10510.924376
4258.857722,76.609550,-222.061783,10955.047942
4258.858037,306.438199,-518.144159,10955.047942
4258.858353,1991.848295,-814.226536,9548.656652
4258.858668,3140.991542,370.102971,8734.430116
4258.858983,1532.190996,2072.576638,7994.224174
4258.859299,383.047749,1628.453072,7624.121203
4258.859614,-306.438199,814.226536,8364.327145
4258.859929,1225.752797,-666.185348,9030.512492
4258.860245,842.705048,-74.020594,9252.574275
4258.860560,-229.828649,-222.061783,9474.636058
4258.860875,-1225.752797,-1702.473667,10362.883188
4258.861191,-766.095498,-2368.659014,11695.253884
4258.861506,612.876398,-1480.411884,11251.130318
4258.861822,153.219100,666.185348,9844.739029
4258.862137,0.000000,740.205942,9548.656652
4258.862452,-153.219100,-0.000000,9622.677246
4258.862768,842.705048,962.267725,9030.512492
4258.863083,995.924147,1776.494261,7476.080014
4258.863398,-229.828649,2960.823768,7698.141797
4258.863714,-1455.581446,1998.556043,8808.450710
4258.864029,-1378.971896,444.123565,10584.944971
4258.864344,-306.438199,-296.082377,10658.965565
4258.864660,-1149.143247,296.082377,11103.089130
4258.864975,-3064.381992,-296.082377,11029.068536
4258.865290,-2987.772442,-962.267725,11991.336260
4258.865606,0.000000,-518.144159,11473.192101
4258.865921,1225.752797,814.226536,9696.697840
4258.866236,995.924147,3404.947333,8142.265362
4258.866552,612.876398,3256.906145,7550.100608
4258.866867,459.657299,2960.823768,7698.141797
4258.867183,1225.752797,2442.679609,8216.285956
4258.867498,995.924147,2590.720797,8216.285956
4258.867813,-766.095498,2220.617826,8882.471304
4258.868129,-1915.238745,-0.000000,10288.862594
4258.868444,-1685.410096,-1702.473667,11917.315666
4258.868759,-612.876398,-1924.535449,12139.377449
4258.869075,-995.924147,-222.061783,11843.295072
4258.869390,-1915.238745,-0.000000,11251.130318
4258.869705,-1072.533697,296.082377,11473.192101
4258.870021,1302.362347,444.123565,10881.027347
4258.870336,2068.457845,2368.659014,8068.244768
4258.870651,1149.143247,3552.988522,7550.100608
4258.870967,612.876398,2368.659014,7846.182985
4258.871282,1378.971896,1406.391290,8882.471304
4258.871598,2374.896044,1110.308913,8734.430116
4258.871913,1838.629195,888.247130,9770.718434
4258.872228,0.000000,444.123565,10584.944971
4258.872544,-919.314598,-962.267725,11621.233289
4258.872859,-229.828649,-2072.576638,11769.274478
4258.873174,459.657299,-1554.432478,11399.171507
4258.873490,0.000000,-74.020594,10436.903782
4258.873805,-536.266849,-444.123565,9622.677246
4258.874120,-459.657299,-74.020594,9622.677246
4258.874436,1072.533697,-148.041188,8660.409521
4258.874751,1378.971896,-0.000000,8512.368333
4258.875066,1455.581446,1480.411884,8364.327145
4258.875382,995.924147,518.144159,7179.997637
4258.875697,1608.800546,-370.102971,9030.512492
4258.876012,2451.505594,-1184.329507,9400.615463
4258.876328,1302.362347,-740.205942,9918.759623
4258.876643,-306.438199,-296.082377,9622.677246
4258.876959,-919.314598,-1702.473667,10140.821405
4258.877274,0.000000,-2072.576638,9918.759623
4258.877589,1149.143247,-1702.473667,9400.615463
4258.877905,0.000000,-0.000000,9252.574275
4258.878220,-1072.533697,-0.000000,7994.224174
4258.878535,-1072.533697,-74.020594,8882.471304
4258.878851,229.828649,-888.247130,8882.471304
4258.879166,-153.219100,-0.000000,8660.409521
4258.879481,-459.657299,592.164754,9104.533087
4258.879797,-1608.800546,-888.247130,9696.697840
4258.880112,-459.657299,-1406.391290,10807.006753
4258.880428,1072.533697,-1554.432478,10066.800811
4258.880744,306.438199,-814.226536,9770.718434
4258.881059,-536.266849,-0.000000,10140.821405
4258.881375,-842.705048,-444.123565,9548.656652
4258.881690,0.000000,-740.205942,9400.615463
4258.882006,1302.362347,-0.000000,8512.368333
4258.882321,153.219100,518.144159,8734.430116
4258.882637,-919.314598,296.082377,7698.141797
4258.882952,-995.924147,-1184.329507,9326.594869
4258.883268,383.047749,-1406.391290,9474.636058
4258.883584,0.000000,-1406.391290,10362.883188
4258.883899,-995.924147,-370.102971,10066.800811
4258.884215,-1608.800546,-1184.329507,10732.986159
4258.884530,-383.047749,-1036.288319,11251.130318
4258.884846,995.924147,222.061783,10288.862594
4258.885161,0.000000,1554.432478,9252.574275
4258.885477,-383.047749,814.226536,9474.636058
4258.885792,0.000000,1036.288319,9548.656652
4258.886108,1149.143247,518.144159,9400.615463
4258.886423,1455.581446,1258.350101,9178.553681
4258.886739,0.000000,1702.473667,9622.677246
4258.887055,-1608.800546,592.164754,9548.656652
4258.887370,-1378.971896,-0.000000,10807.006753
4258.887686,842.705048,-0.000000,10881.027347
4258.888001,459.657299,666.185348,9474.636058
4258.888317,-76.609550,666.185348,9770.718434
4258.888632,-995.924147,-296.082377,11251.130318
4258.888948,229.828649,-370.102971,10584.944971
4258.889263,1762.019645,814.226536,9622.677246
4258.889579,1532.190996,2960.823768,9104.533087
4258.889894,1149.143247,2886.803174,8142.265362
4258.890210,766.095498,1628.453072,9030.512492
4258.890526,2374.896044,1554.432478,9252.574275
4258.890841,1915.238745,1850.514855,9030.512492
4258.891157,76.609550,2220.617826,8956.491898
4258.891472,-842.705048,444.123565,9474.636058
4258.891788,-459.657299,-74.020594,11029.068536
4258.892103,306.438199,-370.102971,11103.089130
4258.892419,-459.657299,962.267725,10436.903782
4258.892734,-1455.581446,666.185348,10288.862594
4258.893050,-766.095498,370.102971,10436.903782
4258.893366,919.314598,444.123565,9844.739029
4258.893681,1608.800546,1332.370696,9030.512492
4258.893997,536.266849,2664.741391,8586.388927
4258.894312,-536.266849,2072.576638,8956.491898
4258.894628,306.438199,814.226536,8956.491898
4258.894943,1762.019645,-148.041188,9252.574275
4258.895259,1378.971896,740.205942,9252.574275
4258.895574,-536.266849,-0.000000,9326.594869
4258.895890,-1685.410096,-740.205942,9622.677246
4258.896205,-1072.533697,-1998.556043,10732.986159
4258.896521,-306.438199,-1924.535449,10362.883188
4258.896837,-459.657299,-74.020594,10066.800811
4258.897152,-153.219100,-222.061783,9252.574275
4258.897468,-842.705048,-740.205942,9696.697840
4258.897783,1225.752797,-888.247130,9918.759623
4258.898099,1838.629195,740.205942,8734.430116
4258.898414,459.657299,2368.659014,8364.327145
4258.898730,-383.047749,1036.288319,9104.533087
4258.899045,689.485948,666.185348,9178.553681
4258.899361,1608.800546,-0.000000,8734.430116
4258.899676,153.219100,-592.164754,10140.821405
4258.899992,-1302.362347,-444.123565,9844.739029
4258.900308,-2298.286494,-1554.432478,9474.636058
4258.900623,-1685.410096,-2812.782580,10584.944971
4258.900939,-306.438199,-2146.597232,10288.862594
4258.901254,-1532.190996,-296.082377,10066.800811
4258.901570,-1762.019645,-370.102971,9918.759623
4258.901885,-766.095498,444.123565,9918.759623
4258.902201,689.485948,-0.000000,8512.368333
4258.902516,1455.581446,1258.350101,8290.306550
4258.902832,383.047749,1406.391290,8438.347739
4258.903147,0.000000,296.082377,8734.430116
4258.903463,842.705048,-518.144159,10066.800811
4258.903779,1532.190996,-666.185348,9474.636058
4258.904094,0.000000,-296.082377,9622.677246
4258.904410,-1302.362347,-592.164754,9844.739029
4258.904725,-1762.019645,-1628.453072,11177.109724
4258.905041,-229.828649,-2368.659014,10288.862594
4258.905356,306.438199,-1406.391290,10066.800811
4258.905672,-612.876398,-148.041188,9104.533087
4258.905987,-766.095498,-296.082377,9252.574275
4258.906303,0.000000,-148.041188,9474.636058
4258.906619,1225.752797,-518.144159,9252.574275
4258.906934,1072.533697,1258.350101,9622.677246
4258.907250,76.609550,1628.453072,9474.636058
4258.907565,0.000000,1036.288319,9474.636058
4258.907881,536.266849,-148.041188,10140.821405
4258.908196,1762.019645,-444.123565,9992.780217
4258.908512,766.095498,-222.061783,10658.965565
4258.908827,-1149.143247,148.041188,9622.677246
4258.909143,-919.314598,-296.082377,10658.965565
4258.909458,689.485948,-296.082377,9770.718434
4258.909774,1302.362347,296.082377,8882.471304
4258.910090,0.000000,740.205942,8660.409521
4258.910405,-383.047749,666.185348,8586.388927
4258.910721,-229.828649,296.082377,9178.553681
4258.911036,1991.848295,-0.000000,8290.306550
4258.911352,1072.533697,666.185348,9844.739029
4258.911667,153.219100,1332.370696,9326.594869
4258.911983,0.000000,-0.000000,10214.842000
4258.912298,1149.143247,-740.205942,10510.924376
4258.912614,1838.629195,-0.000000,9992.780217
4258.912929,842.705048,1850.514855,9326.594869
4258.913245,-383.047749,1480.411884,9178.553681
4258.913561,-536.266849,1036.288319,9844.739029
4258.913876,1378.971896,962.267725,9474.636058
4258.914192,766.095498,1702.473667,9326.594869
4258.914507,-1608.800546,1850.514855,9474.636058
4258.914823,-1225.752797,740.205942,9474.636058
4258.915138,-459.657299,-0.000000,10362.883188
4258.915454,1072.533697,-0.000000,10140.821405
4258.915769,383.047749,666.185348,10214.842000
4258.916085,-766.095498,-0.000000,10066.800811
4258.916401,-842.705048,-74.020594,10658.965565
4258.916716,612.876398,-0.000000,9918.759623
4258.917032,1532.190996,666.185348,8882.471304
4258.917347,766.095498,1924.535449,8512.368333
4258.917663,-229.828649,1554.432478,7994.224174
4258.917978,-459.657299,666.185348,9474.636058
4258.918294,1225.752797,-0.000000,9104.533087
4258.918609,536.266849,962.267725,8882.471304
4258.918925,-1302.362347,962.267725,9474.636058
4258.919240,-1915.238745,-296.082377,10510.924376
4258.919556,-1532.190996,-1480.411884,10955.047942
4258.919872,0.000000,-1258.350101,10807.006753
4258.920187,-689.485948,-0.000000,10436.903782
4258.920503,-1762.019645,444.123565,10288.862594
4258.920818,-689.485948,296.082377,10140.821405
4258.921134,1072.533697,148.041188,9252.574275
4258.921449,1149.143247,1628.453072,8734.430116
4258.921765,0.000000,2368.659014,8438.347739
4258.922080,-383.047749,1480.411884,8512.368333
4258.922396,0.000000,296.082377,9252.574275
4258.922711,1149.143247,-518.144159,9252.574275
4258.923027,0.000000,-0.000000,9696.697840
4258.923343,-1225.752797,-740.205942,10732.986159
4258.923658,-2374.896044,-1332.370696,10881.027347
4258.923974,-919.314598,-1702.473667,10807.006753
4258.924289,383.047749,-1258.350101,10658.965565
4258.924605,0.000000,222.061783,9474.636058
4258.924920,0.000000,-0.000000,8956.491898
4258.925236,689.485948,-148.041188,8734.430116
4258.925551,1608.800546,-0.000000,8956.491898
4258.925867,2221.676944,1258.350101,8882.471304
4258.926182,689.485948,1184.329507,8438.347739
4258.926498,-229.828649,-74.020594,8364.327145
4258.926814,919.314598,-1628.453072,9770.718434
4258.927129,1685.410096,-2072.576638,9918.759623
4258.927445,383.047749,-1110.308913,9400.615463
4258.927760,-919.314598,-1406.391290,9992.780217
4258.928076,-995.924147,-1332.370696,10510.924376
4258.928391,536.266849,-1776.494261,9548.656652
4258.928707,1378.971896,-814.226536,9030.512492
4258.929022,0.000000,-0.000000,8290.306550
4258.929338,-383.047749,-444.123565,8216.285956
4258.929654,383.047749,-666.185348,9326.594869
4258.929969,1608.800546,-1036.288319,8956.491898
4258.930285,1149.143247,370.102971,9400.615463
4258.930600,-229.828649,518.144159,8956.491898
4258.930916,-612.876398,-518.144159,9696.697840
4258.931231,612.876398,-1332.370696,10510.924376
4258.931547,1072.533697,-1036.288319,9696.697840
4258.931862,459.657299,-0.000000,9400.615463
4258.932178,0.000000,-0.000000,9252.574275
4258.932493,0.000000,-0.000000,9252.574275
4258.932809,1838.629195,-1036.288319,9104.533087
4258.933125,1455.581446,444.123565,8660.409521
4258.933440,-229.828649,1258.350101,8512.368333
4258.933756,-1149.143247,592.164754,8586.388927
4258.934071,-229.828649,-0.000000,9548.656652
4258.934387,766.095498,-296.082377,9400.615463
4258.934702,0.000000,592.164754,9548.656652
4258.935018,-1378.971896,370.102971,9696.697840
4258.935333,-1685.410096,-148.041188,10732.986159
4258.935649,306.438199,-148.041188,10658.965565
4258.935964,995.924147,740.205942,9622.677246
4258.936280,306.438199,1998.556043,9770.718434
4258.936596,-612.876398,1258.350101,9770.718434
4258.936911,-229.828649,1258.350101,9326.594869
4258.937227,919.314598,444.123565,9400.615463
4258.937542,842.705048,1702.473667,9992.780217
4258.937858,-383.047749,1776.494261,8734.430116
4258.938173,-1302.362347,814.226536,10362.883188
4258.938489,-1302.362347,148.041188,10807.006753
4258.938804,0.000000,-444.123565,10066.800811
4258.939120,-536.266849,296.082377,10732.986159
4258.939435,-1532.190996,666.185348,10214.842000
4258.939751,-1455.581446,296.082377,11547.212695
4258.940067,612.876398,296.082377,10066.800811
4258.940382,1225.752797,1110.308913,9696.697840
4258.940698,689.485948,2072.576638,9992.780217
4258.941013,-153.219100,1628.453072,9400.615463
4258.941329,306.438199,1184.329507,9474.636058
4258.941644,2068.457845,-74.020594,9474.636058
4258.941960,1072.533697,1776.494261,8882.471304
4258.942275,-919.314598,1184.329507,8586.388927
4258.942591,229.828649,-962.267725,11843.295072
4258.942907,-612.876398,296.082377,10288.862594
4258.943222,-919.314598,-1554.432478,9696.697840
4258.943538,-459.657299,-518.144159,11103.089130
4258.943853,-1149.143247,666.185348,10362.883188
4258.944169,-689.485948,-0.000000,10140.821405
4258.944484,2068.457845,-222.061783,9178.553681
4258.944800,2451.505594,1628.453072,8808.450710
4258.945115,1378.971896,2146.597232,8364.327145
4258.945431,995.924147,1036.288319,8660.409521
4258.945746,842.705048,1776.494261,8882.471304
4258.946062,2451.505594,1332.370696,8068.244768
4258.946378,1378.971896,888.247130,9474.636058
4258.946693,306.438199,-0.000000,8438.347739
4258.947009,-612.876398,-1258.350101,11103.089130
4258.947324,76.609550,-1110.308913,9622.677246
4258.947640,153.219100,-1702.473667,10362.883188
4258.947955,-153.219100,-0.000000,9770.718434
4258.948271,-1225.752797,-444.123565,9400.615463
4258.948586,-383.047749,-0.000000,9252.574275
4258.948902,1685.410096,-592.164754,9400.615463
4258.949217,1455.581446,444.123565,8290.306550
4258.949533,383.047749,1110.308913,8068.244768
4258.949849,-153.219100,666.185348,8290.306550
4258.950164,229.828649,-0.000000,9696.697840
4258.950480,689.485948,222.061783,9622.677246
4258.950795,0.000000,444.123565,9474.636058
4258.951111,-1762.019645,-222.061783,9992.780217
4258.951426,-1762.019645,-888.247130,10807.006753
4258.951742,-919.314598,-1406.391290,10288.862594
4258.952057,0.000000,-1110.308913,10436.903782
4258.952373,-1225.752797,-222.061783,10288.862594
4258.952689,-1838.629195,-518.144159,9696.697840
4258.953004,-1149.143247,-1036.288319,9918.759623
4258.953320,306.438199,-814.226536,9474.636058
4258.953635,0.000000,296.082377,9326.594869
4258.953951,-229.828649,666.185348,9400.615463
4258.954266,-995.924147,-0.000000,9178.553681
4258.954582,383.047749,-370.102971,9326.594869
4258.954897,1532.190996,-888.247130,9696.697840
4258.955213,153.219100,666.185348,9622.677246
4258.955528,-766.095498,-370.102971,9548.656652
4258.955844,-383.047749,-1110.308913,9992.780217
