#time,accel_x,accel_y,accel_z
4019.385000,-2681.334243,-0.000000,10584.944971
4019.385315,-2911.162892,-814.226536,10732.986159
4019.385630,-2911.162892,-1036.288319,10288.862594
4019.385946,-2451.505594,-592.164754,9770.718434
4019.386261,-1608.800546,-222.061783,9400.615463
4019.386576,-766.095498,370.102971,8882.471304
4019.386892,0.000000,962.267725,8216.285956
4019.387207,459.657299,1036.288319,7846.182985
4019.387523,842.705048,1554.432478,7994.224174
4019.387838,1149.143247,1480.411884,8142.265362
4019.388153,1302.362347,1110.308913,8808.450710
4019.388469,919.314598,666.185348,9326.594869
4019.388784,383.047749,222.061783,9844.739029
4019.389099,76.609550,-666.185348,10732.986159
4019.389415,-383.047749,-1258.350101,10436.903782
4019.389730,0.000000,-1406.391290,10436.903782
4019.390045,153.219100,-1554.432478,9770.718434
4019.390361,229.828649,-1406.391290,9326.594869
4019.390676,383.047749,-888.247130,9326.594869
4019.390992,536.266849,-888.247130,9252.574275
4019.391307,383.047749,-888.247130,8734.430116
4019.391622,536.266849,-1036.288319,8586.388927
4019.391938,919.314598,-518.144159,8512.368333
4019.392253,1072.533697,-444.123565,8808.450710
4019.392568,995.924147,-962.267725,9030.512492
4019.392884,842.705048,-1110.308913,9548.656652
4019.393199,153.219100,-1110.308913,9696.697840
4019.393515,0.000000,-1036.288319,9622.677246
4019.393830,229.828649,-666.185348,9474.636058
4019.394145,229.828649,-740.205942,9844.739029
4019.394461,0.000000,-370.102971,9548.656652
4019.394776,-459.657299,-222.061783,9030.512492
4019.395091,-995.924147,-740.205942,9400.615463
4019.395407,-1072.533697,-0.000000,9474.636058
4019.395722,-995.924147,-148.041188,9770.718434
4019.396037,-1072.533697,-0.000000,9548.656652
4019.396353,-1072.533697,-222.061783,9622.677246
4019.396668,-1225.752797,-370.102971,9400.615463
4019.396984,-919.314598,-296.082377,9326.594869
4019.397299,-689.485948,-0.000000,9474.636058
4019.397614,-612.876398,592.164754,9326.594869
4019.397930,-306.438199,666.185348,8808.450710
4019.398245,-153.219100,1036.288319,8734.430116
4019.398560,153.219100,814.226536,9104.533087
4019.398876,-383.047749,814.226536,8882.471304
4019.399191,0.000000,1184.329507,9104.533087
4019.399506,-383.047749,740.205942,9474.636058
4019.399822,0.000000,962.267725,9474.636058
4019.400137,76.609550,814.226536,9622.677246
4019.400453,459.657299,740.205942,9918.759623
4019.400768,766.095498,1110.308913,9252.574275
4019.401083,689.485948,1110.308913,9400.615463
4019.401399,1149.143247,1184.329507,9548.656652
4019.401714,1072.533697,1406.391290,9548.656652
4019.402029,919.314598,1332.370696,9918.759623
4019.402345,766.095498,1332.370696,9696.697840
4019.402660,689.485948,1480.411884,9548.656652
4019.402976,689.485948,1110.308913,10436.903782
4019.403291,383.047749,666.185348,10140.821405
4019.403606,536.266849,740.205942,10288.862594
4019.403922,459.657299,740.205942,10436.903782
4019.404237,459.657299,592.164754,10436.903782
4019.404552,229.828649,518.144159,10362.883188
4019.404868,76.609550,444.123565,10732.986159
4019.405183,306.438199,592.164754,10881.027347
4019.405498,459.657299,740.205942,10140.821405
4019.405814,0.000000,370.102971,9918.759623
4019.406129,76.609550,518.144159,10436.903782
4019.406445,0.000000,444.123565,9992.780217
4019.406760,0.000000,222.061783,9844.739029
4019.407075,76.609550,222.061783,9992.780217
4019.407391,0.000000,-74.020594,9992.780217
4019.407706,76.609550,-0.000000,9844.739029
4019.408021,536.266849,-296.082377,9992.780217
4019.408337,229.828649,-0.000000,9548.656652
4019.408652,383.047749,-518.144159,9696.697840
4019.408967,383.047749,-148.041188,9326.594869
4019.409283,383.047749,-74.020594,9030.512492
4019.409598,383.047749,-0.000000,9178.553681
4019.409914,306.438199,-74.020594,8956.491898
4019.410229,153.219100,-0.000000,9030.512492
4019.410544,229.828649,-74.020594,9104.533087
4019.410860,153.219100,-740.205942,8734.430116
4019.411175,0.000000,-1184.329507,9252.574275
4019.411490,0.000000,-592.164754,9474.636058
4019.411806,-306.438199,-814.226536,9104.533087
4019.412121,0.000000,-888.247130,9400.615463
4019.412436,0.000000,-962.267725,9548.656652
4019.412752,76.609550,-740.205942,9104.533087
4019.413067,0.000000,-518.144159,8512.368333
4019.413383,-153.219100,-666.185348,8586.388927
4019.413698,153.219100,-74.020594,9326.594869
4019.414013,0.000000,-592.164754,9178.553681
4019.414329,0.000000,-370.102971,9252.574275
4019.414644,0.000000,-518.144159,9252.574275
4019.414959,153.219100,-592.164754,9474.636058
4019.415275,153.219100,-666.185348,9400.615463
4019.415590,0.000000,-592.164754,9622.677246
4019.415906,76.609550,-444.123565,9622.677246
4019.416221,229.828649,-370.102971,9474.636058
4019.416536,76.609550,-592.164754,9622.677246
4019.416852,229.828649,-370.102971,9474.636058
4019.417167,0.000000,-370.102971,9474.636058
4019.417482,383.047749,-370.102971,9770.718434
4019.417798,0.000000,-296.082377,9622.677246
4019.418113,995.924147,-518.144159,9474.636058
4019.418428,383.047749,-148.041188,9696.697840
4019.418744,153.219100,-148.041188,9770.718434
4019.419059,153.219100,-0.000000,10066.800811
4019.419375,76.609550,-0.000000,9770.718434
4019.419690,76.609550,-0.000000,10214.842000
4019.420005,0.000000,148.041188,9992.780217
4019.420321,76.609550,592.164754,9770.718434
4019.420636,0.000000,740.205942,9770.718434
4019.420951,76.609550,592.164754,9918.759623
4019.421267,0.000000,666.185348,10288.862594
4019.421582,0.000000,814.226536,9622.677246
4019.421897,-229.828649,592.164754,9918.759623
4019.422213,-153.219100,888.247130,10066.800811
4019.422528,0.000000,444.123565,9696.697840
4019.422844,0.000000,740.205942,9770.718434
4019.423159,0.000000,814.226536,10066.800811
4019.423474,76.609550,1036.288319,9918.759623
4019.423790,0.000000,1258.350101,9474.636058
4019.424105,229.828649,1036.288319,9178.553681
4019.424420,306.438199,1184.329507,9844.739029
4019.424736,229.828649,1332.370696,9474.636058
4019.425051,0.000000,888.247130,9696.697840
4019.425367,76.609550,962.267725,9622.677246
4019.425682,229.828649,888.247130,9622.677246
4019.425997,229.828649,888.247130,9474.636058
4019.426312,76.609550,814.226536,9918.759623
4019.426627,0.000000,740.205942,9770.718434
4019.426942,0.000000,814.226536,9548.656652
4019.427257,0.000000,740.205942,9548.656652
4019.427573,76.609550,518.144159,9622.677246
4019.427888,0.000000,518.144159,9918.759623
4019.428203,0.000000,-0.000000,9770.718434
4019.428518,0.000000,-0.000000,9696.697840
4019.428833,459.657299,148.041188,9400.615463
4019.429148,0.000000,-0.000000,9474.636058
4019.429464,0.000000,222.061783,9770.718434
4019.429779,0.000000,-0.000000,9770.718434
4019.430094,306.438199,-0.000000,9474.636058
4019.430409,229.828649,-222.061783,9474.636058
4019.430724,153.219100,-296.082377,9696.697840
4019.431039,0.000000,-296.082377,9770.718434
4019.431355,229.828649,-222.061783,9178.553681
4019.431670,383.047749,-74.020594,9548.656652
4019.431985,229.828649,-296.082377,9622.677246
4019.432300,76.609550,-222.061783,9252.574275
4019.432615,229.828649,-370.102971,9030.512492
4019.432930,0.000000,-296.082377,9474.636058
4019.433246,-383.047749,-296.082377,9252.574275
4019.433561,153.219100,-592.164754,9326.594869
4019.433876,153.219100,-222.061783,9474.636058
4019.434191,689.485948,-0.000000,9474.636058
4019.434506,229.828649,-370.102971,9252.574275
4019.434821,229.828649,-222.061783,8734.430116
4019.435137,76.609550,-148.041188,9622.677246
4019.435452,153.219100,-222.061783,9474.636058
4019.435767,0.000000,-296.082377,9326.594869
4019.436082,-153.219100,-0.000000,9474.636058
4019.436397,-383.047749,-0.000000,9400.615463
4019.436712,306.438199,-222.061783,9252.574275
4019.437027,0.000000,-74.020594,9326.594869
4019.437343,-306.438199,-222.061783,9696.697840
4019.437658,-229.828649,-0.000000,9474.636058
4019.437973,0.000000,296.082377,9252.574275
4019.438288,0.000000,-296.082377,9400.615463
4019.438603,0.000000,-0.000000,9548.656652
4019.438918,0.000000,-0.000000,9548.656652
4019.439234,0.000000,222.061783,9474.636058
4019.439549,383.047749,-0.000000,9474.636058
4019.439864,153.219100,296.082377,9844.739029
4019.440179,306.438199,-74.020594,9474.636058
4019.440494,0.000000,-0.000000,9844.739029
4019.440809,153.219100,-0.000000,9548.656652
4019.441125,0.000000,148.041188,9548.656652
4019.441440,153.219100,370.102971,9548.656652
4019.441755,229.828649,148.041188,9548.656652
4019.442070,0.000000,296.082377,9770.718434
4019.442385,76.609550,518.144159,9770.718434
4019.442700,-229.828649,370.102971,10214.842000
4019.443016,153.219100,518.144159,9844.739029
4019.443331,306.438199,592.164754,9696.697840
4019.443646,76.609550,666.185348,9992.780217
4019.443961,76.609550,666.185348,9844.739029
4019.444276,0.000000,444.123565,10066.800811
4019.444591,153.219100,666.185348,10066.800811
4019.444907,0.000000,740.205942,10288.862594
4019.445222,153.219100,666.185348,9918.759623
4019.445537,153.219100,962.267725,9770.718434
4019.445852,306.438199,666.185348,9918.759623
4019.446167,306.438199,962.267725,9918.759623
4019.446482,153.219100,740.205942,10140.821405
4019.446797,0.000000,814.226536,10066.800811
4019.447113,0.000000,592.164754,9844.739029
4019.447428,153.219100,444.123565,9622.677246
4019.447743,153.219100,666.185348,9992.780217
4019.448058,229.828649,444.123565,9918.759623
4019.448373,0.000000,592.164754,9548.656652
4019.448688,0.000000,666.185348,9548.656652
4019.449004,-153.219100,444.123565,9548.656652
4019.449319,0.000000,444.123565,9918.759623
4019.449634,0.000000,740.205942,9844.739029
4019.449949,0.000000,296.082377,9474.636058
4019.450264,0.000000,296.082377,9474.636058
4019.450579,0.000000,296.082377,9252.574275
4019.450895,306.438199,296.082377,9400.615463
4019.451210,0.000000,-0.000000,9844.739029
4019.451525,153.219100,-0.000000,9622.677246
4019.451840,0.000000,-0.000000,9474.636058
4019.452155,306.438199,222.061783,9770.718434
4019.452470,0.000000,-0.000000,9400.615463
4019.452786,0.000000,-0.000000,9474.636058
4019.453101,76.609550,-0.000000,9474.636058
4019.453416,383.047749,-0.000000,9474.636058
4019.453731,612.876398,-222.061783,9474.636058
4019.454046,306.438199,-222.061783,9326.594869
4019.454361,229.828649,-296.082377,9326.594869
4019.454677,153.219100,-296.082377,9326.594869
4019.454992,0.000000,-370.102971,9474.636058
4019.455307,229.828649,-222.061783,9622.677246
4019.455622,0.000000,-370.102971,9770.718434
4019.455937,229.828649,-0.000000,9326.594869
4019.456252,76.609550,-296.082377,9326.594869
4019.456567,459.657299,-222.061783,9400.615463
4019.456883,612.876398,-296.082377,9696.697840
4019.457198,229.828649,-222.061783,9622.677246
4019.457513,153.219100,-74.020594,9474.636058
4019.457828,76.609550,-148.041188,9622.677246
4019.458143,153.219100,-296.082377,9474.636058
4019.458458,0.000000,-0.000000,9622.677246
4019.458774,0.000000,-444.123565,9770.718434
4019.459089,-229.828649,-0.000000,9474.636058
4019.459404,-153.219100,-0.000000,9474.636058
4019.459719,76.609550,-0.000000,9474.636058
4019.460034,0.000000,-0.000000,9474.636058
4019.460349,0.000000,-0.000000,9252.574275
4019.460665,0.000000,-0.000000,9622.677246
4019.460980,0.000000,-0.000000,9622.677246
4019.461295,0.000000,-148.041188,9252.574275
4019.461610,0.000000,222.061783,9622.677246
4019.461925,153.219100,222.061783,9474.636058
4019.462240,306.438199,222.061783,9400.615463
4019.462556,76.609550,370.102971,9474.636058
4019.462871,383.047749,-74.020594,9474.636058
4019.463186,153.219100,-0.000000,9474.636058
4019.463501,153.219100,296.082377,9474.636058
4019.463816,0.000000,444.123565,9548.656652
4019.464131,0.000000,-0.000000,9474.636058
4019.464447,0.000000,444.123565,9770.718434
4019.464762,0.000000,370.102971,9400.615463
4019.465077,0.000000,222.061783,9548.656652
4019.465392,153.219100,370.102971,9548.656652
4019.465707,76.609550,370.102971,9696.697840
4019.466022,76.609550,-0.000000,9696.697840
4019.466338,76.609550,370.102971,10214.842000
4019.466653,153.219100,740.205942,9770.718434
4019.466968,153.219100,370.102971,9770.718434
4019.467283,689.485948,370.102971,9918.759623
4019.467598,383.047749,-0.000000,9918.759623
4019.467913,229.828649,370.102971,9844.739029
4019.468228,0.000000,518.144159,9918.759623
4019.468544,76.609550,296.082377,9918.759623
4019.468859,306.438199,370.102971,9844.739029
4019.469174,0.000000,444.123565,10140.821405
4019.469489,0.000000,444.123565,10066.800811
4019.469804,76.609550,370.102971,9622.677246
4019.470119,153.219100,296.082377,9696.697840
4019.470435,0.000000,-148.041188,9844.739029
4019.470750,306.438199,592.164754,9918.759623
4019.471065,-306.438199,444.123565,9548.656652
4019.471380,0.000000,-0.000000,9548.656652
4019.471695,0.000000,222.061783,9696.697840
4019.472010,0.000000,-0.000000,9474.636058
4019.472326,76.609550,-0.000000,9474.636058
4019.472641,0.000000,-0.000000,9474.636058
4019.472956,153.219100,-0.000000,9548.656652
4019.473271,306.438199,-0.000000,9770.718434
4019.473586,153.219100,370.102971,9474.636058
4019.473901,153.219100,-0.000000,9474.636058
4019.474217,229.828649,-0.000000,9474.636058
4019.474532,153.219100,-0.000000,9326.594869
4019.474847,-76.609550,-74.020594,9326.594869
4019.475162,76.609550,-74.020594,9548.656652
4019.475477,229.828649,-0.000000,9252.574275
4019.475792,0.000000,-0.000000,9104.533087
4019.476108,229.828649,-0.000000,9326.594869
4019.476423,459.657299,-148.041188,9326.594869
4019.476738,0.000000,-0.000000,9548.656652
4019.477053,229.828649,-0.000000,9474.636058
4019.477368,76.609550,-0.000000,9548.656652
4019.477683,0.000000,-74.020594,9474.636058
4019.477998,0.000000,-0.000000,9400.615463
4019.478314,229.828649,-74.020594,9326.594869
4019.478629,536.266849,-0.000000,9770.718434
4019.478944,76.609550,-0.000000,9770.718434
4019.479259,0.000000,-0.000000,9622.677246
4019.479574,536.266849,-148.041188,9548.656652
4019.479889,0.000000,-148.041188,9696.697840
4019.480205,0.000000,-222.061783,9548.656652
4019.480520,229.828649,-74.020594,9548.656652
4019.480835,0.000000,-0.000000,9696.697840
4019.481150,0.000000,148.041188,9622.677246
4019.481465,306.438199,-0.000000,9622.677246
4019.481780,0.000000,-0.000000,9400.615463
4019.482096,76.609550,-0.000000,9474.636058
4019.482411,153.219100,222.061783,9548.656652
4019.482726,306.438199,-0.000000,9622.677246
4019.483041,0.000000,148.041188,9844.739029
4019.483356,229.828649,518.144159,9474.636058
4019.483671,76.609550,-0.000000,9474.636058
4019.483987,153.219100,-0.000000,9548.656652
4019.484302,153.219100,370.102971,9622.677246
4019.484617,153.219100,148.041188,9622.677246
4019.484932,153.219100,296.082377,9696.697840
4019.485247,76.609550,444.123565,9326.594869
4019.485562,459.657299,666.185348,9400.615463
4019.485878,153.219100,370.102971,9548.656652
4019.486193,153.219100,370.102971,9548.656652
4019.486508,76.609550,370.102971,9548.656652
4019.486823,153.219100,370.102971,9474.636058
4019.487138,153.219100,-0.000000,9622.677246
4019.487453,229.828649,518.144159,9474.636058
4019.487768,0.000000,370.102971,9548.656652
4019.488084,153.219100,592.164754,9548.656652
4019.488399,0.000000,518.144159,9622.677246
4019.488714,76.609550,370.102971,9474.636058
4019.489029,0.000000,444.123565,9622.677246
4019.489344,76.609550,592.164754,9918.759623
4019.489659,76.609550,444.123565,9770.718434
4019.489975,0.000000,518.144159,9622.677246
4019.490290,229.828649,444.123565,9770.718434
4019.490605,153.219100,370.102971,9844.739029
4019.490920,0.000000,148.041188,9844.739029
4019.491235,0.000000,518.144159,10066.800811
4019.491550,0.000000,444.123565,9918.759623
4019.491866,383.047749,222.061783,9622.677246
4019.492181,153.219100,592.164754,9622.677246
4019.492496,0.000000,-0.000000,9696.697840
4019.492811,153.219100,-0.000000,9474.636058
4019.493126,459.657299,-0.000000,9400.615463
4019.493441,0.000000,-296.082377,9770.718434
4019.493757,229.828649,148.041188,10214.842000
4019.494072,76.609550,-0.000000,9474.636058
4019.494387,0.000000,-0.000000,9178.553681
4019.494702,0.000000,-0.000000,9696.697840
4019.495017,0.000000,-0.000000,9474.636058
4019.495332,229.828649,-148.041188,9918.759623
4019.495648,0.000000,222.061783,9548.656652
4019.495963,306.438199,-0.000000,9474.636058
4019.496278,306.438199,-222.061783,9252.574275
4019.496593,383.047749,518.144159,9474.636058
4019.496908,229.828649,-222.061783,9622.677246
4019.497223,0.000000,-444.123565,9622.677246
4019.497538,0.000000,-74.020594,9400.615463
4019.497854,76.609550,-0.000000,9622.677246
4019.498169,0.000000,-148.041188,9326.594869
4019.498484,459.657299,-74.020594,9622.677246
4019.498799,153.219100,-0.000000,9400.615463
4019.499114,76.609550,222.061783,9474.636058
4019.499429,306.438199,-0.000000,9252.574275
4019.499745,459.657299,-74.020594,9474.636058
4019.500060,229.828649,-0.000000,9696.697840
4019.500375,76.609550,296.082377,9474.636058
4019.500690,0.000000,148.041188,9696.697840
4019.501005,153.219100,370.102971,9992.780217
4019.501320,153.219100,-74.020594,9474.636058
4019.501636,0.000000,-0.000000,9474.636058
4019.501951,0.000000,222.061783,9474.636058
4019.502266,0.000000,222.061783,9918.759623
4019.502581,76.609550,-74.020594,9548.656652
4019.502896,76.609550,148.041188,9622.677246
4019.503211,383.047749,-0.000000,9770.718434
4019.503527,0.000000,-0.000000,9474.636058
4019.503842,76.609550,-0.000000,9474.636058
4019.504157,0.000000,-0.000000,9474.636058
4019.504472,76.609550,-0.000000,9992.780217
4019.504787,0.000000,-0.000000,9400.615463
4019.505102,0.000000,296.082377,9326.594869
4019.505418,153.219100,148.041188,10066.800811
4019.505733,76.609550,222.061783,9622.677246
4019.506048,153.219100,-0.000000,9548.656652
4019.506363,-229.828649,-0.000000,10362.883188
4019.506678,0.000000,-74.020594,9474.636058
4019.506993,76.609550,-0.000000,9622.677246
4019.507308,76.609550,444.123565,9548.656652
4019.507624,229.828649,148.041188,9622.677246
4019.507939,0.000000,-0.000000,9696.697840
4019.508254,0.000000,-0.000000,9474.636058
4019.508569,76.609550,-0.000000,9622.677246
4019.508884,76.609550,-0.000000,9622.677246
4019.509199,383.047749,222.061783,9844.739029
4019.509515,-306.438199,-0.000000,9548.656652
4019.509830,153.219100,518.144159,9474.636058
4019.510145,306.438199,370.102971,9400.615463
4019.510460,306.438199,444.123565,9622.677246
4019.510775,76.609550,518.144159,9918.759623
4019.511090,153.219100,592.164754,9474.636058
4019.511406,76.609550,148.041188,9548.656652
4019.511721,229.828649,370.102971,9622.677246
4019.512036,0.000000,444.123565,9548.656652
4019.512351,0.000000,-0.000000,9326.594869
4019.512666,0.000000,370.102971,9696.697840
4019.512981,153.219100,370.102971,9696.697840
4019.513297,0.000000,148.041188,9696.697840
4019.513612,76.609550,222.061783,9400.615463
4019.513927,229.828649,74.020594,9622.677246
4019.514242,0.000000,222.061783,9622.677246
4019.514557,0.000000,222.061783,9474.636058
4019.514872,0.000000,-0.000000,9474.636058
4019.515188,0.000000,-0.000000,9770.718434
4019.515503,0.000000,148.041188,9474.636058
4019.515818,0.000000,-148.041188,9252.574275
4019.516133,0.000000,222.061783,9474.636058
4019.516448,0.000000,-0.000000,9474.636058
4019.516763,383.047749,222.061783,9548.656652
4019.517078,383.047749,-370.102971,9474.636058
4019.517394,153.219100,-0.000000,9326.594869
4019.517709,229.828649,-0.000000,9326.594869
4019.518024,0.000000,-0.000000,9400.615463
4019.518339,0.000000,-222.061783,9474.636058
4019.518654,76.609550,-148.041188,9474.636058
4019.518969,0.000000,-74.020594,9400.615463
4019.519285,76.609550,-0.000000,9474.636058
4019.519600,306.438199,-74.020594,9548.656652
4019.519915,229.828649,-0.000000,9548.656652
4019.520230,-306.438199,-0.000000,9770.718434
4019.520545,229.828649,-148.041188,9474.636058
4019.520860,229.828649,-148.041188,9178.553681
4019.521176,0.000000,148.041188,9400.615463
4019.521491,459.657299,-0.000000,9696.697840
4019.521806,229.828649,-0.000000,9696.697840
4019.522121,-229.828649,148.041188,9844.739029
4019.522436,153.219100,444.123565,9696.697840
4019.522751,76.609550,-0.000000,9548.656652
4019.523067,0.000000,296.082377,9548.656652
4019.523382,229.828649,-0.000000,9548.656652
4019.523697,0.000000,-0.000000,9918.759623
4019.524012,0.000000,148.041188,9474.636058
4019.524327,153.219100,296.082377,9622.677246
4019.524642,153.219100,-0.000000,9770.718434
4019.524958,-153.219100,-0.000000,9770.718434
4019.525273,0.000000,-74.020594,9474.636058
4019.525588,76.609550,222.061783,9474.636058
4019.525903,0.000000,-0.000000,9474.636058
4019.526218,76.609550,222.061783,9400.615463
4019.526533,229.828649,-0.000000,9622.677246
4019.526848,0.000000,222.061783,9474.636058
4019.527163,76.609550,148.041188,9548.656652
4019.527478,153.219100,296.082377,9622.677246
4019.527793,0.000000,296.082377,9696.697840
4019.528108,459.657299,370.102971,9622.677246
4019.528423,536.266849,296.082377,9104.533087
4019.528738,459.657299,222.061783,9474.636058
4019.529053,229.828649,-0.000000,9622.677246
4019.529368,76.609550,222.061783,9770.718434
4019.529683,-306.438199,444.123565,9252.574275
4019.529998,-229.828649,222.061783,9548.656652
4019.530313,306.438199,296.082377,9474.636058
4019.530628,0.000000,74.020594,9696.697840
4019.530943,0.000000,222.061783,10140.821405
4019.531258,76.609550,-296.082377,9770.718434
4019.531573,306.438199,296.082377,9696.697840
4019.531888,306.438199,370.102971,9252.574275
4019.532203,76.609550,296.082377,9622.677246
4019.532518,229.828649,592.164754,9992.780217
4019.532833,229.828649,370.102971,9918.759623
4019.533147,-153.219100,296.082377,9696.697840
4019.533462,76.609550,444.123565,9844.739029
4019.533777,0.000000,296.082377,9844.739029
4019.534092,153.219100,370.102971,9918.759623
4019.534407,383.047749,148.041188,9622.677246
4019.534722,-459.657299,-0.000000,9400.615463
4019.535037,-306.438199,296.082377,9844.739029
4019.535352,0.000000,370.102971,9918.759623
4019.535667,-612.876398,666.185348,9400.615463
4019.535982,0.000000,-0.000000,9326.594869
4019.536297,-995.924147,666.185348,9474.636058
4019.536612,-766.095498,370.102971,9548.656652
4019.536927,-919.314598,518.144159,9770.718434
4019.537242,-995.924147,296.082377,9548.656652
4019.537557,-689.485948,444.123565,9474.636058
4019.537872,-383.047749,592.164754,9474.636058
4019.538187,-383.047749,1036.288319,9252.574275
4019.538502,-536.266849,814.226536,9178.553681
4019.538817,-536.266849,1332.370696,8734.430116
4019.539132,-1072.533697,1406.391290,8734.430116
4019.539447,-1225.752797,1554.432478,8660.409521
4019.539762,-1685.410096,1184.329507,9030.512492
4019.540077,-2451.505594,1036.288319,8956.491898
4019.540392,-2451.505594,592.164754,9548.656652
4019.540707,-2528.115143,592.164754,9918.759623
4019.541022,-2834.553343,666.185348,10066.800811
4019.541337,-2604.724693,962.267725,10140.821405
4019.541652,-2681.334243,1184.329507,10584.944971
4019.541967,-2374.896044,1628.453072,9992.780217
4019.542282,-1838.629195,2220.617826,9696.697840
4019.542597,-1608.800546,2516.700203,9696.697840
4019.542912,-1072.533697,2812.782580,8956.491898
4019.543227,-1072.533697,3108.864956,8882.471304
4019.543541,-1225.752797,3256.906145,8586.388927
4019.543856,-1455.581446,2960.823768,8364.327145
4019.544171,-1915.238745,3256.906145,8734.430116
4019.544486,-2451.505594,2812.782580,9474.636058
4019.544801,-2911.162892,2368.659014,10140.821405
4019.545116,-3447.429741,2072.576638,10214.842000
4019.545431,-3524.039291,1258.350101,10436.903782
4019.545746,-3294.210641,1776.494261,10510.924376
4019.546061,-3140.991542,2146.597232,10436.903782
4019.546376,-2528.115143,2960.823768,10140.821405
4019.546691,-2068.457845,3775.050304,9622.677246
4019.547006,-1838.629195,4441.235652,8808.450710
4019.547321,-1072.533697,4885.359217,8734.430116
4019.547636,-1378.971896,4885.359217,8660.409521
4019.547951,-1762.019645,4663.297435,9252.574275
4019.548266,-2298.286494,3997.112087,9474.636058
4019.548581,-2451.505594,3182.885551,10066.800811
4019.548896,-2451.505594,2590.720797,11029.068536
4019.549211,-2451.505594,2072.576638,11325.150913
4019.549526,-2298.286494,2146.597232,11251.130318
4019.549841,-1455.581446,2368.659014,10658.965565
4019.550156,-1072.533697,2812.782580,10214.842000
4019.550471,-536.266849,3478.967927,9548.656652
4019.550786,0.000000,3923.091493,8956.491898
4019.551101,229.828649,3627.009116,8660.409521
4019.551416,689.485948,3478.967927,8734.430116
4019.551731,612.876398,3182.885551,9474.636058
4019.552046,459.657299,2738.761985,10362.883188
4019.552361,229.828649,1850.514855,11103.089130
4019.552676,536.266849,1184.329507,11029.068536
4019.552991,612.876398,1258.350101,11399.171507
4019.553306,842.705048,1258.350101,11695.253884
4019.553621,1302.362347,1332.370696,10510.924376
4019.553935,1455.581446,1628.453072,9770.718434
4019.554250,1915.238745,1776.494261,8956.491898
4019.554565,1532.190996,1554.432478,8660.409521
4019.554880,1225.752797,1554.432478,8290.306550
4019.555195,536.266849,962.267725,8586.388927
4019.555510,0.000000,592.164754,9400.615463
4019.555825,-536.266849,-0.000000,9770.718434
4019.556140,-383.047749,-740.205942,10214.842000
4019.556455,-1455.581446,-1480.411884,11029.068536
4019.556770,-1302.362347,-1480.411884,10881.027347
4019.557085,-1378.971896,-1628.453072,10732.986159
4019.557400,-842.705048,-1184.329507,10288.862594
4019.557715,0.000000,-814.226536,9770.718434
4019.558030,612.876398,-74.020594,8956.491898
4019.558345,766.095498,222.061783,8734.430116
4019.558660,459.657299,518.144159,8586.388927
4019.558975,536.266849,-0.000000,8438.347739
4019.559290,0.000000,-518.144159,8660.409521
4019.559605,76.609550,-1332.370696,9326.594869
4019.559920,0.000000,-2146.597232,9326.594869
4019.560235,-536.266849,-2812.782580,9770.718434
4019.560550,-612.876398,-3256.906145,9474.636058
4019.560865,-536.266849,-3108.864956,9474.636058
4019.561180,-612.876398,-2368.659014,8808.450710
4019.561495,-842.705048,-1850.514855,8660.409521
4019.561810,-1149.143247,-1036.288319,8142.265362
4019.562125,-995.924147,-1110.308913,7698.141797
4019.562440,-1149.143247,-740.205942,8216.285956
4019.562755,-1149.143247,-962.267725,8660.409521
4019.563070,-1532.190996,-888.247130,9326.594869
4019.563385,-1838.629195,-1110.308913,9030.512492
4019.563700,-1762.019645,-1258.350101,9622.677246
4019.564014,-1762.019645,-1628.453072,10436.903782
4019.564329,-1149.143247,-1924.535449,10807.006753
4019.564644,-306.438199,-1554.432478,10732.986159
4019.564959,-229.828649,-1184.329507,10066.800811
4019.565274,-306.438199,-740.205942,9770.718434
4019.565589,383.047749,-518.144159,9252.574275
4019.565904,842.705048,-74.020594,8882.471304
4019.566219,842.705048,-666.185348,8586.388927
4019.566534,1149.143247,-444.123565,8142.265362
4019.566849,842.705048,-518.144159,8586.388927
4019.567164,1149.143247,-444.123565,8586.388927
4019.567479,1072.533697,-370.102971,8660.409521
4019.567794,766.095498,-74.020594,8882.471304
4019.568109,766.095498,-296.082377,9030.512492
4019.568424,229.828649,-296.082377,9030.512492
4019.568739,0.000000,-74.020594,9326.594869
4019.569054,-383.047749,-0.000000,9696.697840
4019.569369,-459.657299,296.082377,9844.739029
4019.569684,-536.266849,592.164754,9474.636058
4019.569999,-536.266849,1332.370696,9770.718434
4019.570314,0.000000,1702.473667,9622.677246
4019.570629,459.657299,1850.514855,9844.739029
4019.570944,1149.143247,2294.638420,10214.842000
4019.571259,1532.190996,2442.679609,10362.883188
4019.571574,1608.800546,2368.659014,10658.965565
4019.571889,1762.019645,1998.556043,10362.883188
4019.572204,2298.286494,1554.432478,10362.883188
4019.572519,2298.286494,1110.308913,10214.842000
4019.572834,1915.238745,1258.350101,9548.656652
4019.573149,1915.238745,1628.453072,9844.739029
4019.573464,1608.800546,1850.514855,9474.636058
4019.573779,1378.971896,1850.514855,9622.677246
4019.574094,1225.752797,1628.453072,9030.512492
4019.574408,536.266849,1406.391290,9178.553681
4019.574723,0.000000,1480.411884,10214.842000
4019.575038,-536.266849,962.267725,10807.006753
4019.575353,-919.314598,814.226536,11029.068536
4019.575668,-842.705048,1036.288319,10881.027347
4019.575983,-842.705048,1480.411884,11103.089130
4019.576298,-612.876398,1554.432478,11547.212695
4019.576613,-842.705048,1850.514855,11325.150913
4019.576928,-536.266849,1924.535449,11177.109724
4019.577243,153.219100,1850.514855,10436.903782
4019.577558,76.609550,1776.494261,10140.821405
4019.577873,76.609550,1702.473667,9992.780217
4019.578188,306.438199,888.247130,9696.697840
4019.578503,306.438199,370.102971,9548.656652
4019.578818,612.876398,-370.102971,9622.677246
4019.579133,229.828649,-370.102971,9252.574275
4019.579448,229.828649,-740.205942,9326.594869
4019.579763,0.000000,-814.226536,9326.594869
4019.580078,0.000000,-1110.308913,9104.533087
4019.580393,153.219100,-888.247130,8512.368333
4019.580708,153.219100,-518.144159,8512.368333
4019.581023,76.609550,-74.020594,7920.203579
4019.581338,-229.828649,-222.061783,8142.265362
4019.581653,-383.047749,-74.020594,8586.388927
4019.581968,-612.876398,-0.000000,8660.409521
4019.582283,-689.485948,-74.020594,9474.636058
4019.582598,-1455.581446,-370.102971,9696.697840
4019.582913,-1378.971896,-814.226536,10362.883188
4019.583228,-1225.752797,-814.226536,10510.924376
4019.583543,-1072.533697,-1110.308913,10288.862594
4019.583858,-689.485948,-1036.288319,10362.883188
4019.584173,-229.828649,-888.247130,10288.862594
4019.584487,153.219100,-518.144159,9770.718434
4019.584802,689.485948,-296.082377,9252.574275
4019.585117,919.314598,-222.061783,8586.388927
4019.585432,1378.971896,-962.267725,8364.327145
4019.585747,995.924147,-962.267725,8660.409521
4019.586062,842.705048,-1184.329507,9030.512492
4019.586377,1838.629195,-1036.288319,8808.450710
4019.586692,995.924147,-1554.432478,8956.491898
4019.587007,842.705048,-1554.432478,9030.512492
4019.587322,306.438199,-1554.432478,9400.615463
4019.587637,0.000000,-1184.329507,9252.574275
4019.587952,0.000000,-1480.411884,9326.594869
4019.588267,-153.219100,-888.247130,9252.574275
4019.588582,-306.438199,-814.226536,9474.636058
4019.588897,-383.047749,-444.123565,10066.800811
4019.589212,-612.876398,-666.185348,10362.883188
4019.589527,-536.266849,-444.123565,10362.883188
4019.589842,0.000000,-222.061783,10436.903782
4019.590157,383.047749,-74.020594,10140.821405
4019.590472,842.705048,-0.000000,10288.862594
4019.590787,995.924147,592.164754,10584.944971
4019.591102,1072.533697,-0.000000,10214.842000
4019.591417,1149.143247,222.061783,10066.800811
4019.591732,1378.971896,-0.000000,9548.656652
4019.592047,1378.971896,-444.123565,9252.574275
4019.592362,1532.190996,-518.144159,9178.553681
4019.592677,1149.143247,-148.041188,8512.368333
4019.592992,995.924147,-296.082377,9178.553681
4019.593307,689.485948,-148.041188,8660.409521
4019.593622,76.609550,-0.000000,8364.327145
4019.593937,-153.219100,370.102971,8808.450710
4019.594252,-536.266849,222.061783,9178.553681
4019.594567,-1149.143247,444.123565,9474.636058
4019.594881,-1455.581446,592.164754,10140.821405
4019.595196,-1149.143247,592.164754,10214.842000
4019.595511,-1378.971896,1110.308913,10362.883188
4019.595826,-995.924147,1258.350101,10362.883188
4019.596141,-689.485948,1776.494261,10362.883188
4019.596456,-306.438199,1924.535449,10362.883188
4019.596771,153.219100,2220.617826,9992.780217
4019.597086,-229.828649,2442.679609,9992.780217
4019.597401,536.266849,2220.617826,9548.656652
4019.597716,306.438199,1850.514855,9622.677246
4019.598031,766.095498,1406.391290,9474.636058
4019.598346,536.266849,814.226536,9474.636058
4019.598661,76.609550,740.205942,9326.594869
4019.598976,459.657299,740.205942,9474.636058
4019.599291,459.657299,222.061783,9104.533087
4019.599606,536.266849,740.205942,9178.553681
4019.599921,459.657299,666.185348,8808.450710
4019.600236,76.609550,962.267725,8660.409521
4019.600551,0.000000,1258.350101,8660.409521
4019.600866,-306.438199,1702.473667,8734.430116
4019.601181,-536.266849,1554.432478,9474.636058
4019.601496,-689.485948,1184.329507,10066.800811
4019.601811,-919.314598,1332.370696,10807.006753
4019.602126,-1302.362347,1184.329507,11029.068536
4019.602441,-1225.752797,1184.329507,11103.089130
4019.602756,-689.485948,1036.288319,10955.047942
4019.603071,0.000000,1110.308913,10955.047942
4019.603386,153.219100,888.247130,10732.986159
4019.603701,383.047749,814.226536,10214.842000
4019.604016,459.657299,962.267725,9696.697840
4019.604331,995.924147,888.247130,9104.533087
4019.604646,1225.752797,444.123565,8660.409521
4019.604961,1072.533697,-0.000000,8512.368333
4019.605275,919.314598,-222.061783,8660.409521
4019.605590,766.095498,-518.144159,9104.533087
4019.605905,842.705048,-666.185348,9178.553681
4019.606220,229.828649,-1110.308913,8882.471304
4019.606535,76.609550,-296.082377,8734.430116
4019.606850,0.000000,-0.000000,9030.512492
4019.607165,-766.095498,-222.061783,9474.636058
4019.607480,-612.876398,-0.000000,9844.739029
4019.607795,-536.266849,-74.020594,9770.718434
4019.608110,-995.924147,148.041188,10362.883188
4019.608425,-919.314598,-148.041188,10658.965565
4019.608740,-842.705048,148.041188,10658.965565
4019.609055,-536.266849,222.061783,10510.924376
4019.609370,-306.438199,-0.000000,10658.965565
4019.609685,612.876398,222.061783,10066.800811
4019.610000,842.705048,-74.020594,9474.636058
4019.610315,1149.143247,-74.020594,9474.636058
4019.610630,1225.752797,-296.082377,9770.718434
4019.610945,1455.581446,-1184.329507,9474.636058
4019.611260,1378.971896,-1110.308913,8882.471304
4019.611575,995.924147,-1332.370696,8808.450710
4019.611890,842.705048,-1110.308913,8660.409521
4019.612205,536.266849,-1406.391290,8660.409521
4019.612520,612.876398,-1332.370696,8808.450710
4019.612835,153.219100,-1110.308913,8142.265362
4019.613150,0.000000,-1036.288319,8364.327145
4019.613465,-766.095498,-1480.411884,8956.491898
4019.613780,-689.485948,-1258.350101,9474.636058
4019.614095,-383.047749,-962.267725,9844.739029
4019.614410,-612.876398,-962.267725,9918.759623
4019.614725,-689.485948,-740.205942,10584.944971
4019.615040,-689.485948,-296.082377,10288.862594
4019.615354,-766.095498,-518.144159,10214.842000
4019.615669,-229.828649,-592.164754,9844.739029
4019.615984,0.000000,-444.123565,9918.759623
4019.616299,76.609550,-0.000000,9918.759623
4019.616614,536.266849,-74.020594,9400.615463
4019.616929,459.657299,-148.041188,9622.677246
4019.617244,919.314598,-666.185348,9252.574275
4019.617559,995.924147,-888.247130,9030.512492
4019.617874,1225.752797,-888.247130,8956.491898
4019.618189,766.095498,-814.226536,9474.636058
4019.618504,689.485948,-740.205942,9178.553681
4019.618819,1149.143247,-666.185348,8808.450710
4019.619134,1302.362347,-74.020594,8364.327145
4019.619449,612.876398,-74.020594,8290.306550
4019.619764,0.000000,370.102971,8660.409521
4019.620079,-383.047749,370.102971,8808.450710
4019.620394,-612.876398,888.247130,9178.553681
4019.620709,-689.485948,444.123565,9474.636058
4019.621024,-919.314598,444.123565,10436.903782
4019.621339,-1608.800546,444.123565,10584.944971
4019.621654,-1225.752797,444.123565,10584.944971
4019.621969,-919.314598,962.267725,10807.006753
4019.622284,-229.828649,1480.411884,10510.924376
4019.622599,383.047749,1702.473667,10510.924376
4019.622914,536.266849,1628.453072,9992.780217
4019.623229,842.705048,1776.494261,9770.718434
4019.623544,1149.143247,2146.597232,9622.677246
4019.623859,1532.190996,1850.514855,9178.553681
4019.624174,1378.971896,1406.391290,9326.594869
4019.624489,1378.971896,1036.288319,9400.615463
4019.624804,919.314598,814.226536,9252.574275
4019.625119,689.485948,-0.000000,9400.615463
4019.625434,842.705048,-0.000000,9474.636058
4019.625748,0.000000,296.082377,9622.677246
4019.626063,-536.266849,518.144159,9252.574275
4019.626378,-842.705048,666.185348,9918.759623
4019.626693,-612.876398,1110.308913,9622.677246
4019.627008,-612.876398,1036.288319,10214.842000
4019.627323,-689.485948,1406.391290,10584.944971
4019.627639,-766.095498,1702.473667,11103.089130
4019.627954,-612.876398,1776.494261,11251.130318
4019.628269,-383.047749,1480.411884,10658.965565
4019.628584,0.000000,1332.370696,10436.903782
4019.628899,689.485948,1332.370696,10658.965565
4019.629214,536.266849,1480.411884,10658.965565
4019.629529,536.266849,1036.288319,10214.842000
4019.629844,459.657299,296.082377,9548.656652
4019.630160,919.314598,222.061783,9622.677246
4019.630475,1302.362347,-518.144159,9104.533087
4019.630790,689.485948,-296.082377,8512.368333
4019.631105,459.657299,-296.082377,9104.533087
4019.631420,229.828649,-592.164754,8734.430116
4019.631735,306.438199,-222.061783,8438.347739
4019.632050,383.047749,-74.020594,8734.430116
4019.632365,-612.876398,-0.000000,8660.409521
4019.632680,-536.266849,518.144159,8734.430116
4019.632996,-919.314598,-0.000000,8956.491898
4019.633311,-995.924147,148.041188,9844.739029
4019.633626,-689.485948,-0.000000,10066.800811
4019.633941,-1225.752797,-0.000000,10214.842000
4019.634256,-1378.971896,-0.000000,10288.862594
4019.634571,-1225.752797,222.061783,10288.862594
4019.634886,-306.438199,-0.000000,10510.924376
4019.635201,0.000000,-0.000000,10214.842000
4019.635517,306.438199,-148.041188,9992.780217
4019.635832,153.219100,148.041188,9548.656652
4019.636147,536.266849,-74.020594,9178.553681
4019.636462,1149.143247,-222.061783,8956.491898
4019.636777,1302.362347,-888.247130,9104.533087
4019.637092,1225.752797,-518.144159,8438.347739
4019.637407,919.314598,-962.267725,9030.512492
4019.637722,1072.533697,-1110.308913,8882.471304
4019.638037,766.095498,-1406.391290,9178.553681
4019.638353,612.876398,-592.164754,9326.594869
4019.638668,383.047749,-814.226536,8586.388927
4019.638983,0.000000,-740.205942,8734.430116
4019.639298,-383.047749,-666.185348,9326.594869
4019.639613,-383.047749,-518.144159,9622.677246
4019.639928,-459.657299,-962.267725,9844.739029
4019.640243,-919.314598,-148.041188,10066.800811
4019.640558,-919.314598,-740.205942,10584.944971
4019.640874,-766.095498,-666.185348,10955.047942
4019.641189,-383.047749,-296.082377,10881.027347
4019.641504,0.000000,-0.000000,10510.924376
4019.641819,536.266849,592.164754,10955.047942
4019.642134,612.876398,666.185348,10288.862594
4019.642449,612.876398,222.061783,10140.821405
4019.642764,1685.410096,-0.000000,9844.739029
4019.643079,1532.190996,-518.144159,9474.636058
4019.643394,995.924147,-148.041188,9252.574275
4019.643710,919.314598,-518.144159,9400.615463
4019.644025,919.314598,-518.144159,9252.574275
4019.644340,919.314598,-814.226536,8586.388927
4019.644655,689.485948,-296.082377,8364.327145
4019.644970,306.438199,-296.082377,8660.409521
4019.645285,0.000000,222.061783,8734.430116
4019.645600,-459.657299,222.061783,9030.512492
4019.645915,-383.047749,444.123565,9326.594869
4019.646231,-689.485948,370.102971,9474.636058
4019.646546,-995.924147,666.185348,9696.697840
4019.646861,-1072.533697,592.164754,10214.842000
4019.647176,-995.924147,962.267725,10658.965565
4019.647491,-766.095498,814.226536,10584.944971
4019.647806,-536.266849,1258.350101,9992.780217
4019.648121,0.000000,1110.308913,9844.739029
4019.648436,459.657299,1628.453072,9918.759623
4019.648751,842.705048,1406.391290,9770.718434
4019.649067,306.438199,962.267725,9622.677246
4019.649382,1378.971896,962.267725,9252.574275
4019.649697,1225.752797,740.205942,8512.368333
4019.650012,919.314598,222.061783,8660.409521
4019.650327,689.485948,-0.000000,9030.512492
4019.650642,842.705048,-0.000000,9400.615463
4019.650957,536.266849,-370.102971,9178.553681
4019.651272,76.609550,-74.020594,8734.430116
4019.651587,0.000000,518.144159,9400.615463
4019.651903,-689.485948,814.226536,9252.574275
4019.652218,-919.314598,888.247130,9474.636058
4019.652533,-995.924147,1258.350101,10140.821405
4019.652848,-842.705048,1036.288319,10362.883188
4019.653163,-919.314598,1184.329507,10881.027347
4019.653478,-1149.143247,1036.288319,10881.027347
4019.653793,-1225.752797,1184.329507,11029.068536
4019.654108,-612.876398,1332.370696,10807.006753
4019.654424,-306.438199,1110.308913,10955.047942
4019.654739,383.047749,1110.308913,10955.047942
4019.655054,229.828649,814.226536,10362.883188
4019.655369,383.047749,888.247130,9696.697840
4019.655684,689.485948,740.205942,9474.636058
4019.655999,919.314598,444.123565,9030.512492
4019.656314,1685.410096,74.020594,8808.450710
4019.656629,919.314598,-222.061783,8438.347739
4019.656944,919.314598,-444.123565,8882.471304
4019.657260,842.705048,-518.144159,8808.450710
4019.657575,919.314598,-222.061783,8512.368333
4019.657890,383.047749,-0.000000,9104.533087
4019.658205,0.000000,-0.000000,8882.471304
4019.658520,-153.219100,-0.000000,9030.512492
4019.658835,-459.657299,-0.000000,9252.574275
4019.659150,-689.485948,370.102971,9844.739029
4019.659465,-1149.143247,-0.000000,9992.780217
4019.659781,-842.705048,-0.000000,10510.924376
4019.660096,-689.485948,370.102971,10510.924376
4019.660411,-536.266849,370.102971,10214.842000
4019.660726,-229.828649,370.102971,10436.903782
4019.661041,766.095498,592.164754,9918.759623
4019.661356,383.047749,222.061783,9918.759623
4019.661671,689.485948,-0.000000,9770.718434
4019.661986,689.485948,-370.102971,9178.553681
4019.662301,1302.362347,-518.144159,9104.533087
4019.662617,1149.143247,-814.226536,8882.471304
4019.662932,612.876398,-740.205942,8956.491898
4019.663247,536.266849,-1332.370696,9474.636058
4019.663562,842.705048,-962.267725,9326.594869
4019.663877,842.705048,-814.226536,8586.388927
4019.664192,459.657299,-814.226536,9030.512492
4019.664507,0.000000,-518.144159,8956.491898
4019.664822,-306.438199,-370.102971,9104.533087
4019.665138,-919.314598,-370.102971,9178.553681
4019.665453,-612.876398,-592.164754,9548.656652
4019.665768,-842.705048,-370.102971,10214.842000
4019.666083,-1378.971896,-222.061783,10732.986159
4019.666398,-1302.362347,-370.102971,10436.903782
4019.666713,-1072.533697,-0.000000,10584.944971
4019.667028,-536.266849,296.082377,10881.027347
4019.667343,0.000000,-0.000000,10288.862594
4019.667658,306.438199,148.041188,9844.739029
4019.667974,229.828649,370.102971,9548.656652
4019.668289,1072.533697,-0.000000,9548.656652
4019.668604,995.924147,148.041188,9178.553681
4019.668919,1225.752797,-296.082377,8882.471304
4019.669234,1685.410096,-592.164754,8808.450710
4019.669549,919.314598,-518.144159,8808.450710
4019.669864,842.705048,-740.205942,9104.533087
4019.670179,1149.143247,-444.123565,9252.574275
4019.670495,995.924147,-222.061783,8956.491898
4019.670810,153.219100,-148.041188,8734.430116
4019.671125,0.000000,444.123565,8660.409521
4019.671440,-919.314598,518.144159,9178.553681
4019.671755,-919.314598,592.164754,9474.636058
4019.672070,-842.705048,518.144159,10362.883188
4019.672385,-919.314598,518.144159,10510.924376
4019.672700,-1225.752797,518.144159,10807.006753
4019.673015,-1378.971896,740.205942,10658.965565
4019.673331,-995.924147,962.267725,10807.006753
4019.673646,0.000000,1554.432478,10658.965565
4019.673961,459.657299,1184.329507,10288.862594
4019.674276,842.705048,1184.329507,10066.800811
4019.674591,919.314598,814.226536,9770.718434
4019.674906,1378.971896,888.247130,9548.656652
4019.675221,1455.581446,444.123565,9104.533087
4019.675536,1378.971896,370.102971,9104.533087
4019.675852,1072.533697,-0.000000,9104.533087
4019.676167,1149.143247,-444.123565,9030.512492
4019.676482,766.095498,-592.164754,9030.512492
4019.676797,919.314598,-222.061783,9104.533087
4019.677112,0.000000,-148.041188,9178.553681
4019.677427,0.000000,296.082377,9400.615463
4019.677742,0.000000,666.185348,9548.656652
4019.678057,-459.657299,1036.288319,9474.636058
4019.678372,-306.438199,888.247130,9770.718434
4019.678688,-612.876398,1184.329507,9992.780217
4019.679003,-842.705048,1184.329507,10658.965565
4019.679318,-842.705048,1036.288319,11251.130318
4019.679633,-842.705048,962.267725,10881.027347
4019.679948,-689.485948,888.247130,10510.924376
4019.680263,-153.219100,666.185348,10140.821405
4019.680578,0.000000,592.164754,10140.821405
4019.680893,229.828649,370.102971,10288.862594
4019.681209,459.657299,148.041188,9548.656652
4019.681524,1072.533697,-0.000000,9178.553681
4019.681839,1072.533697,-148.041188,8660.409521
4019.682154,1225.752797,-0.000000,8808.450710
4019.682469,1072.533697,-148.041188,8734.430116
4019.682784,766.095498,-444.123565,8586.388927
4019.683099,766.095498,-592.164754,8734.430116
4019.683414,689.485948,-222.061783,8438.347739
4019.683729,229.828649,-0.000000,8512.368333
4019.684045,0.000000,222.061783,9030.512492
4019.684360,-689.485948,296.082377,9474.636058
4019.684675,-1149.143247,-0.000000,9252.574275
4019.684990,-1225.752797,-0.000000,10288.862594
4019.685305,-1378.971896,-0.000000,10955.047942
4019.685620,-919.314598,-222.061783,10732.986159
4019.685935,-1608.800546,-296.082377,10732.986159
4019.686250,-995.924147,-0.000000,10881.027347
4019.686566,-153.219100,-0.000000,10140.821405
4019.686881,383.047749,222.061783,9770.718434
4019.687196,842.705048,148.041188,9474.636058
4019.687511,612.876398,296.082377,9400.615463
4019.687826,766.095498,-0.000000,8808.450710
4019.688141,1455.581446,-296.082377,8882.471304
4019.688456,1225.752797,-666.185348,8660.409521
4019.688771,766.095498,-740.205942,8734.430116
4019.689086,536.266849,-888.247130,8882.471304
4019.689402,536.266849,-962.267725,8734.430116
4019.689717,612.876398,-1110.308913,8734.430116
4019.690032,229.828649,-666.185348,9252.574275
4019.690347,-306.438199,-370.102971,8956.491898
4019.690662,-689.485948,-148.041188,9326.594869
4019.690977,-536.266849,-0.000000,9252.574275
4019.691292,-919.314598,148.041188,9696.697840
4019.691607,-766.095498,222.061783,10362.883188
4019.691923,-766.095498,592.164754,10955.047942
4019.692238,-689.485948,-0.000000,10510.924376
4019.692553,-612.876398,592.164754,10807.006753
4019.692868,0.000000,444.123565,10584.944971
4019.693183,459.657299,1036.288319,10214.842000
4019.693498,842.705048,1184.329507,10288.862594
4019.693813,842.705048,740.205942,9770.718434
4019.694128,842.705048,296.082377,9326.594869
4019.694443,1378.971896,-0.000000,8808.450710
4019.694759,1225.752797,-0.000000,8956.491898
4019.695074,1225.752797,-592.164754,9326.594869
4019.695389,766.095498,-740.205942,8586.388927
4019.695704,459.657299,-814.226536,8882.471304
4019.696019,383.047749,-222.061783,9178.553681
4019.696334,153.219100,-0.000000,9326.594869
4019.696649,-306.438199,296.082377,9178.553681
4019.696964,-536.266849,518.144159,9326.594869
4019.697279,-689.485948,666.185348,9326.594869
4019.697595,-995.924147,740.205942,9918.759623
4019.697910,-919.314598,888.247130,10584.944971
4019.698225,-1225.752797,1110.308913,10658.965565
4019.698540,-842.705048,962.267725,10658.965565
4019.698855,-919.314598,1110.308913,10658.965565
4019.699170,-612.876398,962.267725,10584.944971
4019.699485,612.876398,962.267725,10436.903782
4019.699800,536.266849,888.247130,10066.800811
4019.700116,459.657299,962.267725,9474.636058
4019.700431,766.095498,518.144159,9252.574275
4019.700746,1149.143247,296.082377,9030.512492
4019.701061,1991.848295,-74.020594,9400.615463
4019.701376,1072.533697,-0.000000,9326.594869
4019.701691,766.095498,-666.185348,8882.471304
4019.702006,689.485948,-74.020594,9178.553681
4019.702321,919.314598,-296.082377,9326.594869
4019.702636,1149.143247,-0.000000,9030.512492
4019.702952,459.657299,-0.000000,8956.491898
4019.703267,0.000000,666.185348,8882.471304
4019.703582,-459.657299,962.267725,9548.656652
4019.703897,-536.266849,740.205942,9548.656652
4019.704212,-383.047749,592.164754,9918.759623
4019.704527,-689.485948,740.205942,10436.903782
4019.704842,-995.924147,888.247130,10658.965565
4019.705157,-1149.143247,814.226536,10436.903782
4019.705473,-1072.533697,370.102971,10807.006753
4019.705788,-383.047749,444.123565,11103.089130
4019.706103,153.219100,148.041188,10288.862594
4019.706418,766.095498,296.082377,9770.718434
4019.706733,842.705048,296.082377,9548.656652
4019.707048,1072.533697,444.123565,9104.533087
4019.707363,1762.019645,296.082377,8660.409521
4019.707678,1762.019645,-148.041188,8364.327145
4019.707993,1302.362347,-444.123565,8438.347739
4019.708309,1149.143247,-444.123565,8438.347739
4019.708624,766.095498,-814.226536,8882.471304
4019.708939,459.657299,-666.185348,8882.471304
4019.709254,229.828649,-592.164754,9178.553681
4019.709569,-229.828649,-148.041188,9400.615463
4019.709884,-612.876398,-222.061783,9474.636058
4019.710199,-766.095498,-0.000000,9918.759623
4019.710514,-842.705048,-0.000000,9992.780217
4019.710830,-1149.143247,222.061783,9992.780217
4019.711145,-995.924147,592.164754,10955.047942
4019.711460,-766.095498,296.082377,10362.883188
4019.711775,-536.266849,-0.000000,10510.924376
4019.712090,0.000000,370.102971,10436.903782
4019.712405,383.047749,222.061783,9844.739029
4019.712720,383.047749,518.144159,9770.718434
4019.713035,766.095498,-0.000000,9770.718434
4019.713350,919.314598,-0.000000,9696.697840
4019.713666,995.924147,-518.144159,8808.450710
4019.713981,1149.143247,-962.267725,8438.347739
4019.714296,766.095498,-1036.288319,9178.553681
4019.714611,919.314598,-1258.350101,9178.553681
4019.714926,459.657299,-1036.288319,9104.533087
4019.715241,459.657299,-814.226536,9030.512492
4019.715556,383.047749,-518.144159,8882.471304
4019.715871,76.609550,-0.000000,8586.388927
4019.716187,-306.438199,444.123565,9030.512492
4019.716502,-383.047749,296.082377,9474.636058
4019.716817,-612.876398,222.061783,9474.636058
4019.717132,-1149.143247,222.061783,9992.780217
4019.717447,-995.924147,-0.000000,10732.986159
4019.717762,-1378.971896,-0.000000,11251.130318
4019.718077,-1225.752797,74.020594,11103.089130
4019.718392,-919.314598,-0.000000,10807.006753
4019.718707,-153.219100,370.102971,10436.903782
4019.719023,306.438199,296.082377,9770.718434
4019.719338,229.828649,444.123565,9844.739029
4019.719653,766.095498,296.082377,9548.656652
4019.719968,919.314598,444.123565,8438.347739
4019.720283,1378.971896,-0.000000,8364.327145
4019.720598,1302.362347,-0.000000,8734.430116
4019.720913,1378.971896,-296.082377,9400.615463
4019.721228,1149.143247,-370.102971,8734.430116
4019.721544,689.485948,-370.102971,9030.512492
4019.721859,689.485948,-0.000000,9030.512492
4019.722174,153.219100,222.061783,9030.512492
4019.722489,-459.657299,-0.000000,9178.553681
4019.722804,-612.876398,370.102971,9474.636058
4019.723119,-1072.533697,666.185348,9770.718434
4019.723434,-1455.581446,592.164754,10066.800811
4019.723749,-919.314598,740.205942,10436.903782
4019.724064,-1149.143247,1110.308913,11251.130318
4019.724380,-919.314598,1184.329507,10732.986159
4019.724695,-612.876398,962.267725,10288.862594
4019.725010,0.000000,1258.350101,10807.006753
4019.725325,612.876398,1036.288319,10362.883188
4019.725640,612.876398,1184.329507,9770.718434
4019.725955,459.657299,1036.288319,9474.636058
4019.726270,919.314598,814.226536,9178.553681
4019.726585,1455.581446,370.102971,8882.471304
4019.726901,1072.533697,-0.000000,9326.594869
4019.727216,766.095498,-666.185348,9252.574275
4019.727531,689.485948,-296.082377,9104.533087
4019.727846,383.047749,-222.061783,9030.512492
4019.728161,153.219100,-296.082377,9030.512492
4019.728476,0.000000,148.041188,9400.615463
4019.728791,-153.219100,518.144159,9622.677246
4019.729106,-612.876398,592.164754,9548.656652
4019.729421,-842.705048,888.247130,9548.656652
4019.729736,-689.485948,962.267725,9992.780217
4019.730051,-536.266849,888.247130,10362.883188
4019.730366,-842.705048,962.267725,10584.944971
4019.730681,-995.924147,814.226536,10807.006753
4019.730996,-689.485948,814.226536,10658.965565
4019.731311,0.000000,444.123565,10362.883188
4019.731626,153.219100,444.123565,10510.924376
4019.731941,459.657299,518.144159,9696.697840
4019.732256,536.266849,444.123565,9474.636058
4019.732571,842.705048,444.123565,9696.697840
4019.732886,1608.800546,-0.000000,8956.491898
4019.733202,1072.533697,-370.102971,8734.430116
4019.733517,995.924147,-444.123565,9030.512492
4019.733832,1072.533697,-592.164754,8586.388927
4019.734147,689.485948,-666.185348,8956.491898
4019.734462,1149.143247,-1036.288319,9474.636058
4019.734777,459.657299,-296.082377,9252.574275
4019.735092,153.219100,-74.020594,8882.471304
4019.735407,-153.219100,444.123565,8660.409521
4019.735722,-229.828649,296.082377,9548.656652
4019.736037,-383.047749,444.123565,9992.780217
4019.736352,-919.314598,444.123565,10066.800811
4019.736667,-842.705048,518.144159,10214.842000
4019.736982,-1149.143247,222.061783,10510.924376
4019.737297,-842.705048,296.082377,10510.924376
4019.737612,-766.095498,-0.000000,10658.965565
4019.737927,-383.047749,-0.000000,10214.842000
4019.738242,0.000000,-0.000000,9992.780217
4019.738557,0.000000,444.123565,9696.697840
4019.738872,459.657299,-0.000000,9474.636058
4019.739187,995.924147,148.041188,9400.615463
4019.739502,1149.143247,-444.123565,9252.574275
4019.739817,919.314598,-444.123565,8586.388927
4019.740132,1225.752797,-666.185348,8956.491898
4019.740447,842.705048,-740.205942,8808.450710
4019.740762,919.314598,-666.185348,8068.244768
4019.741078,995.924147,-370.102971,8882.471304
4019.741393,383.047749,-444.123565,9104.533087
4019.741708,0.000000,-0.000000,8956.491898
4019.742023,0.000000,-0.000000,9548.656652
4019.742338,-536.266849,-148.041188,9474.636058
4019.742653,-919.314598,148.041188,10140.821405
4019.742968,-995.924147,148.041188,10140.821405
4019.743283,-1149.143247,-0.000000,10807.006753
4019.743598,-1149.143247,370.102971,10881.027347
4019.743913,-459.657299,370.102971,10732.986159
4019.744228,-306.438199,296.082377,10510.924376
4019.744543,153.219100,444.123565,10288.862594
4019.744858,459.657299,666.185348,10066.800811
4019.745173,612.876398,444.123565,9622.677246
4019.745488,1378.971896,592.164754,9622.677246
4019.745803,1532.190996,296.082377,8956.491898
4019.746118,1455.581446,-0.000000,8438.347739
4019.746433,1378.971896,-296.082377,8882.471304
4019.746748,1149.143247,-370.102971,9030.512492
4019.747063,536.266849,-666.185348,8882.471304
4019.747378,689.485948,-370.102971,9104.533087
4019.747693,383.047749,-370.102971,9030.512492
4019.748008,0.000000,-0.000000,9252.574275
4019.748323,-306.438199,148.041188,9474.636058
4019.748638,-842.705048,370.102971,9474.636058
4019.748954,-919.314598,666.185348,10140.821405
4019.749269,-919.314598,1258.350101,10066.800811
4019.749584,-1149.143247,740.205942,10510.924376
4019.749899,-1225.752797,1036.288319,10881.027347
4019.750214,-459.657299,814.226536,10807.006753
4019.750529,-689.485948,740.205942,10732.986159
4019.750844,-153.219100,444.123565,10436.903782
4019.751159,383.047749,962.267725,10140.821405
4019.751474,306.438199,666.185348,9548.656652
4019.751789,1072.533697,-0.000000,9548.656652
4019.752104,995.924147,370.102971,9030.512492
4019.752419,1302.362347,-0.000000,8660.409521
4019.752734,1149.143247,-296.082377,8364.327145
4019.753049,1072.533697,-814.226536,8882.471304
4019.753364,1302.362347,-296.082377,9030.512492
4019.753679,842.705048,-518.144159,9178.553681
4019.753994,689.485948,-518.144159,9030.512492
4019.754309,76.609550,-0.000000,9104.533087
4019.754624,0.000000,222.061783,8956.491898
4019.754939,-383.047749,296.082377,9770.718434
4019.755254,-842.705048,518.144159,9622.677246
4019.755569,-612.876398,370.102971,10214.842000
4019.755884,-995.924147,814.226536,10436.903782
4019.756199,-1149.143247,814.226536,10881.027347
4019.756514,-1149.143247,888.247130,11029.068536
4019.756830,-766.095498,592.164754,10732.986159
4019.757145,0.000000,518.144159,10584.944971
4019.757460,459.657299,518.144159,10362.883188
4019.757775,153.219100,518.144159,9992.780217
4019.758090,76.609550,666.185348,9696.697840
4019.758405,612.876398,148.041188,9104.533087
4019.758720,1225.752797,-148.041188,8660.409521
4019.759035,1455.581446,-296.082377,8808.450710
4019.759350,1302.362347,-592.164754,8808.450710
4019.759665,766.095498,-888.247130,8882.471304
4019.759980,842.705048,-666.185348,8660.409521
4019.760295,766.095498,-592.164754,8142.265362
4019.760610,536.266849,-0.000000,9252.574275
4019.760925,76.609550,296.082377,8956.491898
4019.761240,-459.657299,148.041188,9178.553681
4019.761555,-842.705048,296.082377,9474.636058
4019.761870,-1072.533697,444.123565,9474.636058
4019.762185,-1149.143247,518.144159,10066.800811
4019.762500,-995.924147,148.041188,10732.986159
4019.762815,-1149.143247,148.041188,11103.089130
4019.763130,-1149.143247,370.102971,10955.047942
4019.763445,-766.095498,444.123565,10584.944971
4019.763760,-153.219100,444.123565,10362.883188
4019.764075,229.828649,370.102971,9918.759623
4019.764390,536.266849,444.123565,9548.656652
4019.764706,919.314598,-0.000000,9474.636058
4019.765021,1455.581446,-0.000000,9104.533087
4019.765336,1685.410096,-148.041188,8512.368333
4019.765651,1378.971896,-814.226536,8512.368333
4019.765966,1225.752797,-518.144159,8882.471304
4019.766281,919.314598,-666.185348,9104.533087
4019.766596,842.705048,-740.205942,8956.491898
4019.766911,842.705048,-518.144159,8956.491898
4019.767226,153.219100,-296.082377,9400.615463
4019.767541,-459.657299,74.020594,9178.553681
4019.767856,-229.828649,-0.000000,9474.636058
4019.768171,-612.876398,296.082377,9992.780217
4019.768486,-689.485948,296.082377,10362.883188
4019.768801,-1072.533697,592.164754,10584.944971
4019.769116,-995.924147,592.164754,10732.986159
4019.769431,-842.705048,666.185348,10658.965565
4019.769746,-536.266849,666.185348,10955.047942
4019.770061,-383.047749,740.205942,10436.903782
4019.770376,842.705048,518.144159,9918.759623
4019.770691,306.438199,740.205942,9696.697840
4019.771006,766.095498,-0.000000,9548.656652
4019.771321,995.924147,222.061783,9030.512492
4019.771636,1838.629195,-0.000000,8808.450710
4019.771951,842.705048,-296.082377,8734.430116
4019.772266,766.095498,-518.144159,8660.409521
4019.772582,766.095498,-814.226536,8438.347739
4019.772897,919.314598,-740.205942,8808.450710
4019.773212,689.485948,-740.205942,9030.512492
4019.773527,0.000000,-518.144159,9474.636058
4019.773842,0.000000,-0.000000,9030.512492
4019.774157,-459.657299,296.082377,9104.533087
4019.774472,-536.266849,518.144159,9548.656652
4019.774787,-919.314598,518.144159,9992.780217
4019.775102,-919.314598,888.247130,9918.759623
4019.775417,-919.314598,814.226536,10362.883188
4019.775732,-919.314598,518.144159,10881.027347
4019.776047,-842.705048,518.144159,11177.109724
4019.776362,-459.657299,444.123565,10658.965565
4019.776677,0.000000,444.123565,10214.842000
4019.776992,229.828649,518.144159,9918.759623
4019.777307,383.047749,222.061783,9474.636058
4019.777622,459.657299,222.061783,9548.656652
4019.777937,1149.143247,-0.000000,8956.491898
4019.778252,1225.752797,-0.000000,8882.471304
4019.778567,919.314598,-296.082377,8586.388927
4019.778882,919.314598,-444.123565,9104.533087
4019.779197,1072.533697,-592.164754,8808.450710
4019.779512,842.705048,-0.000000,8808.450710
4019.779827,536.266849,-0.000000,8882.471304
4019.780142,153.219100,-0.000000,9474.636058
4019.780458,229.828649,296.082377,9252.574275
4019.780773,-842.705048,222.061783,9474.636058
4019.781088,-1072.533697,740.205942,10140.821405
4019.781403,-1072.533697,666.185348,10732.986159
4019.781718,-1225.752797,592.164754,10807.006753
4019.782033,-1455.581446,592.164754,11325.150913
4019.782348,-1072.533697,444.123565,11177.109724
4019.782663,-995.924147,518.144159,10955.047942
4019.782978,-229.828649,666.185348,10140.821405
4019.783293,229.828649,444.123565,10214.842000
4019.783608,766.095498,296.082377,9770.718434
4019.783923,842.705048,888.247130,9178.553681
4019.784238,1072.533697,444.123565,8512.368333
4019.784553,1455.581446,148.041188,8438.347739
4019.784868,1608.800546,74.020594,8660.409521
4019.785183,1378.971896,-444.123565,8734.430116
4019.785498,1225.752797,-740.205942,9178.553681
4019.785813,536.266849,-1036.288319,8956.491898
4019.786128,459.657299,-814.226536,8734.430116
4019.786443,229.828649,-370.102971,9104.533087
4019.786758,383.047749,-222.061783,9030.512492
4019.787073,-612.876398,-0.000000,9474.636058
4019.787388,-229.828649,666.185348,9326.594869
4019.787703,-459.657299,740.205942,9770.718434
4019.788018,-612.876398,1110.308913,9992.780217
4019.788334,-766.095498,740.205942,10658.965565
4019.788649,-459.657299,740.205942,10436.903782
4019.788964,-612.876398,370.102971,10658.965565
4019.789279,0.000000,370.102971,10288.862594
4019.789594,76.609550,518.144159,10362.883188
4019.789909,153.219100,296.082377,10066.800811
4019.790224,306.438199,74.020594,9844.739029
4019.790539,536.266849,-148.041188,9400.615463
4019.790854,1072.533697,-444.123565,9178.553681
4019.791169,1455.581446,-592.164754,9326.594869
4019.791484,995.924147,-740.205942,8734.430116
4019.791799,689.485948,-592.164754,9030.512492
4019.792114,766.095498,-74.020594,8808.450710
4019.792429,766.095498,-74.020594,8438.347739
4019.792744,76.609550,-148.041188,9030.512492
4019.793059,229.828649,-0.000000,9326.594869
4019.793374,-306.438199,296.082377,9104.533087
4019.793689,-995.924147,444.123565,9696.697840
4019.794004,-1149.143247,370.102971,10214.842000
4019.794319,-766.095498,592.164754,10510.924376
4019.794634,-1072.533697,296.082377,10732.986159
4019.794949,-1149.143247,222.061783,11029.068536
4019.795264,-766.095498,370.102971,11029.068536
4019.795579,-229.828649,666.185348,10288.862594
4019.795894,612.876398,814.226536,9918.759623
4019.796209,383.047749,592.164754,9992.780217
4019.796525,689.485948,740.205942,9400.615463
4019.796840,1149.143247,370.102971,8882.471304
4019.797155,995.924147,-0.000000,8808.450710
4019.797470,1302.362347,-518.144159,8882.471304
4019.797785,1072.533697,-592.164754,8882.471304
4019.798100,383.047749,-962.267725,9030.512492
4019.798415,459.657299,-1036.288319,8956.491898
4019.798730,536.266849,-1110.308913,9252.574275
4019.799045,766.095498,-444.123565,9178.553681
4019.799360,229.828649,74.020594,9548.656652
4019.799675,-383.047749,518.144159,9252.574275
4019.799990,-383.047749,518.144159,9400.615463
4019.800305,-536.266849,740.205942,9252.574275
4019.800620,-689.485948,814.226536,10881.027347
4019.800935,-995.924147,814.226536,10436.903782
4019.801250,-1455.581446,592.164754,10510.924376
4019.801565,-919.314598,-0.000000,10955.047942
4019.801880,-689.485948,-0.000000,10807.006753
4019.802195,-153.219100,370.102971,10584.944971
4019.802510,153.219100,222.061783,10214.842000
4019.802825,229.828649,-0.000000,9992.780217
4019.803140,766.095498,222.061783,9326.594869
4019.803455,1225.752797,518.144159,8882.471304
4019.803770,1225.752797,370.102971,8290.306550
4019.804085,1302.362347,-74.020594,8364.327145
4019.804401,1608.800546,-148.041188,8660.409521
4019.804716,1302.362347,-370.102971,8512.368333
4019.805031,1149.143247,-370.102971,8882.471304
4019.805346,1378.971896,-296.082377,8586.388927
4019.805661,229.828649,-296.082377,8956.491898
4019.805976,0.000000,-0.000000,9104.533087
4019.806291,-689.485948,370.102971,9474.636058
4019.806606,-766.095498,222.061783,9622.677246
4019.806921,-612.876398,-0.000000,10140.821405
4019.807236,-995.924147,370.102971,10288.862594
4019.807551,-995.924147,666.185348,10510.924376
4019.807866,-995.924147,814.226536,10881.027347
4019.808181,-612.876398,518.144159,10881.027347
4019.808496,689.485948,370.102971,10214.842000
4019.808811,76.609550,518.144159,9696.697840
4019.809126,229.828649,666.185348,9548.656652
4019.809441,689.485948,592.164754,9178.553681
4019.809756,1072.533697,370.102971,9252.574275
4019.810071,995.924147,370.102971,9178.553681
4019.810386,995.924147,-222.061783,9104.533087
4019.810701,766.095498,-518.144159,8586.388927
4019.811016,612.876398,-1036.288319,8734.430116
4019.811331,766.095498,-666.185348,9622.677246
4019.811646,383.047749,-740.205942,9474.636058
4019.811961,536.266849,-0.000000,9326.594869
4019.812277,0.000000,-0.000000,9474.636058
4019.812592,-229.828649,518.144159,9474.636058
4019.812907,-612.876398,740.205942,9474.636058
4019.813222,-995.924147,1184.329507,9844.739029
4019.813537,-842.705048,888.247130,10510.924376
4019.813852,-1149.143247,888.247130,10732.986159
4019.814167,-1072.533697,814.226536,10807.006753
4019.814482,-1149.143247,666.185348,10955.047942
4019.814797,-766.095498,592.164754,11103.089130
4019.815112,-229.828649,-0.000000,10288.862594
4019.815427,153.219100,370.102971,9992.780217
4019.815742,229.828649,518.144159,9770.718434
4019.816057,766.095498,-0.000000,9326.594869
4019.816372,842.705048,222.061783,8734.430116
4019.816687,1455.581446,-148.041188,8512.368333
4019.817002,1302.362347,-74.020594,8438.347739
4019.817317,1225.752797,-740.205942,8808.450710
4019.817632,919.314598,-740.205942,8512.368333
4019.817947,995.924147,-592.164754,8660.409521
4019.818262,919.314598,-296.082377,8438.347739
4019.818577,306.438199,-0.000000,9178.553681
4019.818892,0.000000,-0.000000,9178.553681
4019.819207,-995.924147,-0.000000,9548.656652
4019.819522,-689.485948,296.082377,9622.677246
4019.819837,-842.705048,-0.000000,9918.759623
4019.820153,-766.095498,444.123565,10510.924376
4019.820468,-1149.143247,148.041188,10955.047942
4019.820783,-689.485948,666.185348,10584.944971
4019.821098,-459.657299,296.082377,11103.089130
4019.821413,229.828649,592.164754,9992.780217
4019.821728,459.657299,444.123565,9548.656652
4019.822043,995.924147,740.205942,9918.759623
4019.822358,919.314598,148.041188,9474.636058
4019.822673,1072.533697,296.082377,8956.491898
4019.822988,1149.143247,-222.061783,8660.409521
4019.823303,1149.143247,-666.185348,8956.491898
4019.823618,1149.143247,-666.185348,8956.491898
4019.823933,689.485948,-444.123565,8956.491898
4019.824248,383.047749,-370.102971,9326.594869
4019.824563,229.828649,-370.102971,9030.512492
4019.824878,153.219100,-0.000000,9030.512492
4019.825193,0.000000,148.041188,9252.574275
4019.825508,-459.657299,444.123565,9400.615463
4019.825823,-766.095498,666.185348,9474.636058
4019.826138,-995.924147,814.226536,9622.677246
4019.826453,-1072.533697,888.247130,10658.965565
4019.826768,-1302.362347,814.226536,10807.006753
4019.827083,-1225.752797,444.123565,10881.027347
4019.827398,-1302.362347,518.144159,10955.047942
4019.827713,-766.095498,592.164754,10362.883188
4019.828029,0.000000,592.164754,10362.883188
4019.828344,0.000000,296.082377,9918.759623
4019.828659,306.438199,296.082377,9178.553681
4019.828974,612.876398,370.102971,8882.471304
4019.829289,995.924147,-0.000000,8882.471304
4019.829604,2068.457845,-74.020594,8956.491898
4019.829919,1378.971896,-888.247130,8364.327145
4019.830234,919.314598,-444.123565,8734.430116
4019.830549,306.438199,-740.205942,8660.409521
4019.830864,689.485948,-666.185348,9474.636058
4019.831179,689.485948,-296.082377,9104.533087
4019.831494,0.000000,-370.102971,9548.656652
4019.831809,0.000000,-0.000000,9696.697840
4019.832124,-995.924147,148.041188,9622.677246
4019.832439,-689.485948,592.164754,9770.718434
4019.832755,-383.047749,370.102971,10362.883188
4019.833070,-842.705048,518.144159,10807.006753
4019.833385,-1149.143247,370.102971,10881.027347
4019.833700,-766.095498,296.082377,11029.068536
4019.834015,-306.438199,296.082377,10807.006753
4019.834330,536.266849,518.144159,10288.862594
4019.834645,766.095498,740.205942,9918.759623
4019.834960,919.314598,666.185348,9548.656652
4019.835275,919.314598,296.082377,9622.677246
4019.835590,1455.581446,296.082377,8734.430116
4019.835905,1378.971896,-222.061783,8660.409521
4019.836220,995.924147,-296.082377,8734.430116
4019.836535,1149.143247,-296.082377,8956.491898
4019.836850,689.485948,-592.164754,8734.430116
4019.837165,229.828649,-814.226536,8734.430116
4019.837481,689.485948,-592.164754,9030.512492
4019.837796,229.828649,-296.082377,9104.533087
4019.838111,76.609550,-0.000000,9030.512492
4019.838426,-459.657299,814.226536,9326.594869
4019.838741,-536.266849,666.185348,9400.615463
4019.839056,-689.485948,740.205942,9548.656652
4019.839371,-612.876398,666.185348,9918.759623
4019.839686,-995.924147,518.144159,10140.821405
4019.840001,-766.095498,518.144159,10732.986159
4019.840316,-689.485948,444.123565,10214.842000
4019.840631,0.000000,370.102971,10214.842000
4019.840946,153.219100,444.123565,9696.697840
4019.841261,229.828649,444.123565,9548.656652
4019.841576,842.705048,-0.000000,9326.594869
4019.841892,995.924147,-0.000000,9252.574275
4019.842207,1225.752797,-148.041188,8660.409521
4019.842522,1532.190996,-370.102971,9030.512492
4019.842837,842.705048,-222.061783,8808.450710
4019.843152,1072.533697,-444.123565,8808.450710
4019.843467,1072.533697,-444.123565,9252.574275
4019.843782,1149.143247,-370.102971,9326.594869
4019.844097,306.438199,-74.020594,9178.553681
4019.844412,0.000000,222.061783,9474.636058
4019.844727,-459.657299,-0.000000,9770.718434
4019.845042,-1072.533697,370.102971,10066.800811
4019.845357,-1149.143247,666.185348,10140.821405
4019.845672,-1149.143247,444.123565,10732.986159
4019.845987,-1072.533697,592.164754,10881.027347
4019.846303,-1378.971896,518.144159,11103.089130
4019.846618,-1225.752797,370.102971,11251.130318
4019.846933,-689.485948,592.164754,10658.965565
4019.847248,0.000000,370.102971,10214.842000
4019.847563,153.219100,592.164754,9992.780217
4019.847878,689.485948,888.247130,9844.739029
4019.848193,689.485948,370.102971,9104.533087
4019.848508,919.314598,222.061783,8734.430116
4019.848823,1225.752797,-0.000000,8808.450710
4019.849138,995.924147,-148.041188,8660.409521
4019.849453,766.095498,-1036.288319,8512.368333
4019.849768,919.314598,-666.185348,8734.430116
4019.850083,612.876398,-592.164754,9104.533087
4019.850398,459.657299,-592.164754,8808.450710
4019.850713,383.047749,-0.000000,8882.471304
4019.851029,0.000000,444.123565,9252.574275
4019.851344,-383.047749,518.144159,9326.594869
4019.851659,-306.438199,814.226536,9252.574275
4019.851974,-766.095498,666.185348,9548.656652
4019.852289,-919.314598,740.205942,9844.739029
4019.852604,-612.876398,1110.308913,10510.924376
4019.852919,-1072.533697,814.226536,10584.944971
4019.853234,-459.657299,-0.000000,10510.924376
4019.853549,-153.219100,370.102971,10288.862594
4019.853864,229.828649,518.144159,9548.656652
4019.854179,536.266849,666.185348,9770.718434
4019.854494,689.485948,518.144159,9548.656652
4019.854809,1072.533697,370.102971,9178.553681
4019.855124,1149.143247,148.041188,8512.368333
4019.855440,1378.971896,-0.000000,8734.430116
4019.855755,995.924147,-0.000000,9178.553681
4019.856070,766.095498,-296.082377,9326.594869
4019.856385,459.657299,-370.102971,9326.594869
4019.856700,306.438199,-148.041188,9252.574275
4019.857015,306.438199,-148.041188,9400.615463
4019.857330,-459.657299,296.082377,9622.677246
4019.857645,-383.047749,444.123565,9548.656652
4019.857960,-612.876398,592.164754,9844.739029
4019.858275,-536.266849,666.185348,10140.821405
4019.858590,-1378.971896,518.144159,10732.986159
4019.858905,-919.314598,666.185348,10658.965565
4019.859220,-766.095498,370.102971,10510.924376
4019.859535,-459.657299,592.164754,10436.903782
4019.859851,0.000000,814.226536,10066.800811
4019.860166,459.657299,592.164754,10140.821405
4019.860481,153.219100,444.123565,9474.636058
4019.860796,536.266849,444.123565,9252.574275
4019.861111,536.266849,-0.000000,9030.512492
4019.861426,1532.190996,-0.000000,8512.368333
4019.861741,842.705048,-592.164754,9326.594869
4019.862056,1149.143247,-518.144159,9326.594869
4019.862371,612.876398,-1036.288319,9178.553681
4019.862686,536.266849,-814.226536,9178.553681
4019.863001,306.438199,-740.205942,9030.512492
4019.863316,383.047749,-0.000000,9252.574275
4019.863631,229.828649,370.102971,9326.594869
4019.863946,-306.438199,444.123565,9178.553681
4019.864261,-536.266849,444.123565,9104.533087
4019.864577,-842.705048,962.267725,9474.636058
4019.864892,-612.876398,666.185348,9770.718434
4019.865207,-1532.190996,370.102971,10362.883188
4019.865522,-1072.533697,296.082377,11103.089130
4019.865837,-1378.971896,222.061783,10732.986159
4019.866152,-766.095498,-74.020594,10732.986159
4019.866467,-459.657299,-0.000000,10510.924376
4019.866782,-229.828649,-0.000000,10214.842000
4019.867097,0.000000,-0.000000,9844.739029
4019.867412,459.657299,-0.000000,9548.656652
4019.867727,1072.533697,222.061783,9104.533087
4019.868042,1532.190996,-0.000000,8734.430116
4019.868357,1608.800546,-296.082377,8956.491898
4019.868672,1149.143247,-518.144159,8734.430116
4019.868988,995.924147,-444.123565,9030.512492
4019.869303,1072.533697,-666.185348,8882.471304
4019.869618,995.924147,-592.164754,9104.533087
4019.869933,536.266849,-296.082377,8882.471304
4019.870248,0.000000,-148.041188,9030.512492
4019.870563,-766.095498,-0.000000,9696.697840
4019.870878,-1149.143247,-0.000000,9992.780217
4019.871193,-1072.533697,-0.000000,10066.800811
4019.871508,-919.314598,-0.000000,10066.800811
4019.871823,-1302.362347,-0.000000,10510.924376
4019.872138,-919.314598,-0.000000,10362.883188
4019.872453,-689.485948,-0.000000,10658.965565
4019.872768,0.000000,-0.000000,10584.944971
4019.873083,612.876398,592.164754,9844.739029
4019.873399,1225.752797,740.205942,9400.615463
4019.873714,919.314598,740.205942,9030.512492
4019.874029,1149.143247,444.123565,9252.574275
4019.874344,1532.190996,-0.000000,8882.471304
4019.874659,1608.800546,-444.123565,8882.471304
4019.874974,1072.533697,-444.123565,9030.512492
4019.875289,1072.533697,-518.144159,9030.512492
4019.875604,842.705048,-962.267725,8660.409521
4019.875919,689.485948,-444.123565,9326.594869
4019.876234,536.266849,-148.041188,9400.615463
4019.876549,919.314598,148.041188,9104.533087
4019.876864,-229.828649,740.205942,9030.512492
4019.877179,-612.876398,666.185348,9474.636058
4019.877494,-689.485948,814.226536,9918.759623
4019.877810,-919.314598,888.247130,10362.883188
4019.878125,-689.485948,888.247130,10807.006753
4019.878440,-766.095498,888.247130,10955.047942
4019.878755,-766.095498,666.185348,11029.068536
4019.879070,-459.657299,740.205942,10955.047942
4019.879385,-229.828649,518.144159,10807.006753
4019.879700,0.000000,370.102971,10288.862594
4019.880015,536.266849,518.144159,9918.759623
4019.880330,766.095498,444.123565,9400.615463
4019.880645,919.314598,296.082377,9030.512492
4019.880960,1532.190996,-0.000000,8808.450710
4019.881275,1991.848295,-444.123565,8438.347739
4019.881590,919.314598,-518.144159,9104.533087
4019.881905,536.266849,-666.185348,8808.450710
4019.882220,306.438199,-592.164754,9030.512492
4019.882536,459.657299,-592.164754,9252.574275
4019.882851,-306.438199,222.061783,8808.450710
4019.883166,-229.828649,-0.000000,9622.677246
4019.883481,-612.876398,148.041188,10066.800811
4019.883796,-995.924147,814.226536,9770.718434
4019.884111,-842.705048,592.164754,10214.842000
4019.884426,-612.876398,518.144159,10066.800811
4019.884741,-919.314598,888.247130,10955.047942
4019.885056,-919.314598,592.164754,10510.924376
4019.885371,-612.876398,740.205942,10214.842000
4019.885686,0.000000,888.247130,9844.739029
4019.886001,306.438199,814.226536,9696.697840
4019.886316,306.438199,518.144159,9770.718434
4019.886631,153.219100,370.102971,9400.615463
4019.886947,612.876398,-74.020594,9030.512492
4019.887262,689.485948,-444.123565,8660.409521
4019.887577,1608.800546,-740.205942,8956.491898
4019.887892,1149.143247,-814.226536,8808.450710
4019.888207,612.876398,-740.205942,9178.553681
4019.888522,842.705048,-814.226536,9178.553681
4019.888837,689.485948,-222.061783,8808.450710
4019.889152,536.266849,-0.000000,9030.512492
4019.889467,76.609550,740.205942,8882.471304
4019.889782,0.000000,666.185348,9178.553681
4019.890097,-536.266849,740.205942,9770.718434
4019.890412,-689.485948,296.082377,9992.780217
4019.890727,-995.924147,-0.000000,10362.883188
4019.891042,-1608.800546,-0.000000,10881.027347
4019.891358,-1532.190996,-0.000000,11325.150913
4019.891673,-1455.581446,-0.000000,10955.047942
4019.891988,-766.095498,296.082377,10807.006753
4019.892303,-153.219100,-0.000000,10584.944971
4019.892618,459.657299,444.123565,10140.821405
4019.892933,536.266849,666.185348,9474.636058
4019.893248,995.924147,592.164754,9030.512492
4019.893563,1762.019645,518.144159,8512.368333
4019.893878,1915.238745,-74.020594,8438.347739
4019.894193,1991.848295,-444.123565,8364.327145
4019.894508,1225.752797,-592.164754,8808.450710
4019.894823,1149.143247,-592.164754,8808.450710
4019.895138,995.924147,-666.185348,8956.491898
4019.895453,612.876398,-222.061783,9400.615463
4019.895768,0.000000,-0.000000,9548.656652
4019.896084,-383.047749,-148.041188,9326.594869
4019.896399,-612.876398,444.123565,9622.677246
4019.896714,-766.095498,592.164754,9474.636058
4019.897029,-229.828649,-0.000000,10214.842000
4019.897344,-689.485948,814.226536,10510.924376
4019.897659,-919.314598,740.205942,10881.027347
4019.897974,-842.705048,1036.288319,10436.903782
4019.898289,0.000000,1036.288319,10362.883188
4019.898604,383.047749,888.247130,9992.780217
4019.898919,536.266849,814.226536,10214.842000
4019.899234,459.657299,814.226536,9770.718434
4019.899549,689.485948,-0.000000,9400.615463
4019.899864,1225.752797,-0.000000,9104.533087
4019.900179,1072.533697,-666.185348,8660.409521
4019.900495,1225.752797,-370.102971,8734.430116
4019.900810,459.657299,-814.226536,9252.574275
4019.901125,689.485948,-888.247130,9178.553681
4019.901440,766.095498,-888.247130,8882.471304
4019.901755,612.876398,-370.102971,9104.533087
4019.902070,459.657299,-74.020594,9104.533087
4019.902385,0.000000,370.102971,8808.450710
4019.902700,-306.438199,666.185348,9104.533087
4019.903015,-229.828649,296.082377,9696.697840
4019.903330,-1302.362347,518.144159,9992.780217
4019.903645,-689.485948,962.267725,10436.903782
4019.903960,-1302.362347,666.185348,10807.006753
4019.904275,-995.924147,444.123565,10732.986159
4019.904590,-995.924147,296.082377,10732.986159
4019.904906,-536.266849,-0.000000,10807.006753
4019.905221,0.000000,296.082377,10362.883188
4019.905536,0.000000,444.123565,9770.718434
4019.905851,536.266849,518.144159,9326.594869
4019.906166,1072.533697,518.144159,9326.594869
4019.906481,995.924147,148.041188,9030.512492
4019.906796,1685.410096,-222.061783,8586.388927
4019.907111,1302.362347,-296.082377,8438.347739
4019.907426,1149.143247,-148.041188,8734.430116
4019.907741,919.314598,-74.020594,8882.471304
4019.908056,689.485948,-370.102971,9030.512492
4019.908371,459.657299,-296.082377,8808.450710
4019.908686,0.000000,-0.000000,8882.471304
4019.909001,-306.438199,222.061783,9400.615463
4019.909316,-1072.533697,370.102971,9918.759623
4019.909632,-1149.143247,518.144159,10140.821405
4019.909947,-766.095498,370.102971,10140.821405
4019.910262,-1302.362347,814.226536,10584.944971
4019.910577,-919.314598,740.205942,10955.047942
4019.910892,-689.485948,666.185348,10955.047942
4019.911207,-306.438199,222.061783,10214.842000
4019.911522,0.000000,222.061783,10140.821405
4019.911837,459.657299,148.041188,9548.656652
4019.912152,459.657299,444.123565,9474.636058
4019.912467,1072.533697,-0.000000,9548.656652
4019.912782,1149.143247,-0.000000,8956.491898
4019.913097,1225.752797,-444.123565,8512.368333
4019.913412,1225.752797,-222.061783,8734.430116
4019.913727,1149.143247,-592.164754,9104.533087
4019.914043,689.485948,-814.226536,9252.574275
4019.914358,842.705048,-740.205942,9104.533087
4019.914673,612.876398,-518.144159,8808.450710
4019.914988,459.657299,-148.041188,9104.533087
4019.915303,0.000000,296.082377,9030.512492
4019.915618,0.000000,-0.000000,9696.697840
4019.915933,-842.705048,592.164754,9622.677246
4019.916248,-459.657299,592.164754,9770.718434
4019.916563,-842.705048,814.226536,10288.862594
4019.916878,-842.705048,518.144159,10881.027347
4019.917193,-919.314598,296.082377,11029.068536
4019.917508,-842.705048,222.061783,10658.965565
4019.917823,0.000000,370.102971,10362.883188
4019.918138,229.828649,666.185348,10362.883188
4019.918454,-536.266849,370.102971,9918.759623
4019.918769,-76.609550,370.102971,9548.656652
4019.919084,1072.533697,592.164754,9030.512492
4019.919399,1532.190996,370.102971,8660.409521
4019.919714,1225.752797,-0.000000,8586.388927
4019.920029,1302.362347,-148.041188,8808.450710
4019.920344,919.314598,-148.041188,8882.471304
4019.920659,689.485948,-148.041188,8808.450710
4019.920974,536.266849,-370.102971,8882.471304
4019.921289,0.000000,-148.041188,9474.636058
4019.921604,-306.438199,222.061783,9474.636058
4019.921919,-766.095498,-0.000000,9844.739029
4019.922234,-1072.533697,518.144159,9770.718434
4019.922549,-1302.362347,444.123565,10288.862594
4019.922865,-1225.752797,222.061783,10066.800811
4019.923180,-1225.752797,296.082377,10732.986159
4019.923495,-1455.581446,888.247130,11103.089130
4019.923810,-1149.143247,962.267725,10436.903782
4019.924125,-536.266849,1036.288319,10214.842000
4019.924440,459.657299,814.226536,9696.697840
4019.924755,306.438199,592.164754,9844.739029
4019.925070,536.266849,444.123565,9400.615463
4019.925385,612.876398,-0.000000,8956.491898
4019.925700,1149.143247,148.041188,9178.553681
4019.926015,1225.752797,-666.185348,9030.512492
4019.926330,842.705048,-444.123565,9178.553681
4019.926645,842.705048,-666.185348,9326.594869
4019.926960,536.266849,-740.205942,9178.553681
4019.927275,689.485948,-518.144159,9326.594869
4019.927591,842.705048,-148.041188,9104.533087
4019.927906,383.047749,-0.000000,9104.533087
4019.928221,0.000000,518.144159,8808.450710
4019.928536,-306.438199,740.205942,9474.636058
4019.928851,-612.876398,962.267725,9474.636058
4019.929166,-383.047749,888.247130,9918.759623
4019.929481,-766.095498,666.185348,10584.944971
4019.929796,-1378.971896,370.102971,10510.924376
4019.930111,-995.924147,518.144159,11251.130318
4019.930426,-766.095498,-0.000000,10881.027347
4019.930741,0.000000,-0.000000,10140.821405
4019.931056,306.438199,296.082377,10584.944971
4019.931371,919.314598,222.061783,9326.594869
4019.931686,842.705048,222.061783,9104.533087
4019.932001,1685.410096,888.247130,9030.512492
4019.932317,1991.848295,-0.000000,8364.327145
4019.932632,1608.800546,-444.123565,8586.388927
4019.932947,919.314598,-518.144159,8660.409521
4019.933262,1302.362347,-740.205942,8586.388927
4019.933577,995.924147,-1184.329507,8660.409521
4019.933892,612.876398,-666.185348,8882.471304
4019.934207,229.828649,-74.020594,9326.594869
4019.934522,0.000000,148.041188,9030.512492
4019.934837,-689.485948,-0.000000,9474.636058
4019.935152,-766.095498,148.041188,9622.677246
4019.935467,-995.924147,296.082377,10140.821405
4019.935782,-995.924147,666.185348,10362.883188
4019.936097,-842.705048,518.144159,10288.862594
4019.936412,-689.485948,592.164754,10881.027347
4019.936727,-536.266849,518.144159,10584.944971
4019.937042,-229.828649,296.082377,10214.842000
4019.937357,612.876398,148.041188,9992.780217
4019.937673,536.266849,518.144159,9548.656652
4019.937988,383.047749,222.061783,9548.656652
4019.938303,766.095498,444.123565,9548.656652
4019.938618,1149.143247,-148.041188,8956.491898
4019.938933,1225.752797,-370.102971,8882.471304
4019.939248,919.314598,-518.144159,9104.533087
4019.939563,689.485948,-592.164754,9178.553681
4019.939878,612.876398,-370.102971,8882.471304
4019.940193,919.314598,-74.020594,9178.553681
4019.940508,306.438199,-0.000000,9030.512492
4019.940823,0.000000,222.061783,8882.471304
4019.941138,-612.876398,518.144159,9400.615463
4019.941453,-766.095498,666.185348,9770.718434
4019.941768,-995.924147,814.226536,10140.821405
4019.942083,-1225.752797,666.185348,10214.842000
4019.942398,-1455.581446,740.205942,10732.986159
4019.942714,-1455.581446,666.185348,11103.089130
4019.943029,-1455.581446,518.144159,11103.089130
4019.943344,-842.705048,444.123565,11103.089130
4019.943659,-306.438199,666.185348,10658.965565
4019.943974,153.219100,518.144159,9992.780217
4019.944289,383.047749,296.082377,9178.553681
4019.944604,842.705048,444.123565,8882.471304
4019.944919,1149.143247,444.123565,9104.533087
4019.945234,1149.143247,-74.020594,8808.450710
4019.945549,1225.752797,-222.061783,8364.327145
4019.945864,1072.533697,-518.144159,8882.471304
4019.946179,995.924147,-666.185348,9104.533087
4019.946494,766.095498,-814.226536,9252.574275
4019.946809,689.485948,-666.185348,8660.409521
4019.947124,229.828649,-296.082377,9326.594869
4019.947439,0.000000,-0.000000,9178.553681
4019.947754,-459.657299,-0.000000,9622.677246
4019.948070,0.000000,592.164754,10066.800811
4019.948385,-689.485948,666.185348,9992.780217
4019.948700,-612.876398,814.226536,10362.883188
4019.949015,-766.095498,592.164754,10584.944971
4019.949330,-459.657299,518.144159,10658.965565
4019.949645,-536.266849,222.061783,10288.862594
4019.949960,0.000000,-0.000000,10066.800811
4019.950275,383.047749,444.123565,9918.759623
4019.950590,689.485948,370.102971,9770.718434
4019.950905,689.485948,-0.000000,9696.697840
4019.951220,919.314598,-0.000000,8882.471304
4019.951535,1302.362347,-444.123565,8808.450710
4019.951850,1378.971896,-222.061783,8734.430116
4019.952165,1225.752797,-370.102971,8882.471304
4019.952480,1149.143247,-518.144159,9474.636058
4019.952795,1302.362347,-814.226536,8808.450710
4019.953111,842.705048,-296.082377,8290.306550
4019.953426,536.266849,370.102971,9030.512492
4019.953741,-383.047749,666.185348,8734.430116
4019.954056,-536.266849,370.102971,9104.533087
4019.954371,-1225.752797,222.061783,9622.677246
4019.954686,-1072.533697,-0.000000,9770.718434
4019.955001,-1378.971896,222.061783,10214.842000
4019.955316,-1378.971896,-0.000000,10658.965565
4019.955631,-1608.800546,222.061783,11621.233289
4019.955946,-1225.752797,222.061783,10955.047942
4019.956261,-766.095498,-0.000000,10066.800811
4019.956576,153.219100,444.123565,9696.697840
4019.956891,459.657299,592.164754,9474.636058
4019.957206,612.876398,740.205942,9178.553681
4019.957521,612.876398,592.164754,8882.471304
4019.957836,1225.752797,370.102971,8808.450710
4019.958151,1455.581446,-148.041188,8660.409521
4019.958467,919.314598,-814.226536,9326.594869
4019.958782,612.876398,-740.205942,9474.636058
4019.959097,459.657299,-888.247130,9252.574275
4019.959412,459.657299,-740.205942,9400.615463
4019.959727,612.876398,-592.164754,9474.636058
4019.960042,153.219100,-0.000000,9474.636058
4019.960357,-459.657299,370.102971,9474.636058
4019.960672,-229.828649,666.185348,9400.615463
4019.960987,-612.876398,1184.329507,9992.780217
4019.961302,-383.047749,1110.308913,10214.842000
4019.961617,-536.266849,962.267725,10140.821405
4019.961932,-766.095498,962.267725,10881.027347
4019.962247,-995.924147,666.185348,10732.986159
4019.962562,-459.657299,592.164754,10584.944971
4019.962877,-229.828649,296.082377,10214.842000
4019.963192,383.047749,-0.000000,10362.883188
4019.963508,153.219100,296.082377,9696.697840
4019.963823,383.047749,-0.000000,9326.594869
4019.964138,1072.533697,296.082377,9474.636058
4019.964453,1608.800546,-222.061783,9104.533087
4019.964768,1762.019645,-74.020594,9104.533087
4019.965083,1455.581446,-444.123565,8808.450710
4019.965398,1378.971896,-296.082377,8586.388927
4019.965713,1302.362347,-370.102971,8882.471304
4019.966028,1149.143247,-222.061783,8586.388927
4019.966343,766.095498,-148.041188,8660.409521
4019.966658,306.438199,-0.000000,8882.471304
4019.966973,-153.219100,296.082377,9104.533087
4019.967288,-612.876398,444.123565,9400.615463
4019.967603,-689.485948,-74.020594,9918.759623
4019.967918,-919.314598,-0.000000,10362.883188
4019.968233,-1072.533697,-0.000000,10584.944971
4019.968549,-995.924147,-0.000000,10732.986159
4019.968864,-766.095498,-0.000000,10584.944971
4019.969179,0.000000,-0.000000,10214.842000
4019.969494,383.047749,-222.061783,10140.821405
4019.969809,536.266849,296.082377,9474.636058
4019.970124,612.876398,370.102971,9548.656652
4019.970439,766.095498,148.041188,9252.574275
4019.970754,1302.362347,-74.020594,8512.368333
4019.971069,1608.800546,-222.061783,8586.388927
4019.971384,919.314598,-444.123565,8512.368333
4019.971699,689.485948,-740.205942,9178.553681
4019.972014,612.876398,-666.185348,9178.553681
4019.972329,153.219100,-666.185348,9326.594869
4019.972644,76.609550,-370.102971,9178.553681
4019.972959,0.000000,-0.000000,9030.512492
4019.973274,-766.095498,370.102971,9326.594869
4019.973589,-1149.143247,518.144159,9622.677246
4019.973905,-1072.533697,-0.000000,10140.821405
4019.974220,-1302.362347,740.205942,10288.862594
4019.974535,-1378.971896,814.226536,10288.862594
4019.974850,-1378.971896,814.226536,10807.006753
4019.975165,-1149.143247,814.226536,11177.109724
4019.975480,-536.266849,518.144159,10732.986159
4019.975795,-76.609550,814.226536,10436.903782
4019.976110,383.047749,592.164754,10066.800811
4019.976425,612.876398,814.226536,9474.636058
4019.976740,842.705048,370.102971,9104.533087
4019.977055,995.924147,-148.041188,8956.491898
4019.977370,919.314598,-222.061783,8808.450710
4019.977685,995.924147,-296.082377,8660.409521
4019.978000,1072.533697,-666.185348,8808.450710
4019.978315,536.266849,-814.226536,8956.491898
4019.978630,842.705048,-518.144159,9178.553681
4019.978946,76.609550,-370.102971,9030.512492
4019.979261,229.828649,-222.061783,9326.594869
4019.979576,0.000000,592.164754,9104.533087
4019.979891,-536.266849,-0.000000,9474.636058
4019.980206,-766.095498,740.205942,9696.697840
4019.980521,-306.438199,444.123565,10066.800811
4019.980836,-1072.533697,666.185348,10732.986159
4019.981151,-842.705048,666.185348,11177.109724
4019.981466,-689.485948,444.123565,11103.089130
4019.981781,-612.876398,592.164754,10658.965565
4019.982096,0.000000,518.144159,9918.759623
4019.982411,536.266849,666.185348,10140.821405
4019.982726,842.705048,666.185348,9622.677246
4019.983041,1149.143247,592.164754,9474.636058
4019.983356,1149.143247,518.144159,8882.471304
4019.983671,1532.190996,-0.000000,8438.347739
4019.983986,1532.190996,-0.000000,8660.409521
4019.984302,1455.581446,-148.041188,8734.430116
4019.984617,1225.752797,-592.164754,9178.553681
4019.984932,1302.362347,-444.123565,9030.512492
4019.985247,842.705048,-444.123565,8512.368333
4019.985562,689.485948,296.082377,8882.471304
4019.985877,0.000000,370.102971,8808.450710
4019.986192,-383.047749,444.123565,9622.677246
4019.986507,-766.095498,666.185348,9326.594869
4019.986822,-689.485948,518.144159,9474.636058
4019.987137,-919.314598,740.205942,9844.739029
4019.987452,-766.095498,814.226536,10214.842000
4019.987767,-995.924147,370.102971,10807.006753
4019.988082,-995.924147,296.082377,10140.821405
4019.988397,-536.266849,370.102971,9992.780217
4019.988712,229.828649,370.102971,9474.636058
4019.989027,306.438199,222.061783,9474.636058
4019.989343,153.219100,148.041188,9548.656652
4019.989658,536.266849,-74.020594,9178.553681
4019.989973,766.095498,-222.061783,9326.594869
4019.990288,995.924147,-370.102971,8586.388927
4019.990603,919.314598,-518.144159,9252.574275
4019.990918,612.876398,-814.226536,9400.615463
4019.991233,153.219100,-740.205942,9326.594869
4019.991548,153.219100,-740.205942,9252.574275
4019.991863,383.047749,-0.000000,9104.533087
4019.992178,0.000000,-0.000000,9178.553681
4019.992493,-229.828649,518.144159,9252.574275
4019.992808,-383.047749,666.185348,9252.574275
4019.993123,-995.924147,740.205942,10214.842000
4019.993438,-919.314598,518.144159,10658.965565
4019.993753,-1149.143247,666.185348,10807.006753
4019.994068,-1149.143247,370.102971,10955.047942
4019.994383,-1072.533697,370.102971,10807.006753
4019.994699,-536.266849,370.102971,10881.027347
4019.995014,0.000000,592.164754,10288.862594
4019.995329,306.438199,296.082377,10140.821405
4019.995644,536.266849,740.205942,9622.677246
4019.995959,766.095498,518.144159,9252.574275
4019.996274,1225.752797,518.144159,8882.471304
4019.996589,1532.190996,296.082377,8808.450710
4019.996904,1685.410096,-148.041188,8364.327145
4019.997219,842.705048,-592.164754,9030.512492
4019.997534,689.485948,-666.185348,9030.512492
4019.997849,459.657299,-1110.308913,9104.533087
4019.998164,383.047749,-518.144159,9474.636058
4019.998479,0.000000,-296.082377,9696.697840
4019.998794,-383.047749,222.061783,9326.594869
4019.999109,-995.924147,-0.000000,9696.697840
4019.999424,-612.876398,814.226536,9548.656652
4019.999740,-459.657299,222.061783,9844.739029
4020.000055,-306.438199,666.185348,10140.821405
4020.000370,-459.657299,518.144159,10510.924376
4020.000685,0.000000,222.061783,10584.944971
4020.001000,0.000000,666.185348,10066.800811
4020.001315,612.876398,-0.000000,9548.656652
4020.001630,612.876398,-0.000000,9844.739029
4020.001945,536.266849,-0.000000,9474.636058
4020.002260,1072.533697,-518.144159,9474.636058
4020.002575,995.924147,-222.061783,9326.594869
4020.002890,1302.362347,-518.144159,9326.594869
4020.003205,1378.971896,-370.102971,9178.553681
4020.003520,1378.971896,-592.164754,8808.450710
4020.003835,995.924147,-888.247130,9326.594869
4020.004150,995.924147,-444.123565,9474.636058
4020.004465,842.705048,-74.020594,9400.615463
4020.004780,689.485948,222.061783,8956.491898
4020.005096,306.438199,444.123565,8956.491898
4020.005411,-229.828649,962.267725,9474.636058
4020.005726,-306.438199,444.123565,9622.677246
4020.006041,-842.705048,444.123565,9992.780217
4020.006356,-1072.533697,444.123565,10436.903782
4020.006671,-1532.190996,962.267725,10362.883188
4020.006986,-1455.581446,296.082377,10807.006753
4020.007301,-1378.971896,222.061783,10881.027347
4020.007616,-1302.362347,296.082377,10807.006753
4020.007931,-383.047749,518.144159,9992.780217
4020.008246,76.609550,518.144159,9622.677246
4020.008561,153.219100,888.247130,9326.594869
4020.008876,459.657299,370.102971,9104.533087
4020.009191,1149.143247,592.164754,8734.430116
4020.009506,1225.752797,-0.000000,8512.368333
4020.009821,1149.143247,148.041188,8660.409521
4020.010137,1072.533697,-296.082377,9178.553681
4020.010452,689.485948,-518.144159,8882.471304
4020.010767,306.438199,-370.102971,9030.512492
4020.011082,229.828649,-370.102971,9548.656652
4020.011397,0.000000,-444.123565,10140.821405
4020.011712,-612.876398,148.041188,9622.677246
4020.012027,-1072.533697,296.082377,9696.697840
4020.012342,-1149.143247,518.144159,9918.759623
4020.012657,-842.705048,296.082377,10140.821405
4020.012972,-536.266849,592.164754,10807.006753
4020.013287,-842.705048,888.247130,10881.027347
4020.013602,-536.266849,666.185348,10658.965565
4020.013917,-612.876398,592.164754,10658.965565
4020.014232,76.609550,592.164754,10140.821405
4020.014547,306.438199,370.102971,9992.780217
4020.014862,536.266849,592.164754,9992.780217
4020.015177,612.876398,296.082377,9992.780217
4020.015493,766.095498,-0.000000,9400.615463
4020.015808,1532.190996,-370.102971,9400.615463
4020.016123,1149.143247,-814.226536,9178.553681
4020.016438,766.095498,-888.247130,9400.615463
4020.016753,612.876398,-1036.288319,9474.636058
4020.017068,612.876398,-740.205942,9252.574275
4020.017383,689.485948,-74.020594,9252.574275
4020.017698,383.047749,-0.000000,8956.491898
4020.018013,0.000000,592.164754,9104.533087
4020.018328,-229.828649,518.144159,9400.615463
4020.018643,-612.876398,222.061783,9104.533087
4020.018958,-689.485948,222.061783,9474.636058
4020.019273,-842.705048,444.123565,10066.800811
4020.019588,-766.095498,444.123565,10362.883188
4020.019903,-842.705048,222.061783,10510.924376
4020.020218,-689.485948,370.102971,10214.842000
4020.020534,-536.266849,296.082377,10436.903782
4020.020849,153.219100,296.082377,9844.739029
4020.021164,766.095498,-0.000000,9400.615463
4020.021479,919.314598,370.102971,9030.512492
4020.021794,1302.362347,296.082377,8808.450710
4020.022109,1455.581446,-0.000000,8882.471304
4020.022424,1762.019645,-74.020594,8586.388927
4020.022739,1685.410096,-0.000000,8512.368333
4020.023054,1149.143247,-592.164754,8808.450710
4020.023369,689.485948,-888.247130,8734.430116
4020.023684,842.705048,-740.205942,9104.533087
4020.023999,842.705048,-370.102971,9104.533087
4020.024314,153.219100,-0.000000,9400.615463
4020.024629,0.000000,296.082377,9252.574275
4020.024944,-612.876398,444.123565,9770.718434
4020.025259,-919.314598,592.164754,9696.697840
4020.025574,-689.485948,370.102971,10436.903782
4020.025890,-1225.752797,740.205942,10881.027347
4020.026205,-1608.800546,518.144159,10955.047942
4020.026520,-1455.581446,444.123565,11103.089130
4020.026835,-842.705048,444.123565,11029.068536
4020.027150,-459.657299,222.061783,10881.027347
4020.027465,76.609550,148.041188,10584.944971
4020.027780,76.609550,148.041188,10584.944971
4020.028095,153.219100,444.123565,9548.656652
4020.028410,689.485948,148.041188,9104.533087
4020.028725,1149.143247,-74.020594,9030.512492
4020.029040,1149.143247,-370.102971,9104.533087
4020.029355,842.705048,-222.061783,9252.574275
4020.029670,612.876398,-444.123565,8808.450710
4020.029985,306.438199,-518.144159,8956.491898
4020.030300,612.876398,-444.123565,8956.491898
4020.030616,76.609550,-74.020594,9178.553681
4020.030931,-459.657299,-148.041188,9326.594869
4020.031246,-612.876398,222.061783,9400.615463
4020.031561,-919.314598,592.164754,9474.636058
4020.031876,-919.314598,370.102971,9770.718434
4020.032191,-689.485948,666.185348,10288.862594
4020.032506,-1072.533697,814.226536,10362.883188
4020.032821,-766.095498,-0.000000,10436.903782
4020.033136,-459.657299,370.102971,10140.821405
4020.033452,0.000000,666.185348,9918.759623
4020.033767,612.876398,518.144159,9622.677246
4020.034082,689.485948,370.102971,9622.677246
4020.034397,766.095498,592.164754,9178.553681
4020.034712,1072.533697,296.082377,8882.471304
4020.035027,1302.362347,-74.020594,8882.471304
4020.035342,1838.629195,-0.000000,8734.430116
4020.035657,1302.362347,-370.102971,9400.615463
4020.035973,1608.800546,-666.185348,9178.553681
4020.036288,995.924147,-592.164754,8734.430116
4020.036603,995.924147,-222.061783,9252.574275
4020.036918,842.705048,-0.000000,9030.512492
4020.037233,612.876398,222.061783,9104.533087
4020.037548,-229.828649,444.123565,9326.594869
4020.037863,-306.438199,814.226536,9918.759623
4020.038178,-612.876398,666.185348,9992.780217
4020.038493,-689.485948,518.144159,10362.883188
4020.038809,-766.095498,740.205942,10658.965565
4020.039124,-995.924147,74.020594,10732.986159
4020.039439,-689.485948,296.082377,10881.027347
4020.039754,-689.485948,444.123565,10658.965565
4020.040069,0.000000,222.061783,10584.944971
4020.040384,459.657299,370.102971,10140.821405
4020.040699,459.657299,444.123565,9252.574275
4020.041014,1072.533697,296.082377,9252.574275
4020.041329,689.485948,370.102971,8734.430116
4020.041645,995.924147,-666.185348,8512.368333
4020.041960,1378.971896,-148.041188,9400.615463
4020.042275,766.095498,-962.267725,8734.430116
4020.042590,689.485948,-888.247130,9252.574275
4020.042905,536.266849,-592.164754,9252.574275
4020.043220,459.657299,-148.041188,8808.450710
4020.043535,153.219100,-296.082377,8956.491898
4020.043850,-459.657299,296.082377,8956.491898
4020.044166,-995.924147,370.102971,9400.615463
4020.044481,-995.924147,444.123565,9474.636058
4020.044796,-1455.581446,444.123565,9992.780217
4020.045111,-1455.581446,296.082377,10140.821405
4020.045426,-1455.581446,592.164754,10807.006753
4020.045741,-1149.143247,370.102971,10807.006753
4020.046056,-612.876398,370.102971,10658.965565
4020.046371,0.000000,666.185348,10288.862594
4020.046686,0.000000,296.082377,9844.739029
4020.047002,229.828649,518.144159,9696.697840
4020.047317,459.657299,-0.000000,9548.656652
4020.047632,689.485948,296.082377,9030.512492
4020.047947,995.924147,-222.061783,8882.471304
4020.048262,1378.971896,-518.144159,8808.450710
4020.048577,842.705048,-518.144159,9030.512492
4020.048892,766.095498,-444.123565,9400.615463
4020.049207,689.485948,-370.102971,9178.553681
4020.049523,919.314598,-148.041188,9104.533087
4020.049838,459.657299,-222.061783,9030.512492
4020.050153,0.000000,444.123565,9104.533087
4020.050468,-459.657299,296.082377,9252.574275
4020.050783,-689.485948,444.123565,9696.697840
4020.051098,-842.705048,-148.041188,10066.800811
4020.051413,-1072.533697,370.102971,10362.883188
4020.051728,-1225.752797,518.144159,10881.027347
4020.052043,-995.924147,444.123565,10881.027347
4020.052359,-766.095498,370.102971,10732.986159
4020.052674,-536.266849,592.164754,10510.924376
4020.052989,0.000000,592.164754,9844.739029
4020.053304,536.266849,666.185348,9770.718434
4020.053619,459.657299,592.164754,9400.615463
4020.053934,1302.362347,296.082377,9474.636058
4020.054249,1225.752797,-0.000000,8512.368333
4020.054564,1608.800546,-0.000000,8290.306550
4020.054879,1685.410096,-0.000000,8586.388927
4020.055195,1225.752797,-592.164754,8660.409521
4020.055510,919.314598,-222.061783,8512.368333
4020.055825,919.314598,-296.082377,8586.388927
4020.056140,689.485948,-148.041188,8734.430116
4020.056455,306.438199,-0.000000,9030.512492
4020.056770,0.000000,444.123565,9400.615463
4020.057085,-459.657299,592.164754,9548.656652
4020.057400,-459.657299,592.164754,9696.697840
4020.057716,-689.485948,962.267725,10436.903782
4020.058031,-842.705048,1110.308913,10658.965565
4020.058346,-995.924147,888.247130,10807.006753
4020.058661,-689.485948,1036.288319,10732.986159
4020.058976,-383.047749,888.247130,10807.006753
4020.059291,0.000000,888.247130,10658.965565
4020.059606,306.438199,888.247130,10436.903782
4020.059921,383.047749,888.247130,9770.718434
4020.060236,766.095498,666.185348,9178.553681
4020.060552,995.924147,296.082377,9326.594869
4020.060867,1072.533697,148.041188,9474.636058
4020.061182,995.924147,-222.061783,9178.553681
4020.061497,689.485948,-518.144159,9400.615463
4020.061812,536.266849,-370.102971,9178.553681
4020.062127,383.047749,-592.164754,9030.512492
4020.062442,153.219100,-444.123565,9474.636058
4020.062757,76.609550,-370.102971,9104.533087
4020.063073,-459.657299,-74.020594,9400.615463
4020.063388,-612.876398,222.061783,9844.739029
4020.063703,-1072.533697,518.144159,9770.718434
4020.064018,-766.095498,148.041188,10362.883188
4020.064333,-1072.533697,296.082377,10510.924376
4020.064648,-689.485948,444.123565,10362.883188
4020.064963,-842.705048,-74.020594,10584.944971
4020.065278,76.609550,-0.000000,10288.862594
4020.065593,153.219100,222.061783,10288.862594
4020.065909,229.828649,-74.020594,9696.697840
4020.066224,459.657299,-0.000000,9252.574275
4020.066539,459.657299,-148.041188,9178.553681
4020.066854,919.314598,-222.061783,8512.368333
4020.067169,995.924147,-740.205942,8142.265362
4020.067484,1378.971896,-592.164754,8882.471304
4020.067799,1072.533697,-962.267725,8660.409521
4020.068114,766.095498,-1184.329507,8808.450710
4020.068430,1072.533697,-1036.288319,8586.388927
4020.068745,995.924147,-888.247130,8882.471304
4020.069060,612.876398,-74.020594,8956.491898
4020.069375,153.219100,296.082377,9030.512492
4020.069690,-229.828649,296.082377,9178.553681
4020.070005,-229.828649,-222.061783,9474.636058
4020.070320,-1149.143247,-74.020594,9844.739029
4020.070635,-919.314598,370.102971,10066.800811
4020.070950,-1302.362347,370.102971,10214.842000
4020.071266,-1149.143247,-0.000000,10436.903782
4020.071581,-459.657299,-74.020594,10881.027347
4020.071896,-612.876398,148.041188,10510.924376
4020.072211,0.000000,74.020594,9992.780217
4020.072526,229.828649,222.061783,9918.759623
4020.072841,612.876398,814.226536,9326.594869
4020.073156,1072.533697,-0.000000,9696.697840
4020.073471,766.095498,-0.000000,8660.409521
4020.073786,1302.362347,-148.041188,8512.368333
4020.074102,1378.971896,-74.020594,8808.450710
4020.074417,1149.143247,-666.185348,8734.430116
4020.074732,1149.143247,-444.123565,9030.512492
4020.075047,689.485948,-444.123565,9030.512492
4020.075362,766.095498,-222.061783,9104.533087
4020.075677,153.219100,-0.000000,9326.594869
4020.075992,-459.657299,296.082377,9474.636058
4020.076307,-842.705048,370.102971,9844.739029
4020.076623,-766.095498,740.205942,9770.718434
4020.076938,-919.314598,814.226536,10140.821405
4020.077253,-1149.143247,814.226536,10288.862594
4020.077568,-1225.752797,740.205942,11029.068536
4020.077883,-766.095498,444.123565,10658.965565
4020.078198,-536.266849,888.247130,11103.089130
4020.078513,0.000000,1036.288319,10732.986159
4020.078828,229.828649,814.226536,10214.842000
4020.079143,919.314598,1332.370696,9844.739029
4020.079459,612.876398,1184.329507,10066.800811
4020.079774,536.266849,592.164754,9178.553681
4020.080089,1072.533697,222.061783,9622.677246
4020.080404,1455.581446,-0.000000,9030.512492
4020.080719,1149.143247,-296.082377,9030.512492
4020.081034,612.876398,-296.082377,9326.594869
4020.081349,383.047749,-370.102971,9400.615463
4020.081664,383.047749,-148.041188,9400.615463
4020.081980,229.828649,-0.000000,9474.636058
4020.082295,153.219100,592.164754,9104.533087
4020.082610,-536.266849,740.205942,9918.759623
4020.082925,-842.705048,1036.288319,9548.656652
4020.083240,-842.705048,962.267725,9770.718434
4020.083555,-1302.362347,888.247130,10214.842000
4020.083870,-689.485948,444.123565,10955.047942
4020.084185,-1072.533697,740.205942,10732.986159
4020.084500,-842.705048,444.123565,10140.821405
4020.084816,-536.266849,592.164754,10510.924376
4020.085131,-153.219100,296.082377,9696.697840
4020.085446,689.485948,592.164754,9622.677246
4020.085761,76.609550,296.082377,9400.615463
4020.086076,536.266849,222.061783,8882.471304
4020.086391,1149.143247,-0.000000,8438.347739
4020.086706,1302.362347,-518.144159,8364.327145
4020.087021,1149.143247,-518.144159,9030.512492
4020.087337,766.095498,-962.267725,8660.409521
4020.087652,766.095498,-740.205942,8734.430116
4020.087967,689.485948,-740.205942,8734.430116
4020.088282,1225.752797,-370.102971,8660.409521
4020.088597,383.047749,-296.082377,9030.512492
4020.088912,-306.438199,-0.000000,9400.615463
4020.089227,-766.095498,370.102971,9622.677246
4020.089542,-766.095498,518.144159,9548.656652
4020.089857,-766.095498,-0.000000,9992.780217
4020.090173,-1302.362347,-0.000000,10658.965565
4020.090488,-1455.581446,296.082377,10807.006753
4020.090803,-995.924147,-0.000000,11251.130318
4020.091118,-383.047749,-0.000000,10955.047942
4020.091433,-306.438199,-0.000000,10584.944971
4020.091748,0.000000,222.061783,9770.718434
4020.092063,766.095498,370.102971,9400.615463
4020.092378,995.924147,-0.000000,9622.677246
4020.092693,1302.362347,-0.000000,8956.491898
4020.093009,1762.019645,-222.061783,9030.512492
4020.093324,1455.581446,-296.082377,9104.533087
4020.093639,1072.533697,-740.205942,9326.594869
4020.093954,689.485948,-740.205942,9178.553681
4020.094269,842.705048,-740.205942,9178.553681
4020.094584,919.314598,-740.205942,9696.697840
4020.094899,153.219100,-370.102971,9400.615463
4020.095214,-383.047749,-0.000000,9178.553681
4020.095530,-612.876398,518.144159,9474.636058
4020.095845,-995.924147,370.102971,9474.636058
4020.096160,-842.705048,370.102971,10288.862594
4020.096475,-995.924147,296.082377,10436.903782
4020.096790,-995.924147,370.102971,10658.965565
4020.097105,-995.924147,296.082377,10658.965565
4020.097420,-1149.143247,222.061783,10362.883188
4020.097735,-76.609550,-0.000000,10510.924376
4020.098050,0.000000,-74.020594,9992.780217
4020.098366,306.438199,222.061783,9474.636058
4020.098681,612.876398,-0.000000,8882.471304
4020.098996,766.095498,-0.000000,9252.574275
4020.099311,1455.581446,-0.000000,8808.450710
4020.099626,1302.362347,-444.123565,8734.430116
4020.099941,995.924147,-814.226536,8808.450710
4020.100256,842.705048,-814.226536,8882.471304
4020.100571,612.876398,-518.144159,9104.533087
4020.100887,689.485948,-592.164754,9326.594869
4020.101202,612.876398,-0.000000,9178.553681
4020.101517,0.000000,444.123565,8882.471304
4020.101832,0.000000,370.102971,8882.471304
4020.102147,-536.266849,592.164754,9252.574275
4020.102462,-612.876398,666.185348,9844.739029
4020.102777,-689.485948,592.164754,10140.821405
4020.103092,-1302.362347,592.164754,10955.047942
4020.103407,-1149.143247,296.082377,10955.047942
4020.103723,-842.705048,518.144159,10584.944971
4020.104038,-229.828649,666.185348,10510.924376
4020.104353,0.000000,296.082377,10140.821405
4020.104668,459.657299,592.164754,9326.594869
4020.104983,153.219100,518.144159,9252.574275
4020.105298,689.485948,592.164754,9326.594869
4020.105613,919.314598,296.082377,8660.409521
4020.105928,1302.362347,-0.000000,8734.430116
4020.106243,1225.752797,-74.020594,9030.512492
4020.106559,689.485948,-296.082377,8956.491898
4020.106874,536.266849,-296.082377,9178.553681
4020.107189,536.266849,-370.102971,9252.574275
4020.107504,459.657299,-74.020594,9178.553681
4020.107819,306.438199,296.082377,9178.553681
4020.108134,153.219100,888.247130,9474.636058
4020.108449,-229.828649,1110.308913,9844.739029
4020.108764,-459.657299,888.247130,9844.739029
4020.109080,-766.095498,962.267725,10214.842000
4020.109395,-612.876398,962.267725,10362.883188
4020.109710,-766.095498,740.205942,10510.924376
4020.110025,-536.266849,666.185348,10955.047942
4020.110340,-689.485948,666.185348,10955.047942
4020.110655,0.000000,444.123565,10436.903782
4020.110970,229.828649,444.123565,9918.759623
4020.111285,459.657299,444.123565,9326.594869
4020.111600,459.657299,370.102971,9548.656652
4020.111916,536.266849,-0.000000,9474.636058
4020.112231,1225.752797,-74.020594,8956.491898
4020.112546,1072.533697,-0.000000,9326.594869
4020.112861,1072.533697,-296.082377,9252.574275
4020.113176,689.485948,-148.041188,9178.553681
4020.113491,306.438199,-0.000000,9178.553681
4020.113806,383.047749,-0.000000,9326.594869
4020.114121,0.000000,-0.000000,9178.553681
4020.114437,-383.047749,222.061783,9104.533087
4020.114752,-612.876398,666.185348,9622.677246
4020.115067,-1149.143247,296.082377,9548.656652
4020.115382,-1302.362347,370.102971,9918.759623
4020.115697,-1072.533697,-0.000000,10881.027347
4020.116012,-1455.581446,-0.000000,10955.047942
4020.116327,-1378.971896,-0.000000,10732.986159
4020.116642,-995.924147,148.041188,10510.924376
4020.116957,-536.266849,222.061783,10214.842000
4020.117273,0.000000,222.061783,9622.677246
4020.117588,459.657299,518.144159,9696.697840
4020.117903,536.266849,296.082377,9400.615463
4020.118218,766.095498,-0.000000,8808.450710
4020.118533,1378.971896,-148.041188,8512.368333
4020.118848,1915.238745,-814.226536,8882.471304
4020.119163,1225.752797,-518.144159,8956.491898
4020.119478,766.095498,-888.247130,8956.491898
4020.119794,612.876398,-962.267725,8956.491898
4020.120109,766.095498,-1036.288319,9030.512492
4020.120424,383.047749,-592.164754,8734.430116
4020.120739,153.219100,-370.102971,9104.533087
4020.121054,-153.219100,-0.000000,9474.636058
4020.121369,-766.095498,-0.000000,9622.677246
4020.121684,-919.314598,370.102971,9548.656652
4020.121999,-766.095498,222.061783,9844.739029
4020.122314,-766.095498,444.123565,10288.862594
4020.122630,-842.705048,222.061783,10584.944971
4020.122945,-995.924147,444.123565,10658.965565
4020.123260,-306.438199,222.061783,10584.944971
4020.123575,0.000000,148.041188,10288.862594
4020.123890,459.657299,222.061783,10066.800811
4020.124205,766.095498,666.185348,9474.636058
4020.124520,1149.143247,148.041188,9474.636058
4020.124835,1532.190996,-0.000000,9548.656652
4020.125150,1455.581446,-74.020594,8882.471304
4020.125466,1302.362347,-0.000000,8882.471304
4020.125781,995.924147,-666.185348,8882.471304
4020.126096,842.705048,-518.144159,8956.491898
4020.126411,919.314598,-444.123565,9030.512492
4020.126726,766.095498,-370.102971,9178.553681
4020.127041,306.438199,-0.000000,9252.574275
4020.127356,-229.828649,370.102971,9030.512492
4020.127671,-689.485948,518.144159,9770.718434
4020.127987,-536.266849,888.247130,9918.759623
4020.128302,-612.876398,444.123565,10436.903782
4020.128617,-919.314598,592.164754,10214.842000
4020.128932,-919.314598,740.205942,10881.027347
4020.129247,-995.924147,666.185348,10658.965565
4020.129562,-459.657299,740.205942,10955.047942
4020.129877,0.000000,444.123565,9992.780217
4020.130192,229.828649,518.144159,9696.697840
4020.130507,459.657299,740.205942,9474.636058
4020.130823,306.438199,370.102971,9400.615463
4020.131138,459.657299,370.102971,9178.553681
4020.131453,919.314598,-148.041188,9030.512492
4020.131768,842.705048,-370.102971,9104.533087
4020.132083,766.095498,-740.205942,9104.533087
4020.132398,229.828649,-888.247130,9326.594869
4020.132713,536.266849,-518.144159,8734.430116
4020.133029,459.657299,-222.061783,9178.553681
4020.133344,229.828649,-0.000000,9030.512492
4020.133659,0.000000,666.185348,9104.533087
4020.133974,153.219100,814.226536,9030.512492
4020.134289,-536.266849,518.144159,9474.636058
4020.134604,-536.266849,666.185348,9844.739029
4020.134920,-919.314598,814.226536,10362.883188
4020.135235,-1225.752797,518.144159,10362.883188
4020.135550,-995.924147,148.041188,11029.068536
4020.135865,-1072.533697,518.144159,10807.006753
4020.136180,-842.705048,-0.000000,10732.986159
4020.136495,0.000000,222.061783,10288.862594
4020.136811,76.609550,370.102971,9696.697840
4020.137126,383.047749,222.061783,9474.636058
4020.137441,766.095498,222.061783,9178.553681
4020.137756,1302.362347,296.082377,8660.409521
4020.138071,1685.410096,-0.000000,8512.368333
4020.138386,1532.190996,-222.061783,8586.388927
4020.138701,1149.143247,-148.041188,9030.512492
4020.139017,842.705048,-370.102971,8882.471304
4020.139332,689.485948,-370.102971,8956.491898
4020.139647,383.047749,-370.102971,8956.491898
4020.139962,536.266849,-0.000000,9326.594869
4020.140277,-153.219100,518.144159,9696.697840
4020.140592,-689.485948,-0.000000,9918.759623
4020.140908,-842.705048,444.123565,9992.780217
4020.141223,-919.314598,148.041188,10436.903782
4020.141538,-1455.581446,592.164754,10510.924376
4020.141853,-995.924147,814.226536,11103.089130
4020.142168,-842.705048,592.164754,10658.965565
4020.142483,0.000000,592.164754,10288.862594
4020.142799,306.438199,296.082377,10214.842000
4020.143114,459.657299,370.102971,9696.697840
4020.143429,612.876398,518.144159,9474.636058
4020.143744,383.047749,296.082377,9326.594869
4020.144059,766.095498,-0.000000,9326.594869
4020.144374,1149.143247,-222.061783,9178.553681
4020.144689,1072.533697,-370.102971,9178.553681
4020.145005,766.095498,-296.082377,9326.594869
4020.145320,919.314598,-518.144159,9178.553681
4020.145635,536.266849,-518.144159,9252.574275
4020.145950,229.828649,-592.164754,9030.512492
4020.146265,76.609550,148.041188,9178.553681
4020.146580,0.000000,518.144159,9104.533087
4020.146896,-306.438199,592.164754,9474.636058
4020.147211,-689.485948,740.205942,9622.677246
4020.147526,-919.314598,666.185348,9622.677246
4020.147841,-995.924147,592.164754,10140.821405
4020.148156,-1149.143247,666.185348,10584.944971
4020.148471,-995.924147,222.061783,10955.047942
4020.148786,-995.924147,-0.000000,10658.965565
4020.149102,-536.266849,-74.020594,10288.862594
4020.149417,0.000000,592.164754,9918.759623
4020.149732,383.047749,666.185348,9474.636058
4020.150047,689.485948,518.144159,9474.636058
4020.150362,1072.533697,-0.000000,9252.574275
4020.150677,1455.581446,-0.000000,8512.368333
4020.150993,1608.800546,-0.000000,8290.306550
4020.151308,1532.190996,-296.082377,9030.512492
4020.151623,1072.533697,-740.205942,9622.677246
4020.151938,536.266849,-370.102971,9326.594869
4020.152253,229.828649,-666.185348,8956.491898
4020.152568,612.876398,-296.082377,9178.553681
4020.152884,76.609550,222.061783,9474.636058
4020.153199,0.000000,592.164754,9400.615463
4020.153514,-153.219100,370.102971,9548.656652
4020.153829,-766.095498,814.226536,9696.697840
4020.154144,-919.314598,740.205942,10140.821405
4020.154459,-766.095498,740.205942,10214.842000
4020.154774,-919.314598,370.102971,10807.006753
4020.155090,-536.266849,222.061783,10658.965565
4020.155405,-383.047749,518.144159,10362.883188
4020.155720,229.828649,518.144159,9992.780217
4020.156035,383.047749,444.123565,9770.718434
4020.156350,766.095498,592.164754,9770.718434
4020.156665,842.705048,296.082377,9178.553681
4020.156981,995.924147,370.102971,8882.471304
4020.157296,1225.752797,-0.000000,8956.491898
4020.157611,995.924147,-148.041188,8956.491898
4020.157926,766.095498,-296.082377,9326.594869
4020.158241,842.705048,-592.164754,9252.574275
4020.158556,306.438199,-518.144159,8956.491898
4020.158872,76.609550,-518.144159,9178.553681
4020.159187,0.000000,-148.041188,9622.677246
4020.159502,-536.266849,370.102971,9400.615463
4020.159817,-536.266849,444.123565,9548.656652
4020.160132,-536.266849,888.247130,9844.739029
4020.160447,-689.485948,666.185348,9992.780217
4020.160762,-919.314598,592.164754,9992.780217
4020.161078,-766.095498,592.164754,10658.965565
4020.161393,-842.705048,814.226536,10510.924376
4020.161708,-612.876398,222.061783,9992.780217
4020.162023,-459.657299,-0.000000,10288.862594
4020.162338,0.000000,-0.000000,10288.862594
4020.162653,306.438199,-0.000000,9474.636058
4020.162969,306.438199,-148.041188,8956.491898
4020.163284,689.485948,-74.020594,9030.512492
4020.163599,1225.752797,-148.041188,9104.533087
4020.163914,1685.410096,-370.102971,8882.471304
4020.164229,1149.143247,-814.226536,8364.327145
4020.164544,1149.143247,-370.102971,8956.491898
4020.164860,1072.533697,-222.061783,9030.512492
4020.165175,383.047749,-74.020594,9030.512492
4020.165490,229.828649,-74.020594,9252.574275
4020.165805,0.000000,296.082377,9252.574275
4020.166120,-383.047749,148.041188,9400.615463
4020.166435,-766.095498,592.164754,9770.718434
4020.166750,-919.314598,444.123565,10288.862594
4020.167066,-995.924147,370.102971,10584.944971
4020.167381,-919.314598,-0.000000,10510.924376
4020.167696,-1225.752797,-0.000000,10732.986159
4020.168011,-1225.752797,296.082377,10732.986159
4020.168326,-459.657299,518.144159,10510.924376
4020.168641,153.219100,592.164754,10140.821405
4020.168957,689.485948,444.123565,9696.697840
4020.169272,766.095498,370.102971,9178.553681
4020.169587,766.095498,222.061783,9030.512492
4020.169902,1302.362347,296.082377,8734.430116
4020.170217,1302.362347,-74.020594,8438.347739
4020.170532,1378.971896,-296.082377,8586.388927
4020.170847,919.314598,-370.102971,9326.594869
4020.171163,766.095498,-740.205942,8956.491898
4020.171478,536.266849,-592.164754,9326.594869
4020.171793,383.047749,-74.020594,9252.574275
4020.172108,0.000000,-0.000000,9622.677246
4020.172423,0.000000,814.226536,9474.636058
4020.172738,-383.047749,444.123565,9548.656652
4020.173054,-536.266849,888.247130,9844.739029
4020.173369,-1072.533697,592.164754,9992.780217
4020.173684,-1685.410096,592.164754,9918.759623
4020.173999,-1302.362347,296.082377,10362.883188
4020.174314,-1378.971896,370.102971,10807.006753
4020.174629,-766.095498,148.041188,10658.965565
4020.174945,-229.828649,296.082377,10214.842000
4020.175260,306.438199,222.061783,10066.800811
4020.175575,229.828649,740.205942,9844.739029
4020.175890,459.657299,592.164754,9400.615463
4020.176205,612.876398,370.102971,9474.636058
4020.176520,1455.581446,-0.000000,9030.512492
4020.176835,1378.971896,-0.000000,8956.491898
4020.177151,995.924147,-222.061783,8956.491898
4020.177466,766.095498,-0.000000,9326.594869
4020.177781,459.657299,-148.041188,9400.615463
4020.178096,383.047749,-74.020594,9030.512492
4020.178411,76.609550,296.082377,9326.594869
4020.178726,0.000000,814.226536,9326.594869
4020.179042,-689.485948,592.164754,9622.677246
4020.179357,-919.314598,888.247130,9548.656652
4020.179672,-689.485948,370.102971,9622.677246
4020.179987,-1072.533697,518.144159,10140.821405
4020.180302,-919.314598,222.061783,10214.842000
4020.180617,-919.314598,444.123565,10732.986159
4020.180933,-689.485948,370.102971,10807.006753
4020.181248,-459.657299,444.123565,9770.718434
4020.181563,229.828649,592.164754,9696.697840
4020.181878,459.657299,740.205942,9548.656652
4020.182193,919.314598,592.164754,9326.594869
4020.182508,995.924147,518.144159,9030.512492
4020.182823,1608.800546,74.020594,8808.450710
4020.183139,1532.190996,-0.000000,9178.553681
4020.183454,1378.971896,-222.061783,8882.471304
4020.183769,842.705048,-888.247130,9622.677246
4020.184084,919.314598,-740.205942,9770.718434
4020.184399,383.047749,-592.164754,9326.594869
4020.184714,459.657299,-518.144159,9252.574275
4020.185030,306.438199,-0.000000,9548.656652
4020.185345,0.000000,370.102971,9400.615463
4020.185660,-306.438199,592.164754,9696.697840
4020.185975,-459.657299,518.144159,9474.636058
4020.186290,-1072.533697,666.185348,9696.697840
4020.186605,-995.924147,444.123565,10288.862594
4020.186920,-919.314598,444.123565,10658.965565
4020.187236,-919.314598,370.102971,10658.965565
4020.187551,-689.485948,-0.000000,10140.821405
4020.187866,0.000000,-222.061783,10066.800811
4020.188181,229.828649,-74.020594,10066.800811
4020.188496,612.876398,-0.000000,9622.677246
4020.188811,536.266849,-148.041188,9400.615463
4020.189127,1072.533697,148.041188,8734.430116
4020.189442,1302.362347,-148.041188,8734.430116
4020.189757,1455.581446,-222.061783,8512.368333
4020.190072,1762.019645,-740.205942,9326.594869
4020.190387,919.314598,-518.144159,8808.450710
4020.190702,612.876398,-740.205942,8512.368333
4020.191018,766.095498,-296.082377,8512.368333
4020.191333,383.047749,-148.041188,9252.574275
4020.191648,-459.657299,-0.000000,9252.574275
4020.191963,-612.876398,-0.000000,9326.594869
4020.192278,-1072.533697,296.082377,9474.636058
4020.192593,-995.924147,-0.000000,9992.780217
4020.192908,-1302.362347,-0.000000,9844.739029
