#time,accel_x,accel_y,accel_z
3809.827111,76.609550,-0.000000,9548.656652
3809.827425,0.000000,-0.000000,9474.636058
3809.827740,383.047749,-0.000000,9548.656652
3809.828054,306.438199,-0.000000,9622.677246
3809.828369,229.828649,-0.000000,9844.739029
3809.828684,153.219100,222.061783,9548.656652
3809.828998,229.828649,-0.000000,9474.636058
3809.829313,306.438199,222.061783,9770.718434
3809.829628,0.000000,148.041188,10214.842000
3809.829942,229.828649,296.082377,9770.718434
3809.830257,0.000000,-0.000000,9696.697840
3809.830572,306.438199,148.041188,9770.718434
3809.830886,229.828649,148.041188,9622.677246
3809.831201,0.000000,-0.000000,9992.780217
3809.831515,0.000000,222.061783,10066.800811
3809.831830,229.828649,222.061783,9622.677246
3809.832145,76.609550,-0.000000,9622.677246
3809.832459,306.438199,-0.000000,9770.718434
3809.832774,-153.219100,-0.000000,9918.759623
3809.833089,76.609550,-0.000000,9400.615463
3809.833403,0.000000,370.102971,9696.697840
3809.833718,76.609550,-0.000000,10066.800811
3809.834033,0.000000,296.082377,9622.677246
3809.834347,0.000000,296.082377,9400.615463
3809.834662,76.609550,-74.020594,9326.594869
3809.834976,153.219100,-0.000000,9326.594869
3809.835291,459.657299,-0.000000,9326.594869
3809.835606,0.000000,-0.000000,9548.656652
3809.835920,229.828649,222.061783,9474.636058
3809.836235,0.000000,370.102971,9474.636058
3809.836550,306.438199,518.144159,9030.512492
3809.836864,383.047749,518.144159,9844.739029
3809.837179,76.609550,148.041188,9622.677246
3809.837494,0.000000,222.061783,9400.615463
3809.837808,153.219100,-0.000000,9474.636058
3809.838123,153.219100,-0.000000,9548.656652
3809.838437,76.609550,-0.000000,9918.759623
3809.838752,229.828649,222.061783,9474.636058
3809.839067,-76.609550,-0.000000,9474.636058
3809.839381,0.000000,222.061783,9326.594869
3809.839696,229.828649,222.061783,9622.677246
3809.840011,76.609550,-0.000000,9992.780217
3809.840325,153.219100,296.082377,9844.739029
3809.840640,306.438199,-0.000000,9696.697840
3809.840955,0.000000,-0.000000,9474.636058
3809.841269,153.219100,222.061783,9548.656652
3809.841584,-229.828649,444.123565,9770.718434
3809.841899,76.609550,-0.000000,9844.739029
3809.842213,0.000000,-74.020594,9844.739029
3809.842528,0.000000,296.082377,9770.718434
3809.842842,76.609550,-0.000000,9474.636058
3809.843157,306.438199,518.144159,9622.677246
3809.843472,0.000000,-0.000000,9844.739029
3809.843786,-153.219100,-0.000000,9622.677246
3809.844101,0.000000,-0.000000,9474.636058
3809.844416,153.219100,-74.020594,9770.718434
3809.844730,306.438199,-0.000000,9622.677246
3809.845045,0.000000,296.082377,9252.574275
3809.845360,229.828649,-0.000000,8882.471304
3809.845674,153.219100,222.061783,9474.636058
3809.845989,0.000000,-0.000000,9474.636058
3809.846303,0.000000,296.082377,9548.656652
3809.846618,0.000000,296.082377,9474.636058
3809.846933,0.000000,370.102971,9326.594869
3809.847247,153.219100,444.123565,9400.615463
3809.847562,76.609550,-0.000000,9474.636058
3809.847877,0.000000,-0.000000,9696.697840
3809.848191,0.000000,74.020594,9622.677246
3809.848506,76.609550,-0.000000,9474.636058
3809.848821,76.609550,-0.000000,9696.697840
3809.849135,229.828649,148.041188,9918.759623
3809.849450,153.219100,-0.000000,9474.636058
3809.849764,76.609550,-0.000000,9474.636058
3809.850079,306.438199,148.041188,9474.636058
3809.850394,306.438199,296.082377,9548.656652
3809.850708,0.000000,148.041188,9548.656652
3809.851023,229.828649,-0.000000,9696.697840
3809.851338,0.000000,-0.000000,9770.718434
3809.851652,0.000000,222.061783,9770.718434
3809.851967,76.609550,148.041188,9696.697840
3809.852282,0.000000,370.102971,9548.656652
3809.852596,0.000000,-0.000000,9992.780217
3809.852911,229.828649,-0.000000,9844.739029
3809.853225,153.219100,-0.000000,9696.697840
3809.853540,229.828649,-0.000000,9918.759623
3809.853855,-383.047749,296.082377,9696.697840
3809.854169,0.000000,222.061783,9992.780217
3809.854484,76.609550,-0.000000,9548.656652
3809.854799,0.000000,-0.000000,9548.656652
3809.855113,0.000000,-0.000000,9474.636058
3809.855428,459.657299,-0.000000,9844.739029
3809.855743,229.828649,-0.000000,10066.800811
3809.856057,76.609550,-0.000000,9474.636058
3809.856372,383.047749,444.123565,9696.697840
3809.856686,459.657299,296.082377,9400.615463
3809.857001,766.095498,444.123565,9178.553681
3809.857316,612.876398,814.226536,8808.450710
3809.857630,1072.533697,814.226536,8882.471304
3809.857945,842.705048,592.164754,9252.574275
3809.858260,842.705048,444.123565,9104.533087
3809.858574,1072.533697,-222.061783,9104.533087
3809.858889,536.266849,148.041188,9548.656652
3809.859204,383.047749,-0.000000,9696.697840
3809.859518,306.438199,592.164754,9844.739029
3809.859833,229.828649,814.226536,9622.677246
3809.860148,1072.533697,444.123565,9474.636058
3809.860462,1225.752797,666.185348,9696.697840
3809.860777,1455.581446,666.185348,9696.697840
3809.861091,1991.848295,740.205942,9844.739029
3809.861406,2068.457845,1036.288319,9918.759623
3809.861721,2528.115143,1480.411884,9770.718434
3809.862035,2834.553343,1702.473667,9622.677246
3809.862350,3064.381992,2146.597232,9252.574275
3809.862665,3370.820191,2294.638420,8734.430116
3809.862979,3600.648841,2590.720797,8808.450710
3809.863294,3447.429741,2294.638420,9474.636058
3809.863609,3677.258390,2294.638420,8660.409521
3809.863923,3677.258390,2220.617826,9030.512492
3809.864238,3217.601092,1998.556043,9252.574275
3809.864552,3140.991542,2220.617826,9326.594869
3809.864867,3217.601092,2442.679609,9474.636058
3809.865182,3370.820191,2368.659014,9474.636058
3809.865496,2987.772442,2812.782580,9178.553681
3809.865811,3140.991542,3182.885551,9104.533087
3809.866126,3064.381992,3701.029710,9030.512492
3809.866440,2757.943793,3701.029710,9326.594869
3809.866755,2834.553343,3627.009116,9104.533087
3809.867070,2451.505594,3404.947333,9474.636058
3809.867384,2604.724693,3627.009116,9474.636058
3809.867699,2221.676944,3627.009116,9770.718434
3809.868013,2068.457845,3775.050304,10140.821405
3809.868328,1762.019645,3923.091493,10658.965565
3809.868643,1838.629195,4071.132681,10881.027347
3809.868957,1685.410096,3923.091493,10658.965565
3809.869272,1685.410096,3849.070898,10658.965565
3809.869587,1762.019645,3849.070898,10881.027347
3809.869901,2145.067394,4219.173869,10807.006753
3809.870216,2145.067394,3701.029710,10362.883188
3809.870531,2221.676944,4219.173869,9844.739029
3809.870845,2374.896044,4219.173869,9918.759623
3809.871160,2604.724693,3923.091493,9770.718434
3809.871474,2451.505594,3849.070898,9844.739029
3809.871789,2374.896044,3627.009116,9770.718434
3809.872104,1915.238745,3404.947333,9844.739029
3809.872418,2221.676944,3108.864956,10436.903782
3809.872733,1915.238745,2812.782580,10732.986159
3809.873048,1838.629195,2960.823768,10288.862594
3809.873362,1838.629195,3034.844362,10288.862594
3809.873677,1302.362347,2812.782580,10288.862594
3809.873992,1378.971896,3034.844362,10584.944971
3809.874306,1838.629195,3330.926739,9918.759623
3809.874621,1532.190996,2886.803174,9252.574275
3809.874936,1838.629195,2886.803174,9548.656652
3809.875250,1532.190996,2368.659014,9474.636058
3809.875565,1915.238745,2146.597232,9844.739029
3809.875879,1685.410096,1776.494261,10288.862594
3809.876194,1532.190996,1628.453072,10214.842000
3809.876509,1455.581446,1554.432478,9770.718434
3809.876823,1838.629195,1850.514855,9770.718434
3809.877138,1685.410096,1554.432478,10140.821405
3809.877453,2451.505594,1628.453072,9474.636058
3809.877767,2451.505594,2072.576638,8660.409521
3809.878082,2374.896044,1924.535449,8438.347739
3809.878397,2987.772442,1628.453072,8290.306550
3809.878711,3294.210641,1702.473667,8438.347739
3809.879026,3524.039291,1406.391290,8512.368333
3809.879340,2987.772442,1406.391290,8734.430116
3809.879655,2987.772442,1554.432478,8660.409521
3809.879970,2451.505594,1406.391290,8512.368333
3809.880284,1532.190996,888.247130,9030.512492
3809.880599,1608.800546,814.226536,9326.594869
3809.880914,1685.410096,518.144159,9104.533087
3809.881228,1838.629195,148.041188,9696.697840
3809.881543,1838.629195,148.041188,10510.924376
3809.881858,1608.800546,666.185348,10140.821405
3809.882172,2374.896044,1332.370696,9918.759623
3809.882487,2681.334243,1850.514855,9918.759623
3809.882801,3370.820191,2368.659014,9326.594869
3809.883116,3753.867940,2442.679609,8734.430116
3809.883431,3830.477490,2516.700203,8216.285956
3809.883745,3447.429741,2368.659014,7994.224174
3809.884060,3370.820191,1702.473667,8290.306550
3809.884375,2604.724693,1258.350101,8956.491898
3809.884689,1608.800546,444.123565,9474.636058
3809.885004,1072.533697,-518.144159,10362.883188
3809.885319,536.266849,-444.123565,11103.089130
3809.885633,0.000000,-444.123565,11917.315666
3809.885948,76.609550,-0.000000,12287.418637
3809.886262,536.266849,962.267725,11843.295072
3809.886577,1149.143247,1998.556043,10658.965565
3809.886892,2834.553343,2664.741391,9696.697840
3809.887206,4060.306139,3923.091493,8438.347739
3809.887521,4136.915689,4811.338623,7476.080014
3809.887836,4519.963438,4737.318029,7031.956449
3809.888150,4443.353888,3997.112087,7772.162391
3809.888465,4136.915689,3182.885551,8142.265362
3809.888780,2757.943793,2146.597232,9474.636058
3809.889094,919.314598,1036.288319,10955.047942
3809.889409,-306.438199,592.164754,12139.377449
3809.889724,-842.705048,370.102971,12509.480420
3809.890038,-766.095498,1258.350101,12065.356855
3809.890353,0.000000,2442.679609,10881.027347
3809.890667,536.266849,3330.926739,9696.697840
3809.890982,1455.581446,3923.091493,8660.409521
3809.891297,3753.867940,4515.256246,7624.121203
3809.891611,4749.792088,4367.215058,7550.100608
3809.891926,4826.401637,4663.297435,7994.224174
3809.892241,4290.134789,4293.194464,8808.450710
3809.892555,3447.429741,3701.029710,9622.677246
3809.892870,2681.334243,3404.947333,10658.965565
3809.893185,1608.800546,3108.864956,11547.212695
3809.893499,459.657299,3404.947333,11103.089130
3809.893814,229.828649,3182.885551,10732.986159
3809.894128,842.705048,2368.659014,10584.944971
3809.894443,1532.190996,2146.597232,9770.718434
3809.894758,1991.848295,2146.597232,9252.574275
3809.895072,2528.115143,2886.803174,8660.409521
3809.895387,2757.943793,2738.761985,8734.430116
3809.895702,3370.820191,3775.050304,9030.512492
3809.896016,3447.429741,3997.112087,7994.224174
3809.896331,2987.772442,3775.050304,8216.285956
3809.896646,2451.505594,2886.803174,9474.636058
3809.896960,1838.629195,1628.453072,11103.089130
3809.897275,919.314598,1406.391290,11695.253884
3809.897589,842.705048,1406.391290,11769.274478
3809.897904,1072.533697,1554.432478,11399.171507
3809.898219,1838.629195,2812.782580,10658.965565
3809.898533,2374.896044,2738.761985,9326.594869
3809.898848,3140.991542,3552.988522,7920.203579
3809.899163,3600.648841,3404.947333,7698.141797
3809.899477,3907.087040,2960.823768,7550.100608
3809.899792,3983.696590,2146.597232,9030.512492
3809.900107,3600.648841,518.144159,9474.636058
3809.900421,2681.334243,592.164754,10288.862594
3809.900736,1608.800546,1406.391290,10436.903782
3809.901050,1378.971896,1628.453072,10510.924376
3809.901365,1685.410096,1924.535449,10584.944971
3809.901680,1685.410096,2590.720797,10140.821405
3809.901994,2374.896044,2812.782580,8512.368333
3809.902309,2911.162892,2590.720797,8290.306550
3809.902624,3140.991542,2664.741391,8142.265362
3809.902936,3217.601092,2442.679609,7994.224174
3809.903251,2987.772442,2146.597232,8290.306550
3809.903566,3064.381992,1554.432478,9252.574275
3809.903880,2451.505594,1480.411884,9696.697840
3809.904195,1225.752797,1110.308913,10584.944971
3809.904510,919.314598,962.267725,11843.295072
3809.904825,536.266849,1258.350101,11251.130318
3809.905140,0.000000,1998.556043,10214.842000
3809.905455,689.485948,1554.432478,10881.027347
3809.905770,1302.362347,1554.432478,10362.883188
3809.906085,1455.581446,1110.308913,9548.656652
3809.906400,2528.115143,1924.535449,9770.718434
3809.906715,2834.553343,2738.761985,8882.471304
3809.907030,3064.381992,2886.803174,7624.121203
3809.907344,3447.429741,2368.659014,8142.265362
3809.907659,2757.943793,1628.453072,8660.409521
3809.907974,766.095498,370.102971,9400.615463
3809.908289,-459.657299,-518.144159,10140.821405
3809.908604,-689.485948,-370.102971,10955.047942
3809.908919,-1532.190996,148.041188,10214.842000
3809.909234,-1225.752797,296.082377,10732.986159
3809.909549,-612.876398,-0.000000,10732.986159
3809.909864,-842.705048,740.205942,10732.986159
3809.910179,-76.609550,1258.350101,10955.047942
3809.910494,229.828649,1628.453072,9918.759623
3809.910808,229.828649,1998.556043,9104.533087
3809.911123,1991.848295,2146.597232,8734.430116
3809.911438,2911.162892,1258.350101,8512.368333
3809.911753,2145.067394,1332.370696,8882.471304
3809.912068,1225.752797,296.082377,9696.697840
3809.912383,383.047749,-222.061783,9844.739029
3809.912698,-306.438199,296.082377,9844.739029
3809.913013,-306.438199,296.082377,9696.697840
3809.913328,-689.485948,-74.020594,9474.636058
3809.913643,-383.047749,-888.247130,9992.780217
3809.913958,-612.876398,-1110.308913,9770.718434
3809.914273,-689.485948,-370.102971,9622.677246
3809.914587,0.000000,-0.000000,7920.203579
3809.914902,1532.190996,740.205942,8364.327145
3809.915217,2528.115143,1036.288319,9104.533087
3809.915532,1685.410096,814.226536,8808.450710
3809.915847,1225.752797,814.226536,9474.636058
3809.916162,536.266849,518.144159,9622.677246
3809.916477,0.000000,740.205942,9844.739029
3809.916792,0.000000,666.185348,10066.800811
3809.917107,459.657299,666.185348,9918.759623
3809.917422,0.000000,-148.041188,10140.821405
3809.917737,0.000000,-592.164754,10362.883188
3809.918051,-459.657299,-148.041188,9474.636058
3809.918366,0.000000,-148.041188,9030.512492
3809.918681,766.095498,-148.041188,9178.553681
3809.918996,1991.848295,-0.000000,8512.368333
3809.919311,2068.457845,-296.082377,8586.388927
3809.919626,1608.800546,-296.082377,9400.615463
3809.919941,612.876398,666.185348,8956.491898
3809.920256,306.438199,296.082377,9474.636058
3809.920571,1455.581446,962.267725,9326.594869
3809.920886,1608.800546,1184.329507,8882.471304
3809.921201,1149.143247,592.164754,9696.697840
3809.921515,459.657299,444.123565,9474.636058
3809.921830,0.000000,888.247130,9030.512492
3809.922145,0.000000,370.102971,9400.615463
3809.922460,536.266849,-0.000000,10658.965565
3809.922775,153.219100,-74.020594,10807.006753
3809.923090,0.000000,-370.102971,10140.821405
3809.923405,-919.314598,-74.020594,10584.944971
3809.923720,-1455.581446,666.185348,10732.986159
3809.924035,-1072.533697,814.226536,10362.883188
3809.924350,0.000000,518.144159,10584.944971
3809.924665,229.828649,814.226536,10214.842000
3809.924979,0.000000,518.144159,9400.615463
3809.925294,0.000000,444.123565,8512.368333
3809.925609,0.000000,740.205942,9030.512492
3809.925924,76.609550,518.144159,8882.471304
3809.926239,0.000000,-0.000000,9844.739029
3809.926554,-536.266849,-0.000000,9326.594869
3809.926869,-689.485948,-1036.288319,9992.780217
3809.927184,-1608.800546,-148.041188,10362.883188
3809.927499,-1915.238745,-0.000000,9844.739029
3809.927814,-1378.971896,-814.226536,10584.944971
3809.928129,-1532.190996,-0.000000,10807.006753
3809.928444,-1608.800546,-74.020594,10510.924376
3809.928758,-842.705048,-148.041188,9992.780217
3809.929073,-1455.581446,222.061783,9992.780217
3809.929388,-229.828649,444.123565,9252.574275
3809.929703,1072.533697,592.164754,9030.512492
3809.930018,1149.143247,444.123565,8512.368333
3809.930333,1072.533697,-740.205942,9474.636058
3809.930648,459.657299,-666.185348,8734.430116
3809.930963,-306.438199,-444.123565,8808.450710
3809.931278,-306.438199,-888.247130,9770.718434
3809.931593,0.000000,-1110.308913,9622.677246
3809.931908,-459.657299,-1332.370696,9696.697840
3809.932222,-842.705048,-1628.453072,9992.780217
3809.932537,-995.924147,-962.267725,10140.821405
3809.932852,-766.095498,-370.102971,9252.574275
3809.933167,306.438199,-666.185348,9474.636058
3809.933482,995.924147,-296.082377,10214.842000
3809.933797,1532.190996,222.061783,9178.553681
3809.934112,1685.410096,296.082377,9252.574275
3809.934427,1455.581446,592.164754,8808.450710
3809.934742,1532.190996,814.226536,9104.533087
3809.935057,1991.848295,-0.000000,8956.491898
3809.935372,1608.800546,-222.061783,9474.636058
3809.935686,306.438199,-444.123565,9992.780217
3809.936001,0.000000,-1628.453072,10140.821405
3809.936316,-766.095498,-740.205942,9326.594869
3809.936631,-689.485948,-1258.350101,9992.780217
3809.936946,153.219100,-962.267725,9844.739029
3809.937261,306.438199,-518.144159,8882.471304
3809.937576,689.485948,-962.267725,9696.697840
3809.937891,689.485948,-444.123565,8734.430116
3809.938206,689.485948,370.102971,8512.368333
3809.938521,1149.143247,740.205942,8808.450710
3809.938836,1455.581446,1110.308913,8660.409521
3809.939150,1378.971896,1258.350101,9400.615463
3809.939465,1149.143247,370.102971,9622.677246
3809.939780,0.000000,814.226536,9326.594869
3809.940095,-766.095498,962.267725,9474.636058
3809.940410,-383.047749,-0.000000,9992.780217
3809.940725,0.000000,-0.000000,10066.800811
3809.941040,-689.485948,-0.000000,10362.883188
3809.941355,-689.485948,-592.164754,10288.862594
3809.941670,-1455.581446,148.041188,10140.821405
3809.941985,-1532.190996,814.226536,9474.636058
3809.942300,0.000000,592.164754,10140.821405
3809.942615,0.000000,1406.391290,9252.574275
3809.942929,229.828649,1110.308913,9992.780217
3809.943244,0.000000,962.267725,9992.780217
3809.943559,-995.924147,1702.473667,8956.491898
3809.943874,-383.047749,1480.411884,9622.677246
3809.944189,536.266849,814.226536,10140.821405
3809.944504,536.266849,1480.411884,9252.574275
3809.944819,229.828649,518.144159,9844.739029
3809.945134,-689.485948,518.144159,9844.739029
3809.945449,-1302.362347,740.205942,9844.739029
3809.945764,-536.266849,148.041188,11029.068536
3809.946079,-689.485948,370.102971,10881.027347
3809.946393,-995.924147,740.205942,10658.965565
3809.946708,-229.828649,296.082377,10658.965565
3809.947023,-306.438199,518.144159,9992.780217
3809.947338,-306.438199,1332.370696,9992.780217
3809.947653,612.876398,962.267725,9992.780217
3809.947968,1532.190996,1480.411884,9178.553681
3809.948283,1225.752797,1480.411884,8808.450710
3809.948598,1302.362347,888.247130,9178.553681
3809.948913,383.047749,1036.288319,9178.553681
3809.949228,0.000000,296.082377,9844.739029
3809.949543,229.828649,-814.226536,10362.883188
3809.949857,153.219100,-444.123565,10362.883188
3809.950172,-229.828649,-370.102971,10584.944971
3809.950487,-383.047749,-148.041188,9992.780217
3809.950802,-612.876398,-74.020594,9918.759623
3809.951117,0.000000,-0.000000,9400.615463
3809.951432,995.924147,-0.000000,9178.553681
3809.951747,1378.971896,-0.000000,8882.471304
3809.952062,1072.533697,-370.102971,8956.491898
3809.952377,1302.362347,-296.082377,8808.450710
3809.952692,612.876398,592.164754,8512.368333
3809.953007,383.047749,444.123565,9326.594869
3809.953321,1685.410096,-1036.288319,9696.697840
3809.953636,919.314598,-296.082377,9104.533087
3809.953951,766.095498,-740.205942,9918.759623
3809.954266,0.000000,-370.102971,9030.512492
3809.954581,-612.876398,-444.123565,8660.409521
3809.954896,766.095498,-740.205942,9474.636058
3809.955211,612.876398,-370.102971,9030.512492
3809.955526,842.705048,-666.185348,8882.471304
3809.955841,766.095498,-1480.411884,9178.553681
3809.956156,383.047749,-666.185348,9030.512492
3809.956471,229.828649,-74.020594,9400.615463
3809.956785,612.876398,-148.041188,9696.697840
3809.957100,536.266849,-222.061783,9474.636058
3809.957415,76.609550,-0.000000,9918.759623
3809.957730,229.828649,-222.061783,9474.636058
3809.958045,459.657299,-148.041188,8808.450710
3809.958360,0.000000,-0.000000,9400.615463
3809.958675,536.266849,-444.123565,9030.512492
3809.958990,459.657299,-74.020594,8808.450710
3809.959305,0.000000,-148.041188,9104.533087
3809.959620,-536.266849,-666.185348,9918.759623
3809.959935,-1225.752797,-296.082377,9844.739029
3809.960250,-1455.581446,-740.205942,9844.739029
3809.960564,-1072.533697,-814.226536,10658.965565
3809.960879,-689.485948,-592.164754,10510.924376
3809.961194,-1225.752797,-74.020594,10362.883188
3809.961509,-1302.362347,74.020594,10732.986159
3809.961824,-1455.581446,1036.288319,9844.739029
3809.962139,0.000000,814.226536,9622.677246
3809.962454,1072.533697,1184.329507,8808.450710
3809.962769,689.485948,1406.391290,8882.471304
3809.963084,842.705048,592.164754,9178.553681
3809.963399,0.000000,888.247130,9104.533087
3809.963714,-842.705048,222.061783,9474.636058
3809.964028,-383.047749,-370.102971,10140.821405
3809.964343,-459.657299,222.061783,10955.047942
3809.964658,-1072.533697,-74.020594,11399.171507
3809.964973,-995.924147,-0.000000,10584.944971
3809.965288,-1302.362347,1110.308913,10214.842000
3809.965603,-153.219100,1480.411884,9474.636058
3809.965918,1225.752797,1036.288319,9474.636058
3809.966233,1608.800546,1924.535449,8438.347739
3809.966548,1455.581446,1184.329507,8142.265362
3809.966863,1685.410096,962.267725,8956.491898
3809.967178,383.047749,888.247130,9178.553681
3809.967492,459.657299,444.123565,9548.656652
3809.967807,612.876398,-0.000000,10288.862594
3809.968122,-153.219100,-0.000000,10881.027347
3809.968437,-459.657299,-370.102971,11325.150913
3809.968752,-842.705048,-222.061783,11547.212695
3809.969067,-1072.533697,296.082377,11029.068536
3809.969382,-153.219100,592.164754,9992.780217
3809.969697,1149.143247,1184.329507,9030.512492
3809.970012,1532.190996,1110.308913,8734.430116
3809.970327,1991.848295,444.123565,8142.265362
3809.970642,1685.410096,814.226536,8734.430116
3809.970956,1225.752797,370.102971,8808.450710
3809.971271,1608.800546,-148.041188,9326.594869
3809.971586,1991.848295,-518.144159,9844.739029
3809.971901,919.314598,-148.041188,9992.780217
3809.972216,-536.266849,-814.226536,10732.986159
3809.972531,-842.705048,-148.041188,10214.842000
3809.972846,-842.705048,-0.000000,9474.636058
3809.973161,229.828649,-148.041188,9178.553681
3809.973476,1225.752797,296.082377,8808.450710
3809.973791,1302.362347,-0.000000,8808.450710
3809.974106,306.438199,518.144159,7105.977043
3809.974421,1225.752797,-888.247130,9326.594869
3809.974735,1225.752797,518.144159,9252.574275
3809.975050,0.000000,-296.082377,9918.759623
3809.975365,383.047749,-370.102971,10436.903782
3809.975680,0.000000,-74.020594,10584.944971
3809.975995,-383.047749,370.102971,10807.006753
3809.976310,-306.438199,370.102971,9474.636058
3809.976625,-383.047749,888.247130,9622.677246
3809.976940,919.314598,518.144159,9474.636058
3809.977255,459.657299,1480.411884,8956.491898
3809.977570,995.924147,740.205942,8660.409521
3809.977885,383.047749,592.164754,8438.347739
3809.978199,76.609550,148.041188,8660.409521
3809.978514,76.609550,-592.164754,8882.471304
3809.978829,153.219100,-814.226536,10066.800811
3809.979144,-1149.143247,-444.123565,10362.883188
3809.979459,-919.314598,-370.102971,10510.924376
3809.979774,-1991.848295,-74.020594,10436.903782
3809.980089,-2145.067394,148.041188,9844.739029
3809.980404,-689.485948,148.041188,9844.739029
3809.980719,0.000000,518.144159,9548.656652
3809.981034,-153.219100,888.247130,9030.512492
3809.981349,-306.438199,444.123565,9030.512492
3809.981663,-459.657299,962.267725,8290.306550
3809.981978,76.609550,222.061783,9474.636058
3809.982293,383.047749,-148.041188,9696.697840
3809.982608,0.000000,-148.041188,10066.800811
3809.982923,-919.314598,-518.144159,11399.171507
3809.983238,-1608.800546,-592.164754,11621.233289
3809.983553,-1838.629195,-0.000000,10288.862594
3809.983868,-1149.143247,-222.061783,9918.759623
3809.984183,0.000000,-148.041188,9622.677246
3809.984498,689.485948,-0.000000,9400.615463
3809.984813,689.485948,148.041188,8660.409521
3809.985127,766.095498,518.144159,8068.244768
3809.985442,919.314598,740.205942,8068.244768
3809.985757,536.266849,-518.144159,9030.512492
3809.986072,1378.971896,-222.061783,9326.594869
3809.986387,842.705048,-1036.288319,10066.800811
3809.986702,459.657299,-1480.411884,10807.006753
3809.987017,-766.095498,-518.144159,10288.862594
3809.987332,-1072.533697,-0.000000,10436.903782
3809.987647,0.000000,-0.000000,10658.965565
3809.987962,459.657299,740.205942,9400.615463
3809.988277,995.924147,1110.308913,9030.512492
3809.988592,1225.752797,740.205942,8512.368333
3809.988906,1225.752797,888.247130,8438.347739
3809.989221,1302.362347,-0.000000,8586.388927
3809.989536,1838.629195,-148.041188,8882.471304
3809.989851,1455.581446,-740.205942,9474.636058
3809.990166,536.266849,-1110.308913,10510.924376
3809.990481,153.219100,-888.247130,10658.965565
3809.990796,-919.314598,-0.000000,10288.862594
3809.991111,-383.047749,-0.000000,10140.821405
3809.991426,842.705048,444.123565,9918.759623
3809.991741,689.485948,962.267725,9474.636058
3809.992056,766.095498,444.123565,8808.450710
3809.992370,842.705048,740.205942,7772.162391
3809.992685,383.047749,444.123565,8068.244768
3809.993000,2145.067394,222.061783,8660.409521
3809.993315,1685.410096,-148.041188,9696.697840
3809.993630,919.314598,-0.000000,9474.636058
3809.993945,229.828649,-370.102971,10362.883188
3809.994260,-842.705048,-0.000000,9992.780217
3809.994575,-1762.019645,296.082377,10214.842000
3809.994890,-995.924147,296.082377,10288.862594
3809.995205,-766.095498,370.102971,9992.780217
3809.995520,-689.485948,1036.288319,9474.636058
3809.995834,0.000000,-0.000000,8808.450710
3809.996149,-536.266849,1332.370696,8290.306550
3809.996464,153.219100,1036.288319,8586.388927
3809.996779,919.314598,740.205942,9030.512492
3809.997094,383.047749,1036.288319,9104.533087
3809.997409,76.609550,296.082377,10955.047942
3809.997724,-383.047749,74.020594,10510.924376
3809.998039,-1532.190996,370.102971,10584.944971
3809.998354,-1915.238745,518.144159,11103.089130
3809.998669,-842.705048,444.123565,10510.924376
3809.998984,0.000000,814.226536,9622.677246
3809.999298,0.000000,592.164754,10066.800811
3809.999613,0.000000,1332.370696,9252.574275
3809.999928,-153.219100,1332.370696,8438.347739
3810.000243,612.876398,444.123565,9326.594869
3810.000558,1225.752797,222.061783,9326.594869
3810.000873,229.828649,222.061783,9770.718434
3810.001188,153.219100,-814.226536,10955.047942
3810.001503,-766.095498,-222.061783,10807.006753
3810.001817,-1149.143247,-0.000000,10584.944971
3810.002132,-383.047749,-0.000000,10584.944971
3810.002447,229.828649,518.144159,10658.965565
3810.002762,153.219100,-0.000000,10436.903782
3810.003077,383.047749,740.205942,9252.574275
3810.003392,76.609550,962.267725,8586.388927
3810.003706,689.485948,666.185348,8660.409521
3810.004021,1455.581446,-296.082377,9178.553681
3810.004336,1455.581446,-370.102971,9252.574275
3810.004651,459.657299,-1184.329507,9622.677246
3810.004966,0.000000,-1036.288319,9918.759623
3810.005281,-383.047749,-592.164754,10288.862594
3810.005595,-153.219100,-74.020594,9622.677246
3810.005910,76.609550,-518.144159,10140.821405
3810.006225,383.047749,-0.000000,9326.594869
3810.006540,459.657299,-370.102971,9030.512492
3810.006855,766.095498,-0.000000,8882.471304
3810.007170,612.876398,518.144159,8142.265362
3810.007484,919.314598,222.061783,7994.224174
3810.007799,1838.629195,-148.041188,8364.327145
3810.008114,1072.533697,-444.123565,9030.512492
3810.008429,1302.362347,-1406.391290,9622.677246
3810.008744,76.609550,-1628.453072,10362.883188
3810.009059,-1225.752797,-1110.308913,9992.780217
3810.009374,-689.485948,-740.205942,10140.821405
3810.009688,-383.047749,-518.144159,9548.656652
3810.010003,-306.438199,-888.247130,9844.739029
3810.010318,76.609550,-222.061783,9770.718434
3810.010633,0.000000,962.267725,9030.512492
3810.010948,306.438199,1184.329507,8734.430116
3810.011263,1455.581446,518.144159,8882.471304
3810.011577,1608.800546,1036.288319,8512.368333
3810.011892,2068.457845,-0.000000,8438.347739
3810.012207,1302.362347,-592.164754,9474.636058
3810.012522,0.000000,-74.020594,9178.553681
3810.012837,-919.314598,-0.000000,9770.718434
3810.013152,-766.095498,-370.102971,9992.780217
3810.013466,-1072.533697,-0.000000,10066.800811
3810.013781,-1532.190996,-518.144159,10807.006753
3810.014096,-1838.629195,-814.226536,10140.821405
3810.014411,-1991.848295,-0.000000,10288.862594
3810.014726,-612.876398,666.185348,9992.780217
3810.015041,0.000000,1110.308913,9844.739029
3810.015355,536.266849,1332.370696,9622.677246
3810.015670,689.485948,740.205942,10436.903782
3810.015985,229.828649,1110.308913,9474.636058
3810.016300,0.000000,1924.535449,9918.759623
3810.016615,0.000000,1702.473667,9770.718434
3810.016930,76.609550,1184.329507,10214.842000
3810.017244,-459.657299,1036.288319,10436.903782
3810.017559,-919.314598,-518.144159,10881.027347
3810.017874,-1838.629195,-0.000000,10658.965565
3810.018189,-1685.410096,-0.000000,10584.944971
3810.018504,-536.266849,296.082377,10288.862594
3810.018819,612.876398,592.164754,9770.718434
3810.019134,766.095498,-0.000000,9474.636058
3810.019448,919.314598,-0.000000,9400.615463
3810.019763,536.266849,814.226536,9474.636058
3810.020078,612.876398,1332.370696,9252.574275
3810.020393,1532.190996,1036.288319,9104.533087
3810.020708,1532.190996,1110.308913,9918.759623
3810.021023,1149.143247,740.205942,10140.821405
3810.021337,383.047749,666.185348,9844.739029
3810.021652,-306.438199,370.102971,9548.656652
3810.021967,0.000000,-0.000000,9992.780217
3810.022282,459.657299,-0.000000,10066.800811
3810.022597,459.657299,296.082377,9844.739029
3810.022912,689.485948,-370.102971,9622.677246
3810.023226,229.828649,-518.144159,9474.636058
3810.023541,383.047749,-0.000000,8734.430116
3810.023856,1072.533697,-444.123565,8660.409521
3810.024171,1532.190996,-370.102971,8956.491898
3810.024486,612.876398,370.102971,9696.697840
3810.024801,229.828649,-0.000000,9252.574275
3810.025115,229.828649,-222.061783,9400.615463
3810.025430,-536.266849,-74.020594,9474.636058
3810.025745,0.000000,-296.082377,9770.718434
3810.026060,306.438199,-0.000000,9252.574275
3810.026375,229.828649,-444.123565,9770.718434
3810.026690,0.000000,-0.000000,9474.636058
3810.027004,0.000000,444.123565,9104.533087
3810.027319,306.438199,518.144159,8882.471304
3810.027634,536.266849,-444.123565,9474.636058
3810.027949,689.485948,-0.000000,9400.615463
3810.028264,153.219100,-666.185348,10140.821405
3810.028579,-459.657299,-74.020594,9770.718434
3810.028894,-995.924147,-0.000000,9622.677246
3810.029208,-383.047749,444.123565,9252.574275
3810.029523,383.047749,-296.082377,9622.677246
3810.029838,383.047749,-0.000000,9178.553681
3810.030153,459.657299,-296.082377,9474.636058
3810.030468,0.000000,296.082377,8512.368333
3810.030783,-229.828649,740.205942,8142.265362
3810.031097,536.266849,222.061783,8512.368333
3810.031412,842.705048,-0.000000,9104.533087
3810.031727,0.000000,-0.000000,9548.656652
3810.032042,-306.438199,-888.247130,10288.862594
3810.032357,-995.924147,-666.185348,10658.965565
3810.032672,-1608.800546,296.082377,10658.965565
3810.032986,-995.924147,-74.020594,10732.986159
3810.033301,-612.876398,296.082377,11251.130318
3810.033616,-612.876398,74.020594,10584.944971
3810.033931,0.000000,-518.144159,10066.800811
3810.034246,76.609550,1184.329507,9326.594869
3810.034561,153.219100,1406.391290,8882.471304
3810.034875,689.485948,370.102971,8734.430116
3810.035190,612.876398,296.082377,9104.533087
3810.035505,76.609550,-148.041188,10288.862594
3810.035820,-229.828649,-740.205942,10066.800811
3810.036135,-1225.752797,-0.000000,9844.739029
3810.036450,-1225.752797,-444.123565,10658.965565
3810.036764,-842.705048,-444.123565,10881.027347
3810.037079,-383.047749,-74.020594,10510.924376
3810.037394,0.000000,-0.000000,10140.821405
3810.037709,229.828649,-0.000000,9992.780217
3810.038024,153.219100,1036.288319,9104.533087
3810.038339,1149.143247,888.247130,8438.347739
3810.038654,1991.848295,1110.308913,8142.265362
3810.038968,1915.238745,592.164754,8512.368333
3810.039283,1302.362347,-0.000000,9474.636058
3810.039598,766.095498,-0.000000,9252.574275
3810.039913,0.000000,-0.000000,9474.636058
3810.040228,153.219100,-518.144159,9992.780217
3810.040543,153.219100,-444.123565,10066.800811
3810.040857,0.000000,-296.082377,10362.883188
3810.041172,-383.047749,-296.082377,9992.780217
3810.041487,-689.485948,-370.102971,9622.677246
3810.041802,76.609550,-148.041188,9178.553681
3810.042117,1302.362347,444.123565,8734.430116
3810.042432,1762.019645,962.267725,8068.244768
3810.042746,1532.190996,-0.000000,9178.553681
3810.043061,995.924147,-296.082377,9326.594869
3810.043376,0.000000,-148.041188,9178.553681
3810.043691,-153.219100,444.123565,9326.594869
3810.044006,919.314598,-296.082377,10807.006753
3810.044321,76.609550,-74.020594,10288.862594
3810.044635,0.000000,-370.102971,10510.924376
3810.044950,0.000000,-370.102971,9474.636058
3810.045265,-995.924147,222.061783,9918.759623
3810.045580,0.000000,592.164754,9252.574275
3810.045895,766.095498,370.102971,8660.409521
3810.046210,1225.752797,888.247130,9104.533087
3810.046524,1149.143247,-0.000000,9178.553681
3810.046839,689.485948,222.061783,9252.574275
3810.047154,-459.657299,888.247130,9474.636058
3810.047469,-612.876398,296.082377,9844.739029
3810.047784,0.000000,666.185348,10066.800811
3810.048099,0.000000,518.144159,9992.780217
3810.048413,-459.657299,148.041188,10658.965565
3810.048728,-1225.752797,962.267725,9696.697840
3810.049043,-1225.752797,666.185348,9400.615463
3810.049358,-229.828649,370.102971,9326.594869
3810.049673,153.219100,666.185348,9548.656652
3810.049988,0.000000,1110.308913,9030.512492
3810.050303,-766.095498,-0.000000,9770.718434
3810.050617,-1149.143247,-0.000000,9770.718434
3810.050932,-1532.190996,-0.000000,10362.883188
3810.051247,-1149.143247,-74.020594,11177.109724
3810.051562,-1225.752797,518.144159,11029.068536
3810.051877,-919.314598,444.123565,10955.047942
3810.052192,-229.828649,962.267725,9770.718434
3810.052506,-689.485948,1406.391290,9622.677246
3810.052821,383.047749,740.205942,9622.677246
3810.053136,1072.533697,962.267725,8956.491898
3810.053451,1302.362347,1036.288319,8290.306550
3810.053766,1225.752797,-0.000000,8734.430116
3810.054081,766.095498,-0.000000,8512.368333
3810.054395,0.000000,-518.144159,8660.409521
3810.054710,0.000000,-1110.308913,10066.800811
3810.055025,-383.047749,-1110.308913,11103.089130
3810.055340,-766.095498,-814.226536,11177.109724
3810.055655,-689.485948,-592.164754,11547.212695
3810.055970,-919.314598,296.082377,10584.944971
3810.056284,76.609550,962.267725,9770.718434
3810.056599,1149.143247,740.205942,9104.533087
3810.056914,1991.848295,1332.370696,9104.533087
3810.057229,2298.286494,1036.288319,8586.388927
3810.057544,2604.724693,1110.308913,7920.203579
3810.057859,1838.629195,962.267725,8216.285956
3810.058173,1378.971896,-296.082377,8660.409521
3810.058488,1149.143247,-1036.288319,9474.636058
3810.058803,383.047749,-1036.288319,10214.842000
3810.059118,-766.095498,-1850.514855,11473.192101
3810.059433,-1072.533697,-1184.329507,11177.109724
3810.059748,-1455.581446,-1036.288319,10066.800811
3810.060063,-612.876398,-814.226536,9992.780217
3810.060377,612.876398,222.061783,8956.491898
3810.060692,1072.533697,518.144159,7846.182985
3810.061007,2145.067394,-666.185348,8512.368333
3810.061322,1762.019645,370.102971,7846.182985
3810.061637,919.314598,370.102971,7772.162391
3810.061952,1685.410096,-148.041188,9252.574275
3810.062266,1149.143247,148.041188,9918.759623
3810.062581,229.828649,-74.020594,10362.883188
3810.062896,0.000000,-1110.308913,10436.903782
3810.063211,-995.924147,-296.082377,9770.718434
3810.063526,-1225.752797,-370.102971,10584.944971
3810.063841,-842.705048,-74.020594,10066.800811
3810.064155,0.000000,370.102971,9104.533087
3810.064470,536.266849,-74.020594,9252.574275
3810.064785,306.438199,-0.000000,8290.306550
3810.065100,153.219100,148.041188,7624.121203
3810.065415,536.266849,-0.000000,8290.306550
3810.065730,842.705048,-222.061783,9326.594869
3810.066044,76.609550,-74.020594,9474.636058
3810.066359,-842.705048,-444.123565,10288.862594
3810.066674,-995.924147,148.041188,11473.192101
3810.066989,-2068.457845,1036.288319,10288.862594
3810.067304,-1838.629195,962.267725,9844.739029
3810.067619,-766.095498,1332.370696,9844.739029
3810.067933,-153.219100,1554.432478,9178.553681
3810.068248,612.876398,888.247130,9400.615463
3810.068563,-383.047749,1332.370696,9400.615463
3810.068878,0.000000,962.267725,9252.574275
3810.069193,-229.828649,740.205942,9918.759623
3810.069508,-306.438199,222.061783,9844.739029
3810.069823,-995.924147,-0.000000,11251.130318
3810.070137,-1455.581446,-296.082377,11769.274478
3810.070452,-1608.800546,592.164754,11029.068536
3810.070767,-1532.190996,1036.288319,10732.986159
3810.071082,0.000000,962.267725,9918.759623
3810.071397,-229.828649,1258.350101,9918.759623
3810.071712,536.266849,1850.514855,8586.388927
3810.072026,1302.362347,1258.350101,8438.347739
3810.072341,995.924147,592.164754,8216.285956
3810.072656,995.924147,-0.000000,9030.512492
3810.072971,1225.752797,-222.061783,9400.615463
3810.073286,766.095498,-0.000000,10214.842000
3810.073601,0.000000,-666.185348,10955.047942
3810.073915,-459.657299,-666.185348,11103.089130
3810.074230,-1302.362347,740.205942,10807.006753
3810.074545,-536.266849,370.102971,10881.027347
3810.074860,1072.533697,962.267725,9696.697840
3810.075175,1378.971896,592.164754,9326.594869
3810.075490,1685.410096,962.267725,8438.347739
3810.075804,1149.143247,592.164754,8586.388927
3810.076119,1225.752797,962.267725,8364.327145
3810.076434,1378.971896,-370.102971,8808.450710
3810.076749,1685.410096,-962.267725,9104.533087
3810.077064,995.924147,-1480.411884,9696.697840
3810.077379,0.000000,-1332.370696,10807.006753
3810.077693,-1072.533697,-1406.391290,11029.068536
3810.078008,-1685.410096,-370.102971,10584.944971
3810.078323,-459.657299,-888.247130,10362.883188
3810.078638,612.876398,-74.020594,9252.574275
3810.078953,919.314598,518.144159,9252.574275
3810.079268,919.314598,370.102971,8586.388927
3810.079583,459.657299,592.164754,8068.244768
3810.079897,1072.533697,518.144159,8068.244768
3810.080212,2604.724693,592.164754,8216.285956
3810.080527,1838.629195,-370.102971,9400.615463
3810.080842,842.705048,-962.267725,10362.883188
3810.081157,0.000000,-1110.308913,10362.883188
3810.081472,-1378.971896,-666.185348,10510.924376
3810.081786,-1378.971896,-222.061783,10288.862594
3810.082101,-689.485948,-222.061783,9918.759623
3810.082416,-536.266849,-0.000000,9622.677246
3810.082731,-383.047749,-148.041188,9252.574275
3810.083046,-229.828649,444.123565,8364.327145
3810.083361,-383.047749,814.226536,7624.121203
3810.083675,612.876398,370.102971,8660.409521
3810.083990,919.314598,-222.061783,8882.471304
3810.084305,536.266849,-518.144159,9474.636058
3810.084620,306.438199,-740.205942,10214.842000
3810.084935,-536.266849,-296.082377,10362.883188
3810.085250,-1225.752797,518.144159,10584.944971
3810.085564,-919.314598,962.267725,10510.924376
3810.085879,-995.924147,740.205942,10066.800811
3810.086194,-919.314598,1036.288319,9918.759623
3810.086509,-842.705048,740.205942,9474.636058
3810.086824,-689.485948,222.061783,9104.533087
3810.087139,-842.705048,296.082377,9400.615463
3810.087453,229.828649,-0.000000,9474.636058
3810.087768,0.000000,-0.000000,9252.574275
3810.088083,-383.047749,-444.123565,10658.965565
3810.088398,-459.657299,-0.000000,11029.068536
3810.088713,-1149.143247,666.185348,11029.068536
3810.089028,-995.924147,1184.329507,10288.862594
3810.089342,229.828649,740.205942,10214.842000
3810.089657,0.000000,1258.350101,9918.759623
3810.089972,0.000000,666.185348,9622.677246
3810.090287,-536.266849,962.267725,9178.553681
3810.090602,-689.485948,444.123565,9104.533087
3810.090917,1302.362347,-296.082377,8808.450710
3810.091232,1072.533697,-148.041188,9474.636058
3810.091546,689.485948,592.164754,9474.636058
3810.091861,0.000000,-740.205942,10658.965565
3810.092176,-536.266849,-592.164754,10214.842000
3810.092491,-536.266849,-0.000000,10955.047942
3810.092806,229.828649,-0.000000,10140.821405
3810.093121,842.705048,740.205942,9622.677246
3810.093435,1302.362347,1258.350101,9030.512492
3810.093750,1838.629195,1554.432478,8364.327145
3810.094065,1072.533697,1776.494261,8290.306550
3810.094380,1608.800546,592.164754,7772.162391
3810.094695,1991.848295,-370.102971,8512.368333
3810.095010,2374.896044,-74.020594,8290.306550
3810.095324,1149.143247,-888.247130,9474.636058
3810.095639,383.047749,-1258.350101,9548.656652
3810.095954,-612.876398,-1702.473667,10807.006753
3810.096269,-1072.533697,-888.247130,10288.862594
3810.096584,0.000000,-666.185348,10288.862594
3810.096899,383.047749,-222.061783,9918.759623
3810.097213,459.657299,-0.000000,9992.780217
3810.097528,536.266849,666.185348,8882.471304
3810.097843,612.876398,888.247130,8364.327145
3810.098158,1225.752797,888.247130,8512.368333
3810.098473,2681.334243,592.164754,8808.450710
3810.098788,2374.896044,370.102971,8438.347739
3810.099102,1762.019645,-592.164754,9918.759623
3810.099417,536.266849,74.020594,9474.636058
3810.099732,0.000000,-444.123565,9548.656652
3810.100047,-536.266849,-592.164754,9844.739029
3810.100362,-306.438199,-1036.288319,10288.862594
3810.100677,-842.705048,-74.020594,10066.800811
3810.100992,-766.095498,-666.185348,10584.944971
3810.101306,-995.924147,888.247130,8882.471304
3810.101621,-612.876398,518.144159,8586.388927
3810.101936,612.876398,740.205942,9326.594869
3810.102251,1225.752797,962.267725,9252.574275
3810.102566,995.924147,962.267725,9030.512492
3810.102881,766.095498,222.061783,9548.656652
3810.103195,0.000000,518.144159,9178.553681
3810.103510,-995.924147,814.226536,9400.615463
3810.103825,-459.657299,-0.000000,10214.842000
3810.104140,-842.705048,-0.000000,10510.924376
3810.104455,-2068.457845,-0.000000,10584.944971
3810.104770,-2221.676944,-222.061783,10510.924376
3810.105084,-2528.115143,444.123565,9918.759623
3810.105399,-1378.971896,-0.000000,10066.800811
3810.105714,-612.876398,-0.000000,9918.759623
3810.106029,0.000000,370.102971,9104.533087
3810.106344,-153.219100,-148.041188,9474.636058
3810.106659,459.657299,444.123565,9252.574275
3810.106973,0.000000,888.247130,9030.512492
3810.107288,0.000000,148.041188,9474.636058
3810.107603,766.095498,962.267725,9622.677246
3810.107918,0.000000,888.247130,10732.986159
3810.108233,-383.047749,740.205942,10362.883188
3810.108548,-1072.533697,222.061783,10436.903782
3810.108863,-995.924147,-0.000000,9992.780217
3810.109177,0.000000,-0.000000,9992.780217
3810.109492,459.657299,518.144159,9252.574275
3810.109807,612.876398,444.123565,9770.718434
3810.110122,536.266849,-222.061783,9844.739029
3810.110437,459.657299,296.082377,9400.615463
3810.110752,229.828649,222.061783,9178.553681
3810.111066,1302.362347,-74.020594,9622.677246
3810.111381,1072.533697,222.061783,9770.718434
3810.111696,459.657299,-0.000000,9622.677246
3810.112011,153.219100,-74.020594,10066.800811
3810.112326,0.000000,518.144159,9474.636058
3810.112641,0.000000,370.102971,9622.677246
3810.112955,995.924147,740.205942,9548.656652
3810.113270,1302.362347,222.061783,9696.697840
3810.113585,1302.362347,-74.020594,9326.594869
3810.113900,842.705048,-444.123565,9252.574275
3810.114215,766.095498,148.041188,8660.409521
3810.114530,1378.971896,-222.061783,9252.574275
3810.114845,1302.362347,-888.247130,9474.636058
3810.115159,459.657299,-370.102971,9696.697840
3810.115474,766.095498,-444.123565,10732.986159
3810.115789,-383.047749,-444.123565,9770.718434
3810.116104,-459.657299,-0.000000,9548.656652
3810.116419,306.438199,-296.082377,10362.883188
3810.116734,842.705048,-296.082377,9474.636058
3810.117048,842.705048,-592.164754,9252.574275
3810.117363,1072.533697,-0.000000,9252.574275
3810.117678,995.924147,592.164754,8438.347739
3810.117993,766.095498,-0.000000,8586.388927
3810.118308,1225.752797,-148.041188,8438.347739
3810.118623,1072.533697,-296.082377,8882.471304
3810.118937,76.609550,-518.144159,9400.615463
3810.119252,-459.657299,-888.247130,10214.842000
3810.119567,-1378.971896,-222.061783,9844.739029
3810.119882,-1225.752797,-222.061783,10140.821405
3810.120197,-612.876398,-296.082377,10066.800811
3810.120512,-612.876398,444.123565,10288.862594
3810.120826,-383.047749,-0.000000,9844.739029
3810.121141,0.000000,222.061783,8956.491898
3810.121456,-306.438199,888.247130,8808.450710
3810.121771,-229.828649,1036.288319,9252.574275
3810.122086,536.266849,740.205942,8882.471304
3810.122401,383.047749,740.205942,9178.553681
3810.122716,-842.705048,296.082377,10140.821405
3810.123030,-1455.581446,296.082377,9992.780217
3810.123345,-1762.019645,222.061783,9918.759623
3810.123660,-1532.190996,-222.061783,10584.944971
3810.123975,-1149.143247,-222.061783,11251.130318
3810.124290,-1455.581446,-0.000000,10584.944971
3810.124605,-1149.143247,-0.000000,9992.780217
3810.124919,-995.924147,666.185348,9844.739029
3810.125234,-153.219100,962.267725,9104.533087
3810.125549,842.705048,1184.329507,9104.533087
3810.125864,842.705048,592.164754,8882.471304
3810.126179,689.485948,370.102971,9770.718434
3810.126494,842.705048,148.041188,9992.780217
3810.126808,-383.047749,666.185348,9696.697840
3810.127123,-536.266849,296.082377,10732.986159
3810.127438,-306.438199,-0.000000,10584.944971
3810.127753,-229.828649,222.061783,10807.006753
3810.128068,153.219100,-0.000000,10658.965565
3810.128383,-612.876398,148.041188,9918.759623
3810.128698,-76.609550,296.082377,9104.533087
3810.129012,919.314598,740.205942,8734.430116
3810.129327,1685.410096,444.123565,9030.512492
3810.129642,1685.410096,370.102971,8512.368333
3810.129957,1225.752797,-74.020594,9696.697840
3810.130272,1149.143247,370.102971,9326.594869
3810.130587,0.000000,740.205942,9252.574275
3810.130901,459.657299,222.061783,9696.697840
3810.131216,612.876398,-518.144159,10658.965565
3810.131531,0.000000,-74.020594,10436.903782
3810.131846,0.000000,-814.226536,9992.780217
3810.132161,-459.657299,-74.020594,9474.636058
3810.132476,-229.828649,148.041188,9178.553681
3810.132790,919.314598,-74.020594,8808.450710
3810.133105,1149.143247,-0.000000,8438.347739
3810.133420,459.657299,-518.144159,9104.533087
3810.133735,153.219100,-1110.308913,9474.636058
3810.134050,-536.266849,-814.226536,9326.594869
3810.134365,-536.266849,-444.123565,9992.780217
3810.134679,0.000000,-0.000000,10436.903782
3810.134994,153.219100,-296.082377,9770.718434
3810.135309,536.266849,-74.020594,9992.780217
3810.135624,459.657299,370.102971,9400.615463
3810.135939,383.047749,814.226536,8364.327145
3810.136254,1149.143247,888.247130,8216.285956
3810.136569,1608.800546,370.102971,7846.182985
3810.136883,1762.019645,148.041188,8068.244768
3810.137198,919.314598,-814.226536,8438.347739
3810.137513,229.828649,-962.267725,9178.553681
3810.137828,-1149.143247,-814.226536,10288.862594
3810.138143,-1225.752797,-666.185348,10436.903782
3810.138458,-689.485948,-0.000000,11029.068536
3810.138772,-919.314598,-0.000000,10881.027347
3810.139087,-306.438199,-296.082377,10436.903782
3810.139402,-306.438199,222.061783,9548.656652
3810.139717,153.219100,1110.308913,9400.615463
3810.140032,1149.143247,1924.535449,9104.533087
3810.140347,1838.629195,1332.370696,8290.306550
3810.140661,1532.190996,1480.411884,8882.471304
3810.140976,919.314598,296.082377,9178.553681
3810.141291,-383.047749,-148.041188,9474.636058
3810.141606,-1072.533697,-0.000000,10288.862594
3810.141921,-919.314598,-0.000000,11251.130318
3810.142236,-1378.971896,-370.102971,11177.109724
3810.142551,-1685.410096,-592.164754,11695.253884
3810.142865,-1532.190996,-370.102971,11399.171507
3810.143180,-1378.971896,592.164754,9696.697840
3810.143495,459.657299,888.247130,9548.656652
3810.143810,842.705048,1924.535449,9104.533087
3810.144125,1302.362347,1850.514855,8216.285956
3810.144440,1225.752797,1258.350101,8586.388927
3810.144754,919.314598,666.185348,8808.450710
3810.145069,306.438199,518.144159,9326.594869
3810.145384,383.047749,148.041188,10436.903782
3810.145699,0.000000,222.061783,10584.944971
3810.146014,-919.314598,-0.000000,11251.130318
3810.146329,-689.485948,296.082377,10732.986159
3810.146643,-995.924147,296.082377,11103.089130
3810.146958,-383.047749,592.164754,10288.862594
3810.147273,536.266849,592.164754,9622.677246
3810.147588,1378.971896,1184.329507,8882.471304
3810.147903,1149.143247,814.226536,8438.347739
3810.148218,1302.362347,-0.000000,8216.285956
3810.148532,689.485948,-0.000000,8364.327145
3810.148847,459.657299,-74.020594,9178.553681
3810.149162,919.314598,-1110.308913,10288.862594
3810.149477,0.000000,-444.123565,10214.842000
3810.149792,0.000000,-370.102971,11399.171507
3810.150107,-612.876398,-222.061783,10807.006753
3810.150422,-1378.971896,148.041188,9992.780217
3810.150736,-153.219100,-0.000000,9474.636058
3810.151051,1072.533697,518.144159,9252.574275
3810.151366,1149.143247,370.102971,8364.327145
3810.151681,1149.143247,-0.000000,8216.285956
3810.151996,612.876398,-296.082377,8290.306550
3810.152311,459.657299,-592.164754,8882.471304
3810.152625,995.924147,-1110.308913,9918.759623
3810.152940,842.705048,-1258.350101,9918.759623
3810.153255,-919.314598,-1110.308913,10584.944971
3810.153570,-766.095498,-518.144159,11029.068536
3810.153885,-1455.581446,-148.041188,10140.821405
3810.154200,-1302.362347,666.185348,9474.636058
3810.154514,0.000000,-0.000000,9474.636058
3810.154829,995.924147,592.164754,8586.388927
3810.155144,1225.752797,148.041188,8216.285956
3810.155459,1302.362347,740.205942,8512.368333
3810.155774,689.485948,962.267725,8290.306550
3810.156089,536.266849,370.102971,8364.327145
3810.156403,1072.533697,-592.164754,9844.739029
3810.156718,306.438199,-1110.308913,10436.903782
3810.157033,-306.438199,-1332.370696,10881.027347
3810.157348,-766.095498,-222.061783,10807.006753
3810.157663,-1685.410096,222.061783,10584.944971
3810.157978,-689.485948,814.226536,9770.718434
3810.158293,153.219100,666.185348,9474.636058
3810.158607,919.314598,962.267725,8216.285956
3810.158922,1302.362347,740.205942,7920.203579
3810.159237,612.876398,444.123565,7846.182985
3810.159552,153.219100,740.205942,8216.285956
3810.159867,76.609550,222.061783,9030.512492
3810.160182,153.219100,-962.267725,9696.697840
3810.160496,-459.657299,-962.267725,11325.150913
3810.160811,-766.095498,-666.185348,11103.089130
3810.161126,-1915.238745,-148.041188,11251.130318
3810.161441,-1915.238745,814.226536,10732.986159
3810.161756,-306.438199,1184.329507,10362.883188
3810.162071,536.266849,1628.453072,9178.553681
3810.162385,383.047749,888.247130,9326.594869
3810.162700,612.876398,814.226536,9104.533087
3810.163015,689.485948,740.205942,8512.368333
3810.163330,766.095498,370.102971,9178.553681
3810.163645,919.314598,296.082377,9474.636058
3810.163960,459.657299,-148.041188,10658.965565
3810.164275,-383.047749,-518.144159,10584.944971
3810.164589,-689.485948,-888.247130,11251.130318
3810.164904,-1685.410096,-444.123565,10584.944971
3810.165219,-1455.581446,-74.020594,10732.986159
3810.165534,0.000000,1184.329507,9622.677246
3810.165849,383.047749,1406.391290,8956.491898
3810.166164,1072.533697,740.205942,8512.368333
3810.166478,1455.581446,370.102971,8290.306550
3810.166793,1225.752797,814.226536,7772.162391
3810.167108,1455.581446,-0.000000,8660.409521
3810.167423,1302.362347,148.041188,9252.574275
3810.167738,612.876398,-148.041188,10584.944971
3810.168053,0.000000,-740.205942,10658.965565
3810.168367,-766.095498,-666.185348,11251.130318
3810.168682,-1608.800546,-0.000000,10955.047942
3810.168997,-995.924147,-0.000000,10140.821405
3810.169312,383.047749,592.164754,9474.636058
3810.169627,153.219100,370.102971,9622.677246
3810.169942,459.657299,296.082377,8364.327145
3810.170256,689.485948,296.082377,7550.100608
3810.170571,1072.533697,222.061783,7846.182985
3810.170886,1762.019645,-222.061783,8808.450710
3810.171201,1455.581446,222.061783,8956.491898
3810.171516,919.314598,-74.020594,9918.759623
3810.171831,229.828649,-370.102971,9992.780217
3810.172146,-612.876398,-814.226536,10140.821405
3810.172460,-229.828649,-148.041188,10807.006753
3810.172775,0.000000,222.061783,10807.006753
3810.173090,-383.047749,814.226536,9992.780217
3810.173405,-459.657299,740.205942,9178.553681
3810.173720,0.000000,518.144159,8438.347739
3810.174035,0.000000,222.061783,8364.327145
3810.174349,842.705048,-444.123565,9252.574275
3810.174664,1455.581446,-74.020594,9252.574275
3810.174979,306.438199,-0.000000,9474.636058
3810.175294,153.219100,-814.226536,10214.842000
3810.175609,-153.219100,-0.000000,11029.068536
3810.175924,-1762.019645,592.164754,10510.924376
3810.176238,-766.095498,666.185348,10362.883188
3810.176553,0.000000,518.144159,9696.697840
3810.176868,229.828649,666.185348,9104.533087
3810.177183,76.609550,740.205942,8882.471304
3810.177498,0.000000,814.226536,7994.224174
3810.177813,0.000000,-0.000000,8882.471304
3810.178128,306.438199,-0.000000,9178.553681
3810.178442,536.266849,-0.000000,9400.615463
3810.178757,0.000000,-666.185348,10584.944971
3810.179072,-306.438199,-666.185348,10732.986159
3810.179387,-919.314598,-0.000000,10658.965565
3810.179702,-766.095498,444.123565,10732.986159
3810.180017,-229.828649,888.247130,10510.924376
3810.180331,0.000000,962.267725,10436.903782
3810.180646,76.609550,962.267725,9400.615463
3810.180961,306.438199,1036.288319,8882.471304
3810.181276,919.314598,814.226536,8364.327145
3810.181591,1608.800546,740.205942,8586.388927
3810.181906,1762.019645,-0.000000,8882.471304
3810.182220,995.924147,-74.020594,9770.718434
3810.182535,383.047749,-814.226536,9992.780217
3810.182850,0.000000,-1036.288319,10584.944971
3810.183165,-842.705048,-444.123565,11029.068536
3810.183480,-459.657299,-74.020594,10436.903782
3810.183795,153.219100,444.123565,9992.780217
3810.184109,76.609550,444.123565,9622.677246
3810.184424,306.438199,518.144159,9252.574275
3810.184739,306.438199,666.185348,8512.368333
3810.185054,919.314598,-0.000000,8438.347739
3810.185369,1302.362347,-296.082377,8660.409521
3810.185684,1455.581446,-518.144159,9400.615463
3810.185999,995.924147,-296.082377,9252.574275
3810.186313,306.438199,-518.144159,10140.821405
3810.186628,-995.924147,-296.082377,10510.924376
3810.186943,-995.924147,-74.020594,10288.862594
3810.187258,-459.657299,-296.082377,10066.800811
3810.187573,-689.485948,-296.082377,9992.780217
3810.187888,-383.047749,370.102971,9918.759623
3810.188202,-459.657299,-370.102971,9104.533087
3810.188517,-689.485948,-0.000000,8068.244768
3810.188832,153.219100,-222.061783,8586.388927
3810.189147,1149.143247,-888.247130,8660.409521
3810.189462,1302.362347,-592.164754,8586.388927
3810.189777,383.047749,-444.123565,9178.553681
3810.190091,0.000000,-518.144159,9548.656652
3810.190406,-919.314598,-666.185348,9104.533087
3810.190721,-536.266849,-814.226536,9918.759623
3810.191036,0.000000,-370.102971,10140.821405
3810.191351,-459.657299,-0.000000,9844.739029
3810.191666,-459.657299,444.123565,9400.615463
3810.191981,-995.924147,740.205942,8734.430116
3810.192295,766.095498,518.144159,9548.656652
3810.192610,842.705048,1406.391290,9178.553681
3810.192925,612.876398,370.102971,8956.491898
3810.193240,842.705048,-74.020594,9770.718434
3810.193555,306.438199,-0.000000,9400.615463
3810.193870,-153.219100,-0.000000,9770.718434
3810.194184,-153.219100,-222.061783,10362.883188
3810.194499,0.000000,222.061783,9992.780217
3810.194814,0.000000,444.123565,10510.924376
3810.195129,-306.438199,296.082377,9918.759623
3810.195444,-459.657299,592.164754,9918.759623
3810.195759,-459.657299,962.267725,9252.574275
3810.196073,0.000000,740.205942,9252.574275
3810.196388,612.876398,592.164754,9326.594869
3810.196703,766.095498,444.123565,9474.636058
3810.197018,229.828649,518.144159,9770.718434
3810.197333,0.000000,-0.000000,9992.780217
3810.197648,-383.047749,444.123565,10066.800811
3810.197962,0.000000,296.082377,10288.862594
3810.198277,229.828649,444.123565,10510.924376
3810.198592,0.000000,666.185348,10881.027347
3810.198907,-689.485948,444.123565,10732.986159
3810.199222,-766.095498,740.205942,10732.986159
3810.199537,-842.705048,1036.288319,9770.718434
3810.199852,536.266849,370.102971,9918.759623
3810.200166,1685.410096,740.205942,9104.533087
3810.200481,1072.533697,592.164754,8808.450710
3810.200796,1072.533697,-0.000000,9326.594869
3810.201111,536.266849,296.082377,8956.491898
3810.201426,229.828649,444.123565,8660.409521
3810.201741,1378.971896,-444.123565,9844.739029
3810.202055,612.876398,-370.102971,9622.677246
3810.202370,-229.828649,-0.000000,9474.636058
3810.202685,-842.705048,-0.000000,9696.697840
3810.203000,-1225.752797,222.061783,9770.718434
3810.203315,-229.828649,-148.041188,10436.903782
3810.203630,536.266849,592.164754,9918.759623
3810.203944,459.657299,148.041188,9918.759623
3810.204259,612.876398,370.102971,9474.636058
3810.204574,766.095498,296.082377,9104.533087
3810.204889,536.266849,888.247130,8734.430116
3810.205204,1149.143247,-0.000000,9326.594869
3810.205518,1149.143247,-0.000000,9104.533087
3810.205833,0.000000,-0.000000,9252.574275
3810.206148,0.000000,-222.061783,10288.862594
3810.206462,-1378.971896,-518.144159,9992.780217
3810.206777,-1608.800546,-814.226536,9548.656652
3810.207092,-153.219100,-1036.288319,10362.883188
3810.207406,0.000000,-370.102971,9844.739029
3810.207721,536.266849,-370.102971,9770.718434
3810.208036,0.000000,-148.041188,9548.656652
3810.208350,-153.219100,-0.000000,8512.368333
3810.208665,229.828649,444.123565,8586.388927
3810.208979,1072.533697,-0.000000,9030.512492
3810.209294,995.924147,-74.020594,9474.636058
3810.209609,842.705048,-222.061783,9474.636058
3810.209923,-383.047749,-222.061783,10288.862594
3810.210238,-919.314598,592.164754,10362.883188
3810.210553,-995.924147,296.082377,10214.842000
3810.210867,306.438199,-296.082377,10288.862594
3810.211182,76.609550,370.102971,9548.656652
3810.211497,306.438199,-74.020594,9474.636058
3810.211811,76.609550,444.123565,8734.430116
3810.212126,76.609550,592.164754,8734.430116
3810.212441,1302.362347,-0.000000,8734.430116
3810.212755,995.924147,148.041188,8438.347739
3810.213070,689.485948,444.123565,9326.594869
3810.213385,536.266849,-370.102971,9918.759623
3810.213699,-383.047749,-74.020594,9770.718434
3810.214014,-842.705048,148.041188,10510.924376
3810.214329,-842.705048,222.061783,10584.944971
3810.214643,-459.657299,-0.000000,10510.924376
3810.214958,-919.314598,-74.020594,10658.965565
3810.215273,-459.657299,296.082377,10214.842000
3810.215587,-536.266849,296.082377,9474.636058
3810.215902,-383.047749,518.144159,9252.574275
3810.216216,612.876398,370.102971,9326.594869
3810.216531,689.485948,962.267725,9030.512492
3810.216846,0.000000,444.123565,9474.636058
3810.217160,0.000000,222.061783,10140.821405
3810.217475,-383.047749,518.144159,9770.718434
3810.217790,-612.876398,222.061783,10140.821405
3810.218104,153.219100,444.123565,9770.718434
3810.218419,76.609550,-0.000000,10658.965565
3810.218734,-229.828649,148.041188,9844.739029
3810.219048,-153.219100,296.082377,9326.594869
3810.219363,-383.047749,444.123565,9326.594869
3810.219678,1072.533697,-222.061783,8512.368333
3810.219992,1532.190996,-0.000000,8586.388927
3810.220307,689.485948,444.123565,8660.409521
3810.220622,306.438199,-0.000000,9474.636058
3810.220936,153.219100,-814.226536,9992.780217
3810.221251,-689.485948,-222.061783,10066.800811
3810.221566,-536.266849,-222.061783,10807.006753
3810.221880,0.000000,-0.000000,11029.068536
3810.222195,76.609550,444.123565,10362.883188
3810.222510,306.438199,222.061783,10140.821405
3810.222824,383.047749,962.267725,9400.615463
3810.223139,689.485948,592.164754,8956.491898
3810.223453,1685.410096,74.020594,7994.224174
3810.223768,1762.019645,-0.000000,8586.388927
3810.224083,1302.362347,-296.082377,8660.409521
3810.224397,995.924147,-888.247130,9252.574275
3810.224712,-229.828649,-296.082377,9474.636058
3810.225027,-383.047749,-518.144159,10214.842000
3810.225341,76.609550,-1110.308913,10584.944971
3810.225656,0.000000,-518.144159,10288.862594
3810.225971,306.438199,-370.102971,10658.965565
3810.226285,76.609550,-0.000000,9474.636058
3810.226600,-76.609550,740.205942,9400.615463
3810.226915,842.705048,666.185348,8734.430116
3810.227229,1838.629195,740.205942,8216.285956
3810.227544,1532.190996,888.247130,8438.347739
3810.227859,1302.362347,666.185348,9252.574275
3810.228173,536.266849,444.123565,9400.615463
3810.228488,0.000000,-148.041188,9474.636058
3810.228803,-536.266849,-0.000000,9918.759623
3810.229117,0.000000,-666.185348,10658.965565
3810.229432,-1149.143247,-444.123565,10807.006753
3810.229747,-995.924147,-592.164754,10510.924376
3810.230061,-1302.362347,-0.000000,9548.656652
3810.230376,-612.876398,370.102971,8956.491898
3810.230690,536.266849,962.267725,8216.285956
3810.231005,842.705048,1036.288319,8290.306550
3810.231320,459.657299,518.144159,8364.327145
3810.231634,229.828649,-0.000000,8882.471304
3810.231949,-229.828649,444.123565,8734.430116
3810.232264,-842.705048,-0.000000,9992.780217
3810.232578,-229.828649,-0.000000,10881.027347
3810.232893,-612.876398,-0.000000,11029.068536
3810.233208,-1302.362347,-74.020594,10510.924376
3810.233522,-1302.362347,-0.000000,11251.130318
3810.233837,-1532.190996,1036.288319,10288.862594
3810.234152,-995.924147,888.247130,9770.718434
3810.234466,76.609550,1406.391290,9104.533087
3810.234781,842.705048,666.185348,8586.388927
3810.235096,842.705048,148.041188,8808.450710
3810.235410,995.924147,-0.000000,9400.615463
3810.235725,-383.047749,-0.000000,9696.697840
3810.236040,0.000000,-74.020594,9622.677246
3810.236354,306.438199,222.061783,10584.944971
3810.236669,-306.438199,740.205942,10584.944971
3810.236984,-1149.143247,-222.061783,11029.068536
3810.237298,-306.438199,-370.102971,11251.130318
3810.237613,-766.095498,888.247130,10140.821405
3810.237928,-306.438199,740.205942,9030.512492
3810.238242,1149.143247,814.226536,9178.553681
3810.238557,1225.752797,1110.308913,9104.533087
3810.238871,1378.971896,740.205942,9252.574275
3810.239186,689.485948,444.123565,9104.533087
3810.239501,536.266849,-0.000000,9326.594869
3810.239815,1072.533697,-518.144159,10807.006753
3810.240130,459.657299,-148.041188,10881.027347
3810.240445,-153.219100,-444.123565,11103.089130
3810.240759,-459.657299,-814.226536,11177.109724
3810.241074,-842.705048,-148.041188,10140.821405
3810.241389,229.828649,-0.000000,9326.594869
3810.241703,1072.533697,-0.000000,8512.368333
3810.242018,1378.971896,-222.061783,8290.306550
3810.242333,1685.410096,-518.144159,8142.265362
3810.242647,1302.362347,-370.102971,8068.244768
3810.242962,229.828649,-592.164754,8142.265362
3810.243277,766.095498,-1184.329507,9548.656652
3810.243591,995.924147,-1036.288319,9696.697840
3810.243906,0.000000,-962.267725,9918.759623
3810.244221,-306.438199,-962.267725,10510.924376
3810.244535,-306.438199,-296.082377,10658.965565
3810.244850,-1149.143247,518.144159,9770.718434
3810.245165,76.609550,592.164754,8882.471304
3810.245479,842.705048,666.185348,7772.162391
3810.245794,1225.752797,-0.000000,7846.182985
3810.246108,1608.800546,-296.082377,8068.244768
3810.246423,689.485948,-0.000000,7994.224174
3810.246738,229.828649,-148.041188,8290.306550
3810.247052,689.485948,-370.102971,8956.491898
3810.247367,153.219100,-296.082377,9992.780217
3810.247682,-612.876398,-444.123565,10436.903782
3810.247996,-995.924147,-592.164754,10881.027347
3810.248311,-1991.848295,296.082377,10510.924376
3810.248626,-1532.190996,740.205942,9474.636058
3810.248940,-612.876398,1110.308913,9400.615463
3810.249255,-229.828649,1258.350101,9400.615463
3810.249570,153.219100,1184.329507,9030.512492
3810.249884,229.828649,1110.308913,8142.265362
3810.250199,0.000000,1110.308913,8216.285956
3810.250514,0.000000,-0.000000,9844.739029
3810.250828,0.000000,296.082377,10066.800811
3810.251143,-459.657299,-0.000000,10807.006753
3810.251458,-1072.533697,-222.061783,11621.233289
3810.251772,-2145.067394,-0.000000,11843.295072
3810.252087,-1685.410096,1184.329507,10658.965565
3810.252402,-1225.752797,1406.391290,10362.883188
3810.252716,0.000000,1998.556043,9474.636058
3810.253031,459.657299,1554.432478,8734.430116
3810.253345,1072.533697,1850.514855,8290.306550
3810.253660,919.314598,1184.329507,8216.285956
3810.253975,0.000000,-0.000000,8734.430116
3810.254289,1149.143247,518.144159,9770.718434
3810.254604,766.095498,296.082377,9992.780217
3810.254919,0.000000,-592.164754,11177.109724
3810.255233,-1149.143247,-814.226536,11695.253884
3810.255548,-1378.971896,-444.123565,11843.295072
3810.255863,-1378.971896,444.123565,11843.295072
3810.256177,-229.828649,962.267725,10362.883188
3810.256492,306.438199,1184.329507,9548.656652
3810.256807,766.095498,1036.288319,9326.594869
3810.257121,1608.800546,888.247130,8882.471304
3810.257436,1072.533697,222.061783,7994.224174
3810.257751,1915.238745,592.164754,8290.306550
3810.258065,1991.848295,-0.000000,9474.636058
3810.258380,1149.143247,-370.102971,9696.697840
3810.258695,229.828649,-814.226536,11177.109724
3810.259009,-306.438199,-1036.288319,10584.944971
3810.259324,-919.314598,-296.082377,10362.883188
3810.259639,-229.828649,-370.102971,10066.800811
3810.259953,76.609550,-0.000000,9918.759623
3810.260268,153.219100,148.041188,9104.533087
3810.260582,612.876398,-222.061783,8512.368333
3810.260897,536.266849,-74.020594,7476.080014
3810.261212,919.314598,-148.041188,7920.203579
3810.261526,1915.238745,-0.000000,8586.388927
3810.261841,1838.629195,-592.164754,9030.512492
3810.262156,919.314598,-814.226536,9474.636058
3810.262470,306.438199,-1332.370696,9992.780217
3810.262785,-536.266849,-370.102971,9770.718434
3810.263100,-536.266849,-296.082377,10732.986159
3810.263414,153.219100,222.061783,9844.739029
3810.263729,0.000000,296.082377,8734.430116
3810.264044,0.000000,592.164754,8586.388927
3810.264358,306.438199,-74.020594,8290.306550
3810.264673,76.609550,-0.000000,7624.121203
3810.264988,383.047749,-296.082377,8586.388927
3810.265302,842.705048,-370.102971,8586.388927
3810.265617,153.219100,-740.205942,9548.656652
3810.265932,153.219100,-1332.370696,10510.924376
3810.266246,-995.924147,-962.267725,10658.965565
3810.266561,-1149.143247,-444.123565,10732.986159
3810.266876,-919.314598,370.102971,10362.883188
3810.267190,-306.438199,814.226536,9548.656652
3810.267505,-383.047749,1184.329507,9844.739029
3810.267820,-229.828649,1258.350101,9918.759623
3810.268134,-383.047749,1258.350101,8290.306550
3810.268449,-153.219100,592.164754,8882.471304
3810.268763,383.047749,370.102971,9844.739029
3810.269078,383.047749,-222.061783,9844.739029
3810.269393,76.609550,-1406.391290,10436.903782
3810.269707,-612.876398,-1036.288319,11769.274478
3810.270022,-1685.410096,-0.000000,11029.068536
3810.270337,-1838.629195,592.164754,10955.047942
3810.270651,-612.876398,962.267725,10658.965565
3810.270966,-612.876398,1258.350101,9696.697840
3810.271281,76.609550,962.267725,9030.512492
3810.271595,536.266849,1258.350101,8512.368333
3810.271910,229.828649,1332.370696,8660.409521
3810.272225,995.924147,1184.329507,8364.327145
3810.272539,1302.362347,-296.082377,9548.656652
3810.272854,689.485948,-296.082377,9622.677246
3810.273169,229.828649,-666.185348,10584.944971
3810.273483,0.000000,-296.082377,10214.842000
3810.273798,-1302.362347,518.144159,10066.800811
3810.274113,-459.657299,1036.288319,10288.862594
3810.274427,0.000000,444.123565,9474.636058
3810.274742,-383.047749,370.102971,9474.636058
3810.275057,459.657299,222.061783,9918.759623
3810.275371,306.438199,444.123565,8808.450710
3810.275686,306.438199,592.164754,8882.471304
3810.276000,1149.143247,518.144159,8956.491898
3810.276315,1838.629195,518.144159,9104.533087
3810.276630,1608.800546,-0.000000,8808.450710
3810.276944,1302.362347,-444.123565,9992.780217
3810.277259,612.876398,-222.061783,10066.800811
3810.277574,-459.657299,-0.000000,9844.739029
3810.277888,153.219100,-148.041188,10214.842000
3810.278203,306.438199,-0.000000,10066.800811
3810.278518,766.095498,296.082377,9770.718434
3810.278832,689.485948,222.061783,9622.677246
3810.279147,153.219100,-0.000000,9178.553681
3810.279462,459.657299,1036.288319,8216.285956
3810.279776,1149.143247,740.205942,8512.368333
3810.280091,1225.752797,-0.000000,8956.491898
3810.280406,919.314598,-592.164754,9474.636058
3810.280720,842.705048,-740.205942,9622.677246
3810.281035,0.000000,-666.185348,9844.739029
3810.281350,-229.828649,-444.123565,10510.924376
3810.281664,229.828649,-296.082377,10732.986159
3810.281979,-383.047749,592.164754,9844.739029
3810.282294,0.000000,518.144159,9770.718434
3810.282608,-383.047749,1110.308913,9474.636058
3810.282923,0.000000,666.185348,9326.594869
3810.283237,76.609550,444.123565,9252.574275
3810.283552,459.657299,444.123565,9030.512492
3810.283867,229.828649,222.061783,8956.491898
3810.284181,76.609550,-592.164754,9844.739029
3810.284496,-383.047749,-592.164754,9844.739029
3810.284811,-689.485948,-148.041188,10140.821405
3810.285125,-689.485948,-296.082377,10584.944971
3810.285440,-536.266849,370.102971,9844.739029
3810.285755,-1685.410096,296.082377,10510.924376
3810.286069,-1378.971896,296.082377,10140.821405
3810.286384,-1685.410096,592.164754,9548.656652
3810.286699,-766.095498,444.123565,9104.533087
3810.287013,459.657299,370.102971,9622.677246
3810.287328,612.876398,370.102971,9178.553681
3810.287643,536.266849,-370.102971,9326.594869
3810.287957,0.000000,-74.020594,10214.842000
3810.288272,-306.438199,148.041188,9474.636058
3810.288587,0.000000,-148.041188,9770.718434
3810.288901,153.219100,-0.000000,10807.006753
3810.289216,153.219100,-74.020594,10807.006753
3810.289531,-383.047749,444.123565,9622.677246
3810.289845,-1072.533697,222.061783,9622.677246
3810.290160,-689.485948,222.061783,9770.718434
3810.290474,766.095498,444.123565,9696.697840
3810.290789,1072.533697,666.185348,9104.533087
3810.291104,1302.362347,-0.000000,9178.553681
3810.291418,919.314598,-74.020594,9178.553681
3810.291733,383.047749,-0.000000,9030.512492
3810.292048,612.876398,-0.000000,9178.553681
3810.292362,842.705048,-370.102971,10066.800811
3810.292677,459.657299,-74.020594,9548.656652
3810.292992,76.609550,-222.061783,9918.759623
3810.293306,0.000000,-0.000000,9918.759623
3810.293621,-612.876398,-0.000000,10140.821405
3810.293936,-459.657299,-0.000000,9918.759623
3810.294250,459.657299,-0.000000,9178.553681
3810.294565,842.705048,-0.000000,9326.594869
3810.294880,995.924147,-0.000000,8882.471304
3810.295194,1302.362347,-0.000000,8586.388927
3810.295509,459.657299,-0.000000,8660.409521
3810.295824,306.438199,-0.000000,8956.491898
3810.296138,995.924147,-74.020594,9400.615463
3810.296453,383.047749,-370.102971,9474.636058
3810.296768,0.000000,-666.185348,9548.656652
3810.297082,-1072.533697,-518.144159,10362.883188
3810.297397,-1455.581446,-370.102971,9918.759623
3810.297712,-995.924147,-518.144159,10584.944971
3810.298026,0.000000,-74.020594,9918.759623
3810.298341,383.047749,-222.061783,9104.533087
3810.298655,919.314598,370.102971,9474.636058
3810.298970,459.657299,962.267725,8660.409521
3810.299285,383.047749,962.267725,8512.368333
3810.299599,1302.362347,888.247130,9178.553681
3810.299914,1685.410096,592.164754,9474.636058
3810.300229,842.705048,518.144159,9326.594869
3810.300543,306.438199,-0.000000,9844.739029
3810.300858,-995.924147,518.144159,9696.697840
3810.301173,-1455.581446,148.041188,10066.800811
3810.301487,306.438199,-0.000000,10732.986159
3810.301802,-995.924147,296.082377,9696.697840
3810.302117,-919.314598,-0.000000,10140.821405
3810.302431,-766.095498,-0.000000,9548.656652
3810.302746,-842.705048,148.041188,8956.491898
3810.303061,-306.438199,-222.061783,9622.677246
3810.303375,383.047749,74.020594,9992.780217
3810.303690,536.266849,740.205942,9252.574275
3810.304005,76.609550,222.061783,10066.800811
3810.304320,-306.438199,1110.308913,9918.759623
3810.304634,-689.485948,1332.370696,10140.821405
3810.304949,-536.266849,592.164754,9992.780217
3810.305264,-306.438199,-0.000000,10066.800811
3810.305579,-383.047749,370.102971,9918.759623
3810.305893,0.000000,-222.061783,9992.780217
3810.306208,-306.438199,-296.082377,9696.697840
3810.306523,0.000000,-222.061783,9252.574275
3810.306838,383.047749,-0.000000,8216.285956
3810.307152,1225.752797,-148.041188,8956.491898
3810.307467,1149.143247,-0.000000,9178.553681
3810.307782,766.095498,-148.041188,9474.636058
3810.308097,229.828649,222.061783,9474.636058
3810.308411,-306.438199,370.102971,9548.656652
3810.308726,459.657299,296.082377,10214.842000
3810.309041,689.485948,-0.000000,9548.656652
3810.309355,153.219100,222.061783,9992.780217
3810.309670,383.047749,-0.000000,9696.697840
3810.309985,383.047749,740.205942,8956.491898
3810.310300,995.924147,962.267725,8734.430116
3810.310614,1915.238745,-222.061783,9104.533087
3810.310929,1225.752797,370.102971,9400.615463
3810.311244,919.314598,-666.185348,8956.491898
3810.311559,229.828649,-962.267725,9770.718434
3810.311873,-383.047749,-296.082377,9992.780217
3810.312188,-229.828649,-666.185348,10658.965565
3810.312503,0.000000,-518.144159,10955.047942
3810.312818,-383.047749,370.102971,10140.821405
3810.313132,306.438199,-0.000000,10140.821405
3810.313447,306.438199,518.144159,8734.430116
3810.313762,0.000000,-370.102971,8660.409521
3810.314077,1532.190996,-0.000000,8808.450710
3810.314391,1302.362347,-0.000000,8068.244768
3810.314706,842.705048,-0.000000,8364.327145
3810.315021,612.876398,-592.164754,9474.636058
3810.315335,-229.828649,-592.164754,9548.656652
3810.315650,-612.876398,-666.185348,10214.842000
3810.315965,-383.047749,-740.205942,10658.965565
3810.316280,-459.657299,-296.082377,10732.986159
3810.316594,-689.485948,-222.061783,10510.924376
3810.316909,-689.485948,-148.041188,10066.800811
3810.317224,-689.485948,-148.041188,9326.594869
3810.317539,383.047749,814.226536,8142.265362
3810.317853,1455.581446,814.226536,8142.265362
3810.318168,1838.629195,518.144159,8216.285956
3810.318483,1685.410096,296.082377,8660.409521
3810.318798,689.485948,592.164754,9030.512492
3810.319112,-459.657299,296.082377,9474.636058
3810.319427,-306.438199,370.102971,10066.800811
3810.319742,-459.657299,-74.020594,10510.924376
3810.320057,-1225.752797,-444.123565,10807.006753
3810.320371,-1378.971896,-740.205942,10955.047942
3810.320686,-1378.971896,-0.000000,9992.780217
3810.321001,-1532.190996,666.185348,9400.615463
3810.321315,0.000000,1258.350101,9622.677246
3810.321630,766.095498,1258.350101,8438.347739
3810.321945,919.314598,370.102971,8438.347739
3810.322260,842.705048,592.164754,9400.615463
3810.322574,153.219100,592.164754,9474.636058
3810.322889,-306.438199,888.247130,9844.739029
3810.323204,0.000000,666.185348,10288.862594
3810.323519,-306.438199,222.061783,10436.903782
3810.323833,-1225.752797,-0.000000,11399.171507
3810.324148,-1072.533697,-0.000000,11103.089130
3810.324463,-1378.971896,296.082377,11029.068536
3810.324778,-995.924147,518.144159,9696.697840
3810.325092,76.609550,888.247130,9400.615463
3810.325407,536.266849,740.205942,8882.471304
3810.325722,766.095498,518.144159,8660.409521
3810.326037,612.876398,-0.000000,8882.471304
3810.326351,0.000000,-148.041188,8734.430116
3810.326666,306.438199,-296.082377,9918.759623
3810.326981,459.657299,-0.000000,9992.780217
3810.327295,0.000000,148.041188,10436.903782
3810.327610,-306.438199,-370.102971,10881.027347
3810.327925,-459.657299,-0.000000,10732.986159
3810.328240,0.000000,888.247130,9474.636058
3810.328554,919.314598,814.226536,8956.491898
3810.328869,1455.581446,888.247130,8512.368333
3810.329184,1608.800546,444.123565,8364.327145
3810.329499,1685.410096,222.061783,8142.265362
3810.329813,612.876398,-148.041188,8438.347739
3810.330128,229.828649,-0.000000,8956.491898
3810.330443,536.266849,-1554.432478,10288.862594
3810.330758,229.828649,-1554.432478,10510.924376
3810.331072,-612.876398,-1184.329507,10955.047942
3810.331387,-1225.752797,-666.185348,10584.944971
3810.331702,-766.095498,-0.000000,10436.903782
3810.332017,76.609550,666.185348,9770.718434
3810.332331,1072.533697,592.164754,8734.430116
3810.332646,1915.238745,222.061783,7846.182985
3810.332961,1915.238745,-0.000000,7698.141797
3810.333275,919.314598,-444.123565,8438.347739
3810.333590,766.095498,-0.000000,8808.450710
3810.333905,76.609550,-222.061783,9474.636058
3810.334220,766.095498,-1110.308913,10214.842000
3810.334534,-229.828649,-1184.329507,11473.192101
3810.334849,-919.314598,-148.041188,11177.109724
3810.335164,-1149.143247,-0.000000,10658.965565
3810.335479,-1149.143247,592.164754,9622.677246
3810.335793,153.219100,1480.411884,9474.636058
3810.336108,1455.581446,1332.370696,8068.244768
3810.336423,1149.143247,1184.329507,8216.285956
3810.336738,1072.533697,1036.288319,8142.265362
3810.337052,76.609550,518.144159,8290.306550
3810.337367,0.000000,-296.082377,8882.471304
3810.337682,-153.219100,-962.267725,10362.883188
3810.337997,-842.705048,-1036.288319,10807.006753
3810.338311,-1532.190996,-1258.350101,11473.192101
3810.338626,-2221.676944,-666.185348,11917.315666
3810.338941,-2374.896044,-148.041188,11325.150913
3810.339255,-1685.410096,1258.350101,10510.924376
3810.339570,-153.219100,1110.308913,9252.574275
3810.339885,383.047749,814.226536,8660.409521
3810.340200,842.705048,888.247130,8660.409521
3810.340514,919.314598,888.247130,7846.182985
3810.340829,459.657299,962.267725,7994.224174
3810.341144,459.657299,148.041188,8808.450710
3810.341459,842.705048,-74.020594,9918.759623
3810.341773,0.000000,-222.061783,10436.903782
3810.342088,-153.219100,-888.247130,11473.192101
3810.342403,-1225.752797,-666.185348,11473.192101
3810.342718,-1685.410096,-0.000000,10436.903782
3810.343032,-1149.143247,666.185348,10214.842000
3810.343347,0.000000,518.144159,9844.739029
3810.343662,1225.752797,740.205942,8512.368333
3810.343976,1149.143247,888.247130,8364.327145
3810.344291,1225.752797,666.185348,8512.368333
3810.344606,995.924147,888.247130,8586.388927
3810.344921,1532.190996,296.082377,9252.574275
3810.345235,1225.752797,222.061783,9770.718434
3810.345550,459.657299,-148.041188,10732.986159
3810.345865,229.828649,-296.082377,11325.150913
3810.346180,-229.828649,592.164754,11325.150913
3810.346494,-536.266849,1036.288319,10732.986159
3810.346809,383.047749,1110.308913,9918.759623
3810.347124,919.314598,1184.329507,9178.553681
3810.347439,1225.752797,814.226536,8808.450710
3810.347753,842.705048,518.144159,8364.327145
3810.348068,306.438199,-0.000000,7624.121203
3810.348383,1685.410096,-740.205942,9622.677246
3810.348698,1532.190996,-962.267725,9178.553681
3810.349012,536.266849,-888.247130,9474.636058
3810.349327,536.266849,-1110.308913,10658.965565
3810.349642,0.000000,-444.123565,10881.027347
3810.349956,-1072.533697,592.164754,10140.821405
3810.350271,-153.219100,962.267725,10066.800811
3810.350586,383.047749,592.164754,9400.615463
3810.350901,689.485948,-0.000000,9622.677246
3810.351215,919.314598,444.123565,8734.430116
3810.351530,153.219100,370.102971,8364.327145
3810.351845,76.609550,222.061783,8586.388927
3810.352160,689.485948,-444.123565,9474.636058
3810.352474,536.266849,-666.185348,9474.636058
3810.352789,0.000000,-1184.329507,9918.759623
3810.353104,-229.828649,-1184.329507,10732.986159
3810.353419,-689.485948,-296.082377,10658.965565
3810.353733,-842.705048,814.226536,9918.759623
3810.354048,-229.828649,1036.288319,9992.780217
3810.354363,0.000000,814.226536,9400.615463
3810.354678,306.438199,1554.432478,8438.347739
3810.354992,306.438199,666.185348,8364.327145
3810.355307,-153.219100,740.205942,8364.327145
3810.355622,383.047749,148.041188,8808.450710
3810.355936,229.828649,-370.102971,8734.430116
3810.356251,-229.828649,-444.123565,10288.862594
3810.356566,-919.314598,-666.185348,11103.089130
3810.356881,-1378.971896,-222.061783,11029.068536
3810.357195,-1838.629195,148.041188,10732.986159
3810.357510,-1225.752797,370.102971,10288.862594
3810.357825,-842.705048,1036.288319,9844.739029
3810.358140,-306.438199,1480.411884,8956.491898
3810.358454,-229.828649,1480.411884,9104.533087
3810.358769,0.000000,962.267725,8438.347739
3810.359084,-383.047749,1036.288319,8660.409521
3810.359399,689.485948,370.102971,9326.594869
3810.359713,995.924147,-222.061783,9474.636058
3810.360028,0.000000,-222.061783,9844.739029
3810.360343,-383.047749,-370.102971,11103.089130
3810.360658,-1378.971896,-370.102971,10881.027347
3810.360972,-1532.190996,-0.000000,10510.924376
3810.361287,-689.485948,148.041188,10140.821405
3810.361602,-383.047749,370.102971,9844.739029
3810.361916,-612.876398,444.123565,9178.553681
3810.362231,383.047749,148.041188,9178.553681
3810.362546,76.609550,444.123565,8512.368333
3810.362861,536.266849,-0.000000,8882.471304
3810.363175,1685.410096,-0.000000,8808.450710
3810.363490,1685.410096,-222.061783,9104.533087
3810.363805,1302.362347,-296.082377,9918.759623
3810.364120,689.485948,-666.185348,10584.944971
3810.364434,0.000000,-296.082377,9918.759623
3810.364749,459.657299,-0.000000,10584.944971
3810.365064,919.314598,740.205942,9474.636058
3810.365379,689.485948,666.185348,9252.574275
3810.365693,766.095498,370.102971,9696.697840
3810.366008,1072.533697,370.102971,8586.388927
3810.366323,153.219100,-0.000000,8586.388927
3810.366638,689.485948,-370.102971,8586.388927
3810.366952,1685.410096,-592.164754,9548.656652
3810.367267,842.705048,-444.123565,9326.594869
3810.367582,459.657299,-444.123565,10288.862594
3810.367896,-229.828649,-222.061783,11103.089130
3810.368211,-229.828649,-74.020594,10066.800811
3810.368526,153.219100,-0.000000,9918.759623
3810.368841,76.609550,296.082377,10584.944971
3810.369155,153.219100,666.185348,9548.656652
3810.369470,306.438199,592.164754,8808.450710
3810.369785,-229.828649,740.205942,8660.409521
3810.370100,459.657299,296.082377,8808.450710
3810.370414,995.924147,-0.000000,8956.491898
3810.370729,689.485948,-296.082377,8808.450710
3810.371044,229.828649,-666.185348,9474.636058
3810.371359,-383.047749,-222.061783,10140.821405
3810.371673,-1072.533697,-148.041188,10140.821405
3810.371988,-995.924147,-148.041188,10362.883188
3810.372303,-536.266849,-518.144159,10362.883188
3810.372618,-612.876398,222.061783,9696.697840
3810.372932,-689.485948,-0.000000,9992.780217
3810.373247,-842.705048,592.164754,9548.656652
3810.373562,-689.485948,666.185348,8882.471304
3810.373876,689.485948,666.185348,8808.450710
3810.374191,689.485948,-296.082377,8882.471304
3810.374506,766.095498,-0.000000,9030.512492
3810.374821,536.266849,-518.144159,9770.718434
3810.375135,0.000000,-74.020594,9400.615463
3810.375450,-689.485948,-0.000000,9770.718434
3810.375765,-459.657299,-74.020594,9770.718434
3810.376080,0.000000,-0.000000,9844.739029
3810.376394,-766.095498,370.102971,10214.842000
3810.376709,-842.705048,148.041188,9918.759623
3810.377024,-919.314598,666.185348,9918.759623
3810.377339,-153.219100,1110.308913,9548.656652
3810.377653,459.657299,1036.288319,9548.656652
3810.377968,383.047749,888.247130,9548.656652
3810.378283,383.047749,740.205942,9622.677246
3810.378598,766.095498,370.102971,9992.780217
3810.378912,0.000000,370.102971,9696.697840
3810.379227,0.000000,962.267725,9918.759623
3810.379542,0.000000,370.102971,10140.821405
3810.379856,-153.219100,444.123565,10658.965565
3810.380171,-612.876398,444.123565,10510.924376
3810.380486,-995.924147,370.102971,10362.883188
3810.380801,-919.314598,518.144159,9918.759623
3810.381115,0.000000,888.247130,9474.636058
3810.381430,766.095498,518.144159,9474.636058
3810.381745,1378.971896,370.102971,9326.594869
3810.382060,1149.143247,-0.000000,9252.574275
3810.382374,1072.533697,296.082377,8808.450710
3810.382689,1072.533697,1036.288319,8660.409521
3810.383004,1608.800546,888.247130,9030.512492
3810.383319,1378.971896,592.164754,9400.615463
3810.383633,995.924147,666.185348,9474.636058
3810.383948,383.047749,-0.000000,10362.883188
3810.384263,-1072.533697,-370.102971,10362.883188
3810.384577,-383.047749,-444.123565,10214.842000
3810.384892,-229.828649,-740.205942,10362.883188
3810.385207,153.219100,-518.144159,9696.697840
3810.385522,229.828649,-296.082377,9844.739029
3810.385836,383.047749,-296.082377,9918.759623
3810.386151,306.438199,-296.082377,9770.718434
3810.386466,766.095498,444.123565,8882.471304
3810.386781,1991.848295,518.144159,8364.327145
3810.387095,1455.581446,592.164754,9178.553681
3810.387410,1149.143247,222.061783,9474.636058
3810.387725,0.000000,-740.205942,9844.739029
3810.388040,-536.266849,-296.082377,9918.759623
3810.388354,-536.266849,-296.082377,9548.656652
3810.388669,-229.828649,-518.144159,9992.780217
3810.388984,-229.828649,-666.185348,9844.739029
3810.389299,0.000000,-666.185348,9918.759623
3810.389613,-842.705048,-962.267725,9104.533087
3810.389928,-153.219100,-370.102971,8882.471304
3810.390243,0.000000,-0.000000,9104.533087
3810.390557,689.485948,-0.000000,9030.512492
3810.390872,306.438199,-0.000000,9326.594869
3810.391187,153.219100,-148.041188,9844.739029
3810.391502,-459.657299,-0.000000,9548.656652
3810.391816,-766.095498,222.061783,9474.636058
3810.392131,0.000000,-0.000000,9992.780217
3810.392446,76.609550,222.061783,9622.677246
3810.392761,0.000000,-0.000000,9326.594869
3810.393075,-306.438199,222.061783,9252.574275
3810.393390,-766.095498,-74.020594,9178.553681
3810.393705,0.000000,-0.000000,8956.491898
3810.394020,459.657299,-74.020594,8808.450710
3810.394334,0.000000,-0.000000,9252.574275
3810.394649,0.000000,222.061783,9474.636058
3810.394964,-612.876398,148.041188,9474.636058
3810.395279,-1072.533697,-0.000000,9696.697840
3810.395593,-612.876398,222.061783,9992.780217
3810.395908,76.609550,222.061783,10140.821405
3810.396223,0.000000,518.144159,10288.862594
3810.396537,76.609550,1184.329507,9770.718434
3810.396852,76.609550,814.226536,9252.574275
3810.397167,306.438199,814.226536,9178.553681
3810.397482,766.095498,666.185348,8586.388927
3810.397796,766.095498,444.123565,9474.636058
3810.398111,383.047749,-0.000000,9622.677246
3810.398426,229.828649,518.144159,9622.677246
3810.398741,-766.095498,222.061783,10066.800811
3810.399055,-842.705048,222.061783,11029.068536
3810.399370,0.000000,296.082377,11325.150913
3810.399685,0.000000,-0.000000,10510.924376
3810.400000,229.828649,518.144159,10510.924376
3810.400314,766.095498,370.102971,10288.862594
3810.400629,459.657299,1184.329507,9326.594869
3810.400944,1302.362347,1406.391290,8808.450710
3810.401259,1685.410096,1258.350101,9104.533087
3810.401573,1685.410096,814.226536,8956.491898
3810.401888,1378.971896,518.144159,9178.553681
3810.402203,919.314598,-222.061783,9622.677246
3810.402517,0.000000,-0.000000,9918.759623
3810.402832,0.000000,-370.102971,10510.924376
3810.403147,76.609550,-296.082377,10955.047942
3810.403462,-459.657299,-74.020594,10362.883188
3810.403776,-612.876398,-0.000000,10510.924376
3810.404091,0.000000,370.102971,9622.677246
3810.404406,76.609550,592.164754,8882.471304
3810.404721,1225.752797,592.164754,8216.285956
3810.405035,1608.800546,666.185348,8142.265362
3810.405350,1302.362347,444.123565,8882.471304
3810.405665,1149.143247,-518.144159,9548.656652
3810.405980,-306.438199,-444.123565,9400.615463
3810.406294,0.000000,-0.000000,9326.594869
3810.406609,0.000000,-740.205942,10140.821405
3810.406924,0.000000,-296.082377,10732.986159
3810.407239,-383.047749,-0.000000,10288.862594
3810.407553,-919.314598,-444.123565,9992.780217
3810.407868,-842.705048,-370.102971,9474.636058
3810.408183,0.000000,-0.000000,8882.471304
3810.408498,919.314598,296.082377,8216.285956
3810.408812,995.924147,74.020594,8586.388927
3810.409127,689.485948,-296.082377,8808.450710
3810.409442,306.438199,-518.144159,9252.574275
3810.409757,-306.438199,-222.061783,9326.594869
3810.410071,-459.657299,-0.000000,9992.780217
3810.410386,-306.438199,-444.123565,10140.821405
3810.410701,-612.876398,-592.164754,10214.842000
3810.411015,-842.705048,-370.102971,10510.924376
3810.411330,-1072.533697,-444.123565,10214.842000
3810.411645,-1608.800546,444.123565,9844.739029
3810.411960,-306.438199,814.226536,9326.594869
3810.412274,612.876398,370.102971,8660.409521
3810.412589,459.657299,666.185348,9104.533087
3810.412904,689.485948,-444.123565,9474.636058
3810.413219,0.000000,-296.082377,9548.656652
3810.413533,-766.095498,296.082377,9400.615463
3810.413848,-536.266849,-0.000000,10510.924376
3810.414163,-229.828649,-296.082377,10510.924376
3810.414478,-229.828649,-148.041188,11251.130318
3810.414792,-689.485948,370.102971,10436.903782
3810.415107,-766.095498,222.061783,10362.883188
3810.415422,-536.266849,740.205942,9400.615463
3810.415737,612.876398,962.267725,8438.347739
3810.416051,919.314598,666.185348,8660.409521
3810.416366,919.314598,-0.000000,8734.430116
3810.416681,766.095498,-148.041188,8956.491898
3810.416996,0.000000,-0.000000,8660.409521
3810.417310,0.000000,-0.000000,9474.636058
3810.417625,459.657299,-0.000000,10584.944971
3810.417940,689.485948,-0.000000,10732.986159
3810.418255,459.657299,444.123565,10584.944971
3810.418569,-229.828649,1110.308913,10140.821405
3810.418884,-459.657299,1554.432478,9474.636058
3810.419199,153.219100,1332.370696,9474.636058
3810.419513,1838.629195,1554.432478,8586.388927
3810.419828,1378.971896,666.185348,8734.430116
3810.420143,1072.533697,222.061783,8364.327145
3810.420458,459.657299,-296.082377,8882.471304
3810.420772,0.000000,-0.000000,9474.636058
3810.421087,-383.047749,-592.164754,10584.944971
3810.421402,-612.876398,-1184.329507,11103.089130
3810.421717,-1072.533697,-1110.308913,11177.109724
3810.422031,-919.314598,-888.247130,11991.336260
3810.422346,-1225.752797,296.082377,10584.944971
3810.422661,-536.266849,1110.308913,10288.862594
3810.422976,536.266849,1406.391290,9104.533087
3810.423290,1608.800546,666.185348,8290.306550
3810.423605,2374.896044,592.164754,8438.347739
3810.423920,1838.629195,-74.020594,8364.327145
3810.424235,1072.533697,-0.000000,7624.121203
3810.424549,766.095498,-74.020594,8882.471304
3810.424864,536.266849,-592.164754,9918.759623
3810.425179,0.000000,-518.144159,10288.862594
3810.425494,-1225.752797,-1332.370696,10510.924376
3810.425808,-1532.190996,-1184.329507,11251.130318
3810.426123,-1762.019645,-222.061783,10584.944971
3810.426438,-689.485948,148.041188,9622.677246
3810.426753,229.828649,222.061783,9474.636058
3810.427067,536.266849,888.247130,9030.512492
3810.427382,1149.143247,518.144159,8512.368333
3810.427697,1072.533697,740.205942,8068.244768
3810.428011,1378.971896,814.226536,8068.244768
3810.428326,1762.019645,444.123565,8586.388927
3810.428641,1532.190996,370.102971,9400.615463
3810.428956,229.828649,-74.020594,10510.924376
3810.429270,-612.876398,-370.102971,10881.027347
3810.429585,-1378.971896,-0.000000,10362.883188
3810.429900,-1225.752797,-0.000000,10732.986159
3810.430215,0.000000,592.164754,10140.821405
3810.430529,0.000000,444.123565,9252.574275
3810.430844,76.609550,148.041188,8586.388927
3810.431159,153.219100,148.041188,8364.327145
3810.431474,153.219100,518.144159,8956.491898
3810.431788,766.095498,296.082377,8660.409521
3810.432103,842.705048,148.041188,9918.759623
3810.432418,612.876398,-0.000000,10214.842000
3810.432733,153.219100,370.102971,11029.068536
3810.433047,-536.266849,-0.000000,11695.253884
3810.433362,-1149.143247,370.102971,11473.192101
3810.433677,-766.095498,1332.370696,10066.800811
3810.433992,153.219100,518.144159,9992.780217
3810.434306,153.219100,592.164754,9326.594869
3810.434621,459.657299,740.205942,9030.512492
3810.434936,-383.047749,-0.000000,8734.430116
3810.435251,-536.266849,-74.020594,8512.368333
3810.435565,76.609550,-148.041188,9696.697840
3810.435880,459.657299,-518.144159,9696.697840
3810.436195,383.047749,-444.123565,10140.821405
3810.436510,0.000000,-444.123565,10955.047942
3810.436824,-919.314598,370.102971,10955.047942
3810.437139,-1072.533697,1332.370696,9844.739029
3810.437454,612.876398,1258.350101,9548.656652
3810.437768,919.314598,888.247130,9252.574275
3810.438083,1149.143247,888.247130,8290.306550
3810.438398,1225.752797,888.247130,7846.182985
3810.438713,612.876398,296.082377,8364.327145
3810.439027,612.876398,-444.123565,9178.553681
3810.439342,842.705048,-1184.329507,9992.780217
3810.439657,0.000000,-814.226536,10214.842000
3810.439972,-612.876398,-888.247130,11029.068536
3810.440286,-766.095498,-1036.288319,11399.171507
3810.440601,-1915.238745,-0.000000,11177.109724
3810.440916,-842.705048,740.205942,10658.965565
3810.441231,306.438199,666.185348,9696.697840
3810.441545,536.266849,1406.391290,8882.471304
3810.441860,1149.143247,888.247130,7994.224174
3810.442175,842.705048,296.082377,7846.182985
3810.442490,766.095498,444.123565,7994.224174
3810.442804,1838.629195,-74.020594,8142.265362
3810.443119,1149.143247,-740.205942,8882.471304
3810.443434,766.095498,-962.267725,9696.697840
3810.443749,0.000000,-1110.308913,10510.924376
3810.444063,-1225.752797,-1406.391290,10955.047942
3810.444378,-1532.190996,-0.000000,10362.883188
3810.444693,-459.657299,-0.000000,10066.800811
3810.445008,0.000000,-0.000000,9992.780217
3810.445322,766.095498,888.247130,10214.842000
3810.445637,612.876398,1258.350101,8586.388927
3810.445952,229.828649,740.205942,7476.080014
3810.446266,1072.533697,740.205942,8142.265362
3810.446581,1225.752797,296.082377,8734.430116
3810.446896,995.924147,-592.164754,9326.594869
3810.447211,229.828649,-148.041188,9696.697840
3810.447525,-1072.533697,-666.185348,10584.944971
3810.447840,-1149.143247,-814.226536,10510.924376
3810.448155,-1302.362347,-74.020594,10658.965565
3810.448470,-1149.143247,-296.082377,10140.821405
3810.448784,-766.095498,-74.020594,10066.800811
3810.449099,153.219100,666.185348,8734.430116
3810.449414,689.485948,666.185348,8586.388927
3810.449729,-153.219100,888.247130,8068.244768
3810.450043,612.876398,222.061783,9104.533087
3810.450358,766.095498,-148.041188,9400.615463
3810.450673,306.438199,-74.020594,9622.677246
3810.450988,536.266849,-666.185348,10732.986159
3810.451302,-536.266849,-444.123565,11473.192101
3810.451617,-995.924147,518.144159,11029.068536
3810.451932,-383.047749,962.267725,10584.944971
3810.452247,0.000000,962.267725,10066.800811
3810.452561,-536.266849,1406.391290,9400.615463
3810.452876,76.609550,962.267725,9326.594869
3810.453191,76.609550,740.205942,9178.553681
3810.453506,0.000000,444.123565,8290.306550
3810.453820,1072.533697,-296.082377,9030.512492
3810.454135,766.095498,-740.205942,9252.574275
3810.454450,0.000000,-814.226536,10510.924376
3810.454764,0.000000,-370.102971,10881.027347
3810.455079,-842.705048,-74.020594,10584.944971
3810.455394,-689.485948,740.205942,10362.883188
3810.455709,0.000000,1110.308913,10140.821405
3810.456023,0.000000,1036.288319,10066.800811
3810.456338,306.438199,1110.308913,9992.780217
3810.456653,459.657299,592.164754,8882.471304
3810.456968,153.219100,370.102971,8882.471304
3810.457282,1225.752797,296.082377,9030.512492
3810.457597,1532.190996,-222.061783,9326.594869
3810.457912,919.314598,-370.102971,9548.656652
3810.458227,0.000000,-888.247130,10436.903782
3810.458541,-306.438199,-592.164754,10214.842000
3810.458856,-612.876398,-222.061783,10584.944971
3810.459171,0.000000,-0.000000,9474.636058
3810.459486,536.266849,-148.041188,9622.677246
3810.459800,229.828649,296.082377,8808.450710
3810.460115,383.047749,-0.000000,9178.553681
3810.460430,0.000000,666.185348,8438.347739
3810.460745,842.705048,740.205942,8512.368333
3810.461059,1685.410096,370.102971,8290.306550
3810.461374,1225.752797,-444.123565,9326.594869
3810.461689,536.266849,-370.102971,9252.574275
3810.462004,0.000000,-1258.350101,10510.924376
3810.462318,-1149.143247,-444.123565,10214.842000
3810.462633,-766.095498,-296.082377,10362.883188
3810.462948,0.000000,-148.041188,10140.821405
3810.463262,0.000000,-296.082377,9622.677246
3810.463577,-306.438199,518.144159,9918.759623
3810.463892,-842.705048,888.247130,9992.780217
3810.464207,-689.485948,1332.370696,8512.368333
3810.464521,306.438199,814.226536,8956.491898
3810.464836,1302.362347,370.102971,9030.512492
3810.465151,1225.752797,222.061783,8660.409521
3810.465466,842.705048,-666.185348,9474.636058
3810.465780,-536.266849,-370.102971,9770.718434
3810.466095,-842.705048,-0.000000,9326.594869
3810.466410,-536.266849,296.082377,9326.594869
3810.466725,-306.438199,296.082377,9844.739029
3810.467039,-919.314598,296.082377,9992.780217
3810.467354,-995.924147,-222.061783,10436.903782
3810.467669,-1149.143247,518.144159,9326.594869
3810.467984,-1302.362347,518.144159,10288.862594
3810.468298,76.609550,1110.308913,9104.533087
3810.468613,612.876398,-0.000000,9178.553681
3810.468928,1455.581446,592.164754,9622.677246
3810.469243,1225.752797,370.102971,9844.739029
3810.469557,0.000000,666.185348,9400.615463
3810.469872,0.000000,740.205942,9992.780217
3810.470187,0.000000,1036.288319,9918.759623
3810.470502,383.047749,296.082377,10288.862594
3810.470816,229.828649,518.144159,10288.862594
3810.471131,0.000000,148.041188,10584.944971
3810.471446,-919.314598,148.041188,10362.883188
3810.471761,-306.438199,592.164754,10140.821405
3810.472075,306.438199,296.082377,9400.615463
3810.472390,766.095498,-0.000000,9548.656652
3810.472705,1149.143247,-0.000000,9400.615463
3810.473019,842.705048,-0.000000,9326.594869
3810.473334,383.047749,370.102971,9474.636058
3810.473649,536.266849,518.144159,9696.697840
3810.473964,306.438199,370.102971,9918.759623
3810.474278,229.828649,740.205942,10436.903782
3810.474593,0.000000,222.061783,10807.006753
3810.474908,0.000000,296.082377,9770.718434
3810.475223,-383.047749,-0.000000,10066.800811
3810.475537,766.095498,-0.000000,9992.780217
3810.475852,383.047749,148.041188,9548.656652
3810.476167,383.047749,-0.000000,9252.574275
3810.476482,459.657299,-518.144159,9178.553681
3810.476796,229.828649,-592.164754,8808.450710
3810.477111,689.485948,-518.144159,8808.450710
3810.477426,1225.752797,-148.041188,9178.553681
3810.477741,0.000000,-296.082377,9918.759623
3810.478055,-306.438199,-0.000000,9770.718434
3810.478370,-383.047749,-0.000000,9178.553681
3810.478685,-766.095498,-0.000000,9474.636058
3810.479000,0.000000,-0.000000,9548.656652
3810.479314,306.438199,-0.000000,9178.553681
3810.479629,153.219100,148.041188,8882.471304
3810.479944,383.047749,148.041188,9104.533087
3810.480259,0.000000,148.041188,8660.409521
3810.480573,0.000000,-74.020594,8586.388927
3810.480888,383.047749,-148.041188,8808.450710
3810.481203,612.876398,-0.000000,9030.512492
3810.481517,76.609550,-74.020594,9992.780217
3810.481832,-229.828649,-0.000000,10214.842000
3810.482147,-842.705048,-222.061783,10362.883188
3810.482462,-766.095498,296.082377,9992.780217
3810.482776,0.000000,444.123565,9918.759623
3810.483091,0.000000,666.185348,10214.842000
3810.483406,153.219100,666.185348,9696.697840
3810.483721,76.609550,518.144159,9252.574275
3810.484035,0.000000,592.164754,9030.512492
3810.484350,383.047749,666.185348,8512.368333
3810.484665,766.095498,-0.000000,8956.491898
3810.484980,459.657299,148.041188,9474.636058
3810.485294,383.047749,-0.000000,10584.944971
3810.485609,-766.095498,148.041188,10140.821405
3810.485924,-1532.190996,-148.041188,10140.821405
3810.486239,-995.924147,-0.000000,10881.027347
3810.486553,-306.438199,-0.000000,10807.006753
3810.486868,-1149.143247,222.061783,10807.006753
3810.487183,-229.828649,370.102971,10436.903782
3810.487498,229.828649,444.123565,9326.594869
3810.487812,229.828649,740.205942,9252.574275
3810.488127,1225.752797,1036.288319,8882.471304
3810.488442,1915.238745,-0.000000,8882.471304
3810.488757,919.314598,444.123565,9474.636058
3810.489071,306.438199,-0.000000,10140.821405
3810.489386,-612.876398,148.041188,10066.800811
3810.489701,-536.266849,-148.041188,10362.883188
3810.490015,383.047749,-222.061783,10658.965565
3810.490330,153.219100,-592.164754,10214.842000
3810.490645,459.657299,-370.102971,10140.821405
3810.490960,306.438199,592.164754,9252.574275
3810.491274,-306.438199,444.123565,8808.450710
3810.491589,842.705048,370.102971,8364.327145
3810.491904,1455.581446,222.061783,7920.203579
3810.492219,1225.752797,-148.041188,8734.430116
3810.492533,1302.362347,-0.000000,9030.512492
3810.492848,153.219100,-444.123565,10584.944971
3810.493163,-612.876398,-74.020594,9844.739029
3810.493478,-612.876398,518.144159,10362.883188
3810.493792,-229.828649,444.123565,10510.924376
3810.494107,0.000000,222.061783,9992.780217
3810.494422,76.609550,296.082377,9992.780217
3810.494737,-153.219100,-0.000000,8808.450710
3810.495051,-153.219100,370.102971,8216.285956
3810.495366,612.876398,518.144159,7920.203579
3810.495681,612.876398,-444.123565,7920.203579
3810.495996,153.219100,-962.267725,8882.471304
3810.496310,-306.438199,-1480.411884,9400.615463
3810.496625,-1685.410096,-1110.308913,9770.718434
3810.496940,-2374.896044,-1036.288319,10510.924376
3810.497255,-1608.800546,-1036.288319,11325.150913
3810.497569,-1378.971896,-592.164754,10510.924376
3810.497884,-1532.190996,-74.020594,10955.047942
3810.498199,-1149.143247,148.041188,10066.800811
3810.498513,-1608.800546,-0.000000,9770.718434
3810.498828,-689.485948,444.123565,9326.594869
3810.499143,459.657299,296.082377,8660.409521
3810.499458,229.828649,-74.020594,8586.388927
3810.499772,0.000000,-518.144159,9400.615463
3810.500087,-766.095498,-1036.288319,9622.677246
3810.500402,-1838.629195,-1406.391290,10510.924376
3810.500717,-2604.724693,-1036.288319,10881.027347
3810.501031,-2068.457845,-814.226536,10510.924376
3810.501346,-1991.848295,-1554.432478,10066.800811
3810.501661,-1991.848295,-1628.453072,10140.821405
3810.501976,-2221.676944,-1480.411884,9770.718434
3810.502290,-3064.381992,-1702.473667,9326.594869
3810.502605,-1991.848295,-1110.308913,9104.533087
3810.502920,-1378.971896,-592.164754,8882.471304
3810.503235,-842.705048,-1110.308913,8512.368333
3810.503549,-1532.190996,-1924.535449,9548.656652
3810.503864,-1991.848295,-2294.638420,10066.800811
3810.504179,-2451.505594,-2072.576638,10732.986159
3810.504494,-2987.772442,-1406.391290,11695.253884
3810.504808,-2451.505594,-888.247130,10732.986159
3810.505123,-1915.238745,-1258.350101,10584.944971
3810.505438,-1455.581446,-1850.514855,10288.862594
3810.505753,-1915.238745,-1776.494261,10066.800811
3810.506067,-1762.019645,-1850.514855,8882.471304
3810.506382,-1685.410096,-1702.473667,8586.388927
3810.506697,-1225.752797,-1332.370696,8216.285956
3810.507012,-229.828649,-1628.453072,7624.121203
3810.507326,-306.438199,-2516.700203,7698.141797
3810.507641,-995.924147,-3627.009116,8734.430116
3810.507955,-2221.676944,-3552.988522,9252.574275
3810.508270,-2451.505594,-3849.070898,10436.903782
3810.508585,-2757.943793,-3034.844362,10140.821405
3810.508899,-2451.505594,-1776.494261,9104.533087
3810.509214,-2068.457845,-1702.473667,8882.471304
3810.509529,-1455.581446,-2886.803174,9474.636058
3810.509843,-1685.410096,-2590.720797,10066.800811
3810.510158,-1915.238745,-2664.741391,9548.656652
3810.510473,-1838.629195,-2220.617826,9400.615463
3810.510787,-1225.752797,-1776.494261,9400.615463
3810.511102,-1302.362347,-1554.432478,8882.471304
3810.511417,-612.876398,-1998.556043,8956.491898
3810.511731,-1149.143247,-2812.782580,9474.636058
3810.512046,-1685.410096,-3256.906145,10362.883188
3810.512361,-2221.676944,-3182.885551,9918.759623
3810.512675,-2604.724693,-3034.844362,10362.883188
3810.512990,-2451.505594,-2516.700203,9992.780217
3810.513304,-2451.505594,-2442.679609,9326.594869
3810.513619,-2221.676944,-2368.659014,8956.491898
3810.513934,-2451.505594,-2664.741391,8808.450710
3810.514248,-1608.800546,-2590.720797,9252.574275
3810.514563,-1762.019645,-2738.761985,8734.430116
3810.514878,-1532.190996,-2516.700203,8438.347739
3810.515192,-919.314598,-2590.720797,9104.533087
3810.515507,-1378.971896,-2960.823768,10066.800811
3810.515822,-1915.238745,-1998.556043,9918.759623
3810.516136,-2604.724693,-1628.453072,9474.636058
3810.516451,-2681.334243,-1628.453072,9474.636058
3810.516766,-2451.505594,-1332.370696,9474.636058
3810.517080,-2757.943793,-2072.576638,9770.718434
3810.517395,-2757.943793,-2590.720797,10214.842000
3810.517710,-3677.258390,-2960.823768,10436.903782
3810.518024,-3677.258390,-3330.926739,10510.924376
3810.518339,-3217.601092,-2960.823768,11177.109724
3810.518653,-2604.724693,-2220.617826,10140.821405
3810.518968,-2068.457845,-1332.370696,9622.677246
3810.519283,-1532.190996,-962.267725,8586.388927
3810.519597,-1455.581446,-1184.329507,8808.450710
3810.519912,-1149.143247,-1406.391290,8882.471304
3810.520227,-1532.190996,-1776.494261,9400.615463
3810.520541,-1608.800546,-2072.576638,9548.656652
3810.520856,-1762.019645,-2294.638420,9696.697840
3810.521171,-1762.019645,-1702.473667,9770.718434
3810.521485,-1991.848295,-1258.350101,9474.636058
3810.521800,-2451.505594,-370.102971,8956.491898
3810.522115,-2068.457845,-1110.308913,8586.388927
3810.522429,-1838.629195,-1332.370696,8068.244768
3810.522744,-1532.190996,-2220.617826,9178.553681
3810.523059,-1915.238745,-2812.782580,9326.594869
3810.523373,-2451.505594,-3330.926739,10140.821405
3810.523688,-3064.381992,-2886.803174,11473.192101
3810.524003,-2987.772442,-2072.576638,11843.295072
3810.524317,-2604.724693,-814.226536,11621.233289
3810.524632,-1455.581446,-222.061783,11029.068536
3810.524946,-1225.752797,296.082377,9918.759623
3810.525261,-919.314598,296.082377,8956.491898
3810.525576,-306.438199,-444.123565,8216.285956
3810.525890,-536.266849,-1554.432478,8142.265362
3810.526205,-229.828649,-2220.617826,8142.265362
3810.526520,-995.924147,-2442.679609,9252.574275
3810.526834,-1302.362347,-2516.700203,9474.636058
3810.527149,-2068.457845,-2664.741391,10510.924376
3810.527464,-1915.238745,-1924.535449,10807.006753
3810.527778,-1915.238745,-1850.514855,10881.027347
3810.528093,-2757.943793,-1110.308913,10214.842000
3810.528408,-2451.505594,-1258.350101,9844.739029
3810.528722,-2145.067394,-666.185348,8808.450710
3810.529037,-1685.410096,-1480.411884,7846.182985
3810.529352,-383.047749,-1554.432478,8216.285956
3810.529666,-1149.143247,-1332.370696,7994.224174
3810.529981,-1149.143247,-1036.288319,8142.265362
3810.530295,-1225.752797,-1406.391290,9178.553681
3810.530610,-1685.410096,-1776.494261,10584.944971
3810.530925,-2451.505594,-1850.514855,11843.295072
3810.531239,-2987.772442,-2220.617826,12509.480420
3810.531554,-3524.039291,-2368.659014,11695.253884
3810.531869,-3677.258390,-2220.617826,11547.212695
3810.532183,-2681.334243,-1554.432478,10510.924376
3810.532498,-1991.848295,-1406.391290,8808.450710
3810.532813,-1072.533697,-888.247130,7402.059420
3810.533127,0.000000,-518.144159,6735.874072
3810.533442,0.000000,-740.205942,6661.853478
3810.533757,-612.876398,-1628.453072,6883.915261
3810.534071,-1455.581446,-2812.782580,7920.203579
3810.534386,-2374.896044,-3552.988522,9770.718434
3810.534701,-3064.381992,-3627.009116,11029.068536
3810.535015,-3983.696590,-3775.050304,12213.398043
3810.535330,-3447.429741,-3627.009116,12953.603985
3810.535645,-3600.648841,-2886.803174,11769.274478
3810.535959,-3600.648841,-1406.391290,11251.130318
3810.536274,-3140.991542,-740.205942,9326.594869
3810.536588,-1685.410096,-962.267725,9252.574275
3810.536903,-229.828649,-1406.391290,8216.285956
3810.537218,919.314598,-1332.370696,7772.162391
3810.537532,306.438199,-1110.308913,8290.306550
3810.537847,306.438199,-1332.370696,9178.553681
3810.538162,-536.266849,-1924.535449,9474.636058
3810.538476,-689.485948,-1850.514855,9770.718434
3810.538791,-1685.410096,-1998.556043,10362.883188
3810.539106,-2451.505594,-2442.679609,9844.739029
3810.539420,-3217.601092,-2960.823768,9548.656652
3810.539735,-3677.258390,-3108.864956,9548.656652
3810.540050,-4519.963438,-3478.967927,9104.533087
3810.540364,-4136.915689,-3478.967927,8734.430116
3810.540679,-3294.210641,-3330.926739,8438.347739
3810.540994,-2528.115143,-2886.803174,9104.533087
3810.541308,-2221.676944,-2664.741391,9696.697840
3810.541623,-1762.019645,-2072.576638,10658.965565
3810.541937,-1455.581446,-1628.453072,11251.130318
3810.542252,-1149.143247,-1332.370696,10807.006753
3810.542567,-1378.971896,-814.226536,10510.924376
3810.542881,-612.876398,-592.164754,9474.636058
3810.543196,-536.266849,-74.020594,7994.224174
3810.543511,-1378.971896,-444.123565,7254.018232
3810.543825,-1455.581446,-1480.411884,7550.100608
3810.544140,-1762.019645,-2516.700203,8364.327145
3810.544455,-2221.676944,-3552.988522,8882.471304
3810.544769,-2834.553343,-4219.173869,8956.491898
3810.545084,-3370.820191,-4737.318029,10510.924376
3810.545399,-3370.820191,-4441.235652,10955.047942
3810.545713,-3294.210641,-3701.029710,11547.212695
3810.546028,-2834.553343,-2960.823768,11251.130318
3810.546343,-2068.457845,-1702.473667,10510.924376
3810.546657,-1072.533697,-518.144159,9400.615463
3810.546972,-306.438199,518.144159,8068.244768
3810.547286,0.000000,444.123565,7698.141797
3810.547601,306.438199,148.041188,7772.162391
3810.547916,459.657299,148.041188,7772.162391
3810.548230,0.000000,-962.267725,8734.430116
3810.548545,-842.705048,-1406.391290,9548.656652
3810.548860,-1608.800546,-2220.617826,10362.883188
3810.549174,-2681.334243,-2886.803174,11029.068536
3810.549489,-3600.648841,-3478.967927,11547.212695
3810.549804,-3753.867940,-3256.906145,11473.192101
3810.550118,-3753.867940,-2886.803174,10732.986159
3810.550433,-3294.210641,-2368.659014,10436.903782
3810.550748,-2757.943793,-1184.329507,9252.574275
3810.551062,-1685.410096,-592.164754,8438.347739
3810.551377,-842.705048,-222.061783,7994.224174
3810.551692,0.000000,-0.000000,8290.306550
3810.552006,383.047749,-0.000000,8734.430116
3810.552321,612.876398,-0.000000,9326.594869
3810.552636,459.657299,-444.123565,9992.780217
3810.552950,229.828649,-888.247130,10584.944971
3810.553265,0.000000,-666.185348,9992.780217
3810.553579,-459.657299,-888.247130,10066.800811
3810.553894,-842.705048,-888.247130,9696.697840
3810.554209,-919.314598,-666.185348,9030.512492
3810.554523,-689.485948,-518.144159,8512.368333
3810.554838,-995.924147,-592.164754,8216.285956
3810.555153,-1225.752797,-814.226536,8142.265362
3810.555467,-1302.362347,-1480.411884,8068.244768
3810.555782,-1302.362347,-2072.576638,8956.491898
3810.556097,-1838.629195,-1702.473667,9770.718434
3810.556411,-2221.676944,-2072.576638,10436.903782
3810.556726,-2451.505594,-1480.411884,10807.006753
3810.557041,-2834.553343,-1036.288319,11917.315666
3810.557355,-2451.505594,-74.020594,11251.130318
3810.557670,-2451.505594,-0.000000,10881.027347
3810.557985,-2374.896044,296.082377,10288.862594
3810.558299,-2451.505594,-0.000000,10362.883188
3810.558614,-2221.676944,-0.000000,10214.842000
3810.558928,-2145.067394,-518.144159,9770.718434
3810.559243,-2757.943793,-1406.391290,9474.636058
3810.559558,-2604.724693,-1702.473667,9622.677246
3810.559872,-3217.601092,-1998.556043,9992.780217
3810.560187,-3600.648841,-2664.741391,10214.842000
3810.560502,-4060.306139,-2738.761985,10436.903782
3810.560816,-4290.134789,-3256.906145,10362.883188
3810.561131,-4366.744339,-3330.926739,10658.965565
3810.561446,-4213.525239,-3256.906145,10214.842000
3810.561760,-4213.525239,-2960.823768,10362.883188
3810.562075,-3677.258390,-2738.761985,10288.862594
3810.562390,-3064.381992,-2738.761985,9770.718434
3810.562704,-2604.724693,-2220.617826,9474.636058
3810.563019,-2451.505594,-2072.576638,9548.656652
3810.563334,-1685.410096,-1850.514855,9474.636058
3810.563648,-1455.581446,-2368.659014,9918.759623
3810.563963,-1532.190996,-2368.659014,9474.636058
3810.564278,-1915.238745,-2516.700203,9474.636058
3810.564592,-2068.457845,-3404.947333,9548.656652
3810.564907,-1915.238745,-4441.235652,9992.780217
3810.565221,-2451.505594,-4293.194464,9696.697840
3810.565536,-2451.505594,-4515.256246,9474.636058
3810.565851,-2528.115143,-4737.318029,9252.574275
3810.566165,-2911.162892,-4515.256246,8512.368333
3810.566480,-2681.334243,-4811.338623,8364.327145
3810.566795,-2068.457845,-4959.379811,8216.285956
3810.567109,-1532.190996,-4663.297435,8068.244768
3810.567424,-1149.143247,-4293.194464,7624.121203
3810.567739,-995.924147,-3627.009116,7846.182985
3810.568053,-995.924147,-3182.885551,7994.224174
3810.568368,-689.485948,-3108.864956,8142.265362
3810.568683,-766.095498,-2812.782580,8290.306550
3810.568997,-995.924147,-3108.864956,8734.430116
3810.569312,-995.924147,-2812.782580,9474.636058
3810.569627,-1378.971896,-3256.906145,9696.697840
3810.569941,-1838.629195,-3404.947333,10214.842000
3810.570256,-1838.629195,-3034.844362,10362.883188
3810.570570,-1991.848295,-3256.906145,9918.759623
3810.570885,-1532.190996,-3256.906145,9696.697840
3810.571200,-919.314598,-2442.679609,9030.512492
3810.571514,-689.485948,-1776.494261,7698.141797
3810.571829,-536.266849,-1924.535449,7254.018232
3810.572144,-383.047749,-1702.473667,7402.059420
3810.572458,-153.219100,-1924.535449,7179.997637
3810.572773,-536.266849,-1702.473667,7105.977043
3810.573088,-995.924147,-1850.514855,7698.141797
3810.573402,-1532.190996,-1998.556043,8734.430116
3810.573717,-2374.896044,-2442.679609,9622.677246
3810.574032,-3064.381992,-2220.617826,10658.965565
3810.574346,-3524.039291,-2516.700203,11695.253884
3810.574661,-3217.601092,-1702.473667,11251.130318
3810.574976,-2834.553343,-1628.453072,11399.171507
3810.575290,-3140.991542,-1036.288319,11251.130318
3810.575605,-2374.896044,-74.020594,10658.965565
3810.575919,-2451.505594,666.185348,9622.677246
3810.576234,-1532.190996,888.247130,9178.553681
3810.576549,-842.705048,962.267725,9326.594869
3810.576863,-995.924147,814.226536,9030.512492
3810.577178,-1915.238745,-148.041188,9474.636058
3810.577493,-2987.772442,-888.247130,10510.924376
3810.577807,-3294.210641,-1332.370696,11621.233289
3810.578122,-3753.867940,-1776.494261,12509.480420
3810.578437,-3830.477490,-1332.370696,12731.542202
3810.578751,-3753.867940,-814.226536,12879.583391
3810.579066,-3294.210641,-222.061783,11325.150913
3810.579381,-2604.724693,592.164754,9992.780217
3810.579695,-1608.800546,1480.411884,8956.491898
3810.580010,-536.266849,1406.391290,7994.224174
3810.580325,153.219100,814.226536,7624.121203
3810.580639,306.438199,-0.000000,7994.224174
3810.580954,-766.095498,-888.247130,9400.615463
3810.581269,-1455.581446,-1776.494261,11103.089130
3810.581583,-2374.896044,-1702.473667,12287.418637
3810.581898,-2757.943793,-1554.432478,13249.686362
3810.582212,-3217.601092,-962.267725,13027.624579
3810.582527,-2604.724693,-666.185348,11843.295072
3810.582842,-1915.238745,-148.041188,10510.924376
3810.583156,-1149.143247,-0.000000,8956.491898
3810.583471,-306.438199,-0.000000,7328.038826
3810.583786,76.609550,-370.102971,6069.688724
3810.584100,0.000000,-888.247130,5477.523971
3810.584415,76.609550,-2368.659014,6883.915261
3810.584730,0.000000,-3108.864956,8290.306550
3810.585044,-1302.362347,-3627.009116,9770.718434
3810.585359,-2451.505594,-2960.823768,10955.047942
3810.585674,-3677.258390,-3034.844362,11473.192101
3810.585988,-3600.648841,-2738.761985,11621.233289
3810.586303,-3064.381992,-2442.679609,10510.924376
3810.586618,-3064.381992,-2220.617826,9252.574275
3810.586932,-2604.724693,-2368.659014,7994.224174
3810.587247,-1302.362347,-2516.700203,7328.038826
3810.587561,-689.485948,-2886.803174,7624.121203
3810.587876,-689.485948,-2294.638420,7920.203579
3810.588191,-1378.971896,-1850.514855,7994.224174
3810.588505,-1378.971896,-1554.432478,8734.430116
3810.588820,-919.314598,-2294.638420,10732.986159
3810.589135,-1838.629195,-2368.659014,10881.027347
3810.589449,-2757.943793,-3182.885551,10658.965565
3810.589764,-3064.381992,-4145.153275,10584.944971
3810.590079,-3217.601092,-3997.112087,10362.883188
3810.590393,-3064.381992,-3775.050304,9992.780217
3810.590708,-2834.553343,-2368.659014,8512.368333
3810.591023,-2451.505594,-2072.576638,7328.038826
3810.591337,-1225.752797,-2294.638420,7179.997637
3810.591652,-1072.533697,-1998.556043,7254.018232
3810.591967,-1685.410096,-2220.617826,7550.100608
3810.592281,-1991.848295,-3552.988522,9326.594869
3810.592596,-2298.286494,-4663.297435,10807.006753
3810.592911,-2911.162892,-4071.132681,12213.398043
3810.593225,-2911.162892,-3478.967927,10955.047942
3810.593540,-3370.820191,-3404.947333,11251.130318
3810.593854,-3677.258390,-2368.659014,10732.986159
3810.594169,-3140.991542,-1628.453072,9770.718434
3810.594484,-2911.162892,-1628.453072,8734.430116
3810.594798,-1762.019645,-2368.659014,9178.553681
3810.595113,-2145.067394,-1998.556043,8364.327145
3810.595428,-1915.238745,-2960.823768,8660.409521
3810.595742,-1532.190996,-2960.823768,9400.615463
3810.596057,-1915.238745,-3330.926739,10288.862594
3810.596372,-2221.676944,-2886.803174,10214.842000
3810.596686,-2145.067394,-3256.906145,10955.047942
3810.597001,-2221.676944,-2442.679609,10955.047942
3810.597316,-2604.724693,-1850.514855,10436.903782
3810.597630,-2451.505594,-1850.514855,9030.512492
3810.597945,-2374.896044,-2072.576638,8364.327145
3810.598260,-2145.067394,-1924.535449,7772.162391
3810.598574,-2068.457845,-2590.720797,7920.203579
3810.598889,-1608.800546,-2738.761985,8142.265362
3810.599203,-1838.629195,-2960.823768,8956.491898
3810.599518,-1685.410096,-2368.659014,9474.636058
3810.599833,-1378.971896,-2812.782580,10066.800811
3810.600147,-919.314598,-1998.556043,10584.944971
3810.600462,-536.266849,-2220.617826,10955.047942
3810.600777,-383.047749,-1850.514855,11251.130318
3810.601091,-612.876398,-1036.288319,10584.944971
3810.601406,-612.876398,592.164754,9326.594869
3810.601721,0.000000,444.123565,8216.285956
3810.602035,383.047749,1332.370696,7179.997637
3810.602350,995.924147,518.144159,6735.874072
3810.602665,1455.581446,-962.267725,8068.244768
3810.602979,383.047749,-1332.370696,9252.574275
3810.603294,-383.047749,-1258.350101,9474.636058
3810.603609,-229.828649,-888.247130,10140.821405
3810.603923,-919.314598,-1480.411884,10288.862594
3810.604238,-995.924147,-1332.370696,11177.109724
3810.604552,-153.219100,-666.185348,10658.965565
3810.604867,-766.095498,148.041188,10140.821405
3810.605182,-842.705048,1332.370696,9622.677246
3810.605496,0.000000,2516.700203,8068.244768
3810.605811,842.705048,2812.782580,7698.141797
3810.606126,1302.362347,2442.679609,7402.059420
3810.606440,1685.410096,296.082377,8586.388927
3810.606755,919.314598,-74.020594,9770.718434
3810.607070,-229.828649,296.082377,10140.821405
3810.607384,-766.095498,740.205942,11621.233289
3810.607699,-1149.143247,666.185348,11991.336260
3810.608013,-919.314598,518.144159,12287.418637
3810.608328,-842.705048,962.267725,11843.295072
3810.608643,-1072.533697,1258.350101,11251.130318
3810.608957,-766.095498,2294.638420,10362.883188
3810.609272,0.000000,2590.720797,9252.574275
3810.609587,459.657299,3256.906145,7698.141797
3810.609901,919.314598,2664.741391,7772.162391
3810.610216,1762.019645,1776.494261,8808.450710
3810.610530,995.924147,370.102971,9474.636058
3810.610845,0.000000,296.082377,10140.821405
3810.611160,0.000000,814.226536,10881.027347
3810.611474,-1532.190996,666.185348,11695.253884
3810.611789,-1608.800546,-74.020594,12287.418637
3810.612104,-995.924147,-74.020594,12139.377449
3810.612418,-1915.238745,888.247130,11251.130318
3810.612733,-1302.362347,1258.350101,10658.965565
3810.613048,-995.924147,1554.432478,9104.533087
3810.613362,-229.828649,2072.576638,8512.368333
3810.613677,995.924147,1628.453072,8364.327145
3810.613991,1149.143247,444.123565,9030.512492
3810.614306,0.000000,-296.082377,9326.594869
3810.614621,76.609550,-814.226536,9474.636058
3810.614935,-153.219100,-888.247130,10436.903782
3810.615250,-612.876398,-1332.370696,11325.150913
3810.615565,-229.828649,-962.267725,11991.336260
3810.615879,-612.876398,-222.061783,10584.944971
3810.616194,-1225.752797,518.144159,9844.739029
3810.616508,0.000000,296.082377,9474.636058
3810.616823,306.438199,518.144159,7550.100608
3810.617138,459.657299,592.164754,7179.997637
3810.617452,1302.362347,-296.082377,7105.977043
3810.617767,766.095498,-1110.308913,7920.203579
3810.618082,536.266849,-1406.391290,8438.347739
3810.618396,766.095498,-2294.638420,8808.450710
3810.618711,689.485948,-1998.556043,9696.697840
3810.619025,842.705048,-1998.556043,10732.986159
3810.619340,1149.143247,-1628.453072,10140.821405
3810.619655,0.000000,-962.267725,9622.677246
3810.619969,0.000000,-0.000000,9178.553681
3810.620284,459.657299,666.185348,8068.244768
3810.620599,1225.752797,222.061783,6957.935855
3810.620913,2145.067394,148.041188,7624.121203
3810.621228,2528.115143,-518.144159,7698.141797
3810.621543,1455.581446,-296.082377,8216.285956
3810.621857,1378.971896,-1036.288319,8586.388927
3810.622172,766.095498,-1332.370696,9474.636058
3810.622486,689.485948,-1480.411884,10881.027347
3810.622801,1072.533697,-1406.391290,11325.150913
3810.623116,76.609550,-1036.288319,11325.150913
3810.623430,-1302.362347,370.102971,10436.903782
3810.623745,-766.095498,-0.000000,9770.718434
3810.624060,0.000000,666.185348,9252.574275
3810.624374,383.047749,1332.370696,8290.306550
3810.624689,995.924147,1036.288319,8586.388927
3810.625003,306.438199,444.123565,8290.306550
