#time,accel_x,accel_y,accel_z
3699.557048,2298.286494,1406.391290,9844.739029
3699.557363,2604.724693,2146.597232,9104.533087
3699.557677,2757.943793,2442.679609,8512.368333
3699.557992,3064.381992,2516.700203,9474.636058
3699.558307,2604.724693,3034.844362,9474.636058
3699.558621,1991.848295,2812.782580,9252.574275
3699.558936,1302.362347,2146.597232,9474.636058
3699.559250,919.314598,814.226536,9696.697840
3699.559565,0.000000,-370.102971,9770.718434
3699.559880,0.000000,-518.144159,9918.759623
3699.560194,-383.047749,-444.123565,10510.924376
3699.560509,-1072.533697,-740.205942,9770.718434
3699.560824,-612.876398,-888.247130,9326.594869
3699.561138,-383.047749,-962.267725,9178.553681
3699.561453,0.000000,-740.205942,9178.553681
3699.561768,76.609550,-518.144159,8734.430116
3699.562082,0.000000,-222.061783,9104.533087
3699.562397,0.000000,296.082377,9400.615463
3699.562712,153.219100,148.041188,8956.491898
3699.563026,229.828649,148.041188,9252.574275
3699.563341,76.609550,-0.000000,9178.553681
3699.563656,0.000000,-0.000000,9178.553681
3699.563970,0.000000,-0.000000,9400.615463
3699.564285,76.609550,-296.082377,9696.697840
3699.564600,76.609550,-592.164754,9770.718434
3699.564914,-536.266849,-1110.308913,9622.677246
3699.565229,-766.095498,-1110.308913,9770.718434
3699.565544,-612.876398,-1406.391290,10214.842000
3699.565858,-612.876398,-1332.370696,10214.842000
3699.566173,-612.876398,-888.247130,9696.697840
3699.566488,-306.438199,-592.164754,9474.636058
3699.566802,-689.485948,-814.226536,9178.553681
3699.567117,306.438199,-518.144159,9252.574275
3699.567432,229.828649,-740.205942,8956.491898
3699.567746,612.876398,-592.164754,9030.512492
3699.568061,842.705048,-370.102971,9252.574275
3699.568376,766.095498,-74.020594,8956.491898
3699.568690,383.047749,-592.164754,9326.594869
3699.569005,383.047749,-370.102971,9622.677246
3699.569320,306.438199,-740.205942,9548.656652
3699.569634,153.219100,-444.123565,9844.739029
3699.569949,-612.876398,-740.205942,9992.780217
3699.570264,0.000000,-370.102971,9474.636058
3699.570578,0.000000,-370.102971,9252.574275
3699.570893,459.657299,-74.020594,8734.430116
3699.571208,536.266849,-148.041188,8290.306550
3699.571522,995.924147,296.082377,8216.285956
3699.571837,1072.533697,-0.000000,8512.368333
3699.572152,1072.533697,-0.000000,8586.388927
3699.572466,536.266849,-0.000000,9104.533087
3699.572781,383.047749,296.082377,9622.677246
3699.573096,229.828649,-0.000000,8956.491898
3699.573410,766.095498,444.123565,9474.636058
3699.573725,306.438199,444.123565,9326.594869
3699.574039,306.438199,592.164754,9474.636058
3699.574354,0.000000,740.205942,9474.636058
3699.574669,76.609550,962.267725,9400.615463
3699.574983,459.657299,888.247130,9770.718434
3699.575298,0.000000,666.185348,10066.800811
3699.575613,76.609550,518.144159,10214.842000
3699.575927,0.000000,370.102971,10510.924376
3699.576242,-153.219100,-222.061783,10881.027347
3699.576557,-229.828649,518.144159,10510.924376
3699.576871,0.000000,666.185348,10881.027347
3699.577186,229.828649,1258.350101,10288.862594
3699.577501,383.047749,1036.288319,10214.842000
3699.577815,153.219100,1036.288319,9770.718434
3699.578130,383.047749,1036.288319,9992.780217
3699.578445,459.657299,1036.288319,10214.842000
3699.578759,229.828649,740.205942,10214.842000
3699.579074,153.219100,444.123565,10436.903782
3699.579389,306.438199,592.164754,10288.862594
3699.579703,76.609550,518.144159,10510.924376
3699.580018,76.609550,518.144159,10140.821405
3699.580333,0.000000,518.144159,9992.780217
3699.580647,0.000000,888.247130,9844.739029
3699.580962,76.609550,1184.329507,9770.718434
3699.581277,153.219100,888.247130,9770.718434
3699.581591,0.000000,592.164754,9474.636058
3699.581906,0.000000,814.226536,9548.656652
3699.582221,0.000000,296.082377,9622.677246
3699.582535,-536.266849,962.267725,10140.821405
3699.582850,-383.047749,-0.000000,10140.821405
3699.583165,-229.828649,-0.000000,9918.759623
3699.583479,-306.438199,148.041188,9844.739029
3699.583794,-689.485948,-0.000000,9474.636058
3699.584109,0.000000,-0.000000,9770.718434
3699.584423,0.000000,-0.000000,9474.636058
3699.584738,76.609550,-0.000000,9030.512492
3699.585053,0.000000,-0.000000,9104.533087
3699.585367,306.438199,-0.000000,9104.533087
3699.585682,153.219100,-148.041188,8956.491898
3699.585997,383.047749,-148.041188,9474.636058
3699.586311,383.047749,-296.082377,9400.615463
3699.586626,306.438199,-666.185348,9474.636058
3699.586941,306.438199,-666.185348,9326.594869
3699.587255,459.657299,-370.102971,8956.491898
3699.587570,459.657299,-296.082377,9400.615463
3699.587885,306.438199,-296.082377,9326.594869
3699.588199,306.438199,-296.082377,8882.471304
3699.588514,536.266849,-296.082377,9030.512492
3699.588828,306.438199,-370.102971,9400.615463
3699.589143,0.000000,-592.164754,9474.636058
3699.589458,0.000000,-370.102971,9548.656652
3699.589772,153.219100,-592.164754,9326.594869
3699.590087,689.485948,-518.144159,9474.636058
3699.590402,0.000000,-444.123565,9548.656652
3699.590716,0.000000,-370.102971,9696.697840
3699.591031,-459.657299,-592.164754,9474.636058
3699.591346,-536.266849,-444.123565,9474.636058
3699.591660,-153.219100,-370.102971,9696.697840
3699.591975,-229.828649,-740.205942,9548.656652
3699.592290,0.000000,-666.185348,9474.636058
3699.592604,-153.219100,-444.123565,9548.656652
3699.592919,-536.266849,-444.123565,9474.636058
3699.593234,0.000000,-148.041188,9696.697840
3699.593548,-383.047749,-444.123565,9400.615463
3699.593863,0.000000,-296.082377,9474.636058
3699.594178,0.000000,-0.000000,9326.594869
3699.594492,0.000000,-74.020594,9252.574275
3699.594807,0.000000,148.041188,9548.656652
3699.595122,0.000000,-0.000000,9474.636058
3699.595436,0.000000,-74.020594,9696.697840
3699.595751,0.000000,-0.000000,9178.553681
3699.596066,153.219100,148.041188,9252.574275
3699.596380,76.609550,-0.000000,9326.594869
3699.596695,306.438199,518.144159,9474.636058
3699.597010,229.828649,296.082377,9326.594869
3699.597324,76.609550,222.061783,9326.594869
3699.597639,76.609550,370.102971,9474.636058
3699.597954,459.657299,518.144159,9548.656652
3699.598268,306.438199,962.267725,9474.636058
3699.598583,0.000000,444.123565,9622.677246
3699.598898,153.219100,814.226536,9770.718434
3699.599212,153.219100,740.205942,9696.697840
3699.599527,383.047749,592.164754,9918.759623
3699.599842,306.438199,740.205942,9992.780217
3699.600156,76.609550,740.205942,9992.780217
3699.600471,0.000000,888.247130,9844.739029
3699.600786,229.828649,740.205942,9844.739029
3699.601100,612.876398,888.247130,9992.780217
3699.601415,76.609550,740.205942,9696.697840
3699.601730,229.828649,814.226536,9918.759623
3699.602044,0.000000,666.185348,9918.759623
3699.602359,76.609550,740.205942,9844.739029
3699.602673,0.000000,666.185348,9918.759623
3699.602988,229.828649,814.226536,10066.800811
3699.603302,153.219100,592.164754,9992.780217
3699.603617,0.000000,296.082377,9622.677246
3699.603931,306.438199,518.144159,9696.697840
3699.604246,842.705048,370.102971,9548.656652
3699.604560,229.828649,592.164754,10066.800811
3699.604875,766.095498,740.205942,9770.718434
3699.605189,0.000000,444.123565,9548.656652
3699.605504,306.438199,222.061783,9696.697840
3699.605818,383.047749,-0.000000,9326.594869
3699.606133,76.609550,-74.020594,9918.759623
3699.606447,0.000000,-74.020594,9844.739029
3699.606762,-153.219100,-0.000000,9548.656652
3699.607076,229.828649,-148.041188,9770.718434
3699.607391,0.000000,-74.020594,9696.697840
3699.607705,306.438199,-0.000000,9622.677246
3699.608020,153.219100,-0.000000,9104.533087
3699.608334,0.000000,-0.000000,9252.574275
3699.608649,0.000000,-0.000000,9622.677246
3699.608963,76.609550,-222.061783,9622.677246
3699.609278,153.219100,-0.000000,9474.636058
3699.609592,0.000000,-0.000000,9400.615463
3699.609907,76.609550,-0.000000,9474.636058
3699.610221,153.219100,-0.000000,9474.636058
3699.610536,612.876398,-74.020594,9252.574275
3699.610850,76.609550,-0.000000,9622.677246
3699.611165,0.000000,-74.020594,9178.553681
3699.611479,0.000000,-74.020594,9104.533087
3699.611794,229.828649,-0.000000,9400.615463
3699.612108,306.438199,-0.000000,9326.594869
3699.612422,76.609550,-74.020594,9474.636058
3699.612737,153.219100,-74.020594,9178.553681
3699.613051,229.828649,-148.041188,9178.553681
3699.613366,306.438199,-222.061783,8956.491898
3699.613680,76.609550,-148.041188,9178.553681
3699.613995,229.828649,-0.000000,9548.656652
3699.614309,153.219100,-148.041188,9474.636058
3699.614624,229.828649,-148.041188,9474.636058
3699.614938,0.000000,370.102971,9548.656652
3699.615253,153.219100,-148.041188,9474.636058
3699.615567,76.609550,-0.000000,9622.677246
3699.615882,0.000000,-0.000000,9474.636058
3699.616196,306.438199,-0.000000,9770.718434
3699.616511,306.438199,148.041188,9326.594869
3699.616825,76.609550,-0.000000,9400.615463
3699.617140,0.000000,-0.000000,10066.800811
3699.617454,0.000000,-0.000000,9622.677246
3699.617769,153.219100,-0.000000,9770.718434
3699.618083,229.828649,-0.000000,10140.821405
3699.618398,383.047749,148.041188,9992.780217
3699.618712,0.000000,518.144159,9770.718434
3699.619027,229.828649,592.164754,9622.677246
3699.619341,306.438199,370.102971,9770.718434
3699.619656,459.657299,222.061783,9992.780217
3699.619970,0.000000,444.123565,10362.883188
3699.620285,153.219100,592.164754,9918.759623
3699.620599,76.609550,592.164754,9770.718434
3699.620914,0.000000,444.123565,9844.739029
3699.621228,229.828649,296.082377,9992.780217
3699.621543,76.609550,592.164754,9992.780217
3699.621857,153.219100,666.185348,9696.697840
3699.622172,0.000000,740.205942,9548.656652
3699.622486,76.609550,592.164754,9622.677246
3699.622801,459.657299,666.185348,9918.759623
3699.623115,0.000000,370.102971,9992.780217
3699.623430,-306.438199,592.164754,9770.718434
3699.623744,0.000000,444.123565,9696.697840
3699.624059,229.828649,814.226536,9696.697840
3699.624373,153.219100,814.226536,9548.656652
3699.624688,0.000000,518.144159,9548.656652
3699.625002,76.609550,370.102971,9696.697840
3699.625317,76.609550,296.082377,9548.656652
3699.625631,306.438199,592.164754,9548.656652
3699.625945,76.609550,222.061783,9622.677246
3699.626260,459.657299,370.102971,9474.636058
3699.626574,76.609550,148.041188,9474.636058
3699.626889,229.828649,-0.000000,9474.636058
3699.627203,612.876398,-0.000000,9696.697840
3699.627518,0.000000,222.061783,9474.636058
3699.627832,229.828649,-74.020594,9474.636058
3699.628147,229.828649,-0.000000,9400.615463
3699.628461,153.219100,-148.041188,9474.636058
3699.628776,383.047749,-148.041188,9770.718434
3699.629090,306.438199,-0.000000,9474.636058
3699.629405,76.609550,-0.000000,9548.656652
3699.629719,0.000000,-0.000000,9474.636058
3699.630034,459.657299,-148.041188,9326.594869
3699.630348,229.828649,-148.041188,9474.636058
3699.630663,229.828649,74.020594,9696.697840
3699.630977,76.609550,-0.000000,9622.677246
3699.631292,0.000000,-0.000000,9622.677246
3699.631606,76.609550,-0.000000,9622.677246
3699.631921,0.000000,-148.041188,9474.636058
3699.632235,0.000000,-0.000000,9474.636058
3699.632550,0.000000,-148.041188,9400.615463
3699.632864,0.000000,-148.041188,9622.677246
3699.633179,0.000000,-222.061783,9622.677246
3699.633493,0.000000,-148.041188,9548.656652
3699.633808,0.000000,-222.061783,9252.574275
3699.634122,0.000000,-0.000000,9400.615463
3699.634437,0.000000,-370.102971,9474.636058
3699.634751,0.000000,-296.082377,9474.636058
3699.635066,76.609550,-444.123565,9622.677246
3699.635380,0.000000,-148.041188,9252.574275
3699.635695,0.000000,-0.000000,9252.574275
3699.636009,153.219100,-0.000000,9548.656652
3699.636324,-689.485948,-0.000000,9104.533087
3699.636638,153.219100,-74.020594,9252.574275
3699.636953,153.219100,-0.000000,9178.553681
3699.637267,0.000000,-0.000000,9400.615463
3699.637582,306.438199,-0.000000,9178.553681
3699.637896,306.438199,-0.000000,9178.553681
3699.638211,383.047749,-74.020594,9696.697840
3699.638525,76.609550,-74.020594,9474.636058
3699.638840,0.000000,74.020594,9400.615463
3699.639154,383.047749,-222.061783,9474.636058
3699.639468,153.219100,-0.000000,9548.656652
3699.639783,306.438199,222.061783,9622.677246
3699.640097,229.828649,-0.000000,9696.697840
3699.640412,76.609550,222.061783,9918.759623
3699.640726,229.828649,-0.000000,9474.636058
3699.641041,153.219100,74.020594,9548.656652
3699.641355,536.266849,222.061783,9918.759623
3699.641670,229.828649,444.123565,10066.800811
3699.641984,76.609550,444.123565,10214.842000
3699.642299,153.219100,296.082377,9992.780217
3699.642613,229.828649,370.102971,9622.677246
3699.642928,0.000000,518.144159,9992.780217
3699.643242,0.000000,296.082377,9918.759623
3699.643557,0.000000,370.102971,9992.780217
3699.643871,0.000000,296.082377,9992.780217
3699.644186,76.609550,592.164754,9622.677246
3699.644500,0.000000,444.123565,10140.821405
3699.644815,-76.609550,370.102971,10066.800811
3699.645129,0.000000,296.082377,9622.677246
3699.645444,-229.828649,-296.082377,9770.718434
3699.645758,153.219100,296.082377,9992.780217
3699.646073,0.000000,296.082377,9474.636058
3699.646387,-229.828649,296.082377,9400.615463
3699.646702,0.000000,370.102971,9474.636058
3699.647016,-383.047749,74.020594,9770.718434
3699.647331,76.609550,370.102971,9548.656652
3699.647645,0.000000,296.082377,9548.656652
3699.647960,0.000000,296.082377,9474.636058
3699.648274,383.047749,370.102971,9252.574275
3699.648589,0.000000,444.123565,9252.574275
3699.648903,306.438199,222.061783,9696.697840
3699.649218,0.000000,-0.000000,9474.636058
3699.649532,0.000000,148.041188,9400.615463
3699.649847,0.000000,-0.000000,9252.574275
3699.650161,76.609550,-74.020594,9622.677246
3699.650476,76.609550,222.061783,9474.636058
3699.650790,76.609550,-0.000000,9474.636058
3699.651105,229.828649,-0.000000,9400.615463
3699.651419,306.438199,-0.000000,9474.636058
3699.651734,383.047749,-0.000000,9474.636058
3699.652048,0.000000,-0.000000,9474.636058
3699.652363,0.000000,-0.000000,10066.800811
3699.652677,0.000000,-74.020594,9696.697840
3699.652992,0.000000,-74.020594,9474.636058
3699.653306,76.609550,-296.082377,9400.615463
3699.653620,229.828649,-0.000000,9844.739029
3699.653935,306.438199,-0.000000,9770.718434
3699.654249,-229.828649,-148.041188,9622.677246
3699.654564,229.828649,-148.041188,9622.677246
3699.654878,153.219100,-222.061783,9622.677246
3699.655193,76.609550,148.041188,9474.636058
3699.655507,0.000000,-74.020594,9474.636058
3699.655822,-153.219100,148.041188,9622.677246
3699.656136,0.000000,-592.164754,9548.656652
3699.656451,0.000000,-222.061783,9622.677246
3699.656765,0.000000,-0.000000,9548.656652
3699.657080,76.609550,-0.000000,9548.656652
3699.657394,76.609550,-0.000000,9104.533087
3699.657709,-76.609550,-0.000000,9474.636058
3699.658023,153.219100,-0.000000,9474.636058
3699.658338,229.828649,-0.000000,9400.615463
3699.658652,0.000000,148.041188,9474.636058
3699.658967,76.609550,-0.000000,9326.594869
3699.659281,0.000000,-74.020594,9696.697840
3699.659596,0.000000,-0.000000,9474.636058
3699.659910,0.000000,222.061783,9770.718434
3699.660225,153.219100,222.061783,9622.677246
3699.660539,0.000000,222.061783,9622.677246
3699.660854,0.000000,370.102971,9770.718434
3699.661168,0.000000,444.123565,9622.677246
3699.661483,0.000000,148.041188,9474.636058
3699.661797,76.609550,370.102971,9770.718434
3699.662112,153.219100,370.102971,9474.636058
3699.662426,383.047749,814.226536,9474.636058
3699.662741,229.828649,296.082377,9474.636058
3699.663055,229.828649,740.205942,9992.780217
3699.663370,153.219100,518.144159,9548.656652
3699.663684,0.000000,370.102971,9548.656652
3699.663999,612.876398,-0.000000,9622.677246
3699.664313,229.828649,222.061783,9770.718434
3699.664628,536.266849,740.205942,10066.800811
3699.664942,229.828649,518.144159,9326.594869
3699.665257,306.438199,370.102971,9622.677246
3699.665571,689.485948,666.185348,10214.842000
3699.665886,0.000000,666.185348,9696.697840
3699.666200,76.609550,444.123565,9844.739029
3699.666515,0.000000,296.082377,9918.759623
3699.666829,76.609550,370.102971,9548.656652
3699.667143,153.219100,-0.000000,9622.677246
3699.667458,0.000000,444.123565,9474.636058
3699.667772,0.000000,148.041188,10214.842000
3699.668087,0.000000,370.102971,9696.697840
3699.668401,0.000000,222.061783,9474.636058
3699.668716,536.266849,518.144159,9992.780217
3699.669030,-383.047749,222.061783,9474.636058
3699.669345,0.000000,296.082377,9474.636058
3699.669659,229.828649,222.061783,9622.677246
3699.669974,76.609550,74.020594,9918.759623
3699.670288,0.000000,148.041188,9622.677246
3699.670603,76.609550,-0.000000,9400.615463
3699.670917,153.219100,-0.000000,9548.656652
3699.671232,76.609550,222.061783,9622.677246
3699.671546,0.000000,-222.061783,9474.636058
3699.671861,76.609550,-74.020594,9474.636058
3699.672175,153.219100,-0.000000,9622.677246
3699.672490,0.000000,148.041188,9474.636058
3699.672804,76.609550,-0.000000,9474.636058
3699.673119,229.828649,296.082377,9548.656652
3699.673433,153.219100,-0.000000,9548.656652
3699.673748,0.000000,-148.041188,9696.697840
3699.674062,0.000000,-0.000000,9548.656652
3699.674377,76.609550,-0.000000,9622.677246
3699.674691,229.828649,-0.000000,9178.553681
3699.675006,0.000000,-0.000000,9696.697840
3699.675320,153.219100,-444.123565,9844.739029
3699.675635,0.000000,-0.000000,9474.636058
3699.675949,0.000000,-222.061783,9252.574275
3699.676264,76.609550,-148.041188,9474.636058
3699.676578,76.609550,-0.000000,9622.677246
3699.676893,0.000000,-0.000000,9474.636058
3699.677207,153.219100,-74.020594,9400.615463
3699.677522,0.000000,-296.082377,9474.636058
3699.677836,76.609550,-148.041188,9474.636058
3699.678151,229.828649,148.041188,9474.636058
3699.678465,0.000000,-0.000000,9622.677246
3699.678780,0.000000,-222.061783,9696.697840
3699.679094,0.000000,-74.020594,9474.636058
3699.679409,0.000000,-0.000000,9696.697840
3699.679723,612.876398,-0.000000,9622.677246
3699.680038,306.438199,-0.000000,9844.739029
3699.680352,0.000000,-74.020594,9696.697840
3699.680666,153.219100,-0.000000,9400.615463
3699.680981,153.219100,-0.000000,9326.594869
3699.681295,153.219100,-0.000000,9548.656652
3699.681610,229.828649,-0.000000,9474.636058
3699.681924,0.000000,148.041188,9548.656652
3699.682239,459.657299,-74.020594,9474.636058
3699.682553,153.219100,-74.020594,9548.656652
3699.682868,229.828649,-0.000000,9844.739029
3699.683182,0.000000,-0.000000,9622.677246
3699.683497,0.000000,-0.000000,9548.656652
3699.683811,0.000000,-0.000000,9400.615463
3699.684126,153.219100,444.123565,9770.718434
3699.684440,229.828649,-0.000000,9844.739029
3699.684755,0.000000,222.061783,9622.677246
3699.685069,0.000000,222.061783,9622.677246
3699.685384,153.219100,148.041188,9474.636058
3699.685698,76.609550,592.164754,9770.718434
3699.686013,229.828649,-0.000000,9696.697840
3699.686327,229.828649,592.164754,9696.697840
3699.686642,153.219100,370.102971,9474.636058
3699.686956,153.219100,444.123565,9474.636058
3699.687271,76.609550,444.123565,9548.656652
3699.687585,229.828649,-0.000000,9992.780217
3699.687900,229.828649,666.185348,9696.697840
3699.688214,0.000000,296.082377,9622.677246
3699.688529,0.000000,370.102971,9696.697840
3699.688843,0.000000,518.144159,9918.759623
3699.689158,153.219100,-0.000000,9548.656652
3699.689472,76.609550,296.082377,9622.677246
3699.689787,153.219100,370.102971,9474.636058
3699.690101,0.000000,444.123565,9548.656652
3699.690416,229.828649,-0.000000,9844.739029
3699.690730,229.828649,-0.000000,10066.800811
3699.691045,229.828649,296.082377,9474.636058
3699.691359,229.828649,-0.000000,9400.615463
3699.691674,306.438199,370.102971,9622.677246
3699.691988,76.609550,-0.000000,9622.677246
3699.692303,153.219100,-74.020594,9548.656652
3699.692617,76.609550,-0.000000,9918.759623
3699.692932,459.657299,-0.000000,9474.636058
3699.693246,0.000000,222.061783,9696.697840
3699.693561,0.000000,148.041188,9696.697840
3699.693875,229.828649,-0.000000,9696.697840
3699.694190,229.828649,296.082377,9696.697840
3699.694504,0.000000,148.041188,9326.594869
3699.694818,229.828649,148.041188,9474.636058
3699.695133,229.828649,-0.000000,9844.739029
3699.695447,306.438199,296.082377,9696.697840
3699.695762,229.828649,-0.000000,9474.636058
3699.696076,76.609550,-222.061783,9474.636058
3699.696391,76.609550,-0.000000,9622.677246
3699.696705,0.000000,-0.000000,9548.656652
3699.697020,0.000000,222.061783,9400.615463
3699.697334,0.000000,370.102971,9770.718434
3699.697649,76.609550,370.102971,9696.697840
3699.697963,306.438199,148.041188,9474.636058
3699.698278,0.000000,-0.000000,9474.636058
3699.698592,0.000000,-0.000000,9178.553681
3699.698907,76.609550,222.061783,9696.697840
3699.699221,0.000000,-0.000000,9918.759623
3699.699536,76.609550,-74.020594,9622.677246
3699.699850,0.000000,-0.000000,9474.636058
3699.700165,-383.047749,-148.041188,9622.677246
3699.700479,0.000000,-0.000000,9548.656652
3699.700794,229.828649,148.041188,9622.677246
3699.701108,383.047749,-0.000000,9548.656652
3699.701423,383.047749,-0.000000,9474.636058
3699.701737,76.609550,444.123565,9474.636058
3699.702052,0.000000,-0.000000,9474.636058
3699.702366,459.657299,296.082377,9622.677246
3699.702681,229.828649,-0.000000,9622.677246
3699.702995,0.000000,-0.000000,9474.636058
3699.703303,229.828649,-0.000000,9474.636058
3699.703617,0.000000,222.061783,9548.656652
3699.703932,76.609550,-0.000000,9548.656652
3699.704246,229.828649,-0.000000,9548.656652
3699.704561,229.828649,370.102971,9992.780217
3699.704875,919.314598,-0.000000,9770.718434
3699.705189,0.000000,-0.000000,9622.677246
3699.705504,153.219100,370.102971,9918.759623
3699.705818,229.828649,-0.000000,10066.800811
3699.706133,383.047749,296.082377,10066.800811
3699.706447,76.609550,518.144159,9770.718434
3699.706761,153.219100,592.164754,9548.656652
3699.707076,612.876398,296.082377,9696.697840
3699.707390,842.705048,444.123565,9622.677246
3699.707705,689.485948,666.185348,9326.594869
3699.708019,919.314598,740.205942,9104.533087
3699.708333,919.314598,814.226536,9326.594869
3699.708648,919.314598,740.205942,9474.636058
3699.708962,995.924147,666.185348,9326.594869
3699.709277,536.266849,296.082377,9770.718434
3699.709591,689.485948,296.082377,10140.821405
3699.709905,612.876398,-0.000000,10140.821405
3699.710220,612.876398,518.144159,10140.821405
3699.710534,995.924147,740.205942,9770.718434
3699.710849,842.705048,1184.329507,9918.759623
3699.711163,1072.533697,962.267725,9918.759623
3699.711477,2145.067394,1406.391290,9474.636058
3699.711792,2374.896044,1776.494261,9178.553681
3699.712106,2681.334243,1628.453072,9178.553681
3699.712421,3294.210641,2072.576638,8808.450710
3699.712735,3140.991542,2146.597232,8512.368333
3699.713050,2911.162892,2220.617826,8586.388927
3699.713364,2834.553343,1924.535449,8808.450710
3699.713678,2681.334243,1776.494261,8956.491898
3699.713993,2145.067394,1702.473667,8808.450710
3699.714307,2145.067394,1776.494261,8882.471304
3699.714622,1838.629195,1406.391290,9326.594869
3699.714936,1838.629195,1258.350101,9474.636058
3699.715250,1685.410096,1776.494261,10140.821405
3699.715565,2068.457845,1776.494261,9548.656652
3699.715879,2068.457845,2590.720797,9770.718434
3699.716194,2528.115143,3182.885551,9844.739029
3699.716508,2911.162892,3701.029710,9326.594869
3699.716822,2987.772442,3775.050304,9252.574275
3699.717137,3370.820191,3997.112087,9548.656652
3699.717451,3064.381992,3923.091493,9252.574275
3699.717766,2911.162892,3478.967927,9548.656652
3699.718080,2681.334243,3478.967927,9992.780217
3699.718394,2834.553343,3330.926739,10732.986159
3699.718709,2451.505594,3330.926739,10214.842000
3699.719023,2221.676944,3478.967927,9918.759623
3699.719338,2451.505594,3552.988522,10066.800811
3699.719652,2298.286494,3627.009116,9696.697840
3699.719966,2681.334243,3923.091493,10140.821405
3699.720281,2681.334243,3478.967927,9400.615463
3699.720595,2451.505594,3182.885551,9104.533087
3699.720910,2221.676944,3182.885551,9400.615463
3699.721224,2451.505594,3330.926739,9992.780217
3699.721538,2374.896044,3034.844362,10510.924376
3699.721853,1838.629195,3701.029710,10807.006753
3699.722167,2221.676944,3627.009116,10955.047942
3699.722482,2145.067394,3627.009116,10955.047942
3699.722796,2221.676944,3923.091493,10436.903782
3699.723110,2834.553343,4219.173869,9770.718434
3699.723425,2757.943793,4367.215058,9474.636058
3699.723739,2987.772442,4515.256246,8660.409521
3699.724054,2834.553343,3923.091493,8142.265362
3699.724368,2451.505594,3034.844362,8438.347739
3699.724683,1838.629195,1924.535449,9104.533087
3699.724997,1149.143247,1406.391290,9770.718434
3699.725311,229.828649,962.267725,10881.027347
3699.725626,-229.828649,962.267725,11399.171507
3699.725940,-306.438199,1110.308913,11843.295072
3699.726255,0.000000,1110.308913,11621.233289
3699.726569,1149.143247,2146.597232,11103.089130
3699.726883,1762.019645,2960.823768,10510.924376
3699.727198,2757.943793,3256.906145,9474.636058
3699.727512,4060.306139,3775.050304,8808.450710
3699.727827,4366.744339,4071.132681,7846.182985
3699.728141,4366.744339,4071.132681,7105.977043
3699.728455,4366.744339,3478.967927,7254.018232
3699.728770,3600.648841,2442.679609,8068.244768
3699.729084,2757.943793,1406.391290,9178.553681
3699.729399,1455.581446,740.205942,9104.533087
3699.729713,229.828649,-148.041188,9474.636058
3699.730027,-76.609550,-1258.350101,10584.944971
3699.730342,-536.266849,-1480.411884,11103.089130
3699.730656,-612.876398,-1184.329507,11177.109724
3699.730971,0.000000,-814.226536,10584.944971
3699.731285,1072.533697,222.061783,10140.821405
3699.731599,2221.676944,1554.432478,9252.574275
3699.731914,2681.334243,2368.659014,9178.553681
3699.732228,3983.696590,3330.926739,8364.327145
3699.732543,4366.744339,3552.988522,7920.203579
3699.732857,4903.011187,3404.947333,7994.224174
3699.733171,4366.744339,2960.823768,7846.182985
3699.733486,3447.429741,1850.514855,8364.327145
3699.733800,2068.457845,962.267725,8734.430116
3699.734115,766.095498,-74.020594,9252.574275
3699.734429,-306.438199,-1110.308913,9992.780217
3699.734743,-1225.752797,-1776.494261,10658.965565
3699.735058,-1915.238745,-1998.556043,11177.109724
3699.735372,-2221.676944,-2146.597232,11843.295072
3699.735687,-1685.410096,-1332.370696,11695.253884
3699.736001,-536.266849,-370.102971,11177.109724
3699.736315,766.095498,1258.350101,10807.006753
3699.736630,1685.410096,2294.638420,9622.677246
3699.736944,3064.381992,3034.844362,8438.347739
3699.737259,3677.258390,3923.091493,7698.141797
3699.737573,3753.867940,3627.009116,7476.080014
3699.737888,3524.039291,2738.761985,7476.080014
3699.738202,2451.505594,1924.535449,8364.327145
3699.738516,612.876398,888.247130,9474.636058
3699.738831,-459.657299,-592.164754,10658.965565
3699.739145,-2068.457845,-1998.556043,11843.295072
3699.739460,-2681.334243,-2516.700203,12953.603985
3699.739774,-3217.601092,-2220.617826,12509.480420
3699.740088,-2987.772442,-1850.514855,12361.439231
3699.740403,-1608.800546,-370.102971,11547.212695
3699.740717,-612.876398,814.226536,10066.800811
3699.741032,919.314598,1998.556043,8290.306550
3699.741346,2221.676944,3034.844362,7254.018232
3699.741660,2911.162892,2738.761985,6809.894666
3699.741975,3294.210641,2516.700203,6513.812290
3699.742289,3217.601092,2146.597232,7328.038826
3699.742604,1762.019645,888.247130,9326.594869
3699.742918,459.657299,-0.000000,10584.944971
3699.743232,-1149.143247,-592.164754,11843.295072
3699.743547,-1991.848295,-814.226536,12287.418637
3699.743861,-2604.724693,-1110.308913,12065.356855
3699.744176,-2068.457845,-518.144159,11029.068536
3699.744490,-1072.533697,-0.000000,10140.821405
3699.744804,0.000000,592.164754,8734.430116
3699.745119,1302.362347,444.123565,7105.977043
3699.745433,2681.334243,1332.370696,6809.894666
3699.745748,2757.943793,1184.329507,7105.977043
3699.746062,2528.115143,666.185348,7846.182985
3699.746376,2451.505594,518.144159,8734.430116
3699.746691,1378.971896,296.082377,9992.780217
3699.747005,612.876398,-0.000000,10584.944971
3699.747320,153.219100,296.082377,11103.089130
3699.747634,-229.828649,518.144159,10658.965565
3699.747948,-153.219100,962.267725,10436.903782
3699.748263,306.438199,888.247130,8808.450710
3699.748577,612.876398,1036.288319,7920.203579
3699.748892,1302.362347,148.041188,7920.203579
3699.749206,1455.581446,-0.000000,7846.182985
3699.749520,766.095498,-0.000000,8364.327145
3699.749835,229.828649,-962.267725,9548.656652
3699.750149,0.000000,-1110.308913,11029.068536
3699.750464,-766.095498,-1184.329507,12065.356855
3699.750778,-1072.533697,-666.185348,12213.398043
3699.751093,-1455.581446,-0.000000,12139.377449
3699.751407,-689.485948,1184.329507,11325.150913
3699.751721,-153.219100,2072.576638,9696.697840
3699.752036,76.609550,2294.638420,8364.327145
3699.752350,995.924147,1998.556043,7179.997637
3699.752665,1532.190996,1258.350101,7105.977043
3699.752979,1685.410096,-0.000000,7402.059420
3699.753293,919.314598,-1258.350101,9030.512492
3699.753608,-306.438199,-1924.535449,10584.944971
3699.753922,-1685.410096,-2664.741391,11917.315666
3699.754237,-2451.505594,-2664.741391,12657.521608
3699.754551,-2911.162892,-1776.494261,13175.665768
3699.754865,-2451.505594,-962.267725,12657.521608
3699.755180,-1915.238745,-74.020594,11103.089130
3699.755494,-689.485948,888.247130,9178.553681
3699.755809,76.609550,1628.453072,7254.018232
3699.756123,2221.676944,1998.556043,5921.647536
3699.756437,2911.162892,1554.432478,6809.894666
3699.756752,2834.553343,444.123565,7179.997637
3699.757066,2068.457845,-370.102971,7994.224174
3699.757381,766.095498,-1702.473667,9770.718434
3699.757695,-229.828649,-1998.556043,11399.171507
3699.758009,-1378.971896,-2220.617826,12361.439231
3699.758324,-2374.896044,-2146.597232,12435.459826
3699.758638,-2911.162892,-1702.473667,12213.398043
3699.758953,-3064.381992,-444.123565,10362.883188
3699.759267,-1991.848295,222.061783,8734.430116
3699.759581,-459.657299,1036.288319,7254.018232
3699.759896,1072.533697,1036.288319,6587.832884
3699.760210,1915.238745,814.226536,6661.853478
3699.760525,2528.115143,222.061783,7402.059420
3699.760839,2068.457845,-444.123565,9030.512492
3699.761153,1302.362347,-888.247130,10881.027347
3699.761468,229.828649,-962.267725,11695.253884
3699.761782,-689.485948,-814.226536,11991.336260
3699.762097,-689.485948,-296.082377,11473.192101
3699.762411,-1378.971896,222.061783,10362.883188
3699.762726,-1302.362347,1036.288319,9252.574275
3699.763040,-536.266849,962.267725,7550.100608
3699.763354,0.000000,1406.391290,6291.750507
3699.763669,1532.190996,-0.000000,6587.832884
3699.763983,1838.629195,-148.041188,7254.018232
3699.764298,1072.533697,-518.144159,8364.327145
3699.764612,689.485948,-1110.308913,10214.842000
3699.764926,383.047749,-1554.432478,11103.089130
3699.765241,-153.219100,-888.247130,11991.336260
3699.765555,-229.828649,-370.102971,12065.356855
3699.765870,-689.485948,1110.308913,11177.109724
3699.766184,-689.485948,1998.556043,9992.780217
3699.766498,0.000000,2590.720797,8364.327145
3699.766813,919.314598,3108.864956,7031.956449
3699.767127,1455.581446,2442.679609,6883.915261
3699.767442,1991.848295,1184.329507,7624.121203
3699.767756,1608.800546,518.144159,8586.388927
3699.768070,536.266849,-740.205942,10214.842000
3699.768385,-306.438199,-1110.308913,11991.336260
3699.768699,-1225.752797,-1184.329507,13175.665768
3699.769014,-1685.410096,-1036.288319,13249.686362
3699.769328,-1915.238745,-148.041188,12583.501014
3699.769642,-1838.629195,1332.370696,11399.171507
3699.769957,-1072.533697,1924.535449,9622.677246
3699.770271,0.000000,2812.782580,7994.224174
3699.770586,1149.143247,2886.803174,7402.059420
3699.770900,2068.457845,2590.720797,7179.997637
3699.771214,1838.629195,1924.535449,7698.141797
3699.771529,1762.019645,962.267725,8734.430116
3699.771843,766.095498,222.061783,10436.903782
3699.772158,-229.828649,-518.144159,12065.356855
3699.772472,-689.485948,-1258.350101,12583.501014
3699.772786,-1762.019645,-962.267725,12213.398043
3699.773101,-1762.019645,-0.000000,11547.212695
3699.773415,-1991.848295,592.164754,10288.862594
3699.773730,-1225.752797,1406.391290,8956.491898
3699.774044,306.438199,1332.370696,7698.141797
3699.774358,536.266849,1554.432478,7105.977043
3699.774673,1685.410096,888.247130,7328.038826
3699.774987,1378.971896,-0.000000,8586.388927
3699.775302,1302.362347,-296.082377,10066.800811
3699.775616,1149.143247,-740.205942,10881.027347
3699.775931,153.219100,-1036.288319,11769.274478
3699.776245,-229.828649,-1110.308913,11843.295072
3699.776559,-689.485948,-222.061783,10732.986159
3699.776874,-842.705048,222.061783,9400.615463
3699.777188,-995.924147,740.205942,8512.368333
3699.777503,612.876398,1110.308913,7994.224174
3699.777817,612.876398,370.102971,6587.832884
3699.778131,1072.533697,-370.102971,7105.977043
3699.778446,842.705048,-666.185348,8216.285956
3699.778760,689.485948,-1110.308913,9326.594869
3699.779075,842.705048,-1702.473667,10140.821405
3699.779389,229.828649,-1480.411884,11399.171507
3699.779703,306.438199,-1628.453072,11547.212695
3699.780018,0.000000,-888.247130,10510.924376
3699.780332,0.000000,-0.000000,9400.615463
3699.780647,229.828649,518.144159,8660.409521
3699.780961,612.876398,814.226536,7179.997637
3699.781275,766.095498,814.226536,6957.935855
3699.781590,995.924147,-0.000000,7105.977043
3699.781904,689.485948,-518.144159,8068.244768
3699.782219,229.828649,-888.247130,9622.677246
3699.782533,-536.266849,-1332.370696,10658.965565
3699.782847,-1149.143247,-1628.453072,11917.315666
3699.783162,-1302.362347,-1554.432478,12435.459826
3699.783476,-1149.143247,-518.144159,12139.377449
3699.783791,-1072.533697,-296.082377,10881.027347
3699.784105,-536.266849,370.102971,9696.697840
3699.784419,229.828649,1036.288319,8660.409521
3699.784734,1149.143247,1332.370696,7254.018232
3699.785048,1608.800546,1332.370696,7476.080014
3699.785363,1149.143247,148.041188,7772.162391
3699.785677,919.314598,296.082377,8808.450710
3699.785991,459.657299,-370.102971,10362.883188
3699.786306,-306.438199,-888.247130,11547.212695
3699.786620,-766.095498,-1184.329507,11917.315666
3699.786935,-1149.143247,-1110.308913,11843.295072
3699.787249,-1149.143247,-74.020594,10955.047942
3699.787564,-536.266849,592.164754,9770.718434
3699.787878,0.000000,592.164754,8660.409521
3699.788192,536.266849,740.205942,7994.224174
3699.788507,995.924147,1110.308913,7402.059420
3699.788821,766.095498,888.247130,7772.162391
3699.789136,383.047749,296.082377,9474.636058
3699.789450,0.000000,-0.000000,10436.903782
3699.789764,-766.095498,-148.041188,11621.233289
3699.790079,-689.485948,-222.061783,12139.377449
3699.790393,-536.266849,-222.061783,12657.521608
3699.790708,-229.828649,592.164754,11251.130318
3699.791022,0.000000,962.267725,9696.697840
3699.791336,459.657299,1258.350101,8734.430116
3699.791651,1225.752797,1850.514855,7846.182985
3699.791965,1762.019645,1776.494261,7105.977043
3699.792280,1685.410096,888.247130,7476.080014
3699.792594,919.314598,444.123565,8438.347739
3699.792908,0.000000,-296.082377,9918.759623
3699.793223,-459.657299,-444.123565,10881.027347
3699.793537,-842.705048,-666.185348,11917.315666
3699.793852,-995.924147,-666.185348,12065.356855
3699.794166,-612.876398,222.061783,10732.986159
3699.794480,-612.876398,666.185348,9844.739029
3699.794795,459.657299,1480.411884,9252.574275
3699.795109,919.314598,1850.514855,7698.141797
3699.795424,1455.581446,1850.514855,7105.977043
3699.795738,1915.238745,1480.411884,7402.059420
3699.796052,1455.581446,962.267725,8512.368333
3699.796367,689.485948,222.061783,9696.697840
3699.796681,-383.047749,-518.144159,10881.027347
3699.796996,-919.314598,-814.226536,11917.315666
3699.797310,-1225.752797,-518.144159,12509.480420
3699.797624,-1302.362347,-296.082377,12065.356855
3699.797939,-842.705048,370.102971,10362.883188
3699.798253,76.609550,1036.288319,9104.533087
3699.798568,1225.752797,1184.329507,7846.182985
3699.798882,1915.238745,1184.329507,7105.977043
3699.799196,2221.676944,1184.329507,7254.018232
3699.799511,1685.410096,962.267725,7179.997637
3699.799825,842.705048,148.041188,8882.471304
3699.800140,76.609550,-370.102971,10288.862594
3699.800454,-536.266849,-888.247130,11251.130318
3699.800769,-1225.752797,-148.041188,12139.377449
3699.801083,-1225.752797,-370.102971,12139.377449
3699.801397,-1302.362347,296.082377,11177.109724
3699.801712,-842.705048,740.205942,10066.800811
3699.802026,229.828649,888.247130,8586.388927
3699.802341,1225.752797,666.185348,7772.162391
3699.802655,1991.848295,962.267725,7476.080014
3699.802969,1838.629195,666.185348,7846.182985
3699.803284,612.876398,-0.000000,8808.450710
3699.803598,76.609550,-296.082377,10362.883188
3699.803913,-383.047749,-962.267725,11473.192101
3699.804227,-995.924147,-962.267725,11843.295072
3699.804542,-1302.362347,-888.247130,12065.356855
3699.804856,-1302.362347,-148.041188,11177.109724
3699.805171,-995.924147,222.061783,9622.677246
3699.805485,306.438199,518.144159,8808.450710
3699.805800,536.266849,740.205942,7920.203579
3699.806115,1225.752797,740.205942,6883.915261
3699.806429,1608.800546,-74.020594,7328.038826
3699.806744,1225.752797,-222.061783,8216.285956
3699.807058,459.657299,-740.205942,9992.780217
3699.807373,-383.047749,-1110.308913,10436.903782
3699.807687,-1149.143247,-1628.453072,11621.233289
3699.808002,-1532.190996,-1332.370696,12583.501014
3699.808316,-1302.362347,-814.226536,11325.150913
3699.808631,-1149.143247,148.041188,10658.965565
3699.808946,-459.657299,296.082377,9252.574275
3699.809260,536.266849,592.164754,7846.182985
3699.809575,1149.143247,962.267725,7179.997637
3699.809889,1455.581446,444.123565,7476.080014
3699.810204,1608.800546,-296.082377,8142.265362
3699.810518,842.705048,-740.205942,9104.533087
3699.810833,0.000000,-1480.411884,10362.883188
3699.811147,-612.876398,-1480.411884,11769.274478
3699.811462,-995.924147,-1480.411884,12065.356855
3699.811776,-919.314598,-888.247130,11769.274478
3699.812091,-1072.533697,296.082377,10140.821405
3699.812406,-383.047749,-0.000000,9326.594869
3699.812720,459.657299,814.226536,7772.162391
3699.813035,1608.800546,740.205942,7105.977043
3699.813349,1838.629195,962.267725,7105.977043
3699.813664,1838.629195,296.082377,7698.141797
3699.813978,1378.971896,-148.041188,8956.491898
3699.814293,536.266849,-518.144159,10436.903782
3699.814607,-153.219100,-592.164754,11473.192101
3699.814922,-766.095498,-888.247130,11991.336260
3699.815237,-919.314598,-444.123565,11621.233289
3699.815551,-919.314598,518.144159,10658.965565
3699.815866,-689.485948,1258.350101,9622.677246
3699.816180,76.609550,1332.370696,8142.265362
3699.816495,689.485948,1628.453072,7476.080014
3699.816809,1455.581446,1184.329507,7105.977043
3699.817124,1378.971896,444.123565,7254.018232
3699.817438,1378.971896,-0.000000,8808.450710
3699.817753,306.438199,-444.123565,9992.780217
3699.818067,-766.095498,-518.144159,11325.150913
3699.818382,-1225.752797,-814.226536,11843.295072
3699.818697,-1685.410096,-592.164754,12213.398043
3699.819011,-1608.800546,222.061783,11177.109724
3699.819326,-1455.581446,888.247130,10510.924376
3699.819640,-689.485948,1480.411884,9400.615463
3699.819955,383.047749,1702.473667,7920.203579
3699.820269,1225.752797,1702.473667,7476.080014
3699.820584,1532.190996,888.247130,7846.182985
3699.820898,1302.362347,518.144159,8734.430116
3699.821213,612.876398,148.041188,9844.739029
3699.821528,76.609550,-148.041188,10881.027347
3699.821842,-612.876398,-370.102971,11695.253884
3699.822157,-689.485948,-370.102971,11917.315666
3699.822471,-689.485948,-0.000000,11547.212695
3699.822786,-919.314598,444.123565,10288.862594
3699.823100,0.000000,666.185348,9030.512492
3699.823415,919.314598,962.267725,8142.265362
3699.823729,842.705048,1776.494261,7179.997637
3699.824044,1455.581446,1184.329507,7624.121203
3699.824358,1225.752797,370.102971,8290.306550
3699.824673,1072.533697,-0.000000,9030.512492
3699.824988,153.219100,-74.020594,10436.903782
3699.825302,0.000000,-518.144159,11473.192101
3699.825617,-995.924147,-518.144159,12213.398043
3699.825931,-1072.533697,-148.041188,12213.398043
3699.826246,-1225.752797,-0.000000,10881.027347
3699.826560,-536.266849,370.102971,9770.718434
3699.826875,76.609550,888.247130,8734.430116
3699.827189,766.095498,1258.350101,7772.162391
3699.827504,1378.971896,1036.288319,7846.182985
3699.827819,1378.971896,296.082377,7846.182985
3699.828133,842.705048,-0.000000,8956.491898
3699.828448,383.047749,-814.226536,9696.697840
3699.828762,229.828649,-888.247130,10955.047942
3699.829077,-306.438199,-1110.308913,11547.212695
3699.829391,-536.266849,-1184.329507,11399.171507
3699.829706,-766.095498,-0.000000,10214.842000
3699.830020,-459.657299,370.102971,9252.574275
3699.830335,306.438199,1036.288319,7920.203579
3699.830650,766.095498,1406.391290,7254.018232
3699.830964,1915.238745,518.144159,6809.894666
3699.831279,1455.581446,370.102971,7402.059420
3699.831593,842.705048,-296.082377,8808.450710
3699.831908,306.438199,-1036.288319,10140.821405
3699.832222,-459.657299,-1036.288319,11177.109724
3699.832537,-1149.143247,-1184.329507,11843.295072
3699.832851,-995.924147,-444.123565,11991.336260
3699.833166,-1225.752797,-148.041188,11325.150913
3699.833480,-536.266849,148.041188,10140.821405
3699.833795,153.219100,740.205942,8734.430116
3699.834110,995.924147,740.205942,7846.182985
3699.834424,1455.581446,814.226536,7402.059420
3699.834739,1302.362347,518.144159,7772.162391
3699.835053,1225.752797,-0.000000,8586.388927
3699.835368,459.657299,-444.123565,9770.718434
3699.835682,0.000000,-666.185348,10732.986159
3699.835997,-612.876398,-740.205942,11547.212695
3699.836311,-995.924147,-1036.288319,11991.336260
3699.836626,-1455.581446,-444.123565,11547.212695
3699.836941,-1149.143247,-0.000000,9918.759623
3699.837255,-689.485948,296.082377,8734.430116
3699.837570,0.000000,592.164754,8438.347739
3699.837884,536.266849,1110.308913,7698.141797
3699.838199,766.095498,740.205942,7846.182985
3699.838513,536.266849,222.061783,8512.368333
3699.838828,306.438199,-74.020594,9844.739029
3699.839142,-383.047749,-370.102971,10658.965565
3699.839457,-842.705048,-444.123565,11399.171507
3699.839771,-1149.143247,-370.102971,11917.315666
3699.840086,-1455.581446,-296.082377,11473.192101
3699.840401,-1225.752797,444.123565,10658.965565
3699.840715,-459.657299,740.205942,9104.533087
3699.841030,153.219100,888.247130,8142.265362
3699.841344,1072.533697,1184.329507,7550.100608
3699.841659,1915.238745,740.205942,7698.141797
3699.841973,1302.362347,-0.000000,7846.182985
3699.842288,689.485948,-222.061783,8734.430116
3699.842602,229.828649,-518.144159,10140.821405
3699.842917,-383.047749,-962.267725,11177.109724
3699.843232,-459.657299,-740.205942,11621.233289
3699.843546,-459.657299,-666.185348,11399.171507
3699.843861,-689.485948,888.247130,10214.842000
3699.844175,0.000000,888.247130,9474.636058
3699.844490,842.705048,1480.411884,8364.327145
3699.844804,1455.581446,1258.350101,7846.182985
3699.845119,1762.019645,888.247130,7476.080014
3699.845433,1838.629195,370.102971,8290.306550
3699.845748,1302.362347,-0.000000,9622.677246
3699.846062,306.438199,-0.000000,10288.862594
3699.846377,-383.047749,-518.144159,11251.130318
3699.846692,-842.705048,-370.102971,12139.377449
3699.847006,-689.485948,-518.144159,11843.295072
3699.847321,-766.095498,-0.000000,10732.986159
3699.847635,-229.828649,592.164754,10066.800811
3699.847950,536.266849,1110.308913,8586.388927
3699.848264,1225.752797,444.123565,7772.162391
3699.848579,1685.410096,1332.370696,7254.018232
3699.848893,1532.190996,666.185348,8068.244768
3699.849208,995.924147,-0.000000,8808.450710
3699.849523,612.876398,-518.144159,9474.636058
3699.849837,0.000000,-592.164754,10584.944971
3699.850152,-383.047749,-518.144159,11843.295072
3699.850466,-995.924147,-370.102971,11621.233289
3699.850781,-842.705048,-370.102971,11103.089130
3699.851095,-612.876398,592.164754,9696.697840
3699.851410,0.000000,370.102971,8586.388927
3699.851724,995.924147,1110.308913,7772.162391
3699.852039,1225.752797,1184.329507,7476.080014
3699.852353,1685.410096,666.185348,7624.121203
3699.852668,1072.533697,-0.000000,8512.368333
3699.852983,153.219100,-296.082377,9770.718434
3699.853297,-229.828649,-888.247130,10584.944971
3699.853612,-766.095498,-1036.288319,11547.212695
3699.853926,-1302.362347,-1110.308913,11843.295072
3699.854241,-1072.533697,-444.123565,11251.130318
3699.854555,-842.705048,666.185348,10881.027347
3699.854870,-536.266849,1036.288319,9104.533087
3699.855184,306.438199,1332.370696,8142.265362
3699.855499,1225.752797,1258.350101,7772.162391
3699.855814,1455.581446,666.185348,7550.100608
3699.856128,1149.143247,370.102971,7994.224174
3699.856443,766.095498,-148.041188,9770.718434
3699.856757,0.000000,-740.205942,10658.965565
3699.857072,-919.314598,-1110.308913,11621.233289
3699.857386,-1225.752797,-666.185348,11621.233289
3699.857701,-1225.752797,-444.123565,11695.253884
3699.858015,-1378.971896,666.185348,10510.924376
3699.858330,-995.924147,296.082377,9252.574275
3699.858645,0.000000,888.247130,8290.306550
3699.858959,842.705048,962.267725,7105.977043
3699.859274,1532.190996,592.164754,7550.100608
3699.859588,1302.362347,444.123565,7698.141797
3699.859903,689.485948,-0.000000,9030.512492
3699.860217,153.219100,-518.144159,9992.780217
3699.860532,-612.876398,-814.226536,11103.089130
3699.860846,-689.485948,-1184.329507,11843.295072
3699.861161,-842.705048,-740.205942,11843.295072
3699.861475,-1225.752797,-0.000000,10732.986159
3699.861790,-995.924147,148.041188,9844.739029
3699.862105,153.219100,962.267725,8512.368333
3699.862419,1455.581446,1036.288319,8068.244768
3699.862734,1302.362347,888.247130,7254.018232
3699.863048,2221.676944,518.144159,7550.100608
3699.863363,1608.800546,222.061783,7994.224174
3699.863677,919.314598,-518.144159,9548.656652
3699.863992,0.000000,-1036.288319,11177.109724
3699.864306,-766.095498,-1184.329507,11695.253884
3699.864621,-1225.752797,-888.247130,11695.253884
3699.864936,-1072.533697,-0.000000,10807.006753
3699.865250,-766.095498,222.061783,10214.842000
3699.865565,-306.438199,888.247130,8956.491898
3699.865879,612.876398,1480.411884,8216.285956
3699.866194,1532.190996,1184.329507,7402.059420
3699.866508,1532.190996,1110.308913,7698.141797
3699.866823,1072.533697,814.226536,8142.265362
3699.867137,995.924147,222.061783,9622.677246
3699.867452,153.219100,-0.000000,10732.986159
3699.867766,-612.876398,-222.061783,11621.233289
3699.868081,-842.705048,-222.061783,11917.315666
3699.868396,-383.047749,-222.061783,11547.212695
3699.868710,-612.876398,740.205942,10510.924376
3699.869025,306.438199,1184.329507,9104.533087
3699.869339,612.876398,1258.350101,8142.265362
3699.869654,1149.143247,962.267725,7624.121203
3699.869968,1225.752797,592.164754,7402.059420
3699.870283,995.924147,296.082377,7994.224174
3699.870597,612.876398,-0.000000,9474.636058
3699.870912,0.000000,-222.061783,10288.862594
3699.871227,-842.705048,-518.144159,11103.089130
3699.871541,-995.924147,-666.185348,11843.295072
3699.871856,-1302.362347,-370.102971,11547.212695
3699.872170,-1532.190996,666.185348,10807.006753
3699.872485,-612.876398,1332.370696,9474.636058
3699.872799,153.219100,1480.411884,8512.368333
3699.873114,1225.752797,1776.494261,7328.038826
3699.873428,1149.143247,1036.288319,7550.100608
3699.873743,1302.362347,370.102971,7846.182985
3699.874057,842.705048,222.061783,9030.512492
3699.874372,229.828649,-370.102971,10140.821405
3699.874687,-153.219100,-962.267725,11325.150913
3699.875001,-1072.533697,-1110.308913,12139.377449
3699.875316,-1225.752797,-666.185348,11843.295072
3699.875630,-1685.410096,-74.020594,10658.965565
3699.875945,-919.314598,444.123565,9622.677246
3699.876259,76.609550,888.247130,8808.450710
3699.876574,612.876398,1036.288319,7698.141797
3699.876888,1225.752797,666.185348,6883.915261
3699.877203,1378.971896,444.123565,7624.121203
3699.877518,1532.190996,-0.000000,9104.533087
3699.877832,229.828649,-740.205942,10140.821405
3699.878147,0.000000,-740.205942,11103.089130
3699.878461,-842.705048,-962.267725,11695.253884
3699.878776,-995.924147,-740.205942,11843.295072
3699.879090,-459.657299,-0.000000,11103.089130
3699.879405,-842.705048,444.123565,10288.862594
3699.879719,0.000000,740.205942,8956.491898
3699.880034,536.266849,962.267725,7476.080014
3699.880348,1455.581446,962.267725,6883.915261
3699.880663,1991.848295,-0.000000,7179.997637
3699.880978,1149.143247,-0.000000,7994.224174
3699.881292,919.314598,-888.247130,9326.594869
3699.881607,0.000000,-1406.391290,10436.903782
3699.881921,-766.095498,-1480.411884,11695.253884
3699.882236,-1149.143247,-1406.391290,12065.356855
3699.882550,-1072.533697,-296.082377,11621.233289
3699.882865,-766.095498,-0.000000,10288.862594
3699.883179,-153.219100,370.102971,9030.512492
3699.883494,689.485948,1184.329507,7772.162391
3699.883809,1608.800546,1110.308913,7031.956449
3699.884123,1991.848295,592.164754,7402.059420
3699.884438,1991.848295,-0.000000,7994.224174
3699.884752,919.314598,-518.144159,9326.594869
3699.885067,306.438199,-740.205942,10732.986159
3699.885381,-612.876398,-1406.391290,11547.212695
3699.885696,-919.314598,-1332.370696,12139.377449
3699.886010,-995.924147,-962.267725,11843.295072
3699.886325,-1149.143247,-222.061783,10584.944971
3699.886639,-383.047749,518.144159,8956.491898
3699.886954,383.047749,444.123565,8290.306550
3699.887269,1302.362347,1184.329507,7328.038826
3699.887583,1762.019645,1110.308913,7105.977043
3699.887898,1455.581446,814.226536,7105.977043
3699.888212,995.924147,-148.041188,9252.574275
3699.888527,536.266849,-444.123565,10214.842000
3699.888841,0.000000,-666.185348,11251.130318
3699.889156,-1072.533697,-962.267725,12065.356855
3699.889470,-1302.362347,-592.164754,12065.356855
3699.889785,-1378.971896,-0.000000,11029.068536
3699.890100,-689.485948,888.247130,10214.842000
3699.890414,76.609550,1406.391290,8438.347739
3699.890729,459.657299,1480.411884,7476.080014
3699.891043,1378.971896,1628.453072,7105.977043
3699.891358,1532.190996,888.247130,7846.182985
3699.891672,919.314598,370.102971,8882.471304
3699.891987,153.219100,-0.000000,9770.718434
3699.892301,-459.657299,-666.185348,10955.047942
3699.892616,-1225.752797,-740.205942,11917.315666
3699.892931,-1762.019645,-814.226536,12139.377449
3699.893245,-1532.190996,148.041188,11769.274478
3699.893560,-995.924147,888.247130,10362.883188
3699.893874,-306.438199,1110.308913,8660.409521
3699.894189,153.219100,1702.473667,7624.121203
3699.894503,1072.533697,1554.432478,7254.018232
3699.894818,1225.752797,962.267725,7846.182985
3699.895132,766.095498,222.061783,8142.265362
3699.895447,536.266849,-296.082377,9696.697840
3699.895761,0.000000,-814.226536,10955.047942
3699.896076,-612.876398,-814.226536,11843.295072
3699.896391,-1072.533697,-666.185348,11917.315666
3699.896705,-1072.533697,-0.000000,11621.233289
3699.897020,-1225.752797,518.144159,10732.986159
3699.897334,-229.828649,1110.308913,9104.533087
3699.897649,919.314598,1332.370696,7994.224174
3699.897963,1685.410096,1406.391290,7105.977043
3699.898278,1838.629195,1184.329507,7476.080014
3699.898592,1685.410096,740.205942,7994.224174
3699.898907,995.924147,-0.000000,9030.512492
3699.899222,536.266849,-74.020594,10510.924376
3699.899536,-383.047749,-740.205942,11399.171507
3699.899851,-766.095498,-814.226536,12065.356855
3699.900165,-766.095498,-1110.308913,11843.295072
3699.900480,-1072.533697,-0.000000,11029.068536
3699.900794,-383.047749,-0.000000,9770.718434
3699.901109,459.657299,888.247130,8586.388927
3699.901423,1225.752797,1332.370696,7698.141797
3699.901738,1915.238745,1036.288319,7402.059420
3699.902052,1685.410096,740.205942,7476.080014
3699.902367,1455.581446,74.020594,8660.409521
3699.902682,689.485948,-444.123565,10288.862594
3699.902996,-383.047749,-592.164754,11177.109724
3699.903311,-689.485948,-888.247130,11843.295072
3699.903625,-1225.752797,-888.247130,11917.315666
3699.903940,-995.924147,-74.020594,10881.027347
3699.904254,-766.095498,296.082377,9696.697840
3699.904569,0.000000,740.205942,8808.450710
3699.904883,536.266849,1036.288319,7624.121203
3699.905198,1455.581446,962.267725,7105.977043
3699.905512,1455.581446,370.102971,7624.121203
3699.905827,919.314598,-74.020594,8364.327145
3699.906142,306.438199,-444.123565,9844.739029
3699.906456,-153.219100,-814.226536,10658.965565
3699.906771,-536.266849,-666.185348,11843.295072
3699.907085,-1072.533697,-518.144159,11843.295072
3699.907400,-1149.143247,-0.000000,10807.006753
3699.907714,-995.924147,740.205942,10362.883188
3699.908029,153.219100,444.123565,9178.553681
3699.908343,612.876398,888.247130,7846.182985
3699.908658,1455.581446,962.267725,7698.141797
3699.908972,995.924147,370.102971,7772.162391
3699.909287,919.314598,222.061783,8438.347739
3699.909602,459.657299,-444.123565,9696.697840
3699.909916,-383.047749,-666.185348,10436.903782
3699.910231,-536.266849,-814.226536,11769.274478
3699.910545,-1225.752797,-814.226536,12213.398043
3699.910860,-1302.362347,-370.102971,11843.295072
3699.911174,-919.314598,444.123565,10807.006753
3699.911489,-459.657299,740.205942,9474.636058
3699.911803,689.485948,1184.329507,8142.265362
3699.912118,1072.533697,1258.350101,7550.100608
3699.912432,2145.067394,740.205942,7772.162391
3699.912747,2451.505594,592.164754,8216.285956
3699.913061,612.876398,-0.000000,9400.615463
3699.913376,0.000000,-444.123565,10362.883188
3699.913691,-536.266849,-666.185348,11547.212695
3699.914005,-766.095498,-962.267725,12065.356855
3699.914320,-919.314598,-814.226536,11769.274478
3699.914634,-842.705048,-148.041188,10436.903782
3699.914949,-229.828649,370.102971,9252.574275
3699.915263,306.438199,740.205942,7772.162391
3699.915578,1378.971896,962.267725,7402.059420
3699.915892,1838.629195,740.205942,7328.038826
3699.916207,1455.581446,370.102971,7550.100608
3699.916521,919.314598,-0.000000,9030.512492
3699.916836,612.876398,-740.205942,9992.780217
3699.917150,-306.438199,-1406.391290,11029.068536
3699.917465,-383.047749,-888.247130,11399.171507
3699.917780,-612.876398,-666.185348,11769.274478
3699.918094,-459.657299,296.082377,10881.027347
3699.918409,0.000000,814.226536,9548.656652
3699.918723,766.095498,1036.288319,8142.265362
3699.919038,1608.800546,1258.350101,7328.038826
3699.919352,2145.067394,1110.308913,7179.997637
3699.919667,1915.238745,518.144159,7772.162391
3699.919981,1378.971896,-74.020594,8364.327145
3699.920296,612.876398,-370.102971,9474.636058
3699.920610,0.000000,-592.164754,10584.944971
3699.920925,-842.705048,-518.144159,11547.212695
3699.921239,-919.314598,-444.123565,11917.315666
3699.921554,-1072.533697,370.102971,10955.047942
3699.921869,-612.876398,666.185348,10066.800811
3699.922183,153.219100,1110.308913,8808.450710
3699.922498,536.266849,1480.411884,7994.224174
3699.922812,1072.533697,1332.370696,7624.121203
3699.923127,1149.143247,666.185348,8142.265362
3699.923441,1378.971896,-148.041188,8882.471304
3699.923756,306.438199,-0.000000,9992.780217
3699.924070,-153.219100,-0.000000,10955.047942
3699.924385,-995.924147,-444.123565,11695.253884
3699.924699,-1072.533697,-222.061783,11769.274478
3699.925014,-1149.143247,296.082377,11251.130318
3699.925328,-689.485948,518.144159,10214.842000
3699.925643,-306.438199,962.267725,9030.512492
3699.925958,383.047749,1258.350101,7698.141797
3699.926272,919.314598,1332.370696,7105.977043
3699.926587,1685.410096,1036.288319,7920.203579
3699.926901,689.485948,222.061783,8216.285956
3699.927216,229.828649,-296.082377,9622.677246
3699.927530,-536.266849,-666.185348,10732.986159
3699.927845,-766.095498,-962.267725,11769.274478
3699.928159,-1225.752797,-814.226536,12065.356855
3699.928474,-1302.362347,-0.000000,11843.295072
3699.928788,-1455.581446,592.164754,10807.006753
3699.929103,-842.705048,814.226536,9696.697840
3699.929417,459.657299,1332.370696,8216.285956
3699.929732,995.924147,1184.329507,7624.121203
3699.930047,1685.410096,888.247130,7402.059420
3699.930361,1532.190996,148.041188,8290.306550
3699.930676,612.876398,-296.082377,9178.553681
3699.930990,0.000000,-666.185348,10140.821405
3699.931305,-995.924147,-1036.288319,11399.171507
3699.931619,-1072.533697,-888.247130,11843.295072
3699.931934,-1072.533697,-962.267725,11917.315666
3699.932248,-995.924147,-148.041188,10510.924376
3699.932563,-689.485948,666.185348,9622.677246
3699.932877,459.657299,814.226536,8068.244768
3699.933192,1225.752797,814.226536,7624.121203
3699.933507,1378.971896,888.247130,7328.038826
3699.933821,1455.581446,296.082377,7698.141797
3699.934136,1225.752797,222.061783,8216.285956
3699.934450,919.314598,-148.041188,9770.718434
3699.934765,153.219100,-962.267725,11103.089130
3699.935079,-612.876398,-1036.288319,11843.295072
3699.935394,-995.924147,-888.247130,11769.274478
3699.935708,-1072.533697,148.041188,11029.068536
3699.936023,-689.485948,370.102971,9622.677246
3699.936337,153.219100,814.226536,8512.368333
3699.936652,995.924147,1036.288319,7476.080014
3699.936966,1685.410096,-148.041188,6735.874072
3699.937281,1302.362347,444.123565,7402.059420
3699.937596,1455.581446,-148.041188,8512.368333
3699.937910,383.047749,-1258.350101,9696.697840
3699.938225,-383.047749,-1036.288319,10510.924376
3699.938539,-459.657299,-1184.329507,11177.109724
3699.938854,-459.657299,-1036.288319,12139.377449
3699.939168,-766.095498,-74.020594,10658.965565
3699.939483,-612.876398,592.164754,10066.800811
3699.939797,-306.438199,1184.329507,8882.471304
3699.940112,536.266849,1850.514855,7994.224174
3699.940426,1608.800546,1258.350101,7105.977043
3699.940741,1991.848295,666.185348,7624.121203
3699.941055,1378.971896,592.164754,8512.368333
3699.941370,536.266849,-74.020594,9770.718434
3699.941685,153.219100,-518.144159,10807.006753
3699.941999,-842.705048,-518.144159,11843.295072
3699.942314,-1149.143247,-666.185348,12287.418637
3699.942628,-1225.752797,-0.000000,11843.295072
3699.942943,-1608.800546,592.164754,10584.944971
3699.943257,-766.095498,962.267725,9474.636058
3699.943572,0.000000,1406.391290,8512.368333
3699.943886,919.314598,1628.453072,7846.182985
3699.944201,1455.581446,1110.308913,7698.141797
3699.944515,766.095498,518.144159,8216.285956
3699.944830,459.657299,-0.000000,9030.512492
3699.945144,0.000000,-296.082377,10510.924376
3699.945459,-842.705048,-518.144159,11843.295072
3699.945774,-1608.800546,-592.164754,12361.439231
3699.946088,-1685.410096,-444.123565,12065.356855
3699.946403,-1915.238745,666.185348,11029.068536
3699.946717,-689.485948,1184.329507,9622.677246
3699.947032,153.219100,1258.350101,8438.347739
3699.947346,919.314598,1776.494261,7772.162391
3699.947661,1455.581446,888.247130,7328.038826
3699.947975,1608.800546,518.144159,7550.100608
3699.948290,1149.143247,-0.000000,8660.409521
3699.948604,459.657299,-518.144159,9770.718434
3699.948919,-459.657299,-962.267725,10881.027347
3699.949233,-1149.143247,-1036.288319,12065.356855
3699.949548,-842.705048,-1184.329507,11695.253884
3699.949863,-1072.533697,-148.041188,10436.903782
3699.950177,-536.266849,296.082377,9770.718434
3699.950492,-153.219100,444.123565,8660.409521
3699.950806,1149.143247,1184.329507,7698.141797
3699.951121,1915.238745,1110.308913,7105.977043
3699.951435,1838.629195,666.185348,7624.121203
3699.951750,1072.533697,-0.000000,8734.430116
3699.952064,689.485948,-740.205942,10140.821405
3699.952379,153.219100,-1184.329507,11029.068536
3699.952693,-536.266849,-1258.350101,11991.336260
3699.953008,-536.266849,-814.226536,11843.295072
3699.953322,-689.485948,-444.123565,11843.295072
3699.953637,-459.657299,296.082377,10140.821405
3699.953952,306.438199,592.164754,8734.430116
3699.954266,1149.143247,962.267725,7550.100608
3699.954581,2068.457845,1036.288319,7105.977043
3699.954895,1915.238745,148.041188,7254.018232
3699.955210,1302.362347,-222.061783,7994.224174
3699.955524,1225.752797,-370.102971,9326.594869
3699.955839,306.438199,-444.123565,10140.821405
3699.956153,-459.657299,-962.267725,11399.171507
3699.956468,-842.705048,-962.267725,11991.336260
3699.956782,-1072.533697,-592.164754,11325.150913
3699.957097,-995.924147,296.082377,10584.944971
3699.957412,-229.828649,814.226536,9474.636058
3699.957726,689.485948,1332.370696,8216.285956
3699.958041,1685.410096,1480.411884,7179.997637
3699.958355,1532.190996,814.226536,7476.080014
3699.958670,1302.362347,592.164754,8142.265362
3699.958984,612.876398,-0.000000,9030.512492
3699.959299,229.828649,-666.185348,10436.903782
3699.959613,-459.657299,-814.226536,11843.295072
3699.959928,-1532.190996,-1036.288319,12213.398043
3699.960242,-1608.800546,-814.226536,11991.336260
3699.960557,-1532.190996,296.082377,11103.089130
3699.960871,-766.095498,592.164754,9844.739029
3699.961186,229.828649,740.205942,8660.409521
3699.961501,842.705048,1480.411884,7328.038826
3699.961815,1608.800546,962.267725,7105.977043
3699.962130,1532.190996,518.144159,7772.162391
3699.962444,1225.752797,222.061783,9104.533087
3699.962759,383.047749,-148.041188,10362.883188
3699.963073,0.000000,-518.144159,10955.047942
3699.963388,-995.924147,-740.205942,11917.315666
3699.963702,-1302.362347,-370.102971,12065.356855
3699.964017,-1378.971896,-0.000000,11547.212695
3699.964331,-995.924147,148.041188,10807.006753
3699.964646,-306.438199,814.226536,8882.471304
3699.964960,459.657299,1480.411884,7698.141797
3699.965275,919.314598,1258.350101,7402.059420
3699.965590,766.095498,666.185348,7920.203579
3699.965904,153.219100,-0.000000,8734.430116
3699.966219,0.000000,-740.205942,10510.924376
3699.966533,-383.047749,-814.226536,11547.212695
3699.966848,-919.314598,-666.185348,12213.398043
3699.967162,-1149.143247,-444.123565,12435.459826
3699.967477,-842.705048,-0.000000,11547.212695
3699.967791,-612.876398,740.205942,10140.821405
3699.968106,306.438199,1110.308913,8512.368333
3699.968420,1532.190996,1480.411884,7624.121203
3699.968735,1915.238745,1258.350101,6661.853478
3699.969049,2451.505594,444.123565,6809.894666
3699.969364,1685.410096,-0.000000,7624.121203
3699.969679,995.924147,-444.123565,9474.636058
3699.969993,536.266849,-666.185348,10584.944971
3699.970308,-306.438199,-1258.350101,11325.150913
3699.970622,-536.266849,-1406.391290,11843.295072
3699.970937,-919.314598,-740.205942,11251.130318
3699.971251,-383.047749,444.123565,10066.800811
3699.971566,306.438199,962.267725,9178.553681
3699.971880,766.095498,1258.350101,8068.244768
3699.972195,2451.505594,1554.432478,6957.935855
3699.972509,2221.676944,1258.350101,6957.935855
3699.972824,2068.457845,814.226536,7846.182985
3699.973138,1225.752797,296.082377,9252.574275
3699.973453,459.657299,-666.185348,10732.986159
3699.973768,-459.657299,-1036.288319,11473.192101
3699.974082,-1072.533697,-1036.288319,12139.377449
3699.974397,-1149.143247,-666.185348,12065.356855
3699.974711,-1225.752797,296.082377,10732.986159
3699.975026,-842.705048,1110.308913,9770.718434
3699.975340,306.438199,1332.370696,8586.388927
3699.975655,689.485948,1258.350101,7402.059420
3699.975969,1532.190996,1332.370696,7402.059420
3699.976284,1455.581446,666.185348,7698.141797
3699.976598,919.314598,-0.000000,8956.491898
3699.976913,153.219100,-74.020594,10214.842000
3699.977227,-689.485948,-444.123565,11103.089130
3699.977542,-919.314598,-74.020594,12361.439231
3699.977857,-1532.190996,148.041188,12065.356855
3699.978171,-1685.410096,592.164754,10881.027347
3699.978486,-842.705048,740.205942,10066.800811
3699.978800,-536.266849,1036.288319,8734.430116
3699.979115,153.219100,1184.329507,7698.141797
3699.979429,766.095498,962.267725,7624.121203
3699.979744,459.657299,370.102971,8216.285956
3699.980058,0.000000,-222.061783,8808.450710
3699.980373,-536.266849,-518.144159,10436.903782
3699.980687,-1072.533697,-666.185348,11177.109724
3699.981002,-1225.752797,-962.267725,11917.315666
3699.981317,-1532.190996,-1184.329507,11843.295072
3699.981631,-1455.581446,296.082377,11251.130318
3699.981946,-1149.143247,444.123565,10066.800811
3699.982260,76.609550,740.205942,8956.491898
3699.982575,995.924147,962.267725,7624.121203
3699.982889,1532.190996,740.205942,7105.977043
3699.983204,1685.410096,518.144159,7105.977043
3699.983518,1225.752797,-0.000000,7846.182985
3699.983833,536.266849,-592.164754,9400.615463
3699.984147,383.047749,-1110.308913,10288.862594
3699.984462,-766.095498,-1850.514855,11029.068536
3699.984776,-689.485948,-1776.494261,11991.336260
3699.985091,-1149.143247,-740.205942,11843.295072
3699.985406,-842.705048,-518.144159,10658.965565
3699.985720,-383.047749,222.061783,9622.677246
3699.986035,536.266849,740.205942,8216.285956
3699.986349,1455.581446,962.267725,7105.977043
3699.986664,1991.848295,888.247130,7031.956449
3699.986978,1991.848295,296.082377,7846.182985
3699.987293,1225.752797,-666.185348,9326.594869
3699.987607,842.705048,-592.164754,9918.759623
3699.987922,76.609550,-962.267725,10658.965565
3699.988236,-153.219100,-962.267725,11917.315666
3699.988551,-536.266849,-518.144159,11473.192101
3699.988865,-229.828649,-74.020594,10658.965565
3699.989180,-612.876398,-0.000000,9252.574275
3699.989495,459.657299,370.102971,7920.203579
3699.989809,842.705048,740.205942,6957.935855
3699.990124,1608.800546,370.102971,7105.977043
3699.990438,1608.800546,-0.000000,7550.100608
3699.990753,995.924147,-370.102971,8586.388927
3699.991067,383.047749,-296.082377,9548.656652
3699.991382,-306.438199,-666.185348,10955.047942
3699.991696,-229.828649,-592.164754,11917.315666
3699.992011,-536.266849,-0.000000,11843.295072
3699.992325,-536.266849,814.226536,10732.986159
3699.992640,0.000000,1184.329507,9474.636058
3699.992954,459.657299,1184.329507,8438.347739
3699.993269,1149.143247,1554.432478,7772.162391
3699.993584,1072.533697,1258.350101,7698.141797
3699.993898,1149.143247,592.164754,7846.182985
3699.994213,842.705048,148.041188,8364.327145
3699.994527,76.609550,-148.041188,10510.924376
3699.994842,-842.705048,-592.164754,11621.233289
3699.995156,-1532.190996,-518.144159,11547.212695
3699.995471,-1378.971896,-370.102971,11843.295072
3699.995785,-1532.190996,518.144159,11325.150913
3699.996100,-766.095498,888.247130,10140.821405
3699.996414,0.000000,1406.391290,8956.491898
3699.996729,536.266849,2072.576638,8142.265362
3699.997043,1455.581446,1628.453072,7476.080014
3699.997358,1608.800546,1332.370696,7772.162391
3699.997673,919.314598,814.226536,8586.388927
3699.997987,153.219100,74.020594,10140.821405
3699.998302,-536.266849,-148.041188,11177.109724
3699.998616,-1149.143247,-148.041188,11695.253884
3699.998931,-1378.971896,-222.061783,12213.398043
3699.999245,-1378.971896,-0.000000,11843.295072
3699.999560,-1378.971896,592.164754,10584.944971
3699.999874,-766.095498,592.164754,9400.615463
3700.000189,76.609550,1184.329507,8216.285956
3700.000503,1225.752797,1332.370696,7179.997637
3700.000818,1455.581446,1184.329507,7328.038826
3700.001133,612.876398,148.041188,8364.327145
3700.001447,459.657299,-296.082377,9252.574275
3700.001762,0.000000,-296.082377,10214.842000
3700.002076,-612.876398,-814.226536,11399.171507
3700.002391,-306.438199,-888.247130,11843.295072
3700.002705,-612.876398,-444.123565,11695.253884
3700.003020,-766.095498,370.102971,10436.903782
3700.003334,-153.219100,370.102971,9548.656652
3700.003649,612.876398,814.226536,8364.327145
3700.003963,1455.581446,814.226536,7328.038826
3700.004278,1991.848295,518.144159,7105.977043
3700.004592,1915.238745,-0.000000,7698.141797
3700.004907,1072.533697,-444.123565,8438.347739
3700.005221,689.485948,-888.247130,9844.739029
3700.005536,0.000000,-1184.329507,11621.233289
3700.005850,-612.876398,-1110.308913,11621.233289
3700.006165,-459.657299,-888.247130,11547.212695
3700.006479,-689.485948,-74.020594,10288.862594
3700.006793,0.000000,370.102971,9918.759623
3700.007108,1072.533697,1110.308913,8660.409521
3700.007422,1378.971896,1332.370696,7179.997637
3700.007737,1915.238745,962.267725,7105.977043
3700.008051,1838.629195,370.102971,7476.080014
3700.008366,1685.410096,-0.000000,8438.347739
3700.008680,689.485948,-814.226536,9770.718434
3700.008994,0.000000,-1036.288319,10807.006753
3700.009309,-842.705048,-1184.329507,11843.295072
3700.009623,-1072.533697,-888.247130,11843.295072
3700.009938,-1302.362347,-148.041188,11177.109724
3700.010252,-1072.533697,814.226536,10436.903782
3700.010567,-383.047749,666.185348,8956.491898
3700.010881,766.095498,1110.308913,7698.141797
3700.011195,1608.800546,1184.329507,7179.997637
3700.011510,1838.629195,518.144159,7624.121203
3700.011824,1302.362347,296.082377,8438.347739
3700.012139,383.047749,-296.082377,9548.656652
3700.012453,-229.828649,-518.144159,10881.027347
3700.012767,-689.485948,-518.144159,11769.274478
3700.013082,-766.095498,-740.205942,12287.418637
3700.013396,-1149.143247,-148.041188,11769.274478
3700.013711,-1302.362347,296.082377,10066.800811
3700.014025,-689.485948,518.144159,9252.574275
3700.014340,0.000000,1110.308913,8216.285956
3700.014654,689.485948,962.267725,7698.141797
3700.014968,689.485948,592.164754,7698.141797
3700.015283,689.485948,222.061783,8438.347739
3700.015597,229.828649,-222.061783,9474.636058
3700.015912,-306.438199,-518.144159,10881.027347
3700.016226,-612.876398,-518.144159,11695.253884
3700.016540,-1455.581446,-296.082377,12065.356855
3700.016855,-1378.971896,-148.041188,12065.356855
3700.017169,-1378.971896,814.226536,10510.924376
3700.017484,-459.657299,1036.288319,9400.615463
3700.017798,612.876398,1110.308913,8660.409521
3700.018113,689.485948,1332.370696,7698.141797
3700.018427,1149.143247,740.205942,7772.162391
3700.018741,1072.533697,-0.000000,7994.224174
3700.019056,766.095498,-148.041188,9178.553681
3700.019370,766.095498,-814.226536,10436.903782
3700.019685,-383.047749,-740.205942,11473.192101
3700.019999,-383.047749,-740.205942,11843.295072
3700.020313,-689.485948,-222.061783,11547.212695
3700.020628,-995.924147,222.061783,10584.944971
3700.020942,-306.438199,370.102971,9622.677246
3700.021257,689.485948,1110.308913,8512.368333
3700.021571,1378.971896,1480.411884,7179.997637
3700.021886,1762.019645,1110.308913,7105.977043
3700.022200,1838.629195,444.123565,7328.038826
3700.022514,1149.143247,-0.000000,8734.430116
3700.022829,383.047749,-740.205942,9992.780217
3700.023143,-229.828649,-962.267725,11103.089130
3700.023458,-766.095498,-888.247130,11695.253884
3700.023772,-766.095498,-888.247130,11991.336260
3700.024087,-459.657299,296.082377,11029.068536
3700.024401,-536.266849,666.185348,9992.780217
3700.024715,459.657299,1110.308913,8216.285956
3700.025030,1302.362347,1332.370696,7402.059420
3700.025344,2298.286494,1332.370696,7476.080014
3700.025659,2298.286494,518.144159,7698.141797
3700.025973,1991.848295,-0.000000,7994.224174
3700.026287,1072.533697,-444.123565,9474.636058
3700.026602,306.438199,-666.185348,10584.944971
3700.026916,-229.828649,-888.247130,11695.253884
3700.027231,-1455.581446,-962.267725,11843.295072
3700.027545,-612.876398,-518.144159,11399.171507
3700.027860,-459.657299,666.185348,9844.739029
3700.028174,0.000000,962.267725,8512.368333
3700.028488,919.314598,1406.391290,7772.162391
3700.028803,1455.581446,1258.350101,7476.080014
3700.029117,1302.362347,740.205942,7476.080014
3700.029432,1072.533697,-0.000000,8290.306550
3700.029746,459.657299,-74.020594,9844.739029
3700.030060,-383.047749,-666.185348,11029.068536
3700.030375,-459.657299,-740.205942,12509.480420
3700.030689,-919.314598,-518.144159,12731.542202
3700.031004,-1455.581446,-0.000000,11473.192101
3700.031318,-1149.143247,740.205942,10658.965565
3700.031633,-612.876398,1332.370696,9622.677246
3700.031947,459.657299,962.267725,8068.244768
3700.032261,612.876398,1406.391290,7402.059420
3700.032576,1225.752797,592.164754,7624.121203
3700.032890,1225.752797,-0.000000,8216.285956
3700.033205,229.828649,-370.102971,9548.656652
3700.033519,-459.657299,-962.267725,10510.924376
3700.033834,-1532.190996,-1036.288319,11251.130318
3700.034148,-1532.190996,-962.267725,11843.295072
3700.034462,-1532.190996,-518.144159,11843.295072
3700.034777,-1685.410096,-0.000000,11325.150913
3700.035091,-919.314598,666.185348,10066.800811
3700.035406,0.000000,1406.391290,8290.306550
3700.035720,1225.752797,2072.576638,7105.977043
3700.036034,1302.362347,1258.350101,7328.038826
3700.036349,1455.581446,370.102971,7772.162391
3700.036663,1072.533697,-518.144159,8882.471304
3700.036978,76.609550,-814.226536,9770.718434
3700.037292,-383.047749,-888.247130,11251.130318
3700.037607,-1302.362347,-962.267725,11991.336260
3700.037921,-1149.143247,-814.226536,12065.356855
3700.038235,-1225.752797,-296.082377,10658.965565
3700.038550,-536.266849,518.144159,9474.636058
3700.038864,459.657299,888.247130,8586.388927
3700.039179,995.924147,1036.288319,7179.997637
3700.039493,2068.457845,1258.350101,6735.874072
3700.039807,2068.457845,518.144159,7254.018232
3700.040122,1685.410096,222.061783,8216.285956
3700.040436,919.314598,-444.123565,9696.697840
3700.040751,229.828649,-740.205942,10807.006753
3700.041065,-459.657299,-888.247130,12287.418637
3700.041380,-1149.143247,-740.205942,11843.295072
3700.041694,-1149.143247,-74.020594,11399.171507
3700.042008,-689.485948,370.102971,10658.965565
3700.042323,76.609550,814.226536,9178.553681
3700.042637,536.266849,740.205942,8142.265362
3700.042952,1608.800546,1110.308913,7105.977043
3700.043266,1838.629195,444.123565,7105.977043
3700.043580,1608.800546,222.061783,7550.100608
3700.043895,1072.533697,-296.082377,9178.553681
3700.044209,306.438199,-370.102971,10362.883188
3700.044524,-306.438199,-592.164754,11473.192101
3700.044838,-842.705048,-222.061783,11843.295072
3700.045153,-919.314598,-222.061783,11177.109724
3700.045467,-995.924147,222.061783,10658.965565
3700.045781,76.609550,1110.308913,9400.615463
3700.046096,612.876398,1258.350101,8142.265362
3700.046410,1225.752797,1406.391290,7624.121203
3700.046725,1685.410096,1184.329507,7624.121203
3700.047039,1455.581446,444.123565,7624.121203
3700.047354,1149.143247,-0.000000,9622.677246
3700.047668,0.000000,-370.102971,10436.903782
3700.047982,-536.266849,-666.185348,11621.233289
3700.048297,-1072.533697,-370.102971,12287.418637
3700.048611,-766.095498,-296.082377,11917.315666
3700.048926,-1378.971896,444.123565,10955.047942
3700.049240,-919.314598,666.185348,9474.636058
3700.049554,0.000000,1332.370696,8808.450710
3700.049869,536.266849,1406.391290,7698.141797
3700.050183,919.314598,592.164754,7698.141797
3700.050498,1149.143247,-0.000000,7846.182985
3700.050812,536.266849,-0.000000,8734.430116
3700.051127,-153.219100,-222.061783,10066.800811
3700.051441,-766.095498,-444.123565,11325.150913
3700.051755,-1532.190996,-1036.288319,12509.480420
3700.052070,-1685.410096,-444.123565,11843.295072
3700.052384,-1378.971896,444.123565,11103.089130
3700.052699,-1302.362347,444.123565,9918.759623
3700.053013,-229.828649,814.226536,9104.533087
3700.053327,536.266849,1258.350101,7772.162391
3700.053642,995.924147,666.185348,7179.997637
3700.053956,766.095498,370.102971,7920.203579
3700.054271,766.095498,-0.000000,8512.368333
3700.054585,229.828649,-592.164754,9474.636058
3700.054900,-766.095498,-1036.288319,11251.130318
3700.055214,-1149.143247,-1554.432478,11917.315666
3700.055528,-1532.190996,-1184.329507,12065.356855
3700.055843,-1302.362347,-444.123565,11325.150913
3700.056157,-1072.533697,-74.020594,9918.759623
3700.056472,0.000000,814.226536,8660.409521
3700.056786,1225.752797,1110.308913,7402.059420
3700.057100,1991.848295,814.226536,7179.997637
3700.057415,2068.457845,518.144159,7179.997637
3700.057729,1838.629195,222.061783,7624.121203
3700.058044,1225.752797,-370.102971,9030.512492
3700.058358,459.657299,-814.226536,10436.903782
3700.058673,-306.438199,-1110.308913,11473.192101
3700.058987,-536.266849,-1110.308913,11917.315666
3700.059301,-459.657299,-888.247130,11547.212695
3700.059616,-612.876398,-0.000000,10658.965565
3700.059930,0.000000,592.164754,9474.636058
3700.060245,766.095498,1036.288319,7846.182985
3700.060559,1762.019645,1184.329507,7328.038826
3700.060874,1915.238745,518.144159,7550.100608
3700.061188,1762.019645,-0.000000,8142.265362
3700.061502,766.095498,-0.000000,9252.574275
3700.061817,306.438199,-444.123565,10066.800811
3700.062131,-383.047749,-814.226536,11399.171507
3700.062446,-383.047749,-888.247130,11917.315666
3700.062760,-612.876398,-370.102971,11769.274478
3700.063074,-842.705048,592.164754,10584.944971
3700.063389,0.000000,592.164754,9474.636058
3700.063703,689.485948,1036.288319,8290.306550
3700.064018,1149.143247,1406.391290,7920.203579
3700.064332,1225.752797,444.123565,7402.059420
3700.064647,1455.581446,-0.000000,7698.141797
3700.064961,459.657299,-370.102971,9030.512492
3700.065275,0.000000,-666.185348,10955.047942
3700.065590,-919.314598,-666.185348,11325.150913
3700.065904,-1378.971896,-592.164754,12361.439231
3700.066219,-1302.362347,-148.041188,12065.356855
3700.066533,-1149.143247,222.061783,11399.171507
3700.066847,-995.924147,592.164754,9918.759623
3700.067162,-229.828649,1036.288319,9030.512492
3700.067476,536.266849,1554.432478,7846.182985
3700.067791,1225.752797,962.267725,7105.977043
3700.068105,1149.143247,814.226536,7698.141797
3700.068420,383.047749,-0.000000,8586.388927
3700.068734,0.000000,-370.102971,9770.718434
3700.069048,-919.314598,-740.205942,10807.006753
3700.069363,-1302.362347,-888.247130,11843.295072
3700.069677,-1225.752797,-666.185348,11917.315666
3700.069992,-1455.581446,-0.000000,11029.068536
3700.070306,-536.266849,814.226536,10140.821405
3700.070620,229.828649,1406.391290,8882.471304
3700.070935,1072.533697,1924.535449,7254.018232
3700.071249,1378.971896,1702.473667,6957.935855
3700.071564,1685.410096,1036.288319,7698.141797
3700.071878,1302.362347,666.185348,8586.388927
3700.072193,689.485948,-74.020594,9400.615463
3700.072507,-153.219100,-666.185348,10658.965565
3700.072821,-842.705048,-666.185348,11843.295072
3700.073136,-766.095498,-962.267725,12583.501014
3700.073450,-1225.752797,-222.061783,12139.377449
3700.073765,-1149.143247,518.144159,10955.047942
3700.074079,0.000000,1184.329507,9104.533087
3700.074394,842.705048,1480.411884,7698.141797
3700.074708,1915.238745,1184.329507,6513.812290
3700.075022,2374.896044,814.226536,7179.997637
3700.075337,1991.848295,296.082377,7550.100608
3700.075651,1072.533697,-370.102971,8956.491898
3700.075966,536.266849,-444.123565,10510.924376
3700.076280,229.828649,-1184.329507,11399.171507
3700.076594,-536.266849,-740.205942,11547.212695
3700.076909,-612.876398,-444.123565,11325.150913
3700.077223,-612.876398,-0.000000,10584.944971
3700.077538,0.000000,518.144159,9548.656652
3700.077852,612.876398,962.267725,8808.450710
3700.078167,1072.533697,1184.329507,7402.059420
3700.078481,1685.410096,888.247130,7105.977043
3700.078795,1378.971896,592.164754,7624.121203
3700.079110,919.314598,-74.020594,9474.636058
3700.079424,689.485948,-666.185348,10510.924376
3700.079739,0.000000,-888.247130,11177.109724
3700.080053,-612.876398,-814.226536,11843.295072
3700.080367,-689.485948,-222.061783,11769.274478
3700.080682,-536.266849,518.144159,10955.047942
3700.080996,76.609550,518.144159,9474.636058
3700.081311,459.657299,1036.288319,8290.306550
3700.081625,1149.143247,1702.473667,7328.038826
3700.081940,1378.971896,1258.350101,7105.977043
3700.082254,1685.410096,370.102971,7698.141797
3700.082568,842.705048,-518.144159,8956.491898
3700.082883,229.828649,-740.205942,9992.780217
3700.083197,-459.657299,-1036.288319,11177.109724
3700.083512,-1225.752797,-814.226536,11917.315666
3700.083826,-1455.581446,-148.041188,11991.336260
3700.084141,-1532.190996,370.102971,11769.274478
3700.084455,-842.705048,666.185348,10066.800811
3700.084769,-229.828649,1036.288319,8734.430116
3700.085084,459.657299,1406.391290,7846.182985
3700.085398,1455.581446,1702.473667,7179.997637
3700.085713,1455.581446,814.226536,7772.162391
3700.086027,536.266849,296.082377,8068.244768
3700.086341,0.000000,-814.226536,9622.677246
3700.086656,-919.314598,-1406.391290,10658.965565
3700.086970,-1455.581446,-1332.370696,11843.295072
3700.087285,-1762.019645,-1036.288319,12287.418637
3700.087599,-1685.410096,-592.164754,11473.192101
3700.087914,-1302.362347,222.061783,10288.862594
3700.088228,-153.219100,814.226536,9104.533087
3700.088542,919.314598,962.267725,7772.162391
3700.088857,2221.676944,1110.308913,7105.977043
3700.089171,2221.676944,1036.288319,7179.997637
3700.089486,1915.238745,592.164754,7550.100608
3700.089800,995.924147,-0.000000,8734.430116
3700.090114,306.438199,-666.185348,10140.821405
3700.090429,-766.095498,-962.267725,11251.130318
3700.090743,-1225.752797,-1258.350101,11917.315666
3700.091058,-1225.752797,-1036.288319,11917.315666
3700.091372,-1072.533697,-296.082377,11029.068536
3700.091687,-536.266849,296.082377,9844.739029
3700.092001,536.266849,592.164754,8586.388927
3700.092315,919.314598,1036.288319,7402.059420
3700.092630,1532.190996,740.205942,7550.100608
3700.092944,1685.410096,370.102971,7328.038826
3700.093259,612.876398,-74.020594,8882.471304
3700.093573,383.047749,-296.082377,10288.862594
3700.093887,229.828649,-814.226536,11251.130318
3700.094202,-306.438199,-740.205942,11621.233289
3700.094516,-459.657299,-296.082377,12287.418637
3700.094831,-536.266849,296.082377,11843.295072
3700.095145,0.000000,444.123565,9622.677246
3700.095460,995.924147,1036.288319,8586.388927
3700.095774,1532.190996,1480.411884,7624.121203
3700.096088,1915.238745,1110.308913,6883.915261
3700.096403,2221.676944,296.082377,7254.018232
3700.096717,1378.971896,-0.000000,7920.203579
3700.097032,766.095498,-666.185348,9474.636058
3700.097346,-229.828649,-740.205942,10436.903782
3700.097661,-536.266849,-962.267725,11325.150913
3700.097975,-842.705048,-888.247130,12435.459826
3700.098289,-1149.143247,-296.082377,11473.192101
3700.098604,-919.314598,370.102971,10288.862594
3700.098918,-229.828649,1406.391290,8882.471304
3700.099233,689.485948,1184.329507,7994.224174
3700.099547,1455.581446,1036.288319,7476.080014
3700.099861,1685.410096,962.267725,7550.100608
3700.100176,1225.752797,370.102971,8512.368333
3700.100490,229.828649,-296.082377,9474.636058
3700.100805,-229.828649,-740.205942,11103.089130
3700.101119,-766.095498,-1036.288319,12139.377449
3700.101434,-1072.533697,-814.226536,12139.377449
3700.101748,-1455.581446,-370.102971,11695.253884
3700.102062,-995.924147,296.082377,10732.986159
3700.102377,-229.828649,1110.308913,9474.636058
3700.102691,306.438199,1554.432478,7994.224174
3700.103006,919.314598,1554.432478,7328.038826
3700.103320,1685.410096,1110.308913,7328.038826
3700.103634,1149.143247,518.144159,7920.203579
3700.103949,306.438199,-148.041188,9474.636058
3700.104263,0.000000,-0.000000,10436.903782
3700.104578,-1149.143247,-444.123565,11473.192101
3700.104892,-1608.800546,-444.123565,11695.253884
3700.105207,-1455.581446,-0.000000,11769.274478
3700.105521,-1532.190996,-0.000000,11325.150913
3700.105835,-995.924147,888.247130,10140.821405
3700.106150,0.000000,1258.350101,8216.285956
3700.106464,689.485948,1184.329507,7550.100608
3700.106779,1072.533697,1184.329507,7846.182985
3700.107093,1455.581446,370.102971,8438.347739
3700.107408,0.000000,-0.000000,8734.430116
3700.107722,0.000000,-444.123565,10214.842000
3700.108037,-459.657299,-888.247130,11399.171507
3700.108351,-383.047749,-666.185348,11547.212695
3700.108666,-689.485948,-592.164754,11843.295072
3700.108980,-919.314598,-0.000000,10658.965565
3700.109295,-383.047749,296.082377,9770.718434
3700.109609,536.266849,814.226536,7994.224174
3700.109924,1302.362347,1184.329507,7772.162391
3700.110238,1838.629195,962.267725,7105.977043
3700.110553,1762.019645,222.061783,7624.121203
3700.110867,1532.190996,-222.061783,8586.388927
3700.111182,689.485948,-592.164754,9992.780217
3700.111496,-229.828649,-1036.288319,11029.068536
3700.111811,-536.266849,-1480.411884,11769.274478
3700.112125,-919.314598,-814.226536,11547.212695
3700.112440,-612.876398,-222.061783,10881.027347
3700.112754,0.000000,296.082377,9770.718434
3700.113069,459.657299,962.267725,9030.512492
3700.113383,1225.752797,1036.288319,7994.224174
3700.113697,1302.362347,814.226536,7179.997637
3700.114012,1762.019645,518.144159,7328.038826
3700.114326,1378.971896,-0.000000,8586.388927
3700.114641,689.485948,-444.123565,9770.718434
3700.114955,153.219100,-444.123565,11177.109724
3700.115270,-689.485948,-888.247130,11547.212695
3700.115584,-995.924147,-814.226536,11843.295072
3700.115899,-766.095498,-74.020594,11325.150913
3700.116213,-459.657299,222.061783,10288.862594
3700.116528,-612.876398,888.247130,9178.553681
3700.116842,919.314598,1554.432478,7920.203579
3700.117157,1608.800546,1036.288319,6809.894666
3700.117471,1762.019645,740.205942,7402.059420
3700.117786,1149.143247,444.123565,8142.265362
3700.118100,383.047749,-222.061783,9474.636058
3700.118415,-306.438199,-666.185348,10362.883188
3700.118729,-612.876398,-666.185348,11473.192101
3700.119044,-1225.752797,-740.205942,12213.398043
3700.119358,-1532.190996,-444.123565,11917.315666
3700.119673,-1762.019645,-0.000000,10807.006753
3700.119987,-842.705048,592.164754,9548.656652
3700.120302,153.219100,1036.288319,8586.388927
3700.120616,995.924147,1406.391290,7476.080014
3700.120931,1302.362347,888.247130,7624.121203
3700.121245,766.095498,666.185348,7772.162391
3700.121560,383.047749,-0.000000,9104.533087
3700.121874,-536.266849,-148.041188,10436.903782
3700.122188,-1302.362347,-518.144159,11695.253884
3700.122503,-1532.190996,-592.164754,11991.336260
3700.122817,-1532.190996,-592.164754,12065.356855
3700.123132,-1532.190996,148.041188,11029.068536
3700.123446,-689.485948,740.205942,9696.697840
3700.123761,536.266849,1406.391290,8586.388927
3700.124075,1225.752797,1554.432478,7772.162391
3700.124390,1532.190996,1110.308913,7402.059420
3700.124704,1532.190996,518.144159,7179.997637
3700.125019,842.705048,148.041188,8364.327145
3700.125333,153.219100,-296.082377,10214.842000
3700.125648,-536.266849,-222.061783,10881.027347
3700.125962,-1072.533697,-592.164754,12139.377449
3700.126277,-1455.581446,-666.185348,12065.356855
3700.126591,-842.705048,-0.000000,11473.192101
3700.126906,-689.485948,518.144159,10362.883188
3700.127220,306.438199,1110.308913,9178.553681
3700.127535,1149.143247,1332.370696,8364.327145
3700.127849,1762.019645,1258.350101,7328.038826
3700.128164,2068.457845,814.226536,7105.977043
3700.128478,1608.800546,444.123565,8216.285956
3700.128793,1072.533697,-148.041188,9696.697840
3700.129107,153.219100,-740.205942,10584.944971
3700.129422,-612.876398,-814.226536,11621.233289
3700.129736,-383.047749,-1406.391290,11695.253884
3700.130050,-766.095498,-74.020594,11177.109724
3700.130365,-612.876398,370.102971,9844.739029
3700.130679,76.609550,592.164754,8734.430116
3700.130994,995.924147,1184.329507,7476.080014
3700.131308,1532.190996,888.247130,6809.894666
3700.131623,1991.848295,518.144159,7105.977043
3700.131937,1838.629195,296.082377,7698.141797
3700.132252,1225.752797,-370.102971,8734.430116
3700.132566,383.047749,-666.185348,10362.883188
3700.132881,-536.266849,-962.267725,11695.253884
3700.133195,-689.485948,-888.247130,12361.439231
3700.133510,-1149.143247,-74.020594,11769.274478
3700.133824,-995.924147,296.082377,10436.903782
3700.134139,0.000000,740.205942,9252.574275
3700.134453,842.705048,1258.350101,8364.327145
3700.134768,1149.143247,1258.350101,7994.224174
3700.135082,1302.362347,370.102971,7772.162391
3700.135397,1302.362347,-0.000000,7994.224174
3700.135711,383.047749,-222.061783,9326.594869
3700.136026,306.438199,-592.164754,10955.047942
3700.136340,-459.657299,-962.267725,11917.315666
3700.136655,-1149.143247,-740.205942,12139.377449
3700.136969,-1455.581446,-740.205942,11991.336260
3700.137284,-1378.971896,222.061783,11029.068536
3700.137598,-689.485948,814.226536,9474.636058
3700.137913,-306.438199,1554.432478,8586.388927
3700.138227,689.485948,1332.370696,7402.059420
3700.138541,1149.143247,888.247130,7179.997637
3700.138856,1302.362347,296.082377,7624.121203
3700.139170,0.000000,-0.000000,9030.512492
3700.139485,-536.266849,-222.061783,10436.903782
3700.139799,-842.705048,-1036.288319,11695.253884
3700.140114,-1608.800546,-814.226536,12065.356855
3700.140428,-1685.410096,-1036.288319,11991.336260
3700.140743,-1685.410096,-518.144159,11473.192101
3700.141057,-1072.533697,518.144159,9992.780217
3700.141372,-306.438199,1184.329507,8364.327145
3700.141686,383.047749,1406.391290,7402.059420
3700.142001,1072.533697,962.267725,6883.915261
3700.142315,1455.581446,518.144159,7179.997637
3700.142630,1378.971896,-222.061783,8068.244768
3700.142944,306.438199,-888.247130,9104.533087
3700.143259,0.000000,-962.267725,10510.924376
3700.143573,-612.876398,-1480.411884,11473.192101
3700.143888,-1225.752797,-1480.411884,12139.377449
3700.144202,-1149.143247,-518.144159,11399.171507
3700.144517,-1072.533697,370.102971,10362.883188
3700.144831,0.000000,666.185348,9030.512492
3700.145146,919.314598,962.267725,7550.100608
3700.145460,1608.800546,1332.370696,7402.059420
3700.145775,1915.238745,666.185348,7402.059420
3700.146089,1762.019645,370.102971,7920.203579
3700.146403,1378.971896,-444.123565,9548.656652
3700.146718,1225.752797,-444.123565,10881.027347
3700.147032,0.000000,-666.185348,11399.171507
3700.147347,-153.219100,-370.102971,11843.295072
3700.147661,-689.485948,-0.000000,11325.150913
3700.147976,-383.047749,888.247130,10436.903782
3700.148290,383.047749,1036.288319,9326.594869
3700.148605,995.924147,1480.411884,8364.327145
3700.148919,1838.629195,1406.391290,7105.977043
3700.149234,1685.410096,962.267725,7105.977043
3700.149548,1685.410096,444.123565,7846.182985
3700.149863,766.095498,-592.164754,9400.615463
3700.150177,153.219100,-296.082377,10658.965565
3700.150492,-536.266849,-666.185348,11547.212695
3700.150806,-612.876398,-888.247130,12065.356855
3700.151121,-689.485948,-74.020594,11917.315666
3700.151435,-1302.362347,666.185348,10807.006753
3700.151750,-459.657299,1332.370696,10066.800811
3700.152064,76.609550,1998.556043,8142.265362
3700.152379,1455.581446,1924.535449,7550.100608
3700.152693,2298.286494,1628.453072,7031.956449
3700.153008,1762.019645,814.226536,7698.141797
3700.153322,689.485948,222.061783,9104.533087
3700.153637,153.219100,-222.061783,10362.883188
3700.153951,-689.485948,-444.123565,11473.192101
3700.154266,-1378.971896,-1036.288319,11695.253884
3700.154580,-1608.800546,-814.226536,12435.459826
3700.154894,-1378.971896,-74.020594,11695.253884
3700.155209,-1302.362347,592.164754,9992.780217
3700.155523,-306.438199,1036.288319,9030.512492
3700.155838,229.828649,1480.411884,7698.141797
3700.156152,1225.752797,1554.432478,7624.121203
3700.156467,1378.971896,962.267725,7624.121203
3700.156781,842.705048,370.102971,8586.388927
3700.157096,0.000000,-592.164754,9918.759623
3700.157410,-383.047749,-370.102971,11473.192101
3700.157725,-995.924147,-666.185348,11843.295072
3700.158039,-1378.971896,-592.164754,12509.480420
3700.158354,-1762.019645,-148.041188,11843.295072
3700.158668,-1378.971896,296.082377,10732.986159
3700.158983,-766.095498,740.205942,9104.533087
3700.159297,995.924147,1036.288319,8142.265362
3700.159612,995.924147,962.267725,7105.977043
3700.159926,1302.362347,518.144159,7105.977043
3700.160241,995.924147,-222.061783,7624.121203
3700.160555,383.047749,-740.205942,9178.553681
3700.160870,-612.876398,-1110.308913,10510.924376
3700.161184,-1072.533697,-1184.329507,11325.150913
3700.161499,-1302.362347,-1332.370696,11843.295072
3700.161813,-1072.533697,-666.185348,11769.274478
3700.162128,-1225.752797,-0.000000,10288.862594
3700.162442,0.000000,-0.000000,9178.553681
3700.162757,306.438199,814.226536,7772.162391
3700.163071,1378.971896,1184.329507,7105.977043
3700.163385,1685.410096,666.185348,6883.915261
3700.163700,1302.362347,74.020594,7328.038826
3700.164014,536.266849,-222.061783,9104.533087
3700.164329,76.609550,-962.267725,10584.944971
3700.164643,0.000000,-1480.411884,11029.068536
3700.164958,-689.485948,-1406.391290,11547.212695
3700.165272,-689.485948,-814.226536,11621.233289
3700.165587,-689.485948,-148.041188,10362.883188
3700.165901,-76.609550,592.164754,9178.553681
3700.166216,689.485948,666.185348,7920.203579
3700.166530,1149.143247,888.247130,7476.080014
3700.166845,1915.238745,888.247130,7328.038826
3700.167159,1915.238745,296.082377,7920.203579
3700.167474,1302.362347,-0.000000,9030.512492
3700.167788,919.314598,-592.164754,9696.697840
3700.168103,0.000000,-666.185348,11621.233289
3700.168417,-306.438199,-518.144159,12287.418637
3700.168732,-612.876398,-592.164754,12139.377449
3700.169046,-842.705048,222.061783,11103.089130
3700.169361,-383.047749,592.164754,10066.800811
3700.169675,153.219100,1036.288319,9030.512492
3700.169990,612.876398,1258.350101,7698.141797
3700.170304,1149.143247,888.247130,7402.059420
3700.170619,1378.971896,888.247130,7698.141797
3700.170933,842.705048,-0.000000,8290.306550
3700.171247,153.219100,-518.144159,10140.821405
3700.171562,-536.266849,-740.205942,11177.109724
3700.171876,-1378.971896,-888.247130,12361.439231
3700.172191,-1532.190996,-444.123565,12213.398043
3700.172505,-1532.190996,518.144159,11325.150913
3700.172820,-766.095498,888.247130,10288.862594
3700.173134,0.000000,1036.288319,9030.512492
3700.173449,383.047749,1702.473667,8216.285956
3700.173763,1302.362347,1554.432478,7179.997637
3700.174078,1838.629195,1036.288319,7328.038826
3700.174392,995.924147,444.123565,8068.244768
3700.174707,383.047749,-296.082377,9696.697840
3700.175021,-612.876398,-296.082377,11029.068536
3700.175336,-1302.362347,-962.267725,11325.150913
3700.175650,-1225.752797,-740.205942,12065.356855
3700.175965,-1302.362347,-148.041188,11917.315666
3700.176279,-1149.143247,148.041188,9918.759623
3700.176594,-612.876398,888.247130,9104.533087
3700.176908,536.266849,1406.391290,7624.121203
3700.177223,1455.581446,1480.411884,7031.956449
3700.177537,1685.410096,1184.329507,7254.018232
3700.177852,1532.190996,296.082377,7772.162391
3700.178166,766.095498,-0.000000,9326.594869
3700.178481,0.000000,-518.144159,9992.780217
3700.178795,-536.266849,-444.123565,11325.150913
3700.179110,-766.095498,-740.205942,12287.418637
3700.179424,-1532.190996,-370.102971,12213.398043
3700.179738,-1225.752797,-0.000000,10881.027347
3700.180053,-536.266849,518.144159,9622.677246
3700.180367,459.657299,1110.308913,8586.388927
3700.180682,842.705048,1406.391290,7476.080014
3700.180996,1378.971896,1184.329507,7328.038826
3700.181311,1685.410096,518.144159,7550.100608
3700.181625,1149.143247,148.041188,8586.388927
3700.181940,612.876398,-148.041188,9918.759623
3700.182254,-306.438199,-370.102971,11029.068536
3700.182569,-536.266849,-518.144159,11843.295072
3700.182883,-459.657299,-518.144159,11917.315666
3700.183198,-536.266849,444.123565,10955.047942
3700.183512,-306.438199,592.164754,9844.739029
3700.183827,153.219100,518.144159,8808.450710
3700.184141,1072.533697,1258.350101,7105.977043
3700.184456,1608.800546,1332.370696,7105.977043
3700.184770,1455.581446,592.164754,7254.018232
3700.185085,1072.533697,-296.082377,8364.327145
3700.185399,306.438199,-814.226536,9844.739029
3700.185714,-306.438199,-888.247130,11177.109724
3700.186028,-689.485948,-814.226536,11251.130318
3700.186343,-995.924147,-518.144159,11769.274478
3700.186657,-995.924147,222.061783,11621.233289
3700.186972,-383.047749,444.123565,10214.842000
3700.187286,153.219100,1258.350101,8882.471304
3700.187601,919.314598,1480.411884,7550.100608
3700.187915,1762.019645,1258.350101,7105.977043
3700.188229,1608.800546,814.226536,7920.203579
3700.188544,1149.143247,-222.061783,8216.285956
3700.188858,383.047749,-740.205942,9992.780217
3700.189173,-229.828649,-1110.308913,11251.130318
3700.189487,-842.705048,-962.267725,11769.274478
3700.189802,-919.314598,-1036.288319,12213.398043
3700.190116,-1302.362347,-296.082377,11843.295072
3700.190431,-1149.143247,370.102971,10955.047942
3700.190745,0.000000,740.205942,9178.553681
3700.191060,306.438199,1036.288319,8216.285956
3700.191374,1302.362347,1332.370696,7254.018232
3700.191689,1532.190996,962.267725,7476.080014
3700.192003,1072.533697,222.061783,7624.121203
3700.192318,689.485948,-296.082377,9326.594869
3700.192632,-153.219100,-518.144159,10362.883188
3700.192947,-995.924147,-888.247130,11695.253884
3700.193261,-1378.971896,-888.247130,11917.315666
3700.193576,-1685.410096,-740.205942,12065.356855
3700.193890,-1838.629195,-370.102971,10881.027347
3700.194205,-1072.533697,-0.000000,9548.656652
3700.194519,0.000000,444.123565,8660.409521
3700.194834,383.047749,666.185348,7846.182985
3700.195148,1378.971896,518.144159,6883.915261
3700.195463,1532.190996,592.164754,7402.059420
3700.195777,612.876398,-444.123565,8734.430116
3700.196091,153.219100,-370.102971,9696.697840
3700.196406,-306.438199,-888.247130,10732.986159
3700.196720,-536.266849,-814.226536,11399.171507
3700.197035,-536.266849,-1332.370696,11843.295072
3700.197349,-995.924147,-74.020594,10362.883188
3700.197664,-612.876398,222.061783,9696.697840
3700.197978,229.828649,740.205942,8660.409521
3700.198293,766.095498,814.226536,7550.100608
3700.198607,1378.971896,814.226536,7031.956449
3700.198922,1378.971896,296.082377,7772.162391
3700.199236,995.924147,-148.041188,8586.388927
3700.199551,306.438199,-888.247130,9622.677246
3700.199865,-306.438199,-1110.308913,11103.089130
3700.200180,-766.095498,-1332.370696,11843.295072
3700.200494,-689.485948,-666.185348,11843.295072
3700.200809,-459.657299,222.061783,11177.109724
3700.201123,-383.047749,814.226536,10214.842000
3700.201438,383.047749,1480.411884,8882.471304
3700.201752,1302.362347,1776.494261,7920.203579
3700.202067,1685.410096,1406.391290,7550.100608
3700.202381,1685.410096,666.185348,7624.121203
3700.202696,995.924147,148.041188,7920.203579
3700.203010,612.876398,-222.061783,9474.636058
3700.203325,0.000000,-592.164754,10881.027347
3700.203639,-612.876398,-666.185348,11991.336260
3700.203954,-842.705048,-666.185348,12583.501014
3700.204268,-1225.752797,-222.061783,12213.398043
3700.204582,-842.705048,814.226536,10658.965565
3700.204897,0.000000,962.267725,8882.471304
3700.205211,919.314598,1628.453072,7846.182985
3700.205526,1608.800546,1406.391290,7846.182985
3700.205840,1838.629195,962.267725,7254.018232
3700.206155,1455.581446,444.123565,7624.121203
3700.206469,842.705048,222.061783,9474.636058
3700.206784,0.000000,-0.000000,10584.944971
3700.207098,-766.095498,-518.144159,11399.171507
3700.207413,-1302.362347,-370.102971,11917.315666
3700.207727,-919.314598,-518.144159,12213.398043
3700.208042,-1302.362347,370.102971,10955.047942
3700.208356,-383.047749,592.164754,9474.636058
3700.208670,76.609550,1184.329507,8216.285956
3700.208985,766.095498,1628.453072,7328.038826
3700.209299,1685.410096,1332.370696,7179.997637
3700.209614,1378.971896,666.185348,8068.244768
3700.209928,842.705048,-148.041188,8956.491898
3700.210243,76.609550,-370.102971,10214.842000
3700.210557,-536.266849,-296.082377,11103.089130
3700.210872,-842.705048,-740.205942,11621.233289
3700.211186,-1149.143247,-518.144159,12065.356855
3700.211500,-1149.143247,-0.000000,10881.027347
3700.211815,-842.705048,740.205942,9992.780217
3700.212129,-229.828649,1036.288319,8586.388927
3700.212444,383.047749,814.226536,7476.080014
3700.212758,1685.410096,444.123565,7698.141797
3700.213073,919.314598,-0.000000,7994.224174
3700.213387,229.828649,-518.144159,8808.450710
3700.213702,0.000000,-814.226536,9844.739029
3700.214016,-536.266849,-1110.308913,11473.192101
3700.214330,-995.924147,-888.247130,11917.315666
3700.214645,-919.314598,-666.185348,12139.377449
3700.214959,-1149.143247,-0.000000,11103.089130
3700.215274,-766.095498,444.123565,9844.739029
3700.215588,153.219100,888.247130,8290.306550
3700.215903,1608.800546,1110.308913,7550.100608
3700.216217,1762.019645,1184.329507,7328.038826
3700.216532,1532.190996,444.123565,7624.121203
3700.216846,766.095498,-0.000000,8068.244768
3700.217160,459.657299,-888.247130,9622.677246
3700.217475,229.828649,-1184.329507,10658.965565
3700.217789,-842.705048,-1480.411884,11177.109724
3700.218104,-1072.533697,-666.185348,11843.295072
3700.218418,-995.924147,-444.123565,11399.171507
3700.218733,-612.876398,518.144159,10214.842000
3700.219047,0.000000,1036.288319,8808.450710
3700.219362,919.314598,1258.350101,7402.059420
3700.219676,1455.581446,1258.350101,7031.956449
3700.219990,1991.848295,592.164754,7105.977043
3700.220305,1838.629195,-74.020594,7994.224174
3700.220619,995.924147,-518.144159,9844.739029
3700.220934,76.609550,-740.205942,10732.986159
3700.221248,-842.705048,-1110.308913,11621.233289
3700.221563,-995.924147,-814.226536,12065.356855
3700.221877,-1072.533697,-148.041188,11991.336260
3700.222192,-842.705048,370.102971,11177.109724
3700.222506,-229.828649,962.267725,9474.636058
3700.222820,459.657299,1480.411884,8216.285956
3700.223135,1302.362347,1628.453072,7328.038826
3700.223449,1608.800546,962.267725,7254.018232
3700.223764,919.314598,296.082377,8216.285956
3700.224078,766.095498,148.041188,9548.656652
3700.224393,0.000000,-814.226536,10732.986159
3700.224707,-766.095498,-962.267725,11177.109724
3700.225022,-995.924147,-1480.411884,12287.418637
3700.225336,-1455.581446,-888.247130,11917.315666
3700.225650,-1455.581446,148.041188,11103.089130
3700.225965,-1149.143247,814.226536,9622.677246
3700.226279,-383.047749,1036.288319,8512.368333
3700.226594,306.438199,1110.308913,7550.100608
3700.226908,1302.362347,1110.308913,7105.977043
3700.227223,1072.533697,592.164754,7402.059420
3700.227537,536.266849,-74.020594,8956.491898
3700.227852,76.609550,-518.144159,9844.739029
3700.228166,-459.657299,-296.082377,11103.089130
3700.228480,-1378.971896,-222.061783,11843.295072
3700.228795,-995.924147,-518.144159,11917.315666
3700.229109,-1149.143247,-0.000000,10955.047942
3700.229424,-766.095498,592.164754,9474.636058
3700.229738,0.000000,740.205942,8290.306550
3700.230053,536.266849,1184.329507,7402.059420
3700.230367,1455.581446,666.185348,6735.874072
3700.230682,1608.800546,296.082377,7031.956449
3700.230996,1072.533697,-74.020594,7994.224174
3700.231310,383.047749,-370.102971,9622.677246
3700.231625,-229.828649,-444.123565,10955.047942
3700.231939,-1072.533697,-444.123565,11843.295072
3700.232254,-1225.752797,-666.185348,12435.459826
3700.232568,-1149.143247,-444.123565,11769.274478
3700.232883,-612.876398,814.226536,10584.944971
3700.233197,306.438199,1554.432478,9104.533087
3700.233512,995.924147,1702.473667,7920.203579
3700.233826,1838.629195,1554.432478,7105.977043
3700.234140,2221.676944,1332.370696,7105.977043
3700.234455,1838.629195,148.041188,7846.182985
3700.234769,919.314598,-296.082377,9474.636058
3700.235084,383.047749,-1036.288319,10881.027347
3700.235398,-459.657299,-1184.329507,11843.295072
3700.235713,-842.705048,-1036.288319,12287.418637
3700.236027,-995.924147,-444.123565,11917.315666
3700.236342,-766.095498,370.102971,10584.944971
3700.236656,-153.219100,740.205942,9400.615463
3700.236970,842.705048,1332.370696,7846.182985
3700.237285,1302.362347,1258.350101,7254.018232
3700.237599,1838.629195,1110.308913,7328.038826
3700.237914,1532.190996,518.144159,7254.018232
3700.238228,689.485948,-74.020594,9326.594869
3700.238543,306.438199,-1036.288319,10732.986159
3700.238857,-536.266849,-1110.308913,11991.336260
3700.239172,-1455.581446,-1628.453072,12435.459826
3700.239486,-1149.143247,-814.226536,12435.459826
3700.239800,-1225.752797,370.102971,11325.150913
3700.240115,-612.876398,592.164754,9844.739029
3700.240429,459.657299,962.267725,8512.368333
3700.240744,842.705048,1258.350101,7328.038826
3700.241058,1072.533697,962.267725,6957.935855
3700.241373,1608.800546,-0.000000,7105.977043
3700.241687,1455.581446,-666.185348,7920.203579
3700.242002,229.828649,-888.247130,9770.718434
3700.242316,-536.266849,-1184.329507,11251.130318
3700.242630,-919.314598,-1110.308913,11547.212695
3700.242945,-842.705048,-666.185348,12065.356855
3700.243259,-1225.752797,-0.000000,11177.109724
3700.243574,-919.314598,814.226536,10066.800811
3700.243888,-229.828649,1110.308913,8586.388927
3700.244203,612.876398,1184.329507,7179.997637
3700.244517,1378.971896,1480.411884,6883.915261
3700.244832,1225.752797,1036.288319,7179.997637
3700.245146,995.924147,-0.000000,7624.121203
3700.245460,459.657299,-666.185348,9918.759623
3700.245775,-459.657299,-962.267725,10584.944971
3700.246089,-842.705048,-1332.370696,11843.295072
3700.246404,-1532.190996,-888.247130,12583.501014
3700.246718,-1685.410096,-296.082377,11917.315666
3700.247033,-1378.971896,592.164754,10732.986159
3700.247347,-919.314598,888.247130,8956.491898
3700.247662,459.657299,1184.329507,8068.244768
3700.247976,995.924147,962.267725,6957.935855
3700.248290,1532.190996,888.247130,7328.038826
3700.248605,1455.581446,740.205942,7846.182985
3700.248919,536.266849,-370.102971,9104.533087
3700.249234,383.047749,-888.247130,10658.965565
3700.249548,-306.438199,-962.267725,11621.233289
3700.249863,-766.095498,-1036.288319,12657.521608
3700.250177,-919.314598,-740.205942,12361.439231
3700.250492,-689.485948,444.123565,10881.027347
3700.250806,0.000000,1036.288319,9474.636058
3700.251120,689.485948,1480.411884,8142.265362
3700.251435,1378.971896,1628.453072,6883.915261
3700.251749,1838.629195,1110.308913,7105.977043
3700.252064,1915.238745,592.164754,7328.038826
3700.252378,1532.190996,-296.082377,8586.388927
3700.252693,536.266849,-296.082377,10510.924376
3700.253007,0.000000,-592.164754,11695.253884
3700.253322,-536.266849,-740.205942,12065.356855
3700.253636,-766.095498,-814.226536,12213.398043
3700.253950,-612.876398,296.082377,11399.171507
3700.254265,-229.828649,888.247130,9622.677246
3700.254579,459.657299,1628.453072,8438.347739
3700.254894,995.924147,1776.494261,7105.977043
3700.255208,1762.019645,1480.411884,6661.853478
3700.255523,1685.410096,740.205942,7772.162391
3700.255837,995.924147,-0.000000,9030.512492
3700.256152,306.438199,-592.164754,10658.965565
3700.256466,-536.266849,-740.205942,11251.130318
3700.256780,-383.047749,-1110.308913,11917.315666
3700.257095,-919.314598,-592.164754,12509.480420
3700.257409,-919.314598,222.061783,11399.171507
3700.257724,-459.657299,888.247130,10140.821405
3700.258038,153.219100,1480.411884,8808.450710
3700.258353,1225.752797,1406.391290,7179.997637
3700.258667,1608.800546,1406.391290,6809.894666
3700.258982,1532.190996,666.185348,7105.977043
3700.259296,1149.143247,-0.000000,8438.347739
3700.259610,229.828649,-888.247130,9400.615463
3700.259925,-919.314598,-962.267725,10732.986159
3700.260239,-1225.752797,-1036.288319,11843.295072
3700.260554,-1685.410096,-592.164754,12361.439231
3700.260868,-1685.410096,-370.102971,11843.295072
3700.261183,-1225.752797,518.144159,10584.944971
3700.261497,-229.828649,814.226536,8956.491898
3700.261812,229.828649,1110.308913,7698.141797
3700.262126,1225.752797,1554.432478,7105.977043
3700.262440,1378.971896,962.267725,7254.018232
3700.262755,919.314598,444.123565,7772.162391
3700.263069,306.438199,-148.041188,9770.718434
3700.263384,0.000000,-814.226536,10807.006753
3700.263698,-995.924147,-888.247130,12065.356855
3700.264013,-1149.143247,-666.185348,12065.356855
3700.264327,-1225.752797,-518.144159,11695.253884
3700.264642,-306.438199,148.041188,10732.986159
3700.264956,-689.485948,592.164754,9770.718434
3700.265270,612.876398,962.267725,8068.244768
3700.265585,1149.143247,1406.391290,6957.935855
3700.265899,1072.533697,1258.350101,6439.791695
3700.266214,1685.410096,-370.102971,7994.224174
3700.266528,459.657299,-222.061783,9104.533087
3700.266843,-153.219100,-1110.308913,10881.027347
3700.267157,-612.876398,-1480.411884,11695.253884
3700.267472,-612.876398,-888.247130,11843.295072
3700.267786,-459.657299,-444.123565,12065.356855
3700.268100,-612.876398,-0.000000,11103.089130
3700.268415,-383.047749,666.185348,9622.677246
3700.268729,536.266849,1110.308913,8364.327145
3700.269044,1149.143247,1036.288319,7328.038826
3700.269358,1991.848295,888.247130,7031.956449
3700.269673,1532.190996,444.123565,7698.141797
3700.269987,919.314598,-370.102971,8882.471304
3700.270302,306.438199,-1110.308913,9844.739029
3700.270616,-383.047749,-888.247130,11473.192101
3700.270930,-1072.533697,-1184.329507,11917.315666
3700.271245,-1072.533697,-1110.308913,12361.439231
3700.271559,-842.705048,-0.000000,11547.212695
3700.271874,0.000000,222.061783,9770.718434
3700.272188,689.485948,814.226536,8512.368333
3700.272503,1302.362347,962.267725,7550.100608
3700.272817,1762.019645,1258.350101,6957.935855
3700.273132,2068.457845,666.185348,7328.038826
3700.273446,1532.190996,444.123565,7920.203579
3700.273760,612.876398,-740.205942,9400.615463
3700.274075,76.609550,-518.144159,10436.903782
3700.274389,-766.095498,-1036.288319,11917.315666
3700.274704,-1378.971896,-962.267725,12287.418637
3700.275018,-1302.362347,-296.082377,11843.295072
3700.275333,-995.924147,222.061783,10362.883188
3700.275647,-612.876398,740.205942,9252.574275
3700.275962,383.047749,1258.350101,8364.327145
3700.276276,689.485948,1036.288319,7328.038826
3700.276590,1455.581446,888.247130,7254.018232
3700.276905,995.924147,148.041188,8142.265362
3700.277219,76.609550,-222.061783,9622.677246
3700.277534,-306.438199,-444.123565,10658.965565
3700.277848,-1302.362347,-814.226536,11473.192101
3700.278163,-919.314598,-962.267725,12213.398043
3700.278477,-1225.752797,-74.020594,11621.233289
3700.278792,-689.485948,666.185348,10732.986159
3700.279106,-383.047749,1036.288319,9326.594869
3700.279420,306.438199,1406.391290,7624.121203
3700.279735,1149.143247,1480.411884,7402.059420
3700.280049,1685.410096,814.226536,6957.935855
3700.280364,1378.971896,296.082377,7846.182985
3700.280678,459.657299,-296.082377,8808.450710
3700.280993,-229.828649,-592.164754,10362.883188
3700.281307,-842.705048,-962.267725,11399.171507
3700.281622,-1532.190996,-666.185348,11843.295072
3700.281936,-1455.581446,-592.164754,12361.439231
3700.282250,-1225.752797,-0.000000,11251.130318
3700.282565,-612.876398,666.185348,9770.718434
3700.282879,689.485948,1480.411884,8734.430116
3700.283194,1149.143247,1850.514855,7698.141797
3700.283508,1762.019645,1406.391290,7105.977043
3700.283823,2068.457845,814.226536,7105.977043
3700.284137,1225.752797,-0.000000,8290.306550
3700.284452,995.924147,-370.102971,10288.862594
3700.284766,76.609550,-814.226536,11399.171507
3700.285080,-842.705048,-814.226536,11843.295072
3700.285395,-1149.143247,-592.164754,12287.418637
3700.285709,-1072.533697,222.061783,11769.274478
3700.286024,-536.266849,222.061783,9844.739029
3700.286338,766.095498,1036.288319,8660.409521
3700.286653,1072.533697,888.247130,7920.203579
3700.286967,1532.190996,1184.329507,7328.038826
3700.287282,1991.848295,592.164754,7476.080014
3700.287596,1455.581446,-0.000000,8364.327145
3700.287910,1072.533697,-296.082377,9622.677246
3700.288225,76.609550,-444.123565,10807.006753
3700.288539,-153.219100,-666.185348,11695.253884
3700.288854,-383.047749,-592.164754,12435.459826
3700.289168,-459.657299,-148.041188,11547.212695
3700.289483,-689.485948,814.226536,10140.821405
3700.289797,-153.219100,1184.329507,9326.594869
3700.290112,459.657299,1110.308913,8068.244768
3700.290426,1378.971896,962.267725,7179.997637
3700.290740,1455.581446,-518.144159,7254.018232
3700.291055,1072.533697,-222.061783,8068.244768
3700.291369,536.266849,-740.205942,9474.636058
3700.291684,0.000000,-518.144159,10807.006753
3700.291998,-689.485948,-666.185348,11695.253884
3700.292313,-919.314598,-740.205942,11991.336260
3700.292627,-995.924147,-518.144159,11621.233289
3700.292942,-689.485948,444.123565,10510.924376
3700.293256,0.000000,1110.308913,9400.615463
3700.293570,842.705048,1628.453072,7772.162391
3700.293885,1302.362347,1406.391290,7328.038826
3700.294199,1762.019645,888.247130,7254.018232
3700.294514,1378.971896,296.082377,8068.244768
3700.294828,766.095498,-296.082377,9104.533087
3700.295143,-536.266849,-1036.288319,10214.842000
3700.295457,-995.924147,-1110.308913,11177.109724
3700.295772,-1608.800546,-1184.329507,12213.398043
3700.296086,-1685.410096,-592.164754,11843.295072
3700.296400,-1532.190996,-0.000000,10955.047942
3700.296715,-1302.362347,518.144159,9548.656652
3700.297029,76.609550,1110.308913,8142.265362
3700.297344,612.876398,1480.411884,7031.956449
3700.297658,995.924147,1184.329507,7179.997637
3700.297973,766.095498,814.226536,7476.080014
3700.298287,383.047749,-0.000000,8882.471304
3700.298602,229.828649,-444.123565,10066.800811
3700.298916,-1072.533697,-666.185348,11177.109724
3700.299230,-1532.190996,-740.205942,12065.356855
3700.299545,-1302.362347,-888.247130,12287.418637
3700.299859,-1915.238745,-0.000000,11325.150913
3700.300174,-1455.581446,518.144159,10510.924376
3700.300488,-459.657299,518.144159,8956.491898
3700.300803,229.828649,814.226536,8068.244768
3700.301117,1302.362347,444.123565,7550.100608
3700.301432,995.924147,-0.000000,7402.059420
3700.301746,995.924147,-222.061783,8142.265362
3700.302060,536.266849,-814.226536,9474.636058
3700.302375,612.876398,-962.267725,10510.924376
3700.302689,-306.438199,-1258.350101,11769.274478
3700.303004,-153.219100,-666.185348,11695.253884
3700.303318,-536.266849,-0.000000,10807.006753
3700.303633,-459.657299,592.164754,10140.821405
3700.303947,383.047749,592.164754,9104.533087
3700.304262,919.314598,888.247130,7772.162391
3700.304576,1608.800546,962.267725,7179.997637
3700.304890,1455.581446,148.041188,7254.018232
3700.305205,1149.143247,-148.041188,8438.347739
3700.305519,995.924147,-370.102971,10214.842000
3700.305834,-229.828649,-518.144159,11399.171507
3700.306148,-383.047749,-1332.370696,11843.295072
3700.306463,-459.657299,-740.205942,12509.480420
3700.306777,-459.657299,148.041188,11769.274478
3700.307092,-536.266849,740.205942,10140.821405
3700.307406,459.657299,1332.370696,8956.491898
3700.307720,1225.752797,1554.432478,7624.121203
3700.308035,2145.067394,1258.350101,7105.977043
3700.308349,2221.676944,666.185348,7031.956449
3700.308664,1762.019645,444.123565,7920.203579
3700.308978,766.095498,-222.061783,8364.327145
3700.309293,0.000000,-444.123565,9992.780217
3700.309607,-766.095498,-666.185348,11769.274478
3700.309921,-995.924147,-1184.329507,12139.377449
3700.310236,-1149.143247,-370.102971,11695.253884
3700.310550,-1225.752797,296.082377,10732.986159
3700.310865,-459.657299,962.267725,9696.697840
3700.311179,0.000000,1406.391290,8142.265362
3700.311494,919.314598,1480.411884,7550.100608
3700.311808,1455.581446,1036.288319,7179.997637
3700.312123,1302.362347,518.144159,7402.059420
3700.312437,536.266849,-0.000000,9252.574275
3700.312751,0.000000,-518.144159,10288.862594
3700.313066,-919.314598,-592.164754,11621.233289
3700.313380,-1685.410096,-962.267725,12213.398043
3700.313695,-1685.410096,-444.123565,12361.439231
3700.314009,-1302.362347,-0.000000,11547.212695
3700.314324,-1149.143247,740.205942,9918.759623
3700.314638,0.000000,1184.329507,8216.285956
3700.314952,689.485948,1480.411884,7624.121203
3700.315267,1302.362347,666.185348,7550.100608
3700.315581,1378.971896,370.102971,7105.977043
3700.315896,766.095498,-0.000000,8438.347739
3700.316210,76.609550,-666.185348,10288.862594
3700.316525,0.000000,-814.226536,10881.027347
3700.316839,-842.705048,-592.164754,12213.398043
3700.317154,-1149.143247,-518.144159,12435.459826
3700.317468,-842.705048,148.041188,11473.192101
3700.317782,-766.095498,888.247130,9992.780217
3700.318097,153.219100,1850.514855,8512.368333
3700.318411,1072.533697,1628.453072,7624.121203
3700.318726,1378.971896,1480.411884,7179.997637
3700.319040,1302.362347,370.102971,7624.121203
3700.319355,1302.362347,-0.000000,8512.368333
3700.319669,306.438199,-740.205942,10214.842000
3700.319983,0.000000,-1110.308913,10955.047942
3700.320298,-689.485948,-1332.370696,12065.356855
3700.320612,-1149.143247,-962.267725,12509.480420
3700.320927,-689.485948,-0.000000,11769.274478
3700.321241,-459.657299,1184.329507,10140.821405
3700.321556,612.876398,1184.329507,8808.450710
3700.321870,1378.971896,1554.432478,7402.059420
3700.322185,1915.238745,1258.350101,6735.874072
3700.322499,2221.676944,888.247130,6661.853478
3700.322813,2145.067394,296.082377,7402.059420
3700.323128,1378.971896,-222.061783,8586.388927
3700.323442,689.485948,-1110.308913,10288.862594
3700.323757,-306.438199,-1258.350101,11325.150913
3700.324071,-995.924147,-1406.391290,11695.253884
3700.324386,-995.924147,-814.226536,11843.295072
3700.324700,-1072.533697,296.082377,10807.006753
3700.325014,-459.657299,592.164754,9548.656652
3700.325329,153.219100,814.226536,7920.203579
3700.325643,612.876398,592.164754,7105.977043
3700.325958,1685.410096,592.164754,7550.100608
3700.326272,1532.190996,296.082377,7624.121203
3700.326587,1149.143247,-74.020594,8734.430116
3700.326901,76.609550,-370.102971,10214.842000
3700.327216,-459.657299,-888.247130,11621.233289
3700.327530,-766.095498,-666.185348,12213.398043
3700.327844,-842.705048,-74.020594,12361.439231
3700.328159,-842.705048,444.123565,11177.109724
3700.328473,-689.485948,666.185348,10066.800811
3700.328788,0.000000,1554.432478,9104.533087
3700.329102,766.095498,1702.473667,7550.100608
3700.329417,1225.752797,1332.370696,7105.977043
3700.329731,1225.752797,518.144159,7846.182985
3700.330045,612.876398,296.082377,8586.388927
3700.330360,0.000000,-148.041188,9992.780217
3700.330674,-383.047749,-222.061783,11029.068536
3700.330989,-919.314598,-666.185348,11843.295072
3700.331303,-1225.752797,-518.144159,12435.459826
3700.331618,-1608.800546,-0.000000,11547.212695
3700.331932,-1225.752797,740.205942,10584.944971
3700.332247,-229.828649,1480.411884,8882.471304
3700.332561,306.438199,1850.514855,7550.100608
3700.332875,919.314598,1924.535449,7105.977043
3700.333190,1838.629195,1110.308913,7772.162391
3700.333504,1072.533697,222.061783,8216.285956
3700.333819,153.219100,-444.123565,9770.718434
3700.334133,-459.657299,-1036.288319,11399.171507
3700.334448,-1302.362347,-1332.370696,11843.295072
3700.334762,-1915.238745,-962.267725,12509.480420
3700.335076,-1762.019645,-222.061783,12065.356855
3700.335391,-1225.752797,444.123565,10214.842000
3700.335705,0.000000,814.226536,8734.430116
3700.336020,919.314598,1036.288319,7698.141797
3700.336334,1762.019645,1406.391290,6957.935855
3700.336649,2145.067394,814.226536,6809.894666
3700.336963,2068.457845,222.061783,7550.100608
3700.337278,1455.581446,-518.144159,9326.594869
3700.337592,383.047749,-1332.370696,10214.842000
3700.337906,0.000000,-1110.308913,11251.130318
3700.338221,-383.047749,-1332.370696,11991.336260
3700.338535,-459.657299,-518.144159,11917.315666
3700.338850,-612.876398,666.185348,10732.986159
3700.339164,0.000000,888.247130,9474.636058
3700.339479,766.095498,1110.308913,8068.244768
3700.339793,1225.752797,814.226536,7031.956449
3700.340107,1838.629195,1036.288319,6809.894666
3700.340422,1685.410096,-0.000000,7846.182985
3700.340736,1072.533697,-222.061783,8808.450710
3700.341051,459.657299,-740.205942,10140.821405
3700.341365,-229.828649,-814.226536,10955.047942
3700.341680,-612.876398,-592.164754,12139.377449
3700.341994,-766.095498,-0.000000,12213.398043
3700.342309,-536.266849,666.185348,10881.027347
3700.342623,-383.047749,1332.370696,9770.718434
3700.342937,689.485948,1554.432478,7772.162391
3700.343252,1455.581446,1406.391290,7105.977043
3700.343566,1991.848295,1332.370696,6883.915261
3700.343881,1608.800546,296.082377,7698.141797
3700.344195,766.095498,-222.061783,8438.347739
3700.344510,153.219100,-666.185348,10510.924376
3700.344824,-612.876398,-1036.288319,11621.233289
3700.345138,-995.924147,-1406.391290,12435.459826
3700.345453,-1225.752797,-814.226536,12287.418637
3700.345767,-1072.533697,-148.041188,11399.171507
3700.346082,-842.705048,740.205942,9622.677246
3700.346396,153.219100,1184.329507,8734.430116
3700.346711,995.924147,1406.391290,7624.121203
3700.347025,1762.019645,1184.329507,7105.977043
3700.347340,2221.676944,592.164754,7031.956449
3700.347654,1225.752797,-0.000000,7994.224174
3700.347968,306.438199,-444.123565,10436.903782
3700.348283,-229.828649,-1480.411884,11251.130318
3700.348597,-1608.800546,-1332.370696,11991.336260
3700.348912,-2068.457845,-1184.329507,12805.562797
3700.349226,-1608.800546,-814.226536,12139.377449
3700.349541,-995.924147,-74.020594,11029.068536
3700.349855,-383.047749,296.082377,9992.780217
3700.350169,459.657299,1184.329507,8364.327145
3700.350484,995.924147,1332.370696,7105.977043
3700.350798,1302.362347,888.247130,7402.059420
3700.351113,1302.362347,-0.000000,8068.244768
3700.351427,766.095498,-518.144159,9474.636058
3700.351742,306.438199,-592.164754,10436.903782
3700.352056,-306.438199,-740.205942,11547.212695
3700.352371,-842.705048,-666.185348,12065.356855
3700.352685,-919.314598,-592.164754,11991.336260
3700.352999,-1072.533697,370.102971,11029.068536
3700.353314,-689.485948,296.082377,9474.636058
3700.353628,153.219100,814.226536,7994.224174
