#time,accel_x,accel_y,accel_z
3856.192935,76.609550,148.041188,9548.656652
3856.193249,229.828649,-0.000000,9696.697840
3856.193564,383.047749,296.082377,9770.718434
3856.193879,0.000000,-0.000000,9474.636058
3856.194193,306.438199,-0.000000,9474.636058
3856.194508,76.609550,-0.000000,9326.594869
3856.194823,76.609550,666.185348,9474.636058
3856.195137,0.000000,148.041188,9548.656652
3856.195452,229.828649,-0.000000,9252.574275
3856.195767,76.609550,222.061783,9622.677246
3856.196081,306.438199,-74.020594,9474.636058
3856.196396,0.000000,-0.000000,9770.718434
3856.196711,229.828649,-0.000000,9548.656652
3856.197025,0.000000,-0.000000,9548.656652
3856.197340,229.828649,-0.000000,9548.656652
3856.197655,383.047749,-0.000000,9474.636058
3856.197969,459.657299,-0.000000,9770.718434
3856.198284,153.219100,-0.000000,9474.636058
3856.198599,229.828649,-0.000000,9474.636058
3856.198913,76.609550,-74.020594,9844.739029
3856.199228,76.609550,-0.000000,9696.697840
3856.199543,153.219100,-0.000000,9844.739029
3856.199857,153.219100,148.041188,9548.656652
3856.200172,0.000000,-74.020594,9548.656652
3856.200487,0.000000,-0.000000,9844.739029
3856.200801,76.609550,-0.000000,9548.656652
3856.201116,-153.219100,296.082377,9474.636058
3856.201430,0.000000,-0.000000,9474.636058
3856.201745,0.000000,-0.000000,9622.677246
3856.202060,76.609550,148.041188,9770.718434
3856.202374,459.657299,370.102971,9696.697840
3856.202689,-153.219100,222.061783,9326.594869
3856.203004,0.000000,222.061783,9400.615463
3856.203318,0.000000,-74.020594,9474.636058
3856.203633,0.000000,370.102971,9696.697840
3856.203948,306.438199,222.061783,9474.636058
3856.204262,-229.828649,222.061783,9548.656652
3856.204577,76.609550,222.061783,9548.656652
3856.204892,0.000000,-0.000000,9326.594869
3856.205206,0.000000,-74.020594,9400.615463
3856.205521,0.000000,222.061783,9474.636058
3856.205836,0.000000,296.082377,10066.800811
3856.206150,76.609550,592.164754,9326.594869
3856.206465,0.000000,222.061783,9548.656652
3856.206780,229.828649,-0.000000,9400.615463
3856.207094,153.219100,-0.000000,9400.615463
3856.207409,229.828649,-222.061783,9548.656652
3856.207724,229.828649,-0.000000,9474.636058
3856.208038,229.828649,148.041188,9474.636058
3856.208353,76.609550,296.082377,9622.677246
3856.208668,76.609550,-0.000000,9474.636058
3856.208982,0.000000,-0.000000,9918.759623
3856.209297,153.219100,-0.000000,9696.697840
3856.209612,76.609550,-0.000000,9770.718434
3856.209926,153.219100,-0.000000,9548.656652
3856.210241,229.828649,222.061783,9770.718434
3856.210555,229.828649,-148.041188,9548.656652
3856.210870,229.828649,-0.000000,9474.636058
3856.211185,0.000000,-0.000000,9770.718434
3856.211499,0.000000,148.041188,9474.636058
3856.211814,536.266849,222.061783,9918.759623
3856.212129,76.609550,-0.000000,9548.656652
3856.212443,306.438199,-0.000000,9104.533087
3856.212758,0.000000,-0.000000,9400.615463
3856.213073,0.000000,296.082377,9696.697840
3856.213387,0.000000,-0.000000,9918.759623
3856.213702,0.000000,296.082377,9696.697840
3856.214017,153.219100,-0.000000,9474.636058
3856.214331,229.828649,296.082377,9696.697840
3856.214646,0.000000,444.123565,9474.636058
3856.214961,0.000000,148.041188,9622.677246
3856.215275,0.000000,-0.000000,9770.718434
3856.215590,153.219100,-0.000000,9696.697840
3856.215905,153.219100,296.082377,9252.574275
3856.216219,306.438199,296.082377,9104.533087
3856.216534,229.828649,148.041188,9696.697840
3856.216849,0.000000,222.061783,9474.636058
3856.217163,76.609550,-0.000000,9326.594869
3856.217478,459.657299,296.082377,9548.656652
3856.217793,153.219100,-0.000000,9474.636058
3856.218107,76.609550,222.061783,9474.636058
3856.218422,306.438199,148.041188,9622.677246
3856.218737,459.657299,296.082377,9474.636058
3856.219051,153.219100,-0.000000,9474.636058
3856.219366,306.438199,-222.061783,9400.615463
3856.219681,229.828649,-74.020594,9696.697840
3856.219995,0.000000,-0.000000,9918.759623
3856.220310,76.609550,-74.020594,9622.677246
3856.220624,306.438199,-148.041188,10066.800811
3856.220939,0.000000,-296.082377,10362.883188
3856.221254,536.266849,-0.000000,9548.656652
3856.221568,536.266849,-0.000000,9696.697840
3856.221883,536.266849,740.205942,9622.677246
3856.222198,383.047749,740.205942,9474.636058
3856.222512,995.924147,888.247130,9474.636058
3856.222827,612.876398,444.123565,9178.553681
3856.223142,1072.533697,592.164754,9326.594869
3856.223456,689.485948,518.144159,9474.636058
3856.223771,766.095498,222.061783,9844.739029
3856.224086,229.828649,-0.000000,10362.883188
3856.224400,306.438199,222.061783,9696.697840
3856.224715,306.438199,444.123565,9474.636058
3856.225030,536.266849,888.247130,9696.697840
3856.225344,919.314598,962.267725,9474.636058
3856.225659,1072.533697,740.205942,10140.821405
3856.225974,1455.581446,1110.308913,9474.636058
3856.226288,1991.848295,740.205942,9474.636058
3856.226603,1991.848295,1110.308913,9400.615463
3856.226918,2374.896044,1702.473667,9326.594869
3856.227232,2757.943793,1850.514855,9992.780217
3856.227547,2834.553343,1924.535449,9326.594869
3856.227862,3064.381992,2294.638420,8734.430116
3856.228176,3370.820191,2368.659014,8734.430116
3856.228491,3447.429741,2220.617826,8586.388927
3856.228806,3370.820191,1628.453072,8882.471304
3856.229120,3600.648841,2294.638420,8734.430116
3856.229435,3830.477490,2220.617826,8808.450710
3856.229749,3753.867940,2220.617826,8956.491898
3856.230064,3370.820191,2368.659014,9400.615463
3856.230379,2757.943793,2442.679609,9622.677246
3856.230693,2911.162892,3034.844362,9252.574275
3856.231008,2987.772442,3034.844362,9400.615463
3856.231323,2987.772442,3330.926739,9548.656652
3856.231637,2757.943793,3478.967927,9326.594869
3856.231952,2604.724693,3330.926739,8956.491898
3856.232267,2911.162892,3404.947333,9548.656652
3856.232581,2604.724693,3627.009116,10362.883188
3856.232896,2374.896044,3701.029710,10288.862594
3856.233211,2221.676944,3627.009116,10658.965565
3856.233525,1762.019645,3849.070898,10584.944971
3856.233840,1608.800546,3849.070898,10436.903782
3856.234155,1685.410096,3627.009116,10955.047942
3856.234469,1302.362347,3701.029710,10955.047942
3856.234784,1302.362347,3256.906145,11251.130318
3856.235099,1685.410096,3478.967927,10658.965565
3856.235413,1762.019645,3775.050304,9844.739029
3856.235728,2221.676944,3997.112087,10140.821405
3856.236043,2068.457845,3923.091493,9844.739029
3856.236357,2681.334243,3775.050304,9992.780217
3856.236672,2451.505594,3775.050304,9844.739029
3856.236987,2604.724693,3256.906145,9548.656652
3856.237301,2068.457845,3182.885551,9326.594869
3856.237616,1762.019645,2886.803174,9844.739029
3856.237931,1838.629195,2738.761985,10362.883188
3856.238245,1991.848295,2886.803174,9918.759623
3856.238560,1685.410096,2516.700203,9992.780217
3856.238874,1302.362347,2590.720797,9770.718434
3856.239189,1225.752797,2442.679609,9992.780217
3856.239504,1455.581446,3034.844362,9770.718434
3856.239818,1915.238745,2886.803174,9474.636058
3856.240133,1762.019645,2664.741391,9474.636058
3856.240448,2068.457845,2738.761985,9178.553681
3856.240762,1991.848295,2146.597232,9474.636058
3856.241077,1685.410096,1554.432478,9992.780217
3856.241392,1838.629195,1184.329507,10214.842000
3856.241706,1762.019645,1998.556043,9770.718434
3856.242021,1608.800546,1628.453072,9992.780217
3856.242336,2068.457845,1702.473667,10140.821405
3856.242650,1915.238745,1628.453072,9400.615463
3856.242965,1838.629195,2072.576638,8882.471304
3856.243280,2451.505594,1924.535449,8734.430116
3856.243594,2987.772442,1480.411884,8808.450710
3856.243909,3217.601092,1776.494261,8808.450710
3856.244224,2757.943793,1628.453072,8512.368333
3856.244538,2834.553343,1554.432478,8956.491898
3856.244853,2757.943793,1332.370696,9104.533087
3856.245168,2528.115143,1258.350101,9474.636058
3856.245482,2451.505594,1110.308913,9252.574275
3856.245797,2221.676944,1184.329507,9252.574275
3856.246112,1838.629195,962.267725,9104.533087
3856.246426,1838.629195,814.226536,9548.656652
3856.246741,1915.238745,444.123565,10288.862594
3856.247056,1915.238745,518.144159,10584.944971
3856.247370,2145.067394,1258.350101,10288.862594
3856.247685,2604.724693,1406.391290,9770.718434
3856.247999,3140.991542,2368.659014,9252.574275
3856.248314,3677.258390,2368.659014,8512.368333
3856.248629,3753.867940,2590.720797,8290.306550
3856.248943,3600.648841,2368.659014,8142.265362
3856.249258,2911.162892,2072.576638,7994.224174
3856.249573,2528.115143,1406.391290,8364.327145
3856.249887,1991.848295,888.247130,9178.553681
3856.250202,1455.581446,-0.000000,10288.862594
3856.250517,689.485948,-222.061783,11325.150913
3856.250831,0.000000,-518.144159,11843.295072
3856.251146,0.000000,-0.000000,12065.356855
3856.251461,459.657299,1110.308913,11991.336260
3856.251775,1378.971896,2146.597232,11251.130318
3856.252090,2528.115143,2812.782580,9770.718434
3856.252405,3830.477490,3923.091493,8586.388927
3856.252719,4443.353888,4441.235652,7698.141797
3856.253034,4443.353888,4515.256246,7179.997637
3856.253349,4443.353888,4293.194464,6883.915261
3856.253663,4060.306139,3108.864956,8068.244768
3856.253978,3370.820191,1998.556043,9178.553681
3856.254293,1838.629195,888.247130,10214.842000
3856.254607,0.000000,296.082377,12065.356855
3856.254922,-1072.533697,740.205942,12287.418637
3856.255237,-459.657299,592.164754,12287.418637
3856.255551,-459.657299,2146.597232,11473.192101
3856.255866,612.876398,3256.906145,9992.780217
3856.256181,1532.190996,3849.070898,8882.471304
3856.256495,3064.381992,4293.194464,7846.182985
3856.256810,4213.525239,4515.256246,7698.141797
3856.257124,4749.792088,4441.235652,7994.224174
3856.257439,4213.525239,4145.153275,8512.368333
3856.257754,3140.991542,3552.988522,9548.656652
3856.258068,2451.505594,2960.823768,10584.944971
3856.258383,1225.752797,2368.659014,11029.068536
3856.258698,383.047749,2812.782580,10881.027347
3856.259012,229.828649,3256.906145,9992.780217
3856.259327,766.095498,2368.659014,9918.759623
3856.259642,1302.362347,2146.597232,9844.739029
3856.259956,1762.019645,2294.638420,8956.491898
3856.260271,2451.505594,2812.782580,8512.368333
3856.260586,3064.381992,3034.844362,8512.368333
3856.260900,3524.039291,3404.947333,8882.471304
3856.261215,3830.477490,3701.029710,8882.471304
3856.261530,3294.210641,3552.988522,8438.347739
3856.261844,2681.334243,3108.864956,9400.615463
3856.262159,2298.286494,2294.638420,10955.047942
3856.262474,1378.971896,1628.453072,11325.150913
3856.262788,1378.971896,1480.411884,11621.233289
3856.263103,1532.190996,1554.432478,11547.212695
3856.263418,2221.676944,2590.720797,10584.944971
3856.263732,2451.505594,3627.009116,9696.697840
3856.264047,3140.991542,3923.091493,8512.368333
3856.264362,4136.915689,3330.926739,8290.306550
3856.264676,4366.744339,3034.844362,7994.224174
3856.264991,4060.306139,1850.514855,8734.430116
3856.265306,3600.648841,888.247130,9992.780217
3856.265620,2987.772442,888.247130,10584.944971
3856.265935,1915.238745,888.247130,10807.006753
3856.266249,1302.362347,1998.556043,10658.965565
3856.266564,1838.629195,2220.617826,10658.965565
3856.266879,1991.848295,2516.700203,10288.862594
3856.267193,2145.067394,2960.823768,9252.574275
3856.267508,3064.381992,2960.823768,8882.471304
3856.267823,2987.772442,2960.823768,8142.265362
3856.268138,3140.991542,2738.761985,8216.285956
3856.268453,3140.991542,2664.741391,8660.409521
3856.268768,3370.820191,1184.329507,8956.491898
3856.269083,2221.676944,888.247130,10362.883188
3856.269398,1532.190996,1036.288319,10362.883188
3856.269713,306.438199,814.226536,10732.986159
3856.270028,153.219100,962.267725,11325.150913
3856.270343,-306.438199,1850.514855,10732.986159
3856.270658,76.609550,1332.370696,10584.944971
3856.270973,1378.971896,1036.288319,9992.780217
3856.271288,2145.067394,1406.391290,9918.759623
3856.271604,2757.943793,1776.494261,9252.574275
3856.271919,3064.381992,2738.761985,7550.100608
3856.272234,3447.429741,3108.864956,7328.038826
3856.272549,4213.525239,2590.720797,7994.224174
3856.272864,3830.477490,1628.453072,8142.265362
3856.273179,2298.286494,666.185348,9104.533087
3856.273494,1302.362347,444.123565,10288.862594
3856.273809,306.438199,-0.000000,10214.842000
3856.274124,-383.047749,592.164754,10807.006753
3856.274439,153.219100,666.185348,10955.047942
3856.274754,689.485948,740.205942,10807.006753
3856.275069,1072.533697,1702.473667,10362.883188
3856.275384,1225.752797,1776.494261,10066.800811
3856.275699,1915.238745,2886.803174,9178.553681
3856.276014,2911.162892,3627.009116,8660.409521
3856.276329,4060.306139,3034.844362,8142.265362
3856.276644,4213.525239,2294.638420,8290.306550
3856.276959,3524.039291,1850.514855,9474.636058
3856.277274,2604.724693,1480.411884,9770.718434
3856.277589,1762.019645,1702.473667,9918.759623
3856.277904,689.485948,1850.514855,10658.965565
3856.278219,1302.362347,1998.556043,10436.903782
3856.278534,1532.190996,1702.473667,10362.883188
3856.278849,995.924147,1702.473667,10807.006753
3856.279164,1149.143247,1258.350101,10510.924376
3856.279479,1378.971896,2590.720797,8586.388927
3856.279794,2528.115143,2368.659014,8734.430116
3856.280109,4290.134789,2812.782580,8586.388927
3856.280424,4213.525239,2960.823768,8512.368333
3856.280739,3830.477490,2812.782580,8290.306550
3856.281054,2451.505594,2960.823768,8660.409521
3856.281369,919.314598,2590.720797,9400.615463
3856.281684,1455.581446,2220.617826,10732.986159
3856.282000,1455.581446,2146.597232,9696.697840
3856.282315,229.828649,962.267725,11177.109724
3856.282630,0.000000,1480.411884,10288.862594
3856.282945,-612.876398,1554.432478,9696.697840
3856.283260,153.219100,1480.411884,10510.924376
3856.283575,1378.971896,1776.494261,10436.903782
3856.283890,1608.800546,1850.514855,8956.491898
3856.284205,1838.629195,2220.617826,9030.512492
3856.284520,1838.629195,2294.638420,8734.430116
3856.284835,2145.067394,1628.453072,9696.697840
3856.285150,2298.286494,1998.556043,9622.677246
3856.285465,1838.629195,1924.535449,10362.883188
3856.285780,995.924147,2294.638420,10288.862594
3856.286095,306.438199,2516.700203,8808.450710
3856.286410,536.266849,1406.391290,9622.677246
3856.286725,612.876398,1110.308913,10510.924376
3856.287040,-383.047749,962.267725,9918.759623
3856.287355,-689.485948,296.082377,9622.677246
3856.287670,-766.095498,1036.288319,8882.471304
3856.287985,229.828649,-222.061783,9770.718434
3856.288300,459.657299,-444.123565,11029.068536
3856.288615,-459.657299,-222.061783,9844.739029
3856.288930,-1225.752797,148.041188,10807.006753
3856.289245,-1455.581446,1258.350101,10214.842000
3856.289560,76.609550,1480.411884,10214.842000
3856.289875,1149.143247,666.185348,10214.842000
3856.290190,1072.533697,1776.494261,8882.471304
3856.290505,0.000000,1406.391290,8660.409521
3856.290820,0.000000,1332.370696,7994.224174
3856.291135,766.095498,296.082377,8586.388927
3856.291450,1378.971896,-222.061783,8660.409521
3856.291765,766.095498,-1036.288319,9844.739029
3856.292080,-842.705048,-814.226536,9844.739029
3856.292395,-1915.238745,-2072.576638,9696.697840
3856.292711,-1608.800546,-1850.514855,10584.944971
3856.293026,-1225.752797,-2294.638420,11177.109724
3856.293341,-995.924147,-1776.494261,11177.109724
3856.293656,-919.314598,-370.102971,9844.739029
3856.293971,-919.314598,444.123565,9178.553681
3856.294286,1225.752797,222.061783,9400.615463
3856.294601,1991.848295,-0.000000,7846.182985
3856.294916,2451.505594,370.102971,7624.121203
3856.295231,2374.896044,888.247130,7920.203579
3856.295546,1532.190996,666.185348,7105.977043
3856.295861,2068.457845,-962.267725,9326.594869
3856.296176,1302.362347,-1998.556043,10140.821405
3856.296491,689.485948,-2368.659014,10584.944971
3856.296806,-1455.581446,-1924.535449,10881.027347
3856.297121,-1762.019645,-1628.453072,10658.965565
3856.297436,-1762.019645,-1776.494261,11473.192101
3856.297751,-842.705048,-2072.576638,10362.883188
3856.298066,-383.047749,-1998.556043,10214.842000
3856.298381,-689.485948,-0.000000,9178.553681
3856.298696,306.438199,-296.082377,7920.203579
3856.299011,1838.629195,-0.000000,8882.471304
3856.299326,2145.067394,-0.000000,9030.512492
3856.299641,2298.286494,-0.000000,8956.491898
3856.299956,842.705048,-0.000000,9770.718434
3856.300271,-383.047749,-0.000000,9844.739029
3856.300586,-229.828649,-888.247130,11399.171507
3856.300901,-459.657299,-74.020594,10584.944971
3856.301216,-1225.752797,-888.247130,10066.800811
3856.301531,-1762.019645,-518.144159,10362.883188
3856.301846,-1532.190996,-444.123565,9104.533087
3856.302161,-1072.533697,-666.185348,9474.636058
3856.302476,0.000000,-1258.350101,8660.409521
3856.302791,153.219100,-962.267725,8956.491898
3856.303107,0.000000,-296.082377,8882.471304
3856.303422,76.609550,-296.082377,9104.533087
3856.303737,229.828649,-74.020594,9992.780217
3856.304052,995.924147,518.144159,9474.636058
3856.304367,153.219100,740.205942,9326.594869
3856.304682,0.000000,1406.391290,9474.636058
3856.304997,-689.485948,1258.350101,9548.656652
3856.305312,-1072.533697,222.061783,10066.800811
3856.305627,-995.924147,-0.000000,8956.491898
3856.305942,-1532.190996,370.102971,9474.636058
3856.306257,-1455.581446,888.247130,9474.636058
3856.306572,-1072.533697,666.185348,8808.450710
3856.306887,0.000000,-148.041188,10584.944971
3856.307202,0.000000,-0.000000,10658.965565
3856.307517,0.000000,814.226536,10140.821405
3856.307832,-383.047749,2220.617826,9104.533087
3856.308147,-459.657299,1628.453072,10214.842000
3856.308462,1072.533697,1406.391290,10066.800811
3856.308777,995.924147,1184.329507,9400.615463
3856.309092,689.485948,2146.597232,9178.553681
3856.309407,766.095498,2590.720797,8438.347739
3856.309722,1149.143247,2146.597232,8808.450710
3856.310037,1762.019645,1036.288319,9918.759623
3856.310352,1685.410096,888.247130,9474.636058
3856.310667,306.438199,296.082377,9918.759623
3856.310982,0.000000,888.247130,10066.800811
3856.311297,-459.657299,592.164754,11103.089130
3856.311612,153.219100,-0.000000,11325.150913
3856.311927,229.828649,148.041188,10807.006753
3856.312242,383.047749,296.082377,10658.965565
3856.312557,0.000000,1258.350101,10881.027347
3856.312872,1225.752797,1332.370696,9992.780217
3856.313187,2068.457845,1258.350101,9474.636058
3856.313503,2068.457845,1924.535449,8882.471304
3856.313818,1532.190996,2442.679609,8438.347739
3856.314133,1685.410096,1776.494261,8068.244768
3856.314448,1685.410096,222.061783,8882.471304
3856.314763,1991.848295,-592.164754,9696.697840
3856.315078,689.485948,-1184.329507,9400.615463
3856.315393,-459.657299,-444.123565,9844.739029
3856.315708,-1532.190996,-370.102971,10955.047942
3856.316023,-1072.533697,-1406.391290,10732.986159
3856.316338,-229.828649,-1184.329507,10807.006753
3856.316653,0.000000,-0.000000,9992.780217
3856.316968,-306.438199,444.123565,9400.615463
3856.317283,383.047749,1184.329507,7920.203579
3856.317598,1302.362347,1480.411884,8142.265362
3856.317913,2298.286494,370.102971,8290.306550
3856.318228,2145.067394,222.061783,8142.265362
3856.318543,612.876398,-0.000000,9030.512492
3856.318858,0.000000,-0.000000,8808.450710
3856.319173,-383.047749,-962.267725,10658.965565
3856.319488,-612.876398,-1480.411884,10807.006753
3856.319803,-1532.190996,-1110.308913,10214.842000
3856.320118,-2681.334243,-518.144159,9770.718434
3856.320433,-2604.724693,-518.144159,9844.739029
3856.320748,-1532.190996,-1036.288319,9918.759623
3856.321063,0.000000,-962.267725,9104.533087
3856.321378,0.000000,-0.000000,7624.121203
3856.321693,-459.657299,666.185348,7476.080014
3856.322008,76.609550,518.144159,8290.306550
3856.322323,766.095498,222.061783,9770.718434
3856.322638,919.314598,-592.164754,9474.636058
3856.322953,-229.828649,-444.123565,9770.718434
3856.323268,-1225.752797,-222.061783,10362.883188
3856.323583,-2145.067394,-0.000000,10288.862594
3856.323899,-1378.971896,-518.144159,10584.944971
3856.324214,-1302.362347,-740.205942,9696.697840
3856.324529,-1455.581446,-592.164754,9474.636058
3856.324844,-1072.533697,-518.144159,9844.739029
3856.325159,-842.705048,-296.082377,9326.594869
3856.325474,0.000000,-1036.288319,9992.780217
3856.325789,689.485948,-962.267725,10066.800811
3856.326104,383.047749,-740.205942,9770.718434
3856.326419,0.000000,-74.020594,9844.739029
3856.326734,229.828649,296.082377,10214.842000
3856.327049,842.705048,444.123565,9992.780217
3856.327364,1532.190996,-222.061783,9326.594869
3856.327679,1072.533697,444.123565,9178.553681
3856.327994,536.266849,592.164754,9104.533087
3856.328309,153.219100,370.102971,8364.327145
3856.328624,1302.362347,-1480.411884,10214.842000
3856.328939,1149.143247,-1184.329507,9696.697840
3856.329254,0.000000,-148.041188,9844.739029
3856.329569,-766.095498,-148.041188,9696.697840
3856.329884,-612.876398,-148.041188,10584.944971
3856.330199,842.705048,-888.247130,11177.109724
3856.330514,1225.752797,-370.102971,10288.862594
3856.330829,689.485948,518.144159,9696.697840
3856.331144,459.657299,1480.411884,9400.615463
3856.331459,383.047749,1554.432478,9104.533087
3856.331774,1762.019645,740.205942,9770.718434
3856.332089,2221.676944,962.267725,9326.594869
3856.332404,1378.971896,1332.370696,8142.265362
3856.332719,1149.143247,1628.453072,8364.327145
3856.333034,842.705048,666.185348,9030.512492
3856.333349,1225.752797,-148.041188,9992.780217
3856.333664,919.314598,-0.000000,9326.594869
3856.333979,-383.047749,-0.000000,9252.574275
3856.334295,-995.924147,222.061783,9474.636058
3856.334610,-1149.143247,-296.082377,10362.883188
3856.334925,0.000000,-592.164754,10436.903782
3856.335240,-306.438199,-0.000000,9474.636058
3856.335555,-689.485948,1258.350101,9844.739029
3856.335870,-766.095498,2516.700203,9030.512492
3856.336185,76.609550,2220.617826,9400.615463
3856.336500,1685.410096,1406.391290,9474.636058
3856.336815,1762.019645,1480.411884,9030.512492
3856.337130,689.485948,1924.535449,8808.450710
3856.337445,-306.438199,1776.494261,9178.553681
3856.337760,-612.876398,592.164754,10288.862594
3856.338075,0.000000,-0.000000,11177.109724
3856.338390,76.609550,-222.061783,10510.924376
3856.338705,-1302.362347,666.185348,10362.883188
3856.339020,-2145.067394,666.185348,9326.594869
3856.339335,-1378.971896,-148.041188,9770.718434
3856.339650,-229.828649,-148.041188,9622.677246
3856.339965,153.219100,-0.000000,9474.636058
3856.340280,-383.047749,888.247130,9326.594869
3856.340595,0.000000,666.185348,8956.491898
3856.340910,153.219100,-0.000000,9992.780217
3856.341225,1225.752797,444.123565,9918.759623
3856.341540,612.876398,1258.350101,9548.656652
3856.341855,-536.266849,1406.391290,9696.697840
3856.342170,-1072.533697,888.247130,10362.883188
3856.342485,-842.705048,518.144159,10955.047942
3856.342800,76.609550,-0.000000,10881.027347
3856.343115,-229.828649,-0.000000,10140.821405
3856.343430,-1302.362347,592.164754,10436.903782
3856.343745,-842.705048,-0.000000,9474.636058
3856.344060,-383.047749,-740.205942,10066.800811
3856.344375,842.705048,-888.247130,9770.718434
3856.344691,766.095498,-592.164754,9326.594869
3856.345006,229.828649,370.102971,9548.656652
3856.345321,383.047749,-0.000000,9548.656652
3856.345636,766.095498,-222.061783,9696.697840
3856.345951,1455.581446,-592.164754,9400.615463
3856.346266,1149.143247,592.164754,8586.388927
3856.346581,229.828649,666.185348,8808.450710
3856.346896,842.705048,666.185348,8438.347739
3856.347211,1225.752797,-814.226536,9326.594869
3856.347526,1225.752797,-962.267725,9178.553681
3856.347841,229.828649,-1332.370696,9030.512492
3856.348156,-306.438199,-444.123565,9252.574275
3856.348471,0.000000,-1110.308913,9770.718434
3856.348786,0.000000,-1036.288319,10288.862594
3856.349101,919.314598,-1036.288319,9696.697840
3856.349416,229.828649,-962.267725,9770.718434
3856.349731,229.828649,-0.000000,9474.636058
3856.350046,-383.047749,-74.020594,9104.533087
3856.350361,689.485948,-518.144159,8882.471304
3856.350676,1685.410096,-222.061783,8956.491898
3856.350991,612.876398,-444.123565,8808.450710
3856.351306,0.000000,-222.061783,8956.491898
3856.351621,0.000000,-444.123565,9252.574275
3856.351936,306.438199,-740.205942,9992.780217
3856.352251,612.876398,-1036.288319,9252.574275
3856.352566,0.000000,-814.226536,9474.636058
3856.352881,-536.266849,-0.000000,9696.697840
3856.353196,-1225.752797,-518.144159,9474.636058
3856.353511,-383.047749,-1036.288319,10140.821405
3856.353826,229.828649,-1110.308913,10066.800811
3856.354141,-459.657299,-222.061783,9918.759623
3856.354456,-1072.533697,592.164754,9326.594869
3856.354771,-842.705048,666.185348,9622.677246
3856.355087,612.876398,296.082377,9844.739029
3856.355402,383.047749,222.061783,9400.615463
3856.355717,76.609550,740.205942,9178.553681
3856.356032,-229.828649,1110.308913,9400.615463
3856.356347,0.000000,962.267725,9252.574275
3856.356662,842.705048,222.061783,9622.677246
3856.356977,536.266849,-0.000000,9474.636058
3856.357292,-612.876398,740.205942,9696.697840
3856.357607,-995.924147,518.144159,9992.780217
3856.357922,-612.876398,444.123565,10066.800811
3856.358237,229.828649,222.061783,9770.718434
3856.358552,383.047749,-222.061783,9918.759623
3856.358867,-459.657299,296.082377,9992.780217
3856.359182,-995.924147,148.041188,9918.759623
3856.359497,-689.485948,444.123565,9770.718434
3856.359812,76.609550,-222.061783,10584.944971
3856.360127,995.924147,-0.000000,10066.800811
3856.360442,306.438199,370.102971,10066.800811
3856.360757,-306.438199,2072.576638,9770.718434
3856.361072,-76.609550,1554.432478,9622.677246
3856.361387,919.314598,444.123565,9992.780217
3856.361702,1378.971896,814.226536,9622.677246
3856.362017,766.095498,962.267725,9474.636058
3856.362332,459.657299,1332.370696,9474.636058
3856.362647,536.266849,592.164754,9696.697840
3856.362962,1072.533697,-0.000000,9474.636058
3856.363277,383.047749,592.164754,9474.636058
3856.363592,0.000000,740.205942,9844.739029
3856.363907,0.000000,1036.288319,8956.491898
3856.364222,306.438199,-0.000000,9252.574275
3856.364537,842.705048,-444.123565,9918.759623
3856.364852,0.000000,-0.000000,9696.697840
3856.365167,0.000000,296.082377,9992.780217
3856.365483,-1149.143247,1184.329507,9178.553681
3856.365798,0.000000,222.061783,9622.677246
3856.366113,1762.019645,-0.000000,9326.594869
3856.366428,919.314598,222.061783,8956.491898
3856.366743,0.000000,962.267725,9622.677246
3856.367058,-536.266849,666.185348,9252.574275
3856.367373,229.828649,-0.000000,8956.491898
3856.367688,1149.143247,-666.185348,10214.842000
3856.368003,842.705048,-0.000000,9400.615463
3856.368318,-229.828649,740.205942,9474.636058
3856.368633,-612.876398,962.267725,8956.491898
3856.368947,-229.828649,-0.000000,9622.677246
3856.369262,1225.752797,-592.164754,9326.594869
3856.369577,766.095498,-444.123565,9104.533087
3856.369892,0.000000,-0.000000,9178.553681
3856.370207,-612.876398,-0.000000,9400.615463
3856.370522,76.609550,-592.164754,10214.842000
3856.370836,1072.533697,-296.082377,10066.800811
3856.371151,842.705048,-296.082377,9178.553681
3856.371466,-306.438199,-0.000000,9474.636058
3856.371781,-383.047749,222.061783,9252.574275
3856.372096,306.438199,-0.000000,10140.821405
3856.372411,383.047749,-444.123565,9770.718434
3856.372725,459.657299,-74.020594,9918.759623
3856.373040,-306.438199,-0.000000,9400.615463
3856.373355,-689.485948,444.123565,9548.656652
3856.373670,153.219100,-296.082377,9992.780217
3856.373985,536.266849,-1110.308913,10214.842000
3856.374299,153.219100,-370.102971,9918.759623
3856.374614,-1149.143247,518.144159,9770.718434
3856.374929,-995.924147,-370.102971,9474.636058
3856.375244,76.609550,-888.247130,10436.903782
3856.375559,459.657299,-592.164754,9622.677246
3856.375874,153.219100,-814.226536,9474.636058
3856.376188,-1225.752797,-0.000000,9178.553681
3856.376503,-612.876398,222.061783,9474.636058
3856.376818,76.609550,-296.082377,9622.677246
3856.377133,842.705048,-518.144159,9400.615463
3856.377448,76.609550,-888.247130,9622.677246
3856.377763,-1072.533697,-0.000000,9326.594869
3856.378077,-459.657299,148.041188,9474.636058
3856.378392,229.828649,-592.164754,10214.842000
3856.378707,383.047749,518.144159,9622.677246
3856.379022,0.000000,-0.000000,9548.656652
3856.379337,-536.266849,518.144159,8882.471304
3856.379652,0.000000,296.082377,9178.553681
3856.379966,766.095498,-0.000000,9400.615463
3856.380281,612.876398,-0.000000,9178.553681
3856.380596,-536.266849,518.144159,9474.636058
3856.380911,-459.657299,518.144159,9104.533087
3856.381226,-229.828649,-0.000000,9548.656652
3856.381540,689.485948,-0.000000,9770.718434
3856.381855,842.705048,-0.000000,9918.759623
3856.382170,0.000000,296.082377,9474.636058
3856.382485,-459.657299,1110.308913,8956.491898
3856.382800,0.000000,666.185348,9844.739029
3856.383115,919.314598,-0.000000,9844.739029
3856.383429,459.657299,370.102971,9400.615463
3856.383744,536.266849,518.144159,9474.636058
3856.384059,-229.828649,740.205942,9030.512492
3856.384374,306.438199,-0.000000,10288.862594
3856.384689,1378.971896,-222.061783,10436.903782
3856.385004,689.485948,-0.000000,10362.883188
3856.385318,0.000000,1036.288319,9844.739029
3856.385633,-383.047749,1332.370696,9178.553681
3856.385948,0.000000,592.164754,9474.636058
3856.386263,1532.190996,-148.041188,9918.759623
3856.386578,1302.362347,222.061783,9474.636058
3856.386893,0.000000,518.144159,8956.491898
3856.387207,-229.828649,814.226536,9622.677246
3856.387522,536.266849,518.144159,10214.842000
3856.387837,1455.581446,-0.000000,10288.862594
3856.388152,689.485948,444.123565,9548.656652
3856.388467,0.000000,740.205942,9770.718434
3856.388782,-536.266849,1480.411884,8808.450710
3856.389096,0.000000,814.226536,8956.491898
3856.389411,919.314598,-74.020594,10066.800811
3856.389726,689.485948,-222.061783,10066.800811
3856.390041,0.000000,370.102971,9918.759623
3856.390356,-842.705048,592.164754,9770.718434
3856.390670,-383.047749,296.082377,10066.800811
3856.390985,612.876398,-222.061783,9844.739029
3856.391300,76.609550,370.102971,9770.718434
3856.391615,-306.438199,1258.350101,9030.512492
3856.391930,-383.047749,1110.308913,8734.430116
3856.392245,766.095498,370.102971,9548.656652
3856.392559,1378.971896,518.144159,9400.615463
3856.392874,536.266849,518.144159,9400.615463
3856.393189,0.000000,740.205942,8660.409521
3856.393504,-536.266849,814.226536,9474.636058
3856.393819,0.000000,-74.020594,10214.842000
3856.394134,689.485948,-444.123565,10214.842000
3856.394448,-536.266849,-148.041188,9474.636058
3856.394763,-1072.533697,-74.020594,9770.718434
3856.395078,-1608.800546,962.267725,9474.636058
3856.395393,-1149.143247,-370.102971,10362.883188
3856.395708,0.000000,-1110.308913,10955.047942
3856.396023,-842.705048,-370.102971,10362.883188
3856.396337,-1225.752797,296.082377,9178.553681
3856.396652,-842.705048,888.247130,9474.636058
3856.396967,76.609550,-0.000000,10362.883188
3856.397282,689.485948,-0.000000,9696.697840
3856.397597,306.438199,518.144159,9474.636058
3856.397911,0.000000,740.205942,8438.347739
3856.398226,0.000000,370.102971,8808.450710
3856.398541,76.609550,-592.164754,9474.636058
3856.398856,459.657299,-1406.391290,9548.656652
3856.399171,76.609550,-74.020594,9178.553681
3856.399486,-766.095498,148.041188,8956.491898
3856.399800,-842.705048,-148.041188,9474.636058
3856.400115,229.828649,-1702.473667,10584.944971
3856.400430,459.657299,-1258.350101,10140.821405
3856.400745,0.000000,-518.144159,9844.739029
3856.401060,-306.438199,740.205942,9326.594869
3856.401375,0.000000,-74.020594,9696.697840
3856.401689,1608.800546,148.041188,9474.636058
3856.402004,1762.019645,148.041188,9104.533087
3856.402319,1302.362347,888.247130,9104.533087
3856.402634,689.485948,740.205942,8734.430116
3856.402949,1072.533697,222.061783,8808.450710
3856.403264,1762.019645,-296.082377,9844.739029
3856.403578,1072.533697,-814.226536,9696.697840
3856.403893,76.609550,-814.226536,10066.800811
3856.404208,-689.485948,-0.000000,9918.759623
3856.404523,-689.485948,-74.020594,10066.800811
3856.404838,459.657299,-814.226536,10658.965565
3856.405152,689.485948,-814.226536,9770.718434
3856.405467,536.266849,-296.082377,9474.636058
3856.405782,0.000000,444.123565,8808.450710
3856.406097,536.266849,-0.000000,9844.739029
3856.406412,1378.971896,-296.082377,10140.821405
3856.406727,1455.581446,222.061783,9400.615463
3856.407041,1072.533697,518.144159,9030.512492
3856.407356,459.657299,666.185348,9030.512492
3856.407671,76.609550,592.164754,9548.656652
3856.407986,76.609550,-74.020594,9474.636058
3856.408301,0.000000,-148.041188,9548.656652
3856.408616,-919.314598,-296.082377,9548.656652
3856.408930,-1072.533697,-0.000000,9252.574275
3856.409245,-842.705048,-592.164754,9992.780217
3856.409560,-153.219100,-1110.308913,10288.862594
3856.409875,-229.828649,-148.041188,9770.718434
3856.410190,-1072.533697,666.185348,9474.636058
3856.410505,-995.924147,1554.432478,9104.533087
3856.410819,0.000000,888.247130,9770.718434
3856.411134,612.876398,370.102971,9474.636058
3856.411449,459.657299,-0.000000,8808.450710
3856.411764,0.000000,1332.370696,8808.450710
3856.412079,-1455.581446,814.226536,9400.615463
3856.412393,-689.485948,1184.329507,9474.636058
3856.412708,-612.876398,-148.041188,10140.821405
3856.413023,-306.438199,-296.082377,9548.656652
3856.413338,-1072.533697,222.061783,9844.739029
3856.413653,-1762.019645,1406.391290,9104.533087
3856.413968,-1532.190996,148.041188,10584.944971
3856.414282,-536.266849,518.144159,9918.759623
3856.414597,0.000000,888.247130,9474.636058
3856.414912,-153.219100,1184.329507,8808.450710
3856.415227,-229.828649,1110.308913,9548.656652
3856.415542,766.095498,1332.370696,9696.697840
3856.415857,1302.362347,518.144159,9992.780217
3856.416171,383.047749,962.267725,9844.739029
3856.416486,-229.828649,1702.473667,9918.759623
3856.416801,-229.828649,1258.350101,9918.759623
3856.417116,306.438199,444.123565,10807.006753
3856.417431,766.095498,-0.000000,10362.883188
3856.417746,229.828649,222.061783,9696.697840
3856.418060,0.000000,592.164754,9474.636058
3856.418375,-229.828649,444.123565,9622.677246
3856.418690,459.657299,-0.000000,9696.697840
3856.419005,1225.752797,-814.226536,9696.697840
3856.419320,995.924147,-148.041188,9474.636058
3856.419634,612.876398,296.082377,9400.615463
3856.419949,153.219100,222.061783,10140.821405
3856.420264,612.876398,-148.041188,10066.800811
3856.420579,1225.752797,-740.205942,10214.842000
3856.420894,689.485948,-0.000000,9622.677246
3856.421209,153.219100,-0.000000,9622.677246
3856.421523,76.609550,-222.061783,9474.636058
3856.421838,766.095498,-1036.288319,10214.842000
3856.422153,1225.752797,-1036.288319,10214.842000
3856.422468,536.266849,-592.164754,9252.574275
3856.422783,0.000000,148.041188,9918.759623
3856.423098,0.000000,-0.000000,8882.471304
3856.423412,536.266849,-1036.288319,9474.636058
3856.423727,1149.143247,-888.247130,9770.718434
3856.424042,0.000000,-1110.308913,9178.553681
3856.424357,0.000000,-0.000000,8512.368333
3856.424672,76.609550,-370.102971,9252.574275
3856.424987,995.924147,-592.164754,9474.636058
3856.425301,1225.752797,-592.164754,9178.553681
3856.425616,229.828649,-0.000000,7994.224174
3856.425931,-536.266849,-74.020594,8956.491898
3856.426246,-536.266849,296.082377,9474.636058
3856.426561,-306.438199,-0.000000,9474.636058
3856.426875,306.438199,-222.061783,9178.553681
3856.427190,-383.047749,-74.020594,9622.677246
3856.427505,-842.705048,1110.308913,9178.553681
3856.427820,-995.924147,814.226536,9178.553681
3856.428135,0.000000,370.102971,9992.780217
3856.428450,153.219100,-0.000000,9400.615463
3856.428764,-689.485948,-222.061783,9474.636058
3856.429079,-995.924147,296.082377,9770.718434
3856.429394,-1149.143247,518.144159,9548.656652
3856.429709,-536.266849,-518.144159,9992.780217
3856.430024,-229.828649,-296.082377,10140.821405
3856.430339,-766.095498,-74.020594,9400.615463
3856.430653,-1455.581446,-74.020594,9252.574275
3856.430968,-1455.581446,-0.000000,10214.842000
3856.431283,0.000000,-962.267725,10436.903782
3856.431598,153.219100,-518.144159,9918.759623
3856.431913,-459.657299,370.102971,10066.800811
3856.432228,-1072.533697,962.267725,9770.718434
3856.432542,-459.657299,296.082377,9844.739029
3856.432857,995.924147,222.061783,9992.780217
3856.433172,1149.143247,222.061783,9474.636058
3856.433487,612.876398,370.102971,9992.780217
3856.433802,0.000000,1850.514855,9030.512492
3856.434117,0.000000,740.205942,9696.697840
3856.434431,766.095498,-592.164754,9992.780217
3856.434746,1072.533697,-1406.391290,9844.739029
3856.435061,0.000000,-740.205942,9918.759623
3856.435376,-689.485948,518.144159,9696.697840
3856.435691,-306.438199,592.164754,10288.862594
3856.436005,919.314598,-0.000000,10288.862594
3856.436320,995.924147,-0.000000,9326.594869
3856.436635,383.047749,1110.308913,9622.677246
3856.436950,459.657299,888.247130,9474.636058
3856.437265,919.314598,592.164754,9548.656652
3856.437580,1762.019645,814.226536,9696.697840
3856.437894,1532.190996,592.164754,9474.636058
3856.438209,766.095498,1110.308913,9104.533087
3856.438524,229.828649,1554.432478,9030.512492
3856.438839,766.095498,-0.000000,9918.759623
3856.439154,1532.190996,370.102971,9474.636058
3856.439469,689.485948,-0.000000,9252.574275
3856.439783,0.000000,666.185348,8808.450710
3856.440098,-842.705048,666.185348,9548.656652
3856.440413,229.828649,-592.164754,9622.677246
3856.440728,1072.533697,-592.164754,9696.697840
3856.441043,459.657299,-0.000000,9400.615463
3856.441358,-153.219100,666.185348,9474.636058
3856.441672,-153.219100,1480.411884,8512.368333
3856.441987,995.924147,740.205942,9178.553681
3856.442302,1608.800546,-74.020594,9918.759623
3856.442617,1149.143247,-296.082377,9992.780217
3856.442932,0.000000,592.164754,9548.656652
3856.443246,-766.095498,666.185348,10214.842000
3856.443561,-229.828649,296.082377,9326.594869
3856.443876,153.219100,-148.041188,9474.636058
3856.444191,-689.485948,-222.061783,9770.718434
3856.444506,-1378.971896,666.185348,9030.512492
3856.444821,-536.266849,-1924.535449,9474.636058
3856.445135,-229.828649,-0.000000,10584.944971
3856.445450,-919.314598,-592.164754,11029.068536
3856.445765,-766.095498,-1036.288319,10584.944971
3856.446080,-1149.143247,296.082377,10140.821405
3856.446395,-536.266849,1184.329507,10584.944971
3856.446710,459.657299,592.164754,10066.800811
3856.447024,919.314598,592.164754,9326.594869
3856.447339,459.657299,740.205942,9474.636058
3856.447654,-306.438199,1998.556043,9030.512492
3856.447969,-766.095498,962.267725,9844.739029
3856.448284,0.000000,-74.020594,9696.697840
3856.448599,229.828649,-1110.308913,9844.739029
3856.448913,-229.828649,-444.123565,9622.677246
3856.449228,-1532.190996,-296.082377,10066.800811
3856.449543,-1915.238745,222.061783,9844.739029
3856.449858,-459.657299,-370.102971,10732.986159
3856.450173,76.609550,-222.061783,9474.636058
3856.450487,0.000000,370.102971,9548.656652
3856.450802,0.000000,740.205942,9622.677246
3856.451117,0.000000,666.185348,9696.697840
3856.451432,766.095498,148.041188,9696.697840
3856.451747,1532.190996,222.061783,9474.636058
3856.452062,612.876398,592.164754,9030.512492
3856.452376,0.000000,-0.000000,9178.553681
3856.452691,153.219100,-0.000000,9622.677246
3856.453006,612.876398,-740.205942,10140.821405
3856.453321,229.828649,-888.247130,9844.739029
3856.453636,-536.266849,-888.247130,9844.739029
3856.453951,-995.924147,-444.123565,9474.636058
3856.454265,-153.219100,-888.247130,9770.718434
3856.454580,842.705048,-1258.350101,9252.574275
3856.454895,1532.190996,-1332.370696,8956.491898
3856.455210,536.266849,-592.164754,9622.677246
3856.455525,0.000000,814.226536,8808.450710
3856.455840,536.266849,-0.000000,9326.594869
3856.456154,1608.800546,-222.061783,9104.533087
3856.456469,1762.019645,-444.123565,9104.533087
3856.456784,919.314598,148.041188,8956.491898
3856.457099,0.000000,518.144159,8882.471304
3856.457414,0.000000,-0.000000,9622.677246
3856.457728,919.314598,-1110.308913,9844.739029
3856.458043,612.876398,-296.082377,9252.574275
3856.458358,-383.047749,-518.144159,9474.636058
3856.458673,-612.876398,-296.082377,9770.718434
3856.458988,0.000000,-518.144159,10066.800811
3856.459303,76.609550,-518.144159,9474.636058
3856.459617,229.828649,-0.000000,9252.574275
3856.459932,-689.485948,666.185348,9104.533087
3856.460247,-1378.971896,518.144159,9548.656652
3856.460562,0.000000,-74.020594,9548.656652
3856.460877,229.828649,148.041188,9326.594869
3856.461192,459.657299,-0.000000,9548.656652
3856.461506,-383.047749,1184.329507,8808.450710
3856.461821,-995.924147,888.247130,9548.656652
3856.462136,0.000000,740.205942,9622.677246
3856.462451,766.095498,370.102971,9918.759623
3856.462766,459.657299,518.144159,9770.718434
3856.463081,-153.219100,1406.391290,9400.615463
3856.463395,-689.485948,1998.556043,9252.574275
3856.463710,0.000000,1036.288319,9992.780217
3856.464025,306.438199,518.144159,9622.677246
3856.464340,0.000000,-0.000000,9844.739029
3856.464655,-536.266849,370.102971,10066.800811
3856.464969,-842.705048,888.247130,10140.821405
3856.465284,-306.438199,-0.000000,10436.903782
3856.465599,0.000000,148.041188,10066.800811
3856.465914,-612.876398,444.123565,10732.986159
3856.466229,-995.924147,-0.000000,10288.862594
3856.466544,-1072.533697,888.247130,10658.965565
3856.466858,0.000000,444.123565,10066.800811
3856.467173,1072.533697,-0.000000,9992.780217
3856.467488,842.705048,518.144159,10510.924376
3856.467803,0.000000,962.267725,9548.656652
3856.468117,0.000000,814.226536,9770.718434
3856.468432,766.095498,-74.020594,10732.986159
3856.468747,1072.533697,-0.000000,9696.697840
3856.469062,1072.533697,-0.000000,9622.677246
3856.469376,0.000000,518.144159,9400.615463
3856.469691,0.000000,518.144159,9104.533087
3856.470006,842.705048,-814.226536,9622.677246
3856.470321,842.705048,-1184.329507,9696.697840
3856.470636,536.266849,-444.123565,9770.718434
3856.470950,-383.047749,370.102971,9696.697840
3856.471265,0.000000,-0.000000,9474.636058
3856.471580,1149.143247,-296.082377,9326.594869
3856.471895,1378.971896,-74.020594,9474.636058
3856.472209,995.924147,666.185348,8586.388927
3856.472524,536.266849,1036.288319,9104.533087
3856.472839,383.047749,962.267725,8734.430116
3856.473154,1532.190996,296.082377,8734.430116
3856.473468,1685.410096,-74.020594,8882.471304
3856.473783,919.314598,-0.000000,8882.471304
3856.474098,0.000000,222.061783,9030.512492
3856.474413,0.000000,-222.061783,9178.553681
3856.474727,383.047749,-592.164754,9326.594869
3856.475042,536.266849,-370.102971,9178.553681
3856.475357,153.219100,-222.061783,9400.615463
3856.475672,-306.438199,518.144159,9326.594869
3856.475987,-306.438199,518.144159,8734.430116
3856.476301,1072.533697,148.041188,8956.491898
3856.476616,1149.143247,-222.061783,9400.615463
3856.476931,459.657299,444.123565,9030.512492
3856.477246,153.219100,666.185348,9400.615463
3856.477560,153.219100,444.123565,9474.636058
3856.477875,689.485948,-222.061783,10362.883188
3856.478190,766.095498,-296.082377,10362.883188
3856.478505,-612.876398,370.102971,10362.883188
3856.478819,-842.705048,666.185348,10288.862594
3856.479134,-1225.752797,222.061783,10288.862594
3856.479449,-229.828649,-444.123565,10510.924376
3856.479764,0.000000,-666.185348,10362.883188
3856.480079,-612.876398,222.061783,9918.759623
3856.480393,-995.924147,-0.000000,9918.759623
3856.480708,-536.266849,-74.020594,9770.718434
3856.481023,153.219100,-592.164754,10436.903782
3856.481338,-229.828649,222.061783,10436.903782
3856.481652,-689.485948,296.082377,10066.800811
3856.481967,-995.924147,1110.308913,9918.759623
3856.482282,-536.266849,1036.288319,9918.759623
3856.482597,536.266849,-0.000000,10436.903782
3856.482911,0.000000,148.041188,9918.759623
3856.483226,-229.828649,370.102971,9474.636058
3856.483541,-1378.971896,296.082377,9770.718434
3856.483856,-459.657299,-0.000000,10066.800811
3856.484171,0.000000,-592.164754,10807.006753
3856.484485,-229.828649,-296.082377,9696.697840
3856.484800,-995.924147,-148.041188,9696.697840
3856.485115,-1225.752797,888.247130,9622.677246
3856.485430,-536.266849,296.082377,9104.533087
3856.485744,766.095498,-148.041188,9696.697840
3856.486059,766.095498,518.144159,8956.491898
3856.486374,383.047749,814.226536,8808.450710
3856.486689,306.438199,740.205942,8438.347739
3856.487003,995.924147,222.061783,8660.409521
3856.487318,1915.238745,74.020594,9178.553681
3856.487633,1225.752797,-222.061783,9474.636058
3856.487948,459.657299,518.144159,9400.615463
3856.488263,-383.047749,888.247130,9178.553681
3856.488577,306.438199,-0.000000,9474.636058
3856.488892,1225.752797,-296.082377,9474.636058
3856.489207,459.657299,-592.164754,9548.656652
3856.489522,0.000000,148.041188,9400.615463
3856.489836,-536.266849,370.102971,9252.574275
3856.490151,76.609550,-962.267725,10066.800811
3856.490466,842.705048,-962.267725,10066.800811
3856.490781,383.047749,-444.123565,9696.697840
3856.491095,229.828649,296.082377,9474.636058
3856.491410,-383.047749,962.267725,8956.491898
3856.491725,842.705048,-0.000000,9474.636058
3856.492040,1685.410096,-666.185348,9178.553681
3856.492355,1149.143247,592.164754,9104.533087
3856.492669,0.000000,370.102971,8734.430116
3856.492984,0.000000,-0.000000,9474.636058
3856.493299,459.657299,-444.123565,10362.883188
3856.493614,612.876398,-666.185348,10066.800811
3856.493928,76.609550,-222.061783,10362.883188
3856.494243,-459.657299,296.082377,10288.862594
3856.494558,-536.266849,740.205942,9770.718434
3856.494873,0.000000,222.061783,10288.862594
3856.495187,536.266849,222.061783,9918.759623
3856.495502,0.000000,962.267725,9104.533087
3856.495817,-383.047749,814.226536,9178.553681
3856.496132,-306.438199,592.164754,9548.656652
3856.496447,689.485948,-0.000000,9918.759623
3856.496761,842.705048,-0.000000,9696.697840
3856.497076,229.828649,888.247130,9030.512492
3856.497391,-766.095498,1480.411884,9622.677246
3856.497706,-612.876398,1332.370696,9622.677246
3856.498020,383.047749,370.102971,9474.636058
3856.498335,306.438199,-0.000000,9844.739029
3856.498650,0.000000,518.144159,9548.656652
3856.498965,-612.876398,592.164754,9622.677246
3856.499279,-842.705048,740.205942,9844.739029
3856.499594,0.000000,-148.041188,10584.944971
3856.499909,0.000000,-74.020594,10658.965565
3856.500224,-459.657299,-0.000000,9770.718434
3856.500539,-1225.752797,740.205942,9844.739029
3856.500853,-995.924147,518.144159,10732.986159
3856.501168,0.000000,666.185348,9918.759623
3856.501483,153.219100,370.102971,9992.780217
3856.501798,-459.657299,-0.000000,9992.780217
3856.502112,-383.047749,592.164754,9622.677246
3856.502427,0.000000,-0.000000,9474.636058
3856.502742,842.705048,-370.102971,9400.615463
3856.503057,383.047749,-296.082377,9696.697840
3856.503371,0.000000,-74.020594,8512.368333
3856.503686,-383.047749,-0.000000,9030.512492
3856.504001,0.000000,-444.123565,9474.636058
3856.504316,306.438199,-1332.370696,9474.636058
3856.504631,0.000000,-888.247130,9030.512492
3856.504945,-766.095498,-370.102971,9622.677246
3856.505260,-842.705048,-0.000000,9252.574275
3856.505575,76.609550,-888.247130,9770.718434
3856.505890,1302.362347,-592.164754,9696.697840
3856.506204,842.705048,-370.102971,9548.656652
3856.506519,-153.219100,518.144159,9178.553681
3856.506834,-153.219100,1036.288319,9178.553681
3856.507149,536.266849,296.082377,9252.574275
3856.507463,1149.143247,-222.061783,9548.656652
3856.507778,1149.143247,222.061783,8808.450710
3856.508093,459.657299,222.061783,8808.450710
3856.508408,459.657299,666.185348,9030.512492
3856.508723,766.095498,-148.041188,9400.615463
3856.509037,995.924147,-592.164754,9178.553681
3856.509352,919.314598,-666.185348,9474.636058
3856.509667,76.609550,-74.020594,9474.636058
3856.509982,0.000000,296.082377,8808.450710
3856.510296,995.924147,222.061783,9252.574275
3856.510611,1455.581446,-74.020594,9252.574275
3856.510926,1149.143247,666.185348,8882.471304
3856.511241,383.047749,740.205942,9548.656652
3856.511555,153.219100,592.164754,9252.574275
3856.511870,1225.752797,-296.082377,10140.821405
3856.512185,1149.143247,-0.000000,10214.842000
3856.512500,153.219100,-74.020594,10066.800811
3856.512815,-383.047749,592.164754,10214.842000
3856.513129,-1072.533697,-296.082377,10510.924376
3856.513444,-306.438199,-370.102971,10362.883188
3856.513759,459.657299,-592.164754,11029.068536
3856.514074,-766.095498,-0.000000,9844.739029
3856.514388,-995.924147,-0.000000,9696.697840
3856.514703,-919.314598,370.102971,10362.883188
3856.515018,0.000000,-222.061783,10658.965565
3856.515333,612.876398,-0.000000,10140.821405
3856.515647,0.000000,-0.000000,9770.718434
3856.515962,-383.047749,370.102971,10066.800811
3856.516277,-995.924147,222.061783,9474.636058
3856.516592,-153.219100,296.082377,9548.656652
3856.516907,0.000000,-148.041188,10362.883188
3856.517221,-612.876398,222.061783,9474.636058
3856.517536,-995.924147,148.041188,9474.636058
3856.517851,-1455.581446,-370.102971,9474.636058
3856.518166,-306.438199,-666.185348,10140.821405
3856.518480,536.266849,-74.020594,9104.533087
3856.518795,0.000000,666.185348,8734.430116
3856.519110,-383.047749,962.267725,8438.347739
3856.519425,-689.485948,592.164754,9104.533087
3856.519739,0.000000,-0.000000,8586.388927
3856.520054,1302.362347,-740.205942,10362.883188
3856.520369,-306.438199,1332.370696,8734.430116
3856.520684,-1225.752797,888.247130,9252.574275
3856.520999,-306.438199,370.102971,9548.656652
3856.521313,306.438199,-0.000000,9918.759623
3856.521628,842.705048,518.144159,9400.615463
3856.521943,76.609550,444.123565,8882.471304
3856.522258,-229.828649,962.267725,8882.471304
3856.522572,0.000000,888.247130,9548.656652
3856.522887,459.657299,-0.000000,9178.553681
3856.523202,1225.752797,-962.267725,10066.800811
3856.523517,153.219100,-296.082377,9474.636058
3856.523831,-229.828649,666.185348,9104.533087
3856.524146,-229.828649,814.226536,9474.636058
3856.524461,459.657299,74.020594,10288.862594
3856.524776,612.876398,-0.000000,9696.697840
3856.525091,612.876398,-0.000000,9104.533087
3856.525405,0.000000,222.061783,10066.800811
3856.525720,306.438199,518.144159,9844.739029
3856.526035,1072.533697,-74.020594,10362.883188
3856.526350,919.314598,666.185348,9548.656652
3856.526664,612.876398,666.185348,9474.636058
3856.526979,229.828649,222.061783,9696.697840
3856.527294,153.219100,-518.144159,10214.842000
3856.527609,1225.752797,-370.102971,10214.842000
3856.527923,612.876398,-296.082377,10214.842000
3856.528238,-229.828649,370.102971,9252.574275
3856.528553,-229.828649,370.102971,9548.656652
3856.528868,76.609550,-74.020594,9844.739029
3856.529183,1225.752797,-296.082377,9696.697840
3856.529497,1302.362347,-0.000000,9474.636058
3856.529812,153.219100,148.041188,9474.636058
3856.530127,0.000000,592.164754,9474.636058
3856.530442,383.047749,444.123565,9844.739029
3856.530756,919.314598,-148.041188,9992.780217
3856.531071,536.266849,-814.226536,10288.862594
3856.531386,-153.219100,-0.000000,9400.615463
3856.531701,-612.876398,814.226536,9474.636058
3856.532015,-536.266849,518.144159,9770.718434
3856.532330,842.705048,148.041188,9474.636058
3856.532645,459.657299,-0.000000,8808.450710
3856.532960,0.000000,370.102971,9104.533087
3856.533275,0.000000,888.247130,8882.471304
3856.533589,229.828649,296.082377,9326.594869
3856.533904,766.095498,296.082377,9252.574275
3856.534219,0.000000,592.164754,9104.533087
3856.534534,-383.047749,740.205942,9400.615463
3856.534848,-1072.533697,740.205942,9474.636058
3856.535163,-306.438199,-0.000000,9992.780217
3856.535478,-229.828649,-370.102971,9474.636058
3856.535793,-306.438199,-1110.308913,9400.615463
3856.536107,-1072.533697,-222.061783,9770.718434
3856.536422,-1685.410096,-0.000000,10288.862594
3856.536737,-995.924147,-148.041188,9918.759623
3856.537052,-612.876398,-740.205942,10362.883188
3856.537367,-536.266849,-148.041188,9474.636058
3856.537681,-383.047749,370.102971,9474.636058
3856.537996,-536.266849,1184.329507,9326.594869
3856.538311,0.000000,518.144159,9548.656652
3856.538626,1072.533697,-518.144159,9252.574275
3856.538940,842.705048,296.082377,8734.430116
3856.539255,459.657299,444.123565,8808.450710
3856.539570,-153.219100,222.061783,9326.594869
3856.539885,383.047749,-370.102971,9696.697840
3856.540199,459.657299,-518.144159,9474.636058
3856.540514,-383.047749,-740.205942,10288.862594
3856.540829,-536.266849,74.020594,9548.656652
3856.541144,-842.705048,148.041188,9844.739029
3856.541459,0.000000,-222.061783,10288.862594
3856.541773,612.876398,-222.061783,9548.656652
3856.542088,689.485948,444.123565,9474.636058
3856.542403,459.657299,444.123565,9696.697840
3856.542718,459.657299,1184.329507,9696.697840
3856.543032,1532.190996,666.185348,9400.615463
3856.543347,1455.581446,296.082377,9474.636058
3856.543662,1685.410096,222.061783,9770.718434
3856.543977,995.924147,1258.350101,9326.594869
3856.544291,612.876398,666.185348,9770.718434
3856.544606,995.924147,-74.020594,10288.862594
3856.544921,842.705048,-814.226536,10214.842000
3856.545236,383.047749,-814.226536,9474.636058
3856.545551,-383.047749,-74.020594,9844.739029
3856.545865,229.828649,-592.164754,9992.780217
3856.546180,536.266849,-962.267725,10510.924376
3856.546495,995.924147,-740.205942,9844.739029
3856.546810,536.266849,518.144159,9622.677246
3856.547124,76.609550,1110.308913,9252.574275
3856.547439,766.095498,666.185348,9474.636058
3856.547754,1762.019645,148.041188,9992.780217
3856.548069,1915.238745,-0.000000,9030.512492
3856.548383,1225.752797,296.082377,9030.512492
3856.548698,383.047749,518.144159,9030.512492
3856.549013,76.609550,370.102971,9696.697840
3856.549328,229.828649,-518.144159,9992.780217
3856.549643,0.000000,-444.123565,9992.780217
3856.549957,-842.705048,-222.061783,9252.574275
3856.550272,-919.314598,-222.061783,9178.553681
3856.550587,-995.924147,-592.164754,9400.615463
3856.550902,0.000000,-1406.391290,9400.615463
3856.551216,-153.219100,-888.247130,9252.574275
3856.551531,-689.485948,-0.000000,8364.327145
3856.551846,-536.266849,444.123565,9178.553681
3856.552161,-689.485948,-0.000000,9326.594869
3856.552475,383.047749,-222.061783,9104.533087
3856.552790,306.438199,222.061783,9696.697840
3856.553105,-306.438199,370.102971,9622.677246
3856.553420,-842.705048,1702.473667,9474.636058
3856.553735,-612.876398,666.185348,9474.636058
3856.554049,76.609550,296.082377,9104.533087
3856.554364,-153.219100,-222.061783,9992.780217
3856.554679,-842.705048,370.102971,9474.636058
3856.554994,-1378.971896,592.164754,9696.697840
3856.555308,-383.047749,148.041188,9844.739029
3856.555623,0.000000,-518.144159,9696.697840
3856.555938,-229.828649,-296.082377,9696.697840
3856.556253,-995.924147,222.061783,10510.924376
3856.556567,-1378.971896,592.164754,10140.821405
3856.556882,-459.657299,962.267725,9696.697840
3856.557197,306.438199,888.247130,9178.553681
3856.557512,995.924147,518.144159,9474.636058
3856.557827,689.485948,1406.391290,8438.347739
3856.558141,-153.219100,962.267725,9474.636058
3856.558456,229.828649,444.123565,10214.842000
3856.558771,383.047749,-74.020594,10732.986159
3856.559086,0.000000,296.082377,9844.739029
3856.559400,-383.047749,-74.020594,10732.986159
3856.559715,-1532.190996,814.226536,10214.842000
3856.560030,-689.485948,-1554.432478,11103.089130
3856.560345,459.657299,-518.144159,10584.944971
3856.560659,766.095498,-0.000000,10510.924376
3856.560974,0.000000,518.144159,9622.677246
3856.561289,-229.828649,370.102971,9030.512492
3856.561604,1149.143247,-370.102971,9474.636058
3856.561919,2221.676944,-1110.308913,9548.656652
3856.562233,1762.019645,-518.144159,8956.491898
3856.562548,1225.752797,296.082377,8882.471304
3856.562863,536.266849,814.226536,8882.471304
3856.563178,1225.752797,-0.000000,9770.718434
3856.563492,1532.190996,-222.061783,9622.677246
3856.563807,842.705048,-370.102971,9696.697840
3856.564122,612.876398,-0.000000,9622.677246
3856.564437,612.876398,-74.020594,9474.636058
3856.564751,383.047749,-592.164754,9474.636058
3856.565066,919.314598,-666.185348,10436.903782
3856.565381,459.657299,-444.123565,10140.821405
3856.565696,306.438199,592.164754,9326.594869
3856.566011,0.000000,592.164754,9548.656652
3856.566325,689.485948,518.144159,9104.533087
3856.566640,842.705048,-0.000000,9030.512492
3856.566955,383.047749,-0.000000,9252.574275
3856.567270,-229.828649,222.061783,9104.533087
3856.567585,-229.828649,-0.000000,8586.388927
3856.567900,0.000000,-592.164754,9178.553681
3856.568215,536.266849,-962.267725,9326.594869
3856.568529,459.657299,-0.000000,8660.409521
3856.568844,-689.485948,1480.411884,9326.594869
3856.569159,-766.095498,1628.453072,9030.512492
3856.569474,-229.828649,296.082377,9474.636058
3856.569789,306.438199,148.041188,9178.553681
3856.570104,-383.047749,-0.000000,9474.636058
3856.570419,-919.314598,-0.000000,9844.739029
3856.570734,-1302.362347,-0.000000,9992.780217
3856.571049,-536.266849,-296.082377,10214.842000
3856.571364,0.000000,-370.102971,10436.903782
3856.571679,-842.705048,-148.041188,10066.800811
3856.571993,-766.095498,962.267725,9474.636058
3856.572308,-995.924147,1332.370696,10066.800811
3856.572623,0.000000,592.164754,10362.883188
3856.572938,76.609550,370.102971,9326.594869
3856.573253,-459.657299,148.041188,9400.615463
3856.573568,-536.266849,222.061783,9326.594869
3856.573883,-459.657299,-74.020594,9548.656652
3856.574198,306.438199,-0.000000,10362.883188
3856.574513,76.609550,-0.000000,9844.739029
3856.574828,-536.266849,-74.020594,10362.883188
3856.575142,-1455.581446,370.102971,10955.047942
3856.575457,-766.095498,518.144159,10214.842000
3856.575772,383.047749,-444.123565,10066.800811
3856.576087,383.047749,-0.000000,10436.903782
3856.576402,-306.438199,444.123565,10732.986159
3856.576717,-383.047749,666.185348,9474.636058
3856.577032,0.000000,-0.000000,10362.883188
3856.577347,1225.752797,-0.000000,10066.800811
3856.577662,1455.581446,-148.041188,10436.903782
3856.577977,1149.143247,962.267725,9844.739029
3856.578292,229.828649,1554.432478,8660.409521
3856.578606,306.438199,592.164754,9992.780217
3856.578921,1225.752797,-74.020594,9770.718434
3856.579236,1225.752797,-592.164754,9474.636058
3856.579551,995.924147,-148.041188,8734.430116
3856.579866,306.438199,222.061783,8438.347739
3856.580181,842.705048,-148.041188,8660.409521
3856.580496,1378.971896,-814.226536,8734.430116
3856.580811,689.485948,-740.205942,8734.430116
3856.581126,383.047749,-370.102971,9104.533087
3856.581441,76.609550,-666.185348,9030.512492
3856.581755,919.314598,-222.061783,9474.636058
3856.582070,1455.581446,-0.000000,9178.553681
3856.582385,995.924147,518.144159,9104.533087
3856.582700,0.000000,1480.411884,8808.450710
3856.583015,0.000000,888.247130,9030.512492
3856.583330,536.266849,-148.041188,8512.368333
3856.583645,1532.190996,-740.205942,9696.697840
3856.583960,612.876398,444.123565,9030.512492
3856.584275,-612.876398,-296.082377,8808.450710
3856.584590,-612.876398,-296.082377,9178.553681
3856.584905,-306.438199,-370.102971,8734.430116
3856.585219,306.438199,-962.267725,9474.636058
3856.585534,306.438199,-518.144159,9548.656652
3856.585849,536.266849,740.205942,9326.594869
3856.586164,-383.047749,962.267725,9030.512492
3856.586479,-612.876398,222.061783,9252.574275
3856.586794,612.876398,-148.041188,9474.636058
3856.587109,306.438199,-370.102971,10362.883188
3856.587424,0.000000,740.205942,9770.718434
3856.587739,-536.266849,962.267725,9918.759623
3856.588054,-383.047749,740.205942,10436.903782
3856.588368,306.438199,814.226536,10362.883188
3856.588683,-536.266849,1036.288319,10214.842000
3856.588998,-919.314598,370.102971,10510.924376
3856.589313,-995.924147,814.226536,10436.903782
3856.589628,0.000000,74.020594,10066.800811
3856.589943,0.000000,-0.000000,10288.862594
3856.590258,-383.047749,518.144159,10066.800811
3856.590573,-995.924147,444.123565,10288.862594
3856.590888,-919.314598,370.102971,10362.883188
3856.591203,0.000000,592.164754,9770.718434
3856.591518,153.219100,-0.000000,9622.677246
3856.591832,0.000000,-222.061783,10362.883188
3856.592147,-689.485948,518.144159,10510.924376
3856.592462,-842.705048,666.185348,9844.739029
3856.592777,76.609550,222.061783,10066.800811
3856.593092,1072.533697,-296.082377,10288.862594
3856.593407,919.314598,518.144159,9622.677246
3856.593722,0.000000,962.267725,9622.677246
3856.594037,-229.828649,1036.288319,9622.677246
3856.594352,612.876398,296.082377,10288.862594
3856.594667,689.485948,518.144159,9992.780217
3856.594981,459.657299,-0.000000,9252.574275
3856.595296,0.000000,222.061783,9400.615463
3856.595611,0.000000,-444.123565,9622.677246
3856.595926,689.485948,-444.123565,9178.553681
3856.596241,1072.533697,-444.123565,9178.553681
3856.596556,229.828649,296.082377,8882.471304
3856.596871,-383.047749,370.102971,8882.471304
3856.597186,383.047749,148.041188,8142.265362
3856.597501,842.705048,-444.123565,8882.471304
3856.597816,919.314598,-666.185348,8882.471304
3856.598130,229.828649,-814.226536,9252.574275
3856.598445,-383.047749,-0.000000,9696.697840
3856.598760,-612.876398,370.102971,9548.656652
3856.599075,612.876398,-0.000000,9548.656652
3856.599390,536.266849,-444.123565,9770.718434
3856.599705,153.219100,-0.000000,9474.636058
3856.600020,-459.657299,296.082377,9696.697840
3856.600335,-306.438199,-74.020594,9548.656652
3856.600650,842.705048,-518.144159,9770.718434
3856.600965,383.047749,-444.123565,9622.677246
3856.601280,766.095498,-370.102971,9400.615463
3856.601594,0.000000,-0.000000,8734.430116
3856.601909,153.219100,-0.000000,9474.636058
3856.602224,612.876398,-296.082377,9548.656652
3856.602539,612.876398,-148.041188,9104.533087
3856.602854,306.438199,-370.102971,9178.553681
3856.603169,-306.438199,296.082377,9400.615463
3856.603484,76.609550,-148.041188,9548.656652
3856.603799,842.705048,-370.102971,9622.677246
3856.604114,153.219100,-370.102971,10436.903782
3856.604429,153.219100,888.247130,9548.656652
3856.604743,-306.438199,1036.288319,9326.594869
3856.605058,153.219100,444.123565,9844.739029
3856.605373,612.876398,-148.041188,10881.027347
3856.605688,306.438199,-0.000000,10066.800811
3856.606003,-383.047749,296.082377,9696.697840
3856.606318,-995.924147,370.102971,9918.759623
3856.606633,-842.705048,-74.020594,10362.883188
3856.606948,0.000000,-814.226536,10510.924376
3856.607263,-306.438199,-296.082377,10362.883188
3856.607578,-919.314598,222.061783,9400.615463
3856.607893,-1149.143247,296.082377,9770.718434
3856.608207,-612.876398,370.102971,10288.862594
3856.608522,459.657299,370.102971,9474.636058
3856.608837,766.095498,222.061783,9474.636058
3856.609152,0.000000,740.205942,9252.574275
3856.609467,229.828649,518.144159,9400.615463
3856.609782,536.266849,962.267725,9030.512492
3856.610097,306.438199,444.123565,9548.656652
3856.610412,0.000000,666.185348,9622.677246
3856.610727,-536.266849,74.020594,9474.636058
3856.611042,-612.876398,296.082377,9622.677246
3856.611356,0.000000,-444.123565,10066.800811
3856.611671,0.000000,-962.267725,9770.718434
3856.611986,-306.438199,-296.082377,9918.759623
3856.612301,-612.876398,740.205942,9696.697840
3856.612616,-306.438199,814.226536,9030.512492
3856.612931,612.876398,-148.041188,9474.636058
3856.613246,1608.800546,-148.041188,9326.594869
3856.613561,766.095498,-0.000000,8808.450710
3856.613876,76.609550,740.205942,8882.471304
3856.614191,-153.219100,370.102971,9474.636058
3856.614506,383.047749,-74.020594,9770.718434
3856.614820,919.314598,-888.247130,9844.739029
3856.615135,383.047749,-592.164754,9474.636058
3856.615450,0.000000,-370.102971,9326.594869
3856.615765,-229.828649,518.144159,8956.491898
3856.616080,612.876398,-0.000000,9400.615463
3856.616395,612.876398,-444.123565,9474.636058
3856.616710,536.266849,-370.102971,9622.677246
3856.617025,229.828649,-0.000000,9252.574275
3856.617340,76.609550,444.123565,9400.615463
3856.617655,1149.143247,-148.041188,10140.821405
3856.617969,1455.581446,148.041188,9992.780217
3856.618284,536.266849,666.185348,9252.574275
3856.618599,0.000000,962.267725,9474.636058
3856.618914,229.828649,1036.288319,9030.512492
3856.619229,1302.362347,148.041188,9770.718434
3856.619544,1532.190996,-296.082377,9474.636058
3856.619859,383.047749,740.205942,9474.636058
3856.620174,0.000000,592.164754,9400.615463
3856.620489,-306.438199,370.102971,9548.656652
3856.620804,153.219100,-74.020594,10288.862594
3856.621119,919.314598,-148.041188,10362.883188
3856.621433,0.000000,-0.000000,9844.739029
3856.621748,-612.876398,814.226536,9548.656652
3856.622063,-459.657299,1554.432478,9696.697840
3856.622378,536.266849,592.164754,9844.739029
3856.622693,612.876398,-0.000000,9326.594869
3856.623008,0.000000,-74.020594,9400.615463
3856.623323,-229.828649,148.041188,9696.697840
3856.623638,-536.266849,-0.000000,10288.862594
3856.623953,-306.438199,222.061783,9622.677246
3856.624268,-459.657299,-370.102971,10288.862594
3856.624582,-995.924147,-148.041188,9992.780217
3856.624897,-995.924147,74.020594,10140.821405
3856.625212,-995.924147,740.205942,10214.842000
3856.625527,-229.828649,-296.082377,9844.739029
3856.625842,-383.047749,-370.102971,9770.718434
3856.626157,-229.828649,-74.020594,9918.759623
3856.626472,-766.095498,148.041188,8808.450710
3856.626787,-153.219100,-0.000000,9622.677246
3856.627102,919.314598,-518.144159,10214.842000
3856.627417,842.705048,-444.123565,8586.388927
3856.627732,76.609550,-74.020594,9178.553681
3856.628046,0.000000,666.185348,8660.409521
3856.628361,0.000000,-222.061783,9474.636058
3856.628676,1149.143247,-962.267725,9474.636058
3856.628991,689.485948,-814.226536,9326.594869
3856.629306,0.000000,-148.041188,9104.533087
3856.629621,-229.828649,592.164754,9178.553681
3856.629936,-153.219100,296.082377,9622.677246
3856.630251,229.828649,-148.041188,9548.656652
3856.630566,536.266849,-148.041188,9622.677246
3856.630881,-153.219100,222.061783,8586.388927
3856.631195,-229.828649,-0.000000,9548.656652
3856.631510,0.000000,222.061783,9696.697840
3856.631825,612.876398,370.102971,9622.677246
3856.632140,536.266849,370.102971,9326.594869
3856.632455,383.047749,444.123565,8882.471304
3856.632770,76.609550,518.144159,9030.512492
3856.633085,842.705048,-296.082377,9474.636058
3856.633400,919.314598,-74.020594,9474.636058
3856.633715,1072.533697,-370.102971,10510.924376
3856.634030,229.828649,592.164754,9104.533087
3856.634344,0.000000,592.164754,9326.594869
3856.634659,1455.581446,296.082377,9696.697840
3856.634974,1225.752797,-0.000000,9104.533087
3856.635289,842.705048,592.164754,9400.615463
3856.635604,229.828649,444.123565,9326.594869
3856.635919,-229.828649,518.144159,9474.636058
3856.636234,0.000000,-592.164754,10288.862594
3856.636549,842.705048,-888.247130,10140.821405
3856.636864,0.000000,-592.164754,10510.924376
3856.637179,-689.485948,370.102971,10140.821405
3856.637494,-1149.143247,592.164754,11103.089130
3856.637808,-842.705048,296.082377,10288.862594
3856.638123,0.000000,296.082377,10066.800811
3856.638438,689.485948,740.205942,9178.553681
3856.638753,229.828649,1332.370696,8438.347739
3856.639068,383.047749,814.226536,9104.533087
3856.639383,536.266849,148.041188,9474.636058
3856.639698,842.705048,-296.082377,10066.800811
3856.640013,383.047749,-0.000000,9844.739029
3856.640328,-612.876398,666.185348,9844.739029
3856.640643,-1149.143247,740.205942,10362.883188
3856.640957,-1225.752797,-0.000000,10288.862594
3856.641272,-842.705048,-814.226536,10584.944971
3856.641587,-1302.362347,-888.247130,10881.027347
3856.641902,-1378.971896,-0.000000,9770.718434
3856.642217,-995.924147,-0.000000,9474.636058
3856.642532,-229.828649,-370.102971,9548.656652
3856.642847,842.705048,-74.020594,9622.677246
3856.643162,766.095498,222.061783,9030.512492
3856.643477,383.047749,1332.370696,8956.491898
3856.643792,0.000000,2294.638420,8734.430116
3856.644107,995.924147,592.164754,9030.512492
3856.644421,842.705048,-74.020594,8734.430116
3856.644736,0.000000,-0.000000,8734.430116
3856.645051,-459.657299,-0.000000,8956.491898
3856.645366,-306.438199,-222.061783,9474.636058
3856.645681,-306.438199,-740.205942,9844.739029
3856.645996,-306.438199,-740.205942,9622.677246
3856.646311,-459.657299,-74.020594,9474.636058
3856.646626,-1149.143247,666.185348,9548.656652
3856.646941,-1149.143247,444.123565,9770.718434
3856.647256,383.047749,444.123565,9400.615463
3856.647570,919.314598,222.061783,9400.615463
3856.647885,842.705048,518.144159,9104.533087
3856.648200,689.485948,666.185348,9104.533087
3856.648515,612.876398,592.164754,9622.677246
3856.648830,1149.143247,444.123565,10140.821405
3856.649145,1455.581446,-0.000000,10140.821405
3856.649460,536.266849,-0.000000,9844.739029
3856.649775,0.000000,592.164754,9622.677246
3856.650090,612.876398,-0.000000,10288.862594
3856.650405,459.657299,-666.185348,10510.924376
3856.650720,689.485948,-888.247130,9622.677246
3856.651034,689.485948,-0.000000,9548.656652
3856.651349,306.438199,-0.000000,9400.615463
3856.651664,919.314598,-0.000000,9844.739029
3856.651979,1762.019645,-0.000000,9918.759623
3856.652294,1072.533697,-296.082377,9474.636058
3856.652609,459.657299,222.061783,10066.800811
3856.652924,153.219100,888.247130,9844.739029
3856.653239,459.657299,-0.000000,10214.842000
3856.653554,1149.143247,-0.000000,10288.862594
3856.653869,1532.190996,-222.061783,9844.739029
3856.654183,383.047749,-74.020594,9548.656652
3856.654498,-306.438199,148.041188,8956.491898
3856.654813,0.000000,-74.020594,9696.697840
3856.655128,842.705048,-962.267725,9326.594869
3856.655443,-229.828649,-740.205942,9548.656652
3856.655758,-459.657299,-222.061783,8734.430116
3856.656073,-612.876398,-0.000000,9474.636058
3856.656388,-1225.752797,-0.000000,9474.636058
3856.656703,0.000000,370.102971,9770.718434
3856.657018,76.609550,-518.144159,8438.347739
3856.657333,-612.876398,-74.020594,9474.636058
3856.657647,-459.657299,1332.370696,9622.677246
3856.657962,0.000000,222.061783,8882.471304
3856.658277,383.047749,-222.061783,9030.512492
3856.658592,383.047749,-0.000000,9696.697840
3856.658907,-383.047749,592.164754,7698.141797
3856.659222,-766.095498,1110.308913,9252.574275
3856.659537,0.000000,592.164754,9844.739029
3856.659852,0.000000,370.102971,9548.656652
3856.660167,-153.219100,444.123565,9474.636058
3856.660482,-459.657299,-0.000000,9178.553681
3856.660796,-612.876398,370.102971,8956.491898
3856.661111,-229.828649,-0.000000,9844.739029
3856.661426,76.609550,370.102971,9326.594869
3856.661741,0.000000,-0.000000,9104.533087
3856.662056,-229.828649,888.247130,9104.533087
3856.662371,0.000000,814.226536,9696.697840
3856.662686,0.000000,888.247130,9696.697840
3856.663001,76.609550,-0.000000,9918.759623
3856.663316,0.000000,296.082377,9770.718434
3856.663631,-459.657299,888.247130,9548.656652
3856.663946,-612.876398,888.247130,10066.800811
3856.664260,229.828649,222.061783,10658.965565
3856.664575,1072.533697,-0.000000,10140.821405
3856.664890,766.095498,148.041188,10214.842000
3856.665205,76.609550,740.205942,9770.718434
3856.665520,0.000000,1776.494261,10214.842000
3856.665835,536.266849,1036.288319,10066.800811
3856.666150,919.314598,-0.000000,10362.883188
3856.666465,842.705048,-0.000000,9474.636058
3856.666780,229.828649,370.102971,9622.677246
3856.667095,0.000000,296.082377,10362.883188
3856.667409,689.485948,-296.082377,10066.800811
3856.667724,689.485948,-444.123565,10140.821405
3856.668039,842.705048,-0.000000,9918.759623
3856.668354,229.828649,888.247130,9696.697840
3856.668669,612.876398,740.205942,9548.656652
3856.668984,1225.752797,-0.000000,9696.697840
3856.669299,1302.362347,-0.000000,9622.677246
3856.669614,995.924147,-0.000000,9474.636058
3856.669929,459.657299,814.226536,9474.636058
3856.670244,459.657299,296.082377,9622.677246
3856.670559,1378.971896,-296.082377,9770.718434
3856.670874,1532.190996,-0.000000,9326.594869
3856.671189,459.657299,-0.000000,9030.512492
3856.671504,0.000000,370.102971,9474.636058
3856.671819,-229.828649,-74.020594,9918.759623
3856.672134,153.219100,-518.144159,9992.780217
3856.672449,459.657299,-592.164754,9474.636058
3856.672764,-383.047749,-740.205942,9696.697840
3856.673079,-536.266849,-518.144159,9474.636058
3856.673394,-383.047749,-518.144159,9474.636058
3856.673709,0.000000,-222.061783,9252.574275
3856.674024,383.047749,-0.000000,9030.512492
3856.674339,153.219100,962.267725,8586.388927
3856.674654,383.047749,1258.350101,8808.450710
3856.674969,153.219100,740.205942,8586.388927
3856.675284,1225.752797,-74.020594,8364.327145
3856.675599,306.438199,-666.185348,9474.636058
3856.675914,-995.924147,-518.144159,9622.677246
3856.676229,-1685.410096,-74.020594,10140.821405
3856.676544,-1608.800546,-962.267725,10214.842000
3856.676859,-536.266849,-962.267725,9696.697840
3856.677174,-995.924147,-1480.411884,9992.780217
3856.677489,-1608.800546,-666.185348,10214.842000
3856.677804,-2068.457845,-148.041188,9474.636058
3856.678119,-1838.629195,-962.267725,9400.615463
3856.678434,-383.047749,-370.102971,9770.718434
3856.678749,0.000000,-148.041188,9252.574275
3856.679064,0.000000,296.082377,9326.594869
3856.679379,0.000000,592.164754,9030.512492
3856.679694,383.047749,592.164754,9030.512492
3856.680009,1149.143247,592.164754,8956.491898
3856.680324,536.266849,814.226536,8586.388927
3856.680639,0.000000,888.247130,8438.347739
3856.680954,-383.047749,518.144159,9696.697840
3856.681269,0.000000,-0.000000,9252.574275
3856.681584,612.876398,-666.185348,10066.800811
3856.681899,0.000000,-296.082377,10140.821405
3856.682214,-306.438199,-0.000000,10288.862594
3856.682529,-612.876398,444.123565,9548.656652
3856.682844,459.657299,444.123565,10510.924376
3856.683159,1302.362347,1036.288319,9770.718434
3856.683474,1149.143247,888.247130,9622.677246
3856.683789,1225.752797,1554.432478,9918.759623
3856.684104,536.266849,1554.432478,9696.697840
3856.684419,995.924147,1184.329507,9474.636058
3856.684734,1455.581446,518.144159,9844.739029
3856.685049,766.095498,666.185348,10066.800811
3856.685364,383.047749,-74.020594,10955.047942
3856.685679,153.219100,-0.000000,9844.739029
3856.685994,612.876398,-0.000000,9918.759623
3856.686309,536.266849,-74.020594,10140.821405
3856.686624,153.219100,-0.000000,9918.759623
3856.686939,0.000000,-0.000000,9696.697840
3856.687254,-306.438199,-0.000000,9992.780217
3856.687569,842.705048,-74.020594,9326.594869
3856.687884,1149.143247,-0.000000,9474.636058
3856.688199,1072.533697,-222.061783,9548.656652
3856.688514,383.047749,1036.288319,10140.821405
3856.688829,76.609550,370.102971,9400.615463
3856.689144,842.705048,222.061783,9696.697840
3856.689459,1149.143247,-0.000000,9548.656652
3856.689774,536.266849,-0.000000,9844.739029
3856.690089,0.000000,740.205942,9474.636058
3856.690403,-153.219100,296.082377,9326.594869
3856.690718,0.000000,-740.205942,9844.739029
3856.691033,0.000000,-1184.329507,9622.677246
3856.691348,-306.438199,-518.144159,9474.636058
3856.691663,-842.705048,-148.041188,9400.615463
3856.691978,-612.876398,296.082377,9474.636058
3856.692293,-383.047749,-148.041188,9696.697840
3856.692608,306.438199,-148.041188,9918.759623
3856.692923,229.828649,370.102971,9104.533087
3856.693238,-383.047749,1110.308913,8882.471304
3856.693553,76.609550,962.267725,8882.471304
3856.693868,995.924147,1184.329507,8882.471304
3856.694183,612.876398,592.164754,8808.450710
3856.694498,0.000000,592.164754,9178.553681
3856.694813,-536.266849,222.061783,9178.553681
3856.695128,-1302.362347,-0.000000,9400.615463
3856.695443,-229.828649,-74.020594,10807.006753
3856.695758,-766.095498,-0.000000,10436.903782
3856.696073,-1302.362347,444.123565,10288.862594
3856.696388,-1455.581446,814.226536,9696.697840
3856.696703,-919.314598,444.123565,9400.615463
3856.697018,229.828649,370.102971,9918.759623
3856.697333,459.657299,-74.020594,9178.553681
3856.697648,76.609550,592.164754,9326.594869
3856.697963,-919.314598,814.226536,9770.718434
3856.698278,0.000000,370.102971,9178.553681
3856.698593,383.047749,-222.061783,10436.903782
3856.698908,229.828649,-74.020594,9770.718434
3856.699223,0.000000,-666.185348,10362.883188
3856.699538,-766.095498,-0.000000,10436.903782
3856.699853,-766.095498,-296.082377,10288.862594
3856.700168,76.609550,-666.185348,9918.759623
3856.700483,612.876398,-888.247130,10140.821405
3856.700798,383.047749,-74.020594,10066.800811
3856.701113,459.657299,-0.000000,10214.842000
3856.701428,306.438199,370.102971,8956.491898
3856.701743,1838.629195,-1406.391290,9992.780217
3856.702058,1455.581446,-222.061783,9770.718434
3856.702373,229.828649,-0.000000,9992.780217
3856.702688,306.438199,222.061783,9696.697840
3856.703003,612.876398,-592.164754,9622.677246
3856.703318,1608.800546,-444.123565,9918.759623
3856.703633,1072.533697,-740.205942,9400.615463
3856.703948,76.609550,-0.000000,8734.430116
3856.704263,0.000000,-0.000000,9622.677246
3856.704578,1072.533697,-296.082377,9992.780217
3856.704893,612.876398,-296.082377,9770.718434
3856.705208,536.266849,-74.020594,9400.615463
3856.705523,229.828649,-0.000000,8956.491898
3856.705838,-306.438199,740.205942,9178.553681
3856.706153,459.657299,296.082377,9326.594869
3856.706468,383.047749,296.082377,9030.512492
3856.706783,153.219100,-148.041188,9770.718434
3856.707098,0.000000,296.082377,9474.636058
3856.707413,-459.657299,222.061783,8586.388927
3856.707728,76.609550,-0.000000,9400.615463
3856.708043,-306.438199,-74.020594,9696.697840
3856.708358,-306.438199,-0.000000,9400.615463
3856.708673,-842.705048,666.185348,9104.533087
3856.708988,0.000000,370.102971,8660.409521
3856.709303,0.000000,370.102971,8216.285956
3856.709618,459.657299,-74.020594,8660.409521
3856.709933,76.609550,518.144159,8734.430116
3856.710248,-229.828649,814.226536,8438.347739
3856.710563,-766.095498,1036.288319,9252.574275
3856.710878,-459.657299,370.102971,9770.718434
3856.711193,0.000000,1036.288319,10066.800811
3856.711508,-689.485948,740.205942,10510.924376
3856.711823,-1225.752797,1258.350101,10881.027347
3856.712138,-1532.190996,1184.329507,11325.150913
3856.712453,-995.924147,444.123565,11029.068536
3856.712768,-612.876398,-0.000000,10140.821405
3856.713083,-766.095498,-0.000000,11177.109724
3856.713398,-612.876398,-0.000000,9770.718434
3856.713713,-689.485948,222.061783,9918.759623
3856.714028,0.000000,-0.000000,10066.800811
3856.714342,1072.533697,-74.020594,10140.821405
3856.714657,536.266849,148.041188,9696.697840
3856.714972,153.219100,444.123565,9474.636058
3856.715287,536.266849,370.102971,9844.739029
3856.715602,1302.362347,-0.000000,9474.636058
3856.715917,1608.800546,518.144159,8956.491898
3856.716232,689.485948,666.185348,9770.718434
3856.716547,0.000000,740.205942,9548.656652
3856.716862,153.219100,-0.000000,9770.718434
3856.717177,766.095498,-444.123565,10658.965565
3856.717492,306.438199,-592.164754,10584.944971
3856.717807,0.000000,-0.000000,10436.903782
3856.718122,-153.219100,666.185348,10066.800811
3856.718437,229.828649,666.185348,9918.759623
3856.718752,995.924147,888.247130,10066.800811
3856.719067,1532.190996,222.061783,9178.553681
3856.719382,1532.190996,666.185348,8734.430116
3856.719697,1149.143247,1258.350101,8438.347739
3856.720012,1455.581446,-74.020594,8364.327145
3856.720327,2068.457845,-592.164754,8660.409521
3856.720642,1608.800546,-814.226536,8808.450710
3856.720957,766.095498,-740.205942,9326.594869
3856.721272,0.000000,-222.061783,8734.430116
3856.721587,0.000000,222.061783,8734.430116
3856.721902,689.485948,-740.205942,9548.656652
3856.722217,995.924147,-962.267725,9030.512492
3856.722532,536.266849,-222.061783,8586.388927
3856.722847,536.266849,-444.123565,9252.574275
3856.723162,0.000000,-740.205942,9844.739029
3856.723477,229.828649,-148.041188,9474.636058
3856.723792,229.828649,-0.000000,9770.718434
3856.724107,76.609550,296.082377,9474.636058
3856.724422,0.000000,444.123565,9474.636058
3856.724737,229.828649,296.082377,10066.800811
3856.725052,766.095498,-0.000000,10436.903782
3856.725367,383.047749,-0.000000,9548.656652
3856.725682,-536.266849,-0.000000,9326.594869
3856.725997,-306.438199,-296.082377,9400.615463
3856.726312,-536.266849,-296.082377,9844.739029
3856.726627,76.609550,-518.144159,9770.718434
3856.726942,-229.828649,-888.247130,9548.656652
3856.727257,-689.485948,-0.000000,9992.780217
3856.727572,-766.095498,370.102971,9844.739029
3856.727887,-995.924147,296.082377,9918.759623
3856.728202,-306.438199,-0.000000,10362.883188
3856.728517,-536.266849,-74.020594,9844.739029
3856.728832,-459.657299,-0.000000,9992.780217
3856.729147,-842.705048,1258.350101,10436.903782
3856.729462,-612.876398,1258.350101,10362.883188
3856.729777,-612.876398,962.267725,9844.739029
3856.730092,-536.266849,222.061783,10510.924376
3856.730407,-536.266849,518.144159,10214.842000
3856.730722,-995.924147,444.123565,10140.821405
3856.731037,-383.047749,222.061783,10214.842000
3856.731352,-229.828649,-370.102971,10362.883188
3856.731667,-536.266849,444.123565,9622.677246
3856.731982,-306.438199,518.144159,9104.533087
3856.732297,153.219100,740.205942,8808.450710
3856.732612,842.705048,222.061783,9474.636058
3856.732927,1378.971896,74.020594,8956.491898
3856.733242,383.047749,-0.000000,9030.512492
3856.733557,0.000000,-0.000000,9030.512492
3856.733872,0.000000,-370.102971,10362.883188
3856.734187,229.828649,-148.041188,9474.636058
3856.734502,919.314598,-296.082377,9252.574275
3856.734817,536.266849,-0.000000,9696.697840
3856.735132,0.000000,-0.000000,9474.636058
3856.735447,229.828649,370.102971,8956.491898
3856.735762,689.485948,-74.020594,9474.636058
3856.736077,1532.190996,-148.041188,9326.594869
3856.736392,1378.971896,-296.082377,8956.491898
3856.736707,1302.362347,-0.000000,8882.471304
3856.737022,383.047749,-296.082377,9770.718434
3856.737337,689.485948,-74.020594,9844.739029
3856.737652,919.314598,370.102971,9252.574275
3856.737967,1072.533697,-0.000000,9474.636058
3856.738281,1149.143247,592.164754,9178.553681
3856.738596,1149.143247,222.061783,8808.450710
3856.738911,1072.533697,-0.000000,9326.594869
3856.739226,689.485948,-222.061783,9474.636058
3856.739541,306.438199,222.061783,9474.636058
3856.739856,-229.828649,-148.041188,10140.821405
3856.740171,-383.047749,888.247130,9770.718434
3856.740486,153.219100,222.061783,9918.759623
3856.740801,612.876398,296.082377,9474.636058
3856.741116,0.000000,296.082377,9918.759623
3856.741431,76.609550,888.247130,9696.697840
3856.741746,0.000000,666.185348,9474.636058
3856.742061,153.219100,592.164754,9548.656652
3856.742376,459.657299,518.144159,9770.718434
3856.742691,0.000000,666.185348,9474.636058
3856.743006,-459.657299,370.102971,9178.553681
3856.743321,-383.047749,962.267725,9992.780217
3856.743636,0.000000,148.041188,10288.862594
3856.743951,-1149.143247,1036.288319,8734.430116
3856.744266,-536.266849,-1110.308913,11621.233289
3856.744581,-383.047749,1406.391290,10288.862594
3856.744896,-2145.067394,-444.123565,9696.697840
3856.745211,0.000000,-518.144159,10732.986159
3856.745526,0.000000,-296.082377,10436.903782
3856.745841,-229.828649,666.185348,9770.718434
3856.746156,-766.095498,370.102971,9844.739029
3856.746471,-229.828649,592.164754,10140.821405
3856.746786,0.000000,-0.000000,10362.883188
3856.747101,153.219100,-444.123565,10288.862594
3856.747416,-153.219100,296.082377,9548.656652
3856.747731,-229.828649,222.061783,9548.656652
3856.748046,-306.438199,-740.205942,10436.903782
3856.748361,0.000000,-148.041188,9844.739029
3856.748676,0.000000,-1110.308913,9992.780217
3856.748991,0.000000,-222.061783,9992.780217
3856.749306,-995.924147,-222.061783,9252.574275
3856.749621,0.000000,-296.082377,9622.677246
3856.749936,383.047749,-814.226536,9548.656652
3856.750251,153.219100,-148.041188,9548.656652
3856.750566,0.000000,-370.102971,8882.471304
3856.750881,-229.828649,-74.020594,8882.471304
3856.751196,612.876398,-888.247130,9326.594869
3856.751511,1072.533697,-0.000000,9474.636058
3856.751826,919.314598,-74.020594,8364.327145
3856.752141,536.266849,370.102971,8512.368333
3856.752456,0.000000,-222.061783,9104.533087
3856.752771,76.609550,-296.082377,8512.368333
3856.753086,153.219100,-1110.308913,9252.574275
3856.753401,0.000000,-814.226536,9548.656652
3856.753716,-383.047749,-0.000000,9548.656652
3856.754031,-383.047749,814.226536,9104.533087
3856.754346,229.828649,370.102971,9252.574275
3856.754661,1072.533697,148.041188,9252.574275
3856.754976,919.314598,222.061783,9030.512492
3856.755291,459.657299,814.226536,8512.368333
3856.755606,612.876398,222.061783,9030.512492
3856.755921,919.314598,518.144159,9030.512492
3856.756236,1378.971896,444.123565,8586.388927
3856.756551,689.485948,-0.000000,9326.594869
3856.756866,153.219100,740.205942,9474.636058
3856.757181,0.000000,222.061783,9548.656652
3856.757496,0.000000,296.082377,10140.821405
3856.757811,76.609550,-74.020594,10732.986159
3856.758126,0.000000,-0.000000,9696.697840
3856.758441,0.000000,518.144159,9770.718434
3856.758756,-383.047749,444.123565,10362.883188
3856.759071,383.047749,444.123565,10658.965565
3856.759386,689.485948,740.205942,10362.883188
3856.759701,76.609550,1554.432478,9992.780217
3856.760016,919.314598,1850.514855,10288.862594
3856.760331,229.828649,1036.288319,9992.780217
3856.760646,383.047749,444.123565,10066.800811
3856.760961,689.485948,-74.020594,10881.027347
3856.761276,153.219100,370.102971,9622.677246
3856.761591,-766.095498,592.164754,9992.780217
3856.761906,-919.314598,1036.288319,10362.883188
3856.762220,-536.266849,296.082377,9992.780217
3856.762535,0.000000,-518.144159,9696.697840
3856.762850,0.000000,-740.205942,10288.862594
3856.763165,-306.438199,-518.144159,9844.739029
3856.763480,-612.876398,-0.000000,9622.677246
3856.763795,-76.609550,370.102971,10362.883188
3856.764110,459.657299,444.123565,9770.718434
3856.764425,0.000000,518.144159,9030.512492
3856.764740,612.876398,1036.288319,9326.594869
3856.765055,0.000000,1110.308913,9030.512492
3856.765370,919.314598,148.041188,9844.739029
3856.765685,306.438199,-148.041188,8882.471304
3856.766000,-153.219100,-0.000000,9400.615463
3856.766315,-919.314598,222.061783,9918.759623
3856.766630,-842.705048,-518.144159,9992.780217
3856.766945,0.000000,-370.102971,9474.636058
3856.767260,0.000000,-740.205942,9622.677246
3856.767575,0.000000,-0.000000,8882.471304
3856.767890,-153.219100,666.185348,8734.430116
3856.768205,-153.219100,962.267725,8660.409521
3856.768520,842.705048,-296.082377,8586.388927
3856.768835,1225.752797,-296.082377,8068.244768
3856.769150,995.924147,-222.061783,8808.450710
3856.769465,229.828649,1184.329507,9178.553681
3856.769780,153.219100,592.164754,9252.574275
3856.770095,76.609550,-222.061783,9104.533087
3856.770410,-306.438199,-666.185348,9622.677246
3856.770724,-536.266849,-0.000000,9622.677246
3856.771039,-1302.362347,-370.102971,9696.697840
3856.771354,-1378.971896,-518.144159,9622.677246
3856.771669,-1302.362347,-1332.370696,9696.697840
3856.771984,-1455.581446,-1036.288319,9400.615463
3856.772299,-2145.067394,-1110.308913,10658.965565
3856.772614,-1915.238745,-814.226536,10362.883188
3856.772929,-1838.629195,-1110.308913,11029.068536
3856.773244,-1608.800546,-592.164754,10436.903782
3856.773559,-995.924147,-1184.329507,10658.965565
3856.773873,-842.705048,-148.041188,10732.986159
3856.774188,-1072.533697,296.082377,9474.636058
3856.774503,-1149.143247,-222.061783,9104.533087
3856.774818,-842.705048,-962.267725,9178.553681
3856.775133,-689.485948,-1258.350101,9104.533087
3856.775448,-842.705048,-1332.370696,9178.553681
3856.775763,-1532.190996,-1554.432478,9844.739029
3856.776078,-2145.067394,-2368.659014,10288.862594
3856.776393,-2374.896044,-2738.761985,10288.862594
3856.776708,-2145.067394,-2812.782580,10584.944971
3856.777022,-2604.724693,-2220.617826,11325.150913
3856.777337,-2757.943793,-1554.432478,10214.842000
3856.777652,-2681.334243,-1850.514855,9622.677246
3856.777967,-1762.019645,-1702.473667,9918.759623
3856.778282,-1225.752797,-962.267725,8660.409521
3856.778597,-1225.752797,-1480.411884,9252.574275
3856.778912,-995.924147,-1332.370696,9474.636058
3856.779227,-1608.800546,-1776.494261,9770.718434
3856.779542,-1532.190996,-1332.370696,9104.533087
3856.779857,-689.485948,-2368.659014,9400.615463
3856.780171,-1838.629195,-2516.700203,10584.944971
3856.780486,-2451.505594,-2516.700203,10881.027347
3856.780801,-2757.943793,-2960.823768,10807.006753
3856.781116,-2834.553343,-3034.844362,10288.862594
3856.781431,-2221.676944,-2368.659014,9326.594869
3856.781746,-1455.581446,-2220.617826,8882.471304
3856.782061,-689.485948,-1924.535449,7920.203579
3856.782376,-766.095498,-2442.679609,8068.244768
3856.782691,-919.314598,-2516.700203,7031.956449
3856.783006,-1532.190996,-2738.761985,7402.059420
3856.783321,-1532.190996,-1998.556043,7698.141797
3856.783635,-1302.362347,-3108.864956,8956.491898
3856.783950,-1762.019645,-2590.720797,9474.636058
3856.784265,-2451.505594,-2886.803174,10140.821405
3856.784580,-2834.553343,-3034.844362,10658.965565
3856.784895,-2987.772442,-2664.741391,10066.800811
3856.785210,-2604.724693,-2146.597232,9474.636058
3856.785525,-2068.457845,-2294.638420,9474.636058
3856.785840,-1991.848295,-1776.494261,9252.574275
3856.786155,-1685.410096,-2812.782580,9178.553681
3856.786470,-1378.971896,-2294.638420,8364.327145
3856.786784,-1762.019645,-2220.617826,8586.388927
3856.787099,-1378.971896,-1998.556043,8882.471304
3856.787414,-842.705048,-2664.741391,8956.491898
3856.787729,-1302.362347,-2664.741391,9770.718434
3856.788044,-1685.410096,-2664.741391,9844.739029
3856.788359,-2528.115143,-2516.700203,9844.739029
3856.788674,-2604.724693,-2738.761985,10288.862594
3856.788989,-2298.286494,-1998.556043,8956.491898
3856.789304,-1991.848295,-1554.432478,8438.347739
3856.789619,-1072.533697,-1702.473667,8142.265362
3856.789933,-1838.629195,-2220.617826,8956.491898
3856.790248,-1991.848295,-1998.556043,8956.491898
3856.790563,-1991.848295,-2368.659014,9696.697840
3856.790878,-2757.943793,-1628.453072,10214.842000
3856.791193,-2681.334243,-1332.370696,10732.986159
3856.791508,-2451.505594,-962.267725,11325.150913
3856.791823,-2451.505594,-1702.473667,11547.212695
3856.792138,-2451.505594,-2072.576638,12213.398043
3856.792453,-2834.553343,-888.247130,11325.150913
3856.792768,-2528.115143,-592.164754,10214.842000
3856.793082,-1915.238745,-0.000000,9474.636058
3856.793397,-1149.143247,-0.000000,8882.471304
3856.793712,-766.095498,-74.020594,7846.182985
3856.794027,-919.314598,-1258.350101,8364.327145
3856.794342,-1685.410096,-2294.638420,9326.594869
3856.794657,-2145.067394,-2368.659014,9992.780217
3856.794972,-2528.115143,-2072.576638,10732.986159
3856.795287,-2298.286494,-2294.638420,11547.212695
3856.795602,-2068.457845,-1776.494261,11325.150913
3856.795917,-2451.505594,-1406.391290,10362.883188
3856.796231,-1915.238745,-1480.411884,9992.780217
3856.796546,-1762.019645,-814.226536,9696.697840
3856.796861,-919.314598,-592.164754,8808.450710
3856.797176,-459.657299,-592.164754,7846.182985
3856.797491,0.000000,-1036.288319,8216.285956
3856.797806,-306.438199,-1332.370696,8882.471304
3856.798121,-995.924147,-1924.535449,9030.512492
3856.798436,-2068.457845,-2220.617826,9474.636058
3856.798751,-2528.115143,-2590.720797,9844.739029
3856.799066,-3064.381992,-2886.803174,10288.862594
3856.799380,-3217.601092,-3182.885551,10955.047942
3856.799695,-3600.648841,-3330.926739,11029.068536
3856.800010,-3524.039291,-3108.864956,11103.089130
3856.800325,-3294.210641,-2664.741391,10955.047942
3856.800640,-2451.505594,-2072.576638,10140.821405
3856.800955,-1762.019645,-888.247130,8660.409521
3856.801270,-766.095498,-666.185348,7476.080014
3856.801585,-229.828649,-592.164754,7105.977043
3856.801900,0.000000,-888.247130,7772.162391
3856.802215,-229.828649,-1776.494261,8512.368333
3856.802529,-1225.752797,-2442.679609,9030.512492
3856.802844,-1608.800546,-2738.761985,10140.821405
3856.803159,-2451.505594,-3034.844362,10584.944971
3856.803474,-2374.896044,-2516.700203,10732.986159
3856.803789,-2987.772442,-1628.453072,10288.862594
3856.804104,-2451.505594,-1628.453072,9400.615463
3856.804419,-2298.286494,-1258.350101,8364.327145
3856.804734,-1991.848295,-1480.411884,7624.121203
3856.805049,-1838.629195,-1850.514855,7550.100608
3856.805364,-2068.457845,-3182.885551,8216.285956
3856.805679,-1991.848295,-3775.050304,9104.533087
3856.805993,-2451.505594,-3552.988522,10214.842000
3856.806308,-2528.115143,-2516.700203,11621.233289
3856.806623,-2911.162892,-1776.494261,11769.274478
3856.806938,-2451.505594,-1258.350101,11251.130318
3856.807253,-1991.848295,-888.247130,10436.903782
3856.807568,-1608.800546,-962.267725,9400.615463
3856.807883,-1762.019645,-962.267725,8142.265362
3856.808198,-1072.533697,-1554.432478,7772.162391
3856.808513,-1608.800546,-2368.659014,7846.182985
3856.808828,-1455.581446,-2664.741391,8364.327145
3856.809142,-1685.410096,-3034.844362,9326.594869
3856.809457,-2145.067394,-3627.009116,10140.821405
3856.809772,-2221.676944,-3330.926739,11177.109724
3856.810087,-2451.505594,-2738.761985,11399.171507
3856.810402,-2298.286494,-2368.659014,11399.171507
3856.810717,-1915.238745,-1702.473667,10807.006753
3856.811032,-2145.067394,-1036.288319,9326.594869
3856.811347,-1532.190996,-740.205942,8290.306550
3856.811662,-842.705048,-888.247130,7402.059420
3856.811977,-842.705048,-740.205942,7254.018232
3856.812291,-1149.143247,-888.247130,7772.162391
3856.812606,-1685.410096,-1924.535449,8956.491898
3856.812921,-2451.505594,-3034.844362,10881.027347
3856.813236,-2987.772442,-2812.782580,11843.295072
3856.813551,-3447.429741,-3330.926739,12879.583391
3856.813866,-3677.258390,-3404.947333,12509.480420
3856.814181,-3753.867940,-2738.761985,12805.562797
3856.814496,-3447.429741,-1776.494261,11473.192101
3856.814811,-1991.848295,-962.267725,9400.615463
3856.815126,-459.657299,-0.000000,7624.121203
3856.815440,76.609550,666.185348,6217.729913
3856.815755,153.219100,666.185348,6069.688724
3856.816070,229.828649,-592.164754,6439.791695
3856.816385,-689.485948,-1776.494261,7550.100608
3856.816700,-1608.800546,-2886.803174,9326.594869
3856.817015,-2757.943793,-3256.906145,10807.006753
3856.817330,-3600.648841,-3701.029710,11991.336260
3856.817645,-3524.039291,-3923.091493,12287.418637
3856.817960,-3983.696590,-3034.844362,12435.459826
3856.818275,-3370.820191,-2072.576638,10881.027347
3856.818589,-3217.601092,-1110.308913,9548.656652
3856.818904,-2068.457845,-666.185348,8438.347739
3856.819219,-842.705048,-444.123565,7624.121203
3856.819534,229.828649,-296.082377,6883.915261
3856.819849,459.657299,-962.267725,7402.059420
3856.820164,383.047749,-1554.432478,8142.265362
3856.820479,-306.438199,-2072.576638,9104.533087
3856.820794,-536.266849,-1998.556043,9770.718434
3856.821109,-1455.581446,-2220.617826,10140.821405
3856.821424,-2068.457845,-2368.659014,9992.780217
3856.821738,-2834.553343,-2664.741391,9844.739029
3856.822053,-3524.039291,-3034.844362,9326.594869
3856.822368,-3677.258390,-2886.803174,8956.491898
3856.822683,-3447.429741,-2442.679609,9400.615463
3856.822998,-3370.820191,-2664.741391,8956.491898
3856.823313,-2987.772442,-2368.659014,9992.780217
3856.823628,-2528.115143,-2294.638420,10807.006753
3856.823943,-2221.676944,-1850.514855,11251.130318
3856.824258,-1685.410096,-1776.494261,11769.274478
3856.824573,-1072.533697,-740.205942,11769.274478
3856.824887,-766.095498,-518.144159,11473.192101
3856.825202,-766.095498,-0.000000,9696.697840
3856.825517,-459.657299,296.082377,8068.244768
3856.825832,-459.657299,296.082377,7772.162391
3856.826147,-1149.143247,-518.144159,7179.997637
3856.826462,-1532.190996,-1480.411884,7698.141797
3856.826777,-2374.896044,-2516.700203,8734.430116
3856.827092,-3140.991542,-3701.029710,10140.821405
3856.827407,-3677.258390,-4071.132681,10732.986159
3856.827722,-4136.915689,-4441.235652,11843.295072
3856.828037,-3677.258390,-3775.050304,12435.459826
3856.828351,-3064.381992,-3034.844362,11843.295072
3856.828666,-2374.896044,-1924.535449,10732.986159
3856.828981,-1225.752797,-518.144159,9696.697840
3856.829296,0.000000,518.144159,8364.327145
3856.829611,536.266849,962.267725,7476.080014
3856.829926,1302.362347,1036.288319,7179.997637
3856.830241,1072.533697,296.082377,7254.018232
3856.830556,76.609550,-814.226536,7846.182985
3856.830871,-689.485948,-1924.535449,9252.574275
3856.831186,-2145.067394,-3034.844362,10288.862594
3856.831500,-2911.162892,-3997.112087,11325.150913
3856.831815,-3600.648841,-4515.256246,11917.315666
3856.832130,-3830.477490,-4663.297435,11917.315666
3856.832445,-3524.039291,-3701.029710,11325.150913
3856.832760,-2911.162892,-3034.844362,9548.656652
3856.833075,-2451.505594,-1332.370696,8882.471304
3856.833390,-1225.752797,-740.205942,8586.388927
3856.833705,0.000000,-0.000000,7772.162391
3856.834020,153.219100,-0.000000,7402.059420
3856.834335,995.924147,-296.082377,8142.265362
3856.834649,306.438199,-370.102971,8882.471304
3856.834964,383.047749,-814.226536,10066.800811
3856.835279,-153.219100,-1554.432478,10658.965565
3856.835594,-536.266849,-1850.514855,11325.150913
3856.835909,-1072.533697,-1702.473667,10436.903782
3856.836224,-1455.581446,-1702.473667,9696.697840
3856.836539,-1302.362347,-1258.350101,9030.512492
3856.836854,-1225.752797,-1258.350101,8142.265362
3856.837169,-1608.800546,-1110.308913,7698.141797
3856.837484,-1608.800546,-1702.473667,7698.141797
3856.837798,-1762.019645,-1998.556043,8142.265362
3856.838113,-1991.848295,-2146.597232,8660.409521
3856.838428,-2145.067394,-2368.659014,9474.636058
3856.838743,-2451.505594,-2220.617826,10288.862594
3856.839058,-2451.505594,-1702.473667,10881.027347
3856.839373,-2451.505594,-1036.288319,10807.006753
3856.839688,-2374.896044,-444.123565,11029.068536
3856.840003,-2145.067394,-296.082377,10362.883188
3856.840318,-2374.896044,518.144159,9992.780217
3856.840633,-2374.896044,370.102971,9326.594869
3856.840947,-2451.505594,-74.020594,9548.656652
3856.841262,-2834.553343,-814.226536,9178.553681
3856.841577,-2987.772442,-1258.350101,9474.636058
3856.841892,-2757.943793,-1924.535449,10066.800811
3856.842207,-3753.867940,-2146.597232,10362.883188
3856.842522,-3753.867940,-2738.761985,10362.883188
3856.842837,-4060.306139,-3108.864956,10732.986159
3856.843152,-4366.744339,-2812.782580,11177.109724
3856.843467,-4290.134789,-3256.906145,10214.842000
3856.843782,-3983.696590,-2516.700203,10510.924376
3856.844096,-3524.039291,-2146.597232,10362.883188
3856.844411,-2834.553343,-1998.556043,10436.903782
3856.844726,-2528.115143,-1850.514855,10066.800811
3856.845041,-2145.067394,-1702.473667,10140.821405
3856.845356,-2374.896044,-1924.535449,10288.862594
3856.845671,-2221.676944,-2072.576638,9844.739029
3856.845986,-1455.581446,-2146.597232,10214.842000
3856.846301,-1762.019645,-2664.741391,10436.903782
3856.846616,-2528.115143,-2960.823768,10140.821405
3856.846931,-1991.848295,-3182.885551,9326.594869
3856.847245,-2068.457845,-3478.967927,9474.636058
3856.847560,-2374.896044,-3330.926739,9400.615463
3856.847875,-2681.334243,-3552.988522,9326.594869
3856.848190,-2681.334243,-3775.050304,9474.636058
3856.848505,-2604.724693,-4071.132681,8956.491898
3856.848820,-2834.553343,-3997.112087,8882.471304
3856.849135,-2221.676944,-4145.153275,8808.450710
3856.849450,-1532.190996,-3775.050304,9030.512492
3856.849765,-1378.971896,-3478.967927,8512.368333
3856.850080,-995.924147,-3108.864956,8142.265362
3856.850395,-689.485948,-2442.679609,7994.224174
3856.850709,-229.828649,-2294.638420,8142.265362
3856.851024,-612.876398,-2294.638420,7624.121203
3856.851339,-919.314598,-2294.638420,7994.224174
3856.851654,-1378.971896,-2738.761985,8734.430116
3856.851969,-1225.752797,-3182.885551,9400.615463
3856.852284,-1378.971896,-3552.988522,9696.697840
3856.852599,-2221.676944,-3923.091493,10066.800811
3856.852914,-2221.676944,-3182.885551,9696.697840
3856.853229,-1608.800546,-3034.844362,9474.636058
3856.853544,-689.485948,-2442.679609,8512.368333
3856.853858,-383.047749,-1850.514855,8216.285956
3856.854173,-383.047749,-1406.391290,6883.915261
3856.854488,229.828649,-1480.411884,6883.915261
3856.854803,306.438199,-1850.514855,6735.874072
3856.855118,-306.438199,-2146.597232,7254.018232
3856.855433,-995.924147,-2146.597232,7846.182985
3856.855748,-1915.238745,-2294.638420,9178.553681
3856.856063,-2834.553343,-2590.720797,10362.883188
3856.856378,-3600.648841,-2812.782580,11473.192101
3856.856693,-3524.039291,-2664.741391,12139.377449
3856.857007,-3907.087040,-2368.659014,11991.336260
3856.857322,-3753.867940,-1924.535449,11621.233289
3856.857637,-2911.162892,-1406.391290,10807.006753
3856.857952,-2374.896044,-592.164754,10362.883188
3856.858267,-1915.238745,296.082377,9474.636058
3856.858582,-842.705048,814.226536,8586.388927
3856.858897,-1149.143247,1258.350101,8956.491898
3856.859212,-1302.362347,814.226536,9252.574275
3856.859527,-2221.676944,-0.000000,9770.718434
3856.859842,-3064.381992,-1184.329507,11177.109724
3856.860156,-3753.867940,-1850.514855,12657.521608
3856.860471,-4290.134789,-2220.617826,13323.706956
3856.860786,-4443.353888,-1628.453072,12509.480420
3856.861101,-4213.525239,-1036.288319,12139.377449
3856.861416,-3753.867940,-296.082377,11695.253884
3856.861731,-2911.162892,740.205942,9548.656652
3856.862046,-1915.238745,1332.370696,8068.244768
3856.862361,-383.047749,1110.308913,7550.100608
3856.862676,-153.219100,592.164754,7402.059420
3856.862991,-689.485948,-740.205942,7920.203579
3856.863305,-1532.190996,-1554.432478,9622.677246
3856.863620,-2604.724693,-2146.597232,11325.150913
3856.863935,-2757.943793,-2442.679609,12657.521608
3856.864250,-2757.943793,-2146.597232,13323.706956
3856.864565,-2528.115143,-1406.391290,13101.645173
3856.864880,-2834.553343,-740.205942,11843.295072
3856.865195,-2145.067394,-74.020594,9992.780217
3856.865510,-1225.752797,-370.102971,8512.368333
3856.865825,0.000000,-666.185348,7698.141797
3856.866140,-229.828649,-1110.308913,6291.750507
3856.866454,-229.828649,-1480.411884,5921.647536
3856.866769,0.000000,-2738.761985,7254.018232
3856.867084,-229.828649,-3701.029710,9178.553681
3856.867399,-1072.533697,-3404.947333,10436.903782
3856.867714,-2451.505594,-2960.823768,10955.047942
3856.868029,-3064.381992,-2812.782580,11547.212695
3856.868344,-3140.991542,-2812.782580,11399.171507
3856.868659,-2221.676944,-2442.679609,10362.883188
3856.868974,-2298.286494,-2146.597232,8956.491898
3856.869289,-1838.629195,-2368.659014,7698.141797
3856.869603,-766.095498,-2442.679609,7328.038826
3856.869918,0.000000,-2516.700203,7328.038826
3856.870233,-153.219100,-2146.597232,7550.100608
3856.870548,-1685.410096,-2146.597232,8216.285956
3856.870863,-1455.581446,-2442.679609,8956.491898
3856.871178,-1378.971896,-2738.761985,10658.965565
3856.871492,-2068.457845,-3034.844362,10955.047942
3856.871807,-2681.334243,-3404.947333,10807.006753
3856.872122,-2757.943793,-3701.029710,10214.842000
3856.872437,-2451.505594,-3404.947333,10288.862594
3856.872752,-2451.505594,-2368.659014,9696.697840
3856.873067,-2451.505594,-1776.494261,7476.080014
3856.873381,-1915.238745,-1332.370696,6809.894666
3856.873696,-1532.190996,-1110.308913,6291.750507
3856.874011,-1685.410096,-1480.411884,6661.853478
3856.874326,-1532.190996,-2368.659014,7772.162391
3856.874641,-2451.505594,-3775.050304,9474.636058
3856.874956,-2757.943793,-4959.379811,10955.047942
3856.875271,-3294.210641,-4441.235652,12731.542202
3856.875585,-3447.429741,-3034.844362,11621.233289
3856.875900,-3677.258390,-2220.617826,11029.068536
3856.876215,-3677.258390,-1850.514855,10288.862594
3856.876530,-3064.381992,-1332.370696,9770.718434
3856.876845,-2451.505594,-888.247130,8438.347739
3856.877160,-2145.067394,-2220.617826,9030.512492
3856.877474,-2221.676944,-1554.432478,8586.388927
3856.877789,-1915.238745,-2220.617826,8660.409521
3856.878104,-1149.143247,-2368.659014,9400.615463
3856.878419,-2068.457845,-2516.700203,10658.965565
3856.878734,-2528.115143,-2664.741391,11325.150913
3856.879049,-2374.896044,-2812.782580,11621.233289
3856.879364,-2911.162892,-2368.659014,11325.150913
3856.879678,-3447.429741,-1702.473667,10584.944971
3856.879993,-3370.820191,-1850.514855,9548.656652
3856.880308,-3064.381992,-1702.473667,8290.306550
3856.880623,-2604.724693,-1776.494261,8438.347739
3856.880938,-1915.238745,-1776.494261,7994.224174
3856.881253,-1532.190996,-2220.617826,8512.368333
3856.881567,-1991.848295,-1924.535449,8882.471304
3856.881882,-2298.286494,-2442.679609,9400.615463
3856.882197,-1915.238745,-2368.659014,10510.924376
3856.882512,-1762.019645,-2294.638420,10881.027347
3856.882827,-1762.019645,-2516.700203,11473.192101
3856.883142,-2068.457845,-2516.700203,12139.377449
3856.883456,-2528.115143,-888.247130,11251.130318
3856.883771,-1532.190996,-0.000000,9400.615463
3856.884086,-919.314598,-0.000000,9104.533087
3856.884401,-459.657299,666.185348,7994.224174
3856.884716,153.219100,-370.102971,7031.956449
3856.885031,229.828649,-1332.370696,7698.141797
3856.885346,-383.047749,-2220.617826,8512.368333
3856.885660,-842.705048,-2220.617826,9030.512492
3856.885975,-766.095498,-2220.617826,9548.656652
3856.886290,-1455.581446,-2072.576638,10510.924376
3856.886605,-766.095498,-2072.576638,10955.047942
3856.886920,-1608.800546,-2072.576638,10288.862594
3856.887235,-2221.676944,-1628.453072,10362.883188
3856.887549,-1685.410096,-370.102971,9918.759623
3856.887864,-1378.971896,666.185348,8216.285956
3856.888179,-995.924147,666.185348,7846.182985
3856.888494,-76.609550,-444.123565,8364.327145
3856.888809,-536.266849,-962.267725,8586.388927
3856.889124,-1378.971896,-1480.411884,9104.533087
3856.889439,-919.314598,-2146.597232,9918.759623
3856.889753,-1762.019645,-1702.473667,10732.986159
3856.890068,-2068.457845,-1998.556043,11621.233289
3856.890383,-2374.896044,-2220.617826,11843.295072
3856.890698,-3753.867940,-1480.411884,11695.253884
3856.891013,-3830.477490,-1554.432478,10436.903782
3856.891328,-3217.601092,-1702.473667,10214.842000
3856.891642,-2451.505594,-666.185348,9474.636058
3856.891957,-1378.971896,-1036.288319,8734.430116
3856.892272,-1455.581446,-740.205942,8364.327145
3856.892587,-1302.362347,-814.226536,8142.265362
3856.892902,-536.266849,-1406.391290,9104.533087
3856.893217,-306.438199,-2294.638420,9696.697840
3856.893531,-229.828649,-1924.535449,10510.924376
3856.893846,-536.266849,-1628.453072,11029.068536
3856.894161,-995.924147,-888.247130,9918.759623
3856.894476,-995.924147,-518.144159,9622.677246
3856.894791,-842.705048,-222.061783,9918.759623
3856.895106,-766.095498,-0.000000,9178.553681
3856.895421,-229.828649,-444.123565,8290.306550
3856.895735,-689.485948,-148.041188,8364.327145
3856.896050,-536.266849,-518.144159,7550.100608
3856.896365,0.000000,-1628.453072,9104.533087
3856.896680,0.000000,-2072.576638,9622.677246
3856.896995,0.000000,-2072.576638,10066.800811
3856.897310,-612.876398,-1850.514855,10362.883188
3856.897624,-842.705048,-962.267725,9474.636058
3856.897939,-612.876398,-740.205942,10140.821405
3856.898254,229.828649,222.061783,9844.739029
3856.898569,-383.047749,296.082377,9474.636058
3856.898884,-383.047749,518.144159,8882.471304
3856.899199,76.609550,370.102971,8438.347739
3856.899514,689.485948,-148.041188,8808.450710
3856.899828,842.705048,-518.144159,9622.677246
3856.900143,229.828649,-444.123565,9696.697840
3856.900458,0.000000,-296.082377,10066.800811
3856.900773,229.828649,-74.020594,9474.636058
3856.901088,459.657299,-592.164754,10288.862594
3856.901403,459.657299,-1110.308913,10584.944971
3856.901717,229.828649,-666.185348,9770.718434
3856.902032,153.219100,666.185348,8290.306550
3856.902347,0.000000,518.144159,8142.265362
3856.902662,383.047749,666.185348,9474.636058
3856.902977,689.485948,222.061783,8438.347739
3856.903292,995.924147,444.123565,8660.409521
3856.903606,76.609550,666.185348,9918.759623
3856.903921,153.219100,-0.000000,9696.697840
3856.904236,536.266849,-222.061783,10288.862594
3856.904551,536.266849,-296.082377,10732.986159
3856.904866,306.438199,-296.082377,10658.965565
3856.905181,-766.095498,962.267725,9474.636058
3856.905496,0.000000,1332.370696,10214.842000
3856.905810,842.705048,1628.453072,9548.656652
3856.906125,306.438199,888.247130,9326.594869
3856.906440,0.000000,962.267725,9252.574275
3856.906755,-1149.143247,1258.350101,8882.471304
3856.907070,-919.314598,1110.308913,9252.574275
3856.907385,0.000000,-222.061783,11177.109724
3856.907699,-459.657299,-222.061783,10955.047942
3856.908014,-612.876398,-0.000000,11251.130318
3856.908329,-1608.800546,592.164754,10584.944971
3856.908644,-1225.752797,740.205942,10584.944971
3856.908959,-459.657299,666.185348,11251.130318
3856.909274,766.095498,962.267725,10066.800811
3856.909589,0.000000,1702.473667,8882.471304
3856.909903,0.000000,1480.411884,8956.491898
3856.910218,842.705048,1702.473667,8586.388927
3856.910533,689.485948,1406.391290,8734.430116
3856.910848,1532.190996,-0.000000,9992.780217
3856.911163,76.609550,1998.556043,8364.327145
3856.911478,-306.438199,-148.041188,9326.594869
3856.911792,459.657299,-0.000000,9992.780217
3856.912107,0.000000,-74.020594,9400.615463
3856.912422,306.438199,-740.205942,10288.862594
3856.912737,0.000000,444.123565,9696.697840
3856.913052,-229.828649,1406.391290,9252.574275
3856.913367,306.438199,1480.411884,9104.533087
3856.913681,1302.362347,1110.308913,8808.450710
3856.913996,1762.019645,888.247130,8290.306550
3856.914311,1302.362347,888.247130,9030.512492
3856.914626,0.000000,1036.288319,9474.636058
3856.914941,153.219100,296.082377,9622.677246
3856.915256,229.828649,-740.205942,10807.006753
3856.915571,459.657299,-148.041188,10140.821405
3856.915885,383.047749,-148.041188,9844.739029
3856.916200,76.609550,-0.000000,9474.636058
3856.916515,153.219100,-148.041188,9992.780217
3856.916830,689.485948,-222.061783,9622.677246
3856.917145,1072.533697,444.123565,8660.409521
3856.917460,459.657299,1184.329507,7920.203579
3856.917774,306.438199,370.102971,8660.409521
3856.918089,919.314598,444.123565,9178.553681
3856.918404,1302.362347,-666.185348,9696.697840
3856.918719,1225.752797,-296.082377,9770.718434
3856.919034,-153.219100,-0.000000,9992.780217
3856.919349,-689.485948,296.082377,9844.739029
3856.919664,-306.438199,222.061783,10510.924376
3856.919978,229.828649,-74.020594,10732.986159
3856.920293,76.609550,222.061783,10510.924376
3856.920608,-842.705048,518.144159,9474.636058
3856.920923,-153.219100,-0.000000,9844.739029
3856.921238,-842.705048,814.226536,9326.594869
3856.921553,-153.219100,-444.123565,11029.068536
3856.921867,689.485948,-0.000000,9696.697840
3856.922182,-995.924147,370.102971,9178.553681
3856.922497,-995.924147,-296.082377,9474.636058
3856.922812,0.000000,-518.144159,9696.697840
3856.923127,-689.485948,-1110.308913,10140.821405
3856.923442,-306.438199,-1110.308913,9918.759623
3856.923756,-1225.752797,-74.020594,9918.759623
3856.924071,-1225.752797,-0.000000,9474.636058
3856.924386,-229.828649,-296.082377,9992.780217
3856.924701,0.000000,-148.041188,9400.615463
3856.925016,0.000000,-0.000000,9400.615463
3856.925331,-383.047749,370.102971,8512.368333
3856.925646,-459.657299,-0.000000,8586.388927
3856.925960,229.828649,-1036.288319,9770.718434
3856.926275,153.219100,-1184.329507,9326.594869
3856.926590,-306.438199,-1110.308913,9770.718434
3856.926905,-766.095498,-296.082377,9548.656652
3856.927220,-919.314598,-222.061783,10584.944971
3856.927535,0.000000,-592.164754,9844.739029
3856.927849,383.047749,-814.226536,9622.677246
3856.928164,536.266849,370.102971,9030.512492
3856.928479,0.000000,962.267725,8068.244768
3856.928794,-153.219100,518.144159,8512.368333
3856.929109,0.000000,-444.123565,9474.636058
3856.929424,689.485948,-740.205942,9622.677246
3856.929739,689.485948,-518.144159,9400.615463
3856.930053,-229.828649,-148.041188,9400.615463
3856.930368,306.438199,-518.144159,10066.800811
3856.930683,689.485948,-814.226536,10658.965565
3856.930998,1072.533697,-0.000000,10214.842000
3856.931313,383.047749,666.185348,9474.636058
3856.931628,229.828649,888.247130,8586.388927
3856.931942,995.924147,1332.370696,8142.265362
3856.932257,1225.752797,296.082377,8660.409521
3856.932572,1838.629195,-518.144159,9400.615463
3856.932887,1762.019645,-370.102971,9326.594869
3856.933202,459.657299,518.144159,9104.533087
3856.933517,229.828649,666.185348,9622.677246
3856.933831,995.924147,-74.020594,10584.944971
3856.934146,1608.800546,-0.000000,10436.903782
3856.934461,919.314598,666.185348,9992.780217
3856.934776,0.000000,1406.391290,9474.636058
3856.935091,0.000000,962.267725,9474.636058
3856.935406,919.314598,888.247130,9770.718434
3856.935721,1455.581446,814.226536,9104.533087
3856.936035,995.924147,1036.288319,8660.409521
3856.936350,153.219100,592.164754,9622.677246
3856.936665,-306.438199,888.247130,10288.862594
3856.936980,0.000000,592.164754,10658.965565
3856.937295,-229.828649,518.144159,10807.006753
3856.937610,-766.095498,370.102971,10584.944971
3856.937924,-1149.143247,-74.020594,10584.944971
3856.938239,-1149.143247,-148.041188,10510.924376
3856.938554,-459.657299,-0.000000,10510.924376
3856.938869,0.000000,666.185348,9622.677246
3856.939184,0.000000,1554.432478,9104.533087
3856.939499,-919.314598,1702.473667,9844.739029
3856.939814,-766.095498,1258.350101,9844.739029
3856.940128,153.219100,296.082377,9474.636058
3856.940443,76.609550,518.144159,9400.615463
3856.940758,-689.485948,296.082377,9474.636058
3856.941073,-1608.800546,370.102971,9696.697840
3856.941388,-1225.752797,-0.000000,10288.862594
3856.941703,-1225.752797,-444.123565,10732.986159
3856.942017,-689.485948,-0.000000,10066.800811
3856.942332,-1149.143247,-0.000000,9992.780217
3856.942647,-919.314598,-0.000000,9770.718434
3856.942962,-536.266849,592.164754,9696.697840
3856.943277,-76.609550,518.144159,9326.594869
3856.943592,76.609550,222.061783,9030.512492
3856.943906,-306.438199,592.164754,9030.512492
3856.944221,-919.314598,-0.000000,9030.512492
3856.944536,0.000000,-74.020594,9178.553681
3856.944851,76.609550,-814.226536,9622.677246
3856.945166,153.219100,-740.205942,9252.574275
3856.945481,0.000000,-1258.350101,9474.636058
3856.945796,-536.266849,-296.082377,9326.594869
3856.946110,0.000000,-444.123565,9844.739029
3856.946425,536.266849,-1036.288319,9326.594869
3856.946740,459.657299,-518.144159,8882.471304
3856.947055,-459.657299,-74.020594,8290.306550
3856.947370,-229.828649,-518.144159,8808.450710
3856.947685,383.047749,-370.102971,8956.491898
3856.947999,1302.362347,-1332.370696,9400.615463
3856.948314,1685.410096,-888.247130,9400.615463
3856.948629,1455.581446,-1332.370696,9252.574275
3856.948944,689.485948,-962.267725,9918.759623
3856.949259,1225.752797,-666.185348,9622.677246
3856.949574,1838.629195,-444.123565,9474.636058
3856.949889,1762.019645,296.082377,9474.636058
3856.950203,1608.800546,1110.308913,9178.553681
3856.950518,919.314598,962.267725,9178.553681
3856.950833,995.924147,444.123565,9104.533087
3856.951148,1302.362347,-296.082377,9178.553681
3856.951463,1225.752797,-370.102971,9178.553681
3856.951778,306.438199,-666.185348,9548.656652
3856.952092,-153.219100,-962.267725,9696.697840
3856.952407,459.657299,-222.061783,10510.924376
3856.952722,383.047749,-518.144159,10658.965565
3856.953037,612.876398,296.082377,10140.821405
3856.953352,-229.828649,592.164754,10436.903782
3856.953667,-536.266849,1554.432478,10066.800811
3856.953981,383.047749,1110.308913,9400.615463
3856.954296,689.485948,592.164754,9918.759623
3856.954611,0.000000,666.185348,9252.574275
3856.954926,-1072.533697,-0.000000,9844.739029
3856.955241,-1072.533697,592.164754,10288.862594
3856.955556,-766.095498,-0.000000,10658.965565
3856.955871,-306.438199,-0.000000,10584.944971
3856.956185,-153.219100,666.185348,9696.697840
3856.956500,-995.924147,962.267725,9844.739029
3856.956815,-689.485948,1406.391290,9474.636058
3856.957130,0.000000,1036.288319,9104.533087
3856.957445,536.266849,-0.000000,9622.677246
3856.957760,229.828649,-74.020594,8882.471304
3856.958074,-689.485948,962.267725,9030.512492
3856.958389,0.000000,-0.000000,9474.636058
3856.958704,383.047749,-0.000000,9030.512492
3856.959019,1072.533697,-148.041188,9696.697840
3856.959334,76.609550,-296.082377,9178.553681
3856.959649,-1225.752797,-0.000000,9326.594869
3856.959964,-1302.362347,-0.000000,9918.759623
3856.960278,-459.657299,-370.102971,9992.780217
3856.960593,0.000000,-296.082377,9992.780217
3856.960908,-153.219100,-296.082377,9474.636058
3856.961223,-995.924147,518.144159,10214.842000
3856.961538,-766.095498,1110.308913,9770.718434
3856.961853,76.609550,814.226536,10510.924376
3856.962167,536.266849,1184.329507,9918.759623
3856.962482,383.047749,1628.453072,9622.677246
3856.962797,76.609550,1554.432478,9252.574275
3856.963112,536.266849,888.247130,9326.594869
3856.963427,842.705048,518.144159,9696.697840
3856.963742,1455.581446,148.041188,9326.594869
3856.964056,1072.533697,592.164754,8660.409521
3856.964371,612.876398,740.205942,9178.553681
3856.964686,689.485948,888.247130,8882.471304
3856.965001,995.924147,-74.020594,9030.512492
3856.965316,842.705048,-296.082377,9104.533087
3856.965631,0.000000,-148.041188,9178.553681
3856.965946,-229.828649,-0.000000,9918.759623
3856.966260,0.000000,296.082377,9918.759623
3856.966575,383.047749,-0.000000,9992.780217
3856.966890,1225.752797,-0.000000,9548.656652
3856.967205,919.314598,518.144159,9104.533087
3856.967520,689.485948,888.247130,10214.842000
3856.967835,842.705048,1184.329507,9400.615463
3856.968149,995.924147,296.082377,10140.821405
3856.968464,1072.533697,-0.000000,9992.780217
3856.968779,-689.485948,518.144159,9696.697840
3856.969094,-766.095498,-0.000000,9992.780217
3856.969409,0.000000,-740.205942,10436.903782
3856.969724,306.438199,-1258.350101,10362.883188
3856.970038,229.828649,-1184.329507,10140.821405
3856.970353,-383.047749,-370.102971,9622.677246
3856.970668,-459.657299,-0.000000,9252.574275
3856.970983,76.609550,-0.000000,9252.574275
3856.971298,995.924147,-296.082377,9104.533087
3856.971613,995.924147,-444.123565,9696.697840
3856.971927,306.438199,-0.000000,9400.615463
3856.972242,-919.314598,518.144159,9474.636058
3856.972557,-306.438199,962.267725,9252.574275
3856.972872,0.000000,518.144159,10510.924376
3856.973187,-306.438199,-0.000000,9400.615463
3856.973502,-766.095498,-74.020594,10214.842000
3856.973817,-1532.190996,148.041188,9844.739029
3856.974132,-995.924147,-1184.329507,10436.903782
3856.974446,-536.266849,-592.164754,10288.862594
3856.974761,-383.047749,-148.041188,9844.739029
3856.975076,-1302.362347,740.205942,9474.636058
3856.975391,-919.314598,296.082377,9030.512492
3856.975706,0.000000,740.205942,8956.491898
3856.976021,383.047749,222.061783,9178.553681
3856.976336,229.828649,370.102971,8734.430116
3856.976651,-842.705048,444.123565,9104.533087
3856.976965,-612.876398,-0.000000,8808.450710
3856.977280,153.219100,-444.123565,9104.533087
3856.977595,689.485948,-740.205942,9770.718434
3856.977910,0.000000,-740.205942,9474.636058
3856.978225,-842.705048,222.061783,9622.677246
3856.978540,-612.876398,444.123565,8808.450710
3856.978855,229.828649,222.061783,9548.656652
3856.979170,766.095498,-0.000000,9548.656652
3856.979484,842.705048,-222.061783,8956.491898
3856.979799,-153.219100,-74.020594,9622.677246
3856.980114,0.000000,296.082377,9474.636058
3856.980429,842.705048,-296.082377,9918.759623
3856.980744,1685.410096,-0.000000,9696.697840
3856.981059,766.095498,296.082377,10066.800811
3856.981374,229.828649,370.102971,9326.594869
3856.981689,766.095498,888.247130,9178.553681
3856.982003,1225.752797,444.123565,9178.553681
3856.982318,2068.457845,-0.000000,9178.553681
3856.982633,1532.190996,296.082377,9548.656652
3856.982948,306.438199,-0.000000,9474.636058
3856.983263,153.219100,-222.061783,9548.656652
3856.983578,459.657299,-0.000000,10066.800811
3856.983893,842.705048,-148.041188,10658.965565
3856.984208,76.609550,666.185348,10066.800811
3856.984522,-383.047749,296.082377,10214.842000
3856.984837,383.047749,814.226536,10066.800811
3856.985152,842.705048,592.164754,10288.862594
3856.985467,1072.533697,740.205942,9992.780217
3856.985782,612.876398,740.205942,9474.636058
3856.986097,0.000000,1480.411884,9030.512492
3856.986412,0.000000,1480.411884,8512.368333
3856.986727,689.485948,666.185348,9030.512492
3856.987042,229.828649,-0.000000,8956.491898
3856.987356,-306.438199,-0.000000,9622.677246
3856.987671,-1532.190996,740.205942,9400.615463
3856.987986,-842.705048,296.082377,9622.677246
3856.988301,0.000000,-370.102971,9844.739029
3856.988616,0.000000,-222.061783,9622.677246
3856.988931,-919.314598,-370.102971,9696.697840
3856.989246,-1532.190996,592.164754,9622.677246
3856.989561,-995.924147,518.144159,9474.636058
3856.989875,-766.095498,222.061783,9918.759623
3856.990190,-383.047749,222.061783,9400.615463
3856.990505,0.000000,444.123565,9326.594869
3856.990820,-1302.362347,370.102971,9696.697840
3856.991135,-536.266849,-0.000000,10066.800811
3856.991450,0.000000,-296.082377,10066.800811
3856.991765,229.828649,-148.041188,9696.697840
3856.992080,-1072.533697,296.082377,9622.677246
3856.992394,-1225.752797,-0.000000,10066.800811
3856.992709,76.609550,-0.000000,9918.759623
