#time,accel_x,accel_y,accel_z
3507.880188,766.095498,1850.514855,9992.780217
3507.880502,-153.219100,666.185348,11177.109724
3507.880816,-612.876398,222.061783,11769.274478
3507.881130,-1378.971896,296.082377,11473.192101
3507.881444,-1532.190996,-0.000000,11251.130318
3507.881758,-689.485948,814.226536,10510.924376
3507.882072,-229.828649,1332.370696,9770.718434
3507.882386,536.266849,2146.597232,9104.533087
3507.882700,1302.362347,2368.659014,8216.285956
3507.883014,2221.676944,2590.720797,8290.306550
3507.883328,2374.896044,2368.659014,8734.430116
3507.883642,2068.457845,2368.659014,9326.594869
3507.883956,1532.190996,2220.617826,9770.718434
3507.884270,1072.533697,1554.432478,9992.780217
3507.884584,612.876398,1258.350101,10362.883188
3507.884898,0.000000,1036.288319,10362.883188
3507.885212,-306.438199,666.185348,10362.883188
3507.885526,-459.657299,370.102971,10066.800811
3507.885840,0.000000,296.082377,10066.800811
3507.886153,-536.266849,-0.000000,9770.718434
3507.886467,153.219100,296.082377,9696.697840
3507.886781,153.219100,-0.000000,9696.697840
3507.887095,306.438199,370.102971,9474.636058
3507.887409,766.095498,148.041188,9326.594869
3507.887723,153.219100,-0.000000,9474.636058
3507.888037,612.876398,-0.000000,9474.636058
3507.888351,612.876398,-0.000000,9770.718434
3507.888665,842.705048,-148.041188,9918.759623
3507.888979,842.705048,148.041188,9918.759623
3507.889293,459.657299,222.061783,9770.718434
3507.889607,612.876398,-0.000000,9696.697840
3507.889921,689.485948,-0.000000,9474.636058
3507.890235,459.657299,-0.000000,9474.636058
3507.890549,383.047749,-370.102971,9696.697840
3507.890863,306.438199,-740.205942,9326.594869
3507.891177,0.000000,-1036.288319,9326.594869
3507.891491,76.609550,-1406.391290,9918.759623
3507.891805,0.000000,-1332.370696,9400.615463
3507.892119,153.219100,-814.226536,9548.656652
3507.892433,0.000000,-814.226536,9548.656652
3507.892747,153.219100,-370.102971,9104.533087
3507.893061,612.876398,-74.020594,8808.450710
3507.893375,229.828649,-0.000000,8882.471304
3507.893689,842.705048,-74.020594,8734.430116
3507.894003,459.657299,-296.082377,8734.430116
3507.894317,76.609550,-148.041188,9622.677246
3507.894631,229.828649,-444.123565,9918.759623
3507.894944,-229.828649,-814.226536,9770.718434
3507.895258,-229.828649,-592.164754,9918.759623
3507.895572,0.000000,-888.247130,9696.697840
3507.895886,0.000000,-592.164754,9622.677246
3507.896200,76.609550,-148.041188,9178.553681
3507.896514,76.609550,-0.000000,8660.409521
3507.896828,153.219100,592.164754,8956.491898
3507.897142,0.000000,518.144159,8734.430116
3507.897456,0.000000,222.061783,9030.512492
3507.897770,0.000000,-0.000000,9252.574275
3507.898084,76.609550,-148.041188,9548.656652
3507.898398,-153.219100,296.082377,9918.759623
3507.898712,76.609550,-74.020594,10066.800811
3507.899026,-229.828649,-0.000000,10066.800811
3507.899340,0.000000,370.102971,9918.759623
3507.899654,0.000000,518.144159,9696.697840
3507.899968,306.438199,1036.288319,9400.615463
3507.900282,612.876398,1036.288319,9696.697840
3507.900596,612.876398,962.267725,9696.697840
3507.900910,153.219100,888.247130,9474.636058
3507.901224,0.000000,518.144159,9770.718434
3507.901538,153.219100,518.144159,9992.780217
3507.901852,0.000000,370.102971,9992.780217
3507.902166,0.000000,222.061783,10066.800811
3507.902480,-306.438199,148.041188,10436.903782
3507.902794,229.828649,444.123565,10288.862594
3507.903108,76.609550,444.123565,10288.862594
3507.903422,612.876398,740.205942,10140.821405
3507.903735,459.657299,962.267725,9918.759623
3507.904049,689.485948,1184.329507,9696.697840
3507.904363,919.314598,1036.288319,9548.656652
3507.904677,612.876398,1110.308913,9622.677246
3507.904991,459.657299,1036.288319,10214.842000
3507.905305,229.828649,1036.288319,10140.821405
3507.905619,76.609550,888.247130,10214.842000
3507.905933,-153.219100,518.144159,10066.800811
3507.906247,0.000000,222.061783,10362.883188
3507.906561,0.000000,-0.000000,10362.883188
3507.906875,153.219100,518.144159,9844.739029
3507.907189,689.485948,-0.000000,9696.697840
3507.907503,536.266849,666.185348,9178.553681
3507.907817,766.095498,1110.308913,9104.533087
3507.908131,536.266849,666.185348,9474.636058
3507.908445,383.047749,444.123565,9178.553681
3507.908759,229.828649,444.123565,9030.512492
3507.909073,229.828649,370.102971,9252.574275
3507.909387,306.438199,-0.000000,9844.739029
3507.909701,306.438199,-148.041188,9400.615463
3507.910015,0.000000,-370.102971,9252.574275
3507.910329,0.000000,-148.041188,9770.718434
3507.910643,0.000000,-296.082377,9548.656652
3507.910957,0.000000,-74.020594,9622.677246
3507.911271,229.828649,-0.000000,9252.574275
3507.911585,76.609550,-0.000000,9030.512492
3507.911899,153.219100,-0.000000,8882.471304
3507.912213,306.438199,-74.020594,9252.574275
3507.912527,0.000000,-148.041188,9104.533087
3507.912840,0.000000,-666.185348,9178.553681
3507.913154,-229.828649,-518.144159,9252.574275
3507.913468,0.000000,-592.164754,9252.574275
3507.913782,229.828649,-740.205942,9474.636058
3507.914096,0.000000,-444.123565,9844.739029
3507.914410,229.828649,-370.102971,9474.636058
3507.914724,383.047749,-222.061783,9622.677246
3507.915038,306.438199,-0.000000,9104.533087
3507.915352,306.438199,-0.000000,9474.636058
3507.915666,306.438199,-0.000000,9622.677246
3507.915980,306.438199,-222.061783,9622.677246
3507.916294,-229.828649,-296.082377,9770.718434
3507.916608,0.000000,-222.061783,9696.697840
3507.916922,0.000000,-148.041188,9548.656652
3507.917236,0.000000,-444.123565,9622.677246
3507.917550,-766.095498,-370.102971,9622.677246
3507.917864,0.000000,-0.000000,10362.883188
3507.918178,76.609550,-0.000000,9918.759623
3507.918492,229.828649,-222.061783,9770.718434
3507.918806,153.219100,-0.000000,9770.718434
3507.919120,76.609550,-222.061783,9252.574275
3507.919434,0.000000,222.061783,9474.636058
3507.919748,76.609550,296.082377,9474.636058
3507.920062,76.609550,-222.061783,9992.780217
3507.920376,0.000000,-0.000000,9622.677246
3507.920690,-459.657299,-0.000000,9844.739029
3507.921004,0.000000,-222.061783,9622.677246
3507.921318,153.219100,-148.041188,9770.718434
3507.921632,383.047749,-0.000000,9918.759623
3507.921946,153.219100,-0.000000,9696.697840
3507.922260,919.314598,-0.000000,9474.636058
3507.922573,383.047749,370.102971,9400.615463
3507.922887,459.657299,592.164754,9252.574275
3507.923201,459.657299,296.082377,9400.615463
3507.923515,153.219100,148.041188,9252.574275
3507.923829,536.266849,222.061783,9770.718434
3507.924143,76.609550,-74.020594,9770.718434
3507.924457,153.219100,222.061783,9770.718434
3507.924771,0.000000,-148.041188,10066.800811
3507.925085,0.000000,-0.000000,9992.780217
3507.925399,229.828649,-0.000000,10140.821405
3507.925713,0.000000,148.041188,9548.656652
3507.926027,306.438199,296.082377,9252.574275
3507.926341,536.266849,666.185348,9474.636058
3507.926655,383.047749,666.185348,9326.594869
3507.926969,919.314598,666.185348,9400.615463
3507.927283,0.000000,222.061783,9326.594869
3507.927597,0.000000,518.144159,9622.677246
3507.927911,0.000000,444.123565,9770.718434
3507.928225,-153.219100,444.123565,9992.780217
3507.928539,-383.047749,222.061783,10066.800811
3507.928853,-76.609550,-0.000000,9918.759623
3507.929167,0.000000,148.041188,9918.759623
3507.929481,0.000000,444.123565,9770.718434
3507.929795,76.609550,444.123565,9622.677246
3507.930109,229.828649,592.164754,9474.636058
3507.930423,459.657299,1036.288319,9104.533087
3507.930737,229.828649,518.144159,9104.533087
3507.931051,0.000000,666.185348,9252.574275
3507.931365,0.000000,518.144159,9400.615463
3507.931679,0.000000,-0.000000,9548.656652
3507.931992,76.609550,518.144159,9400.615463
3507.932306,-229.828649,-0.000000,9696.697840
3507.932620,0.000000,148.041188,10066.800811
3507.932934,-229.828649,-0.000000,9992.780217
3507.933248,306.438199,-0.000000,9770.718434
3507.933562,0.000000,518.144159,9770.718434
3507.933876,0.000000,-0.000000,9622.677246
3507.934190,229.828649,370.102971,9548.656652
3507.934504,229.828649,444.123565,9474.636058
3507.934818,536.266849,296.082377,9474.636058
3507.935132,229.828649,370.102971,9622.677246
3507.935446,76.609550,370.102971,9770.718434
3507.935760,153.219100,296.082377,10066.800811
3507.936074,76.609550,-74.020594,9696.697840
3507.936388,-383.047749,-222.061783,9770.718434
3507.936702,0.000000,-0.000000,10066.800811
3507.937016,153.219100,-0.000000,9918.759623
3507.937330,229.828649,148.041188,10066.800811
3507.937644,153.219100,-74.020594,9696.697840
3507.937958,459.657299,-0.000000,9770.718434
3507.938272,153.219100,-0.000000,9622.677246
3507.938586,0.000000,222.061783,9696.697840
3507.938900,229.828649,148.041188,9770.718434
3507.939214,0.000000,296.082377,9474.636058
3507.939528,229.828649,222.061783,9326.594869
3507.939842,229.828649,-0.000000,9770.718434
3507.940156,0.000000,-0.000000,9696.697840
3507.940470,76.609550,-222.061783,9770.718434
3507.940784,-229.828649,-148.041188,9474.636058
3507.941098,0.000000,-0.000000,9622.677246
3507.941411,0.000000,-222.061783,9548.656652
3507.941725,76.609550,-0.000000,9548.656652
3507.942039,0.000000,-0.000000,9548.656652
3507.942353,0.000000,-148.041188,9474.636058
3507.942667,-383.047749,-148.041188,9400.615463
3507.942981,306.438199,-0.000000,9326.594869
3507.943295,306.438199,-148.041188,9400.615463
3507.943609,0.000000,-444.123565,9400.615463
3507.943923,0.000000,-222.061783,9474.636058
3507.944237,0.000000,-296.082377,9474.636058
3507.944551,76.609550,-74.020594,9474.636058
3507.944865,76.609550,-296.082377,9474.636058
3507.945179,0.000000,-0.000000,9622.677246
3507.945493,-229.828649,-0.000000,9474.636058
3507.945807,0.000000,-74.020594,9622.677246
3507.946121,229.828649,-0.000000,9326.594869
3507.946435,76.609550,-0.000000,9474.636058
3507.946749,153.219100,-222.061783,9474.636058
3507.947063,76.609550,-0.000000,9474.636058
3507.947377,153.219100,-0.000000,9474.636058
3507.947691,153.219100,-0.000000,9844.739029
3507.948005,153.219100,148.041188,9844.739029
3507.948319,0.000000,-0.000000,9548.656652
3507.948633,0.000000,-74.020594,9400.615463
3507.948947,0.000000,222.061783,9696.697840
3507.949261,153.219100,222.061783,9548.656652
3507.949575,153.219100,148.041188,9918.759623
3507.949889,0.000000,518.144159,9622.677246
3507.950203,-153.219100,370.102971,9400.615463
3507.950517,76.609550,370.102971,9474.636058
3507.950831,76.609550,518.144159,9992.780217
3507.951144,-153.219100,370.102971,9918.759623
3507.951458,76.609550,148.041188,9696.697840
3507.951772,-306.438199,222.061783,9474.636058
3507.952086,0.000000,296.082377,9770.718434
3507.952400,0.000000,370.102971,9844.739029
3507.952714,76.609550,370.102971,9696.697840
3507.953028,0.000000,222.061783,9622.677246
3507.953342,0.000000,444.123565,9770.718434
3507.953656,0.000000,222.061783,9622.677246
3507.953970,153.219100,592.164754,9696.697840
3507.954284,383.047749,222.061783,9622.677246
3507.954598,229.828649,-0.000000,9622.677246
3507.954912,0.000000,370.102971,9696.697840
3507.955226,459.657299,148.041188,9770.718434
3507.955540,383.047749,370.102971,9622.677246
3507.955854,306.438199,-0.000000,9474.636058
3507.956168,229.828649,296.082377,9622.677246
3507.956482,383.047749,-0.000000,9178.553681
3507.956796,229.828649,370.102971,9844.739029
3507.957110,383.047749,444.123565,9918.759623
3507.957424,153.219100,370.102971,9474.636058
3507.957738,0.000000,296.082377,9622.677246
3507.958052,229.828649,444.123565,9474.636058
3507.958366,0.000000,-0.000000,9918.759623
3507.958680,0.000000,-0.000000,10214.842000
3507.958994,0.000000,-0.000000,9622.677246
3507.959308,-229.828649,-0.000000,9992.780217
3507.959622,-229.828649,-0.000000,9918.759623
3507.959936,-229.828649,-0.000000,9918.759623
3507.960250,-229.828649,-0.000000,9918.759623
3507.960563,-306.438199,-0.000000,9918.759623
3507.960877,0.000000,-0.000000,9992.780217
3507.961191,-306.438199,148.041188,9104.533087
3507.961505,0.000000,296.082377,9474.636058
3507.961819,383.047749,-0.000000,9474.636058
3507.962133,306.438199,-0.000000,9252.574275
3507.962447,0.000000,-0.000000,9326.594869
3507.962761,383.047749,-148.041188,8956.491898
3507.963075,536.266849,-0.000000,9178.553681
3507.963389,306.438199,-74.020594,9252.574275
3507.963703,153.219100,-148.041188,9326.594869
3507.964017,76.609550,-370.102971,8956.491898
3507.964331,153.219100,-148.041188,9252.574275
3507.964645,229.828649,-222.061783,9474.636058
3507.964959,0.000000,-296.082377,9696.697840
3507.965273,153.219100,-148.041188,9400.615463
3507.965587,383.047749,148.041188,9548.656652
3507.965901,383.047749,-0.000000,9548.656652
3507.966215,306.438199,-0.000000,9770.718434
3507.966529,306.438199,-0.000000,9474.636058
3507.966843,459.657299,-0.000000,9252.574275
3507.967157,383.047749,-0.000000,9178.553681
3507.967471,612.876398,148.041188,9400.615463
3507.967785,612.876398,-0.000000,9918.759623
3507.968099,306.438199,-0.000000,9696.697840
3507.968413,153.219100,-0.000000,10140.821405
3507.968727,-383.047749,-148.041188,9770.718434
3507.969041,0.000000,-0.000000,9696.697840
3507.969355,76.609550,-0.000000,10214.842000
3507.969669,229.828649,-0.000000,9770.718434
3507.969983,459.657299,370.102971,9918.759623
3507.970296,229.828649,-0.000000,9622.677246
3507.970610,459.657299,592.164754,9622.677246
3507.970924,459.657299,444.123565,9252.574275
3507.971238,76.609550,592.164754,9474.636058
3507.971552,383.047749,592.164754,9918.759623
3507.971866,306.438199,518.144159,9770.718434
3507.972180,76.609550,592.164754,9992.780217
3507.972494,153.219100,592.164754,9992.780217
3507.972808,0.000000,444.123565,9770.718434
3507.973122,153.219100,-0.000000,9474.636058
3507.973436,-306.438199,592.164754,9844.739029
3507.973750,0.000000,222.061783,9992.780217
3507.974064,76.609550,592.164754,9474.636058
3507.974378,0.000000,666.185348,9622.677246
3507.974692,0.000000,444.123565,9474.636058
3507.975006,0.000000,296.082377,9474.636058
3507.975320,0.000000,370.102971,9918.759623
3507.975634,0.000000,370.102971,9474.636058
3507.975948,153.219100,370.102971,9622.677246
3507.976262,76.609550,518.144159,9474.636058
3507.976576,-229.828649,592.164754,9622.677246
3507.976890,153.219100,148.041188,10140.821405
3507.977204,-229.828649,-0.000000,9770.718434
3507.977518,0.000000,296.082377,9548.656652
3507.977832,0.000000,370.102971,9622.677246
3507.978146,0.000000,296.082377,9844.739029
3507.978460,153.219100,296.082377,9992.780217
3507.978774,229.828649,296.082377,9474.636058
3507.979088,383.047749,-0.000000,9622.677246
3507.979402,0.000000,148.041188,9474.636058
3507.979715,0.000000,222.061783,9844.739029
3507.980029,306.438199,148.041188,9622.677246
3507.980343,0.000000,370.102971,9770.718434
3507.980657,229.828649,-0.000000,9548.656652
3507.980971,76.609550,370.102971,9474.636058
3507.981285,153.219100,444.123565,9474.636058
3507.981599,459.657299,222.061783,9548.656652
3507.981913,229.828649,296.082377,9548.656652
3507.982227,229.828649,-0.000000,9400.615463
3507.982541,0.000000,296.082377,9474.636058
3507.982855,306.438199,148.041188,9548.656652
3507.983169,76.609550,222.061783,9548.656652
3507.983483,76.609550,-0.000000,9548.656652
3507.983797,76.609550,-0.000000,9474.636058
3507.984111,0.000000,-0.000000,9770.718434
3507.984425,153.219100,-222.061783,9548.656652
3507.984739,0.000000,148.041188,9548.656652
3507.985053,153.219100,-0.000000,9252.574275
3507.985367,76.609550,-0.000000,9104.533087
3507.985681,536.266849,296.082377,9252.574275
3507.985995,229.828649,148.041188,9104.533087
3507.986309,0.000000,-0.000000,9474.636058
3507.986623,306.438199,-0.000000,9178.553681
3507.986937,306.438199,-0.000000,9104.533087
3507.987251,689.485948,-0.000000,9622.677246
3507.987565,0.000000,-0.000000,9622.677246
3507.987879,0.000000,-148.041188,9844.739029
3507.988193,76.609550,-0.000000,9918.759623
3507.988507,0.000000,-74.020594,9548.656652
3507.988821,153.219100,-0.000000,9770.718434
3507.989134,76.609550,222.061783,9770.718434
3507.989448,229.828649,296.082377,9918.759623
3507.989762,536.266849,-0.000000,9474.636058
3507.990076,153.219100,296.082377,9326.594869
3507.990390,153.219100,296.082377,9696.697840
3507.990704,229.828649,-0.000000,9622.677246
3507.991018,306.438199,-0.000000,9844.739029
3507.991332,0.000000,-0.000000,9918.759623
3507.991646,0.000000,-0.000000,10066.800811
3507.991960,-229.828649,296.082377,10214.842000
3507.992274,-306.438199,-0.000000,9844.739029
3507.992588,0.000000,148.041188,10214.842000
3507.992902,0.000000,-0.000000,9622.677246
3507.993216,383.047749,-0.000000,9770.718434
3507.993530,0.000000,148.041188,9548.656652
3507.993844,76.609550,444.123565,9696.697840
3507.994158,229.828649,370.102971,9696.697840
3507.994472,0.000000,-0.000000,9326.594869
3507.994786,229.828649,444.123565,9548.656652
3507.995100,76.609550,-0.000000,9474.636058
3507.995414,0.000000,-74.020594,9400.615463
3507.995728,0.000000,-0.000000,9474.636058
3507.996042,0.000000,-0.000000,9326.594869
3507.996356,229.828649,-0.000000,9474.636058
3507.996670,0.000000,-74.020594,9400.615463
3507.996984,153.219100,-0.000000,9548.656652
3507.997298,0.000000,-0.000000,9548.656652
3507.997612,0.000000,-0.000000,9104.533087
3507.997926,383.047749,296.082377,9326.594869
3507.998240,229.828649,296.082377,9326.594869
3507.998554,0.000000,-222.061783,9252.574275
3507.998867,459.657299,-0.000000,9474.636058
3507.999181,383.047749,-0.000000,9030.512492
3507.999495,536.266849,148.041188,9474.636058
3507.999809,383.047749,-0.000000,9622.677246
3508.000123,153.219100,296.082377,9770.718434
3508.000437,229.828649,222.061783,9326.594869
3508.000751,306.438199,148.041188,8734.430116
3508.001065,153.219100,222.061783,9992.780217
3508.001379,229.828649,222.061783,9770.718434
3508.001693,229.828649,148.041188,9770.718434
3508.002007,153.219100,148.041188,9696.697840
3508.002321,-229.828649,-0.000000,9770.718434
3508.002635,76.609550,148.041188,10140.821405
3508.002949,76.609550,-0.000000,10140.821405
3508.003263,229.828649,-0.000000,9992.780217
3508.003577,0.000000,222.061783,9696.697840
3508.003891,459.657299,-0.000000,9770.718434
3508.004205,153.219100,222.061783,9844.739029
3508.004519,153.219100,148.041188,9918.759623
3508.004833,0.000000,-0.000000,9770.718434
3508.005147,0.000000,-0.000000,9548.656652
3508.005461,153.219100,-222.061783,9474.636058
3508.005775,76.609550,-0.000000,9400.615463
3508.006089,229.828649,370.102971,9770.718434
3508.006403,76.609550,296.082377,9548.656652
3508.006717,76.609550,148.041188,9548.656652
3508.007031,0.000000,-0.000000,10214.842000
3508.007345,0.000000,296.082377,9622.677246
3508.007659,76.609550,296.082377,9548.656652
3508.007973,0.000000,296.082377,9474.636058
3508.008286,0.000000,222.061783,9548.656652
3508.008600,459.657299,-0.000000,9918.759623
3508.008914,306.438199,592.164754,9474.636058
3508.009228,76.609550,-0.000000,9178.553681
3508.009542,153.219100,-0.000000,9400.615463
3508.009856,306.438199,148.041188,9252.574275
3508.010170,-153.219100,-148.041188,9474.636058
3508.010484,0.000000,-0.000000,9474.636058
3508.010798,0.000000,-74.020594,9622.677246
3508.011112,76.609550,-0.000000,9622.677246
3508.011426,76.609550,-0.000000,9548.656652
3508.011740,-153.219100,-74.020594,9696.697840
3508.012054,383.047749,-0.000000,9992.780217
3508.012368,229.828649,-0.000000,10066.800811
3508.012682,0.000000,-0.000000,9622.677246
3508.012997,0.000000,-0.000000,9474.636058
3508.013311,459.657299,-296.082377,9770.718434
3508.013625,76.609550,-0.000000,9622.677246
3508.013939,76.609550,-74.020594,9770.718434
3508.014253,0.000000,-0.000000,9918.759623
3508.014567,76.609550,-0.000000,9548.656652
3508.014881,-153.219100,-0.000000,9548.656652
3508.015195,0.000000,-0.000000,9992.780217
3508.015509,0.000000,-0.000000,9770.718434
3508.015823,0.000000,-0.000000,9326.594869
3508.016137,153.219100,-0.000000,9474.636058
3508.016451,229.828649,-222.061783,9326.594869
3508.016765,306.438199,148.041188,9696.697840
3508.017079,153.219100,-0.000000,9326.594869
3508.017393,76.609550,-74.020594,9252.574275
3508.017707,0.000000,148.041188,9622.677246
3508.018021,536.266849,-222.061783,8808.450710
3508.018335,459.657299,296.082377,9178.553681
3508.018649,459.657299,370.102971,9474.636058
3508.018963,536.266849,518.144159,9326.594869
3508.019277,306.438199,-74.020594,9104.533087
3508.019591,153.219100,296.082377,9474.636058
3508.019905,153.219100,-0.000000,9622.677246
3508.020219,0.000000,296.082377,9400.615463
3508.020533,306.438199,222.061783,9474.636058
3508.020847,229.828649,222.061783,9474.636058
3508.021161,306.438199,222.061783,9622.677246
3508.021475,153.219100,444.123565,9844.739029
3508.021789,76.609550,-0.000000,9844.739029
3508.022103,459.657299,222.061783,9548.656652
3508.022417,383.047749,296.082377,9474.636058
3508.022731,306.438199,-0.000000,9400.615463
3508.023045,383.047749,-0.000000,9918.759623
3508.023359,76.609550,148.041188,9770.718434
3508.023673,0.000000,148.041188,9918.759623
3508.023987,153.219100,222.061783,9770.718434
3508.024301,383.047749,296.082377,10066.800811
3508.024615,76.609550,-0.000000,9918.759623
3508.024929,153.219100,296.082377,9992.780217
3508.025243,0.000000,-0.000000,9918.759623
3508.025557,0.000000,-0.000000,9622.677246
3508.025871,0.000000,370.102971,9918.759623
3508.026185,76.609550,222.061783,9696.697840
3508.026499,153.219100,370.102971,9770.718434
3508.026813,153.219100,296.082377,9696.697840
3508.027127,153.219100,518.144159,9400.615463
3508.027441,383.047749,-148.041188,9844.739029
3508.027755,76.609550,-0.000000,9770.718434
3508.028069,-153.219100,-0.000000,9474.636058
3508.028384,0.000000,-0.000000,9474.636058
3508.028698,0.000000,-0.000000,9474.636058
3508.029012,0.000000,222.061783,9474.636058
3508.029326,0.000000,296.082377,9770.718434
3508.029640,0.000000,-0.000000,9400.615463
3508.029954,-229.828649,-0.000000,9178.553681
3508.030268,0.000000,-0.000000,9178.553681
3508.030582,459.657299,-0.000000,10140.821405
3508.030896,0.000000,-0.000000,9844.739029
3508.031210,-229.828649,-222.061783,9696.697840
3508.031524,0.000000,-0.000000,9696.697840
3508.031838,0.000000,-0.000000,9548.656652
3508.032152,459.657299,518.144159,9992.780217
3508.032466,459.657299,444.123565,9474.636058
3508.032780,536.266849,370.102971,9104.533087
3508.033094,536.266849,370.102971,9030.512492
3508.033408,689.485948,296.082377,9178.553681
3508.033722,306.438199,-518.144159,9104.533087
3508.034036,76.609550,-0.000000,9474.636058
3508.034350,153.219100,-296.082377,9548.656652
3508.034664,0.000000,-222.061783,9770.718434
3508.034978,383.047749,222.061783,9844.739029
3508.035292,0.000000,148.041188,10066.800811
3508.035606,-229.828649,-0.000000,10066.800811
3508.035920,76.609550,-0.000000,9770.718434
3508.036234,229.828649,-0.000000,9844.739029
3508.036548,306.438199,-0.000000,9992.780217
3508.036862,306.438199,-0.000000,9178.553681
3508.037176,306.438199,296.082377,9326.594869
3508.037490,153.219100,222.061783,9474.636058
3508.037804,229.828649,222.061783,9548.656652
3508.038118,76.609550,-370.102971,9918.759623
3508.038432,0.000000,-0.000000,9548.656652
3508.038746,0.000000,-0.000000,9548.656652
3508.039060,-306.438199,-0.000000,9474.636058
3508.039374,0.000000,-0.000000,9696.697840
3508.039688,0.000000,-0.000000,9770.718434
3508.040002,0.000000,-0.000000,9696.697840
3508.040316,0.000000,222.061783,9326.594869
3508.040630,306.438199,444.123565,9252.574275
3508.040944,306.438199,592.164754,9178.553681
3508.041258,229.828649,296.082377,9770.718434
3508.041572,76.609550,222.061783,9622.677246
3508.041886,76.609550,222.061783,9548.656652
3508.042200,0.000000,148.041188,9474.636058
3508.042514,0.000000,370.102971,9696.697840
3508.042828,76.609550,296.082377,9548.656652
3508.043142,0.000000,518.144159,9770.718434
3508.043456,0.000000,222.061783,9622.677246
3508.043770,0.000000,296.082377,9400.615463
3508.044085,0.000000,-0.000000,9474.636058
3508.044399,153.219100,370.102971,9474.636058
3508.044713,229.828649,-0.000000,9696.697840
3508.045027,0.000000,-0.000000,9474.636058
3508.045341,0.000000,-0.000000,9474.636058
3508.045655,0.000000,-0.000000,9770.718434
3508.045969,-306.438199,222.061783,10288.862594
3508.046283,0.000000,-0.000000,9992.780217
3508.046597,0.000000,370.102971,9918.759623
3508.046911,76.609550,296.082377,9622.677246
3508.047225,76.609550,-0.000000,9622.677246
3508.047539,153.219100,222.061783,9770.718434
3508.047853,76.609550,-0.000000,9548.656652
3508.048167,0.000000,-0.000000,9770.718434
3508.048481,0.000000,-0.000000,9474.636058
3508.048795,153.219100,-0.000000,9548.656652
3508.049109,306.438199,296.082377,9548.656652
3508.049423,0.000000,-0.000000,9918.759623
3508.049737,0.000000,-74.020594,9474.636058
3508.050051,76.609550,-0.000000,9474.636058
3508.050365,-459.657299,518.144159,9622.677246
3508.050679,229.828649,-74.020594,9474.636058
3508.050993,459.657299,-0.000000,9474.636058
3508.051307,306.438199,370.102971,8956.491898
3508.051621,0.000000,370.102971,9474.636058
3508.051935,383.047749,-0.000000,9252.574275
3508.052249,306.438199,-0.000000,9252.574275
3508.052563,459.657299,296.082377,9326.594869
3508.052877,229.828649,-0.000000,9252.574275
3508.053191,383.047749,-0.000000,9326.594869
3508.053505,306.438199,222.061783,9548.656652
3508.053819,76.609550,-0.000000,9548.656652
3508.054133,76.609550,-0.000000,9474.636058
3508.054447,153.219100,370.102971,9474.636058
3508.054761,306.438199,444.123565,9400.615463
3508.055075,383.047749,740.205942,9770.718434
3508.055389,153.219100,370.102971,9474.636058
3508.055703,153.219100,-0.000000,9474.636058
3508.056017,153.219100,-0.000000,9474.636058
3508.056331,229.828649,296.082377,9770.718434
3508.056645,229.828649,-0.000000,9548.656652
3508.056959,76.609550,-0.000000,9992.780217
3508.057273,153.219100,-0.000000,9844.739029
3508.057587,153.219100,-370.102971,9696.697840
3508.057901,153.219100,-0.000000,9696.697840
3508.058215,383.047749,296.082377,9474.636058
3508.058529,0.000000,-74.020594,9622.677246
3508.058843,0.000000,-0.000000,9474.636058
3508.059157,229.828649,-148.041188,9474.636058
3508.059472,76.609550,-148.041188,9400.615463
3508.059786,0.000000,-74.020594,9474.636058
3508.060100,229.828649,-0.000000,10066.800811
3508.060414,0.000000,-74.020594,9696.697840
3508.060728,229.828649,-0.000000,9696.697840
3508.061042,0.000000,296.082377,9548.656652
3508.061356,306.438199,-0.000000,9770.718434
3508.061670,306.438199,296.082377,9696.697840
3508.061984,0.000000,-0.000000,9474.636058
3508.062298,0.000000,-0.000000,9474.636058
3508.062612,76.609550,-0.000000,9474.636058
3508.062926,76.609550,222.061783,9622.677246
3508.063240,153.219100,296.082377,9622.677246
3508.063554,0.000000,-0.000000,9622.677246
3508.063868,76.609550,-0.000000,9474.636058
3508.064182,383.047749,222.061783,9548.656652
3508.064496,153.219100,296.082377,9770.718434
3508.064810,383.047749,296.082377,9474.636058
3508.065124,76.609550,148.041188,9474.636058
3508.065438,306.438199,592.164754,9844.739029
3508.065752,306.438199,444.123565,9622.677246
3508.066066,459.657299,444.123565,9992.780217
3508.066380,76.609550,296.082377,9400.615463
3508.066694,306.438199,-0.000000,9622.677246
3508.067008,306.438199,-0.000000,9770.718434
3508.067322,153.219100,296.082377,9918.759623
3508.067636,0.000000,-0.000000,9622.677246
3508.067950,76.609550,222.061783,9770.718434
3508.068264,0.000000,-0.000000,9548.656652
3508.068578,153.219100,222.061783,9474.636058
3508.068892,229.828649,-0.000000,9622.677246
3508.069206,153.219100,-0.000000,9844.739029
3508.069520,0.000000,296.082377,9548.656652
3508.069834,76.609550,-74.020594,9474.636058
3508.070148,229.828649,222.061783,9696.697840
3508.070462,383.047749,296.082377,9696.697840
3508.070776,229.828649,-0.000000,9474.636058
3508.071090,76.609550,-0.000000,9770.718434
3508.071404,0.000000,-0.000000,9992.780217
3508.071718,229.828649,-0.000000,9474.636058
3508.072032,229.828649,222.061783,9400.615463
3508.072346,76.609550,-0.000000,9696.697840
3508.072660,306.438199,-0.000000,9622.677246
3508.072974,-153.219100,-148.041188,9474.636058
3508.073288,0.000000,222.061783,9474.636058
3508.073602,153.219100,-0.000000,9622.677246
3508.073916,0.000000,-0.000000,9474.636058
3508.074230,76.609550,370.102971,9474.636058
3508.074544,306.438199,148.041188,9400.615463
3508.074858,153.219100,-0.000000,9474.636058
3508.075173,306.438199,222.061783,9622.677246
3508.075487,153.219100,370.102971,9474.636058
3508.075801,76.609550,296.082377,9622.677246
3508.076115,153.219100,148.041188,9252.574275
3508.076429,153.219100,370.102971,9474.636058
3508.076743,0.000000,222.061783,9992.780217
3508.077057,0.000000,370.102971,9770.718434
3508.077371,0.000000,370.102971,9474.636058
3508.077685,-459.657299,-0.000000,9474.636058
3508.077999,76.609550,518.144159,9696.697840
3508.078313,153.219100,-0.000000,9622.677246
3508.078627,0.000000,222.061783,9474.636058
3508.078941,0.000000,222.061783,9770.718434
3508.079255,459.657299,-0.000000,9474.636058
3508.079569,229.828649,296.082377,9548.656652
3508.079883,0.000000,-0.000000,9844.739029
3508.080197,0.000000,-0.000000,9622.677246
3508.080511,0.000000,296.082377,9622.677246
3508.080825,0.000000,222.061783,9474.636058
3508.081139,153.219100,-0.000000,10362.883188
3508.081453,76.609550,-0.000000,9474.636058
3508.081767,76.609550,-0.000000,9474.636058
3508.082081,0.000000,-0.000000,9622.677246
3508.082395,153.219100,-74.020594,9696.697840
3508.082709,153.219100,-0.000000,9548.656652
3508.083023,229.828649,-0.000000,9622.677246
3508.083337,383.047749,-0.000000,9400.615463
3508.083651,306.438199,148.041188,9326.594869
3508.083965,536.266849,222.061783,9622.677246
3508.084279,459.657299,444.123565,9918.759623
3508.084593,383.047749,-0.000000,9474.636058
3508.084907,229.828649,148.041188,9474.636058
3508.085221,0.000000,-0.000000,9326.594869
3508.085535,306.438199,-0.000000,9622.677246
3508.085849,76.609550,222.061783,9770.718434
3508.086163,153.219100,296.082377,9622.677246
3508.086477,306.438199,-0.000000,9770.718434
3508.086791,153.219100,222.061783,9622.677246
3508.087105,306.438199,740.205942,9548.656652
3508.087419,229.828649,74.020594,9252.574275
3508.087733,306.438199,296.082377,9548.656652
3508.088047,153.219100,222.061783,9400.615463
3508.088361,0.000000,296.082377,9252.574275
3508.088675,536.266849,296.082377,9992.780217
3508.088989,153.219100,370.102971,9548.656652
3508.089303,229.828649,148.041188,9474.636058
3508.089617,0.000000,-0.000000,9548.656652
3508.089931,0.000000,-74.020594,9548.656652
3508.090245,536.266849,-0.000000,9844.739029
3508.090559,0.000000,-0.000000,9770.718434
3508.090874,0.000000,148.041188,9696.697840
3508.091188,0.000000,-0.000000,9548.656652
3508.091502,0.000000,-0.000000,9622.677246
3508.091816,0.000000,-148.041188,9474.636058
3508.092130,229.828649,296.082377,9548.656652
3508.092444,0.000000,-0.000000,9548.656652
3508.092758,76.609550,-0.000000,9252.574275
3508.093072,0.000000,222.061783,9622.677246
3508.093386,229.828649,-0.000000,9696.697840
3508.093700,0.000000,-148.041188,9622.677246
3508.094014,76.609550,-0.000000,9696.697840
3508.094328,76.609550,-0.000000,9474.636058
3508.094642,0.000000,-0.000000,9696.697840
3508.094956,0.000000,-222.061783,9992.780217
3508.095270,0.000000,-148.041188,9770.718434
3508.095584,0.000000,-0.000000,9622.677246
3508.095898,0.000000,-0.000000,9474.636058
3508.096212,0.000000,-0.000000,9844.739029
3508.096526,229.828649,-0.000000,9844.739029
3508.096840,536.266849,-0.000000,9696.697840
3508.097154,459.657299,222.061783,9326.594869
3508.097468,76.609550,370.102971,9326.594869
3508.097782,229.828649,222.061783,9918.759623
3508.098096,229.828649,-0.000000,9474.636058
3508.098410,153.219100,296.082377,9400.615463
3508.098724,0.000000,148.041188,9770.718434
3508.099038,0.000000,222.061783,9474.636058
3508.099352,459.657299,-0.000000,9548.656652
3508.099666,0.000000,-0.000000,9474.636058
3508.099980,0.000000,-0.000000,9844.739029
3508.100294,-459.657299,-74.020594,9548.656652
3508.100608,-306.438199,-0.000000,9548.656652
3508.100922,-306.438199,222.061783,10214.842000
3508.101236,-383.047749,-0.000000,9696.697840
3508.101550,-383.047749,-74.020594,9770.718434
3508.101864,-229.828649,-222.061783,9696.697840
3508.102178,0.000000,-148.041188,9918.759623
3508.102492,306.438199,-0.000000,9770.718434
3508.102806,306.438199,518.144159,9696.697840
3508.103120,306.438199,222.061783,9622.677246
3508.103434,76.609550,370.102971,9400.615463
3508.103748,536.266849,222.061783,9326.594869
3508.104062,536.266849,-0.000000,9104.533087
3508.104376,229.828649,-148.041188,9770.718434
3508.104690,536.266849,-148.041188,9474.636058
3508.105004,229.828649,-148.041188,9548.656652
3508.105318,76.609550,-222.061783,9696.697840
3508.105632,612.876398,-518.144159,9548.656652
3508.105946,536.266849,-518.144159,10066.800811
3508.106261,0.000000,-444.123565,9918.759623
3508.106575,383.047749,-0.000000,9770.718434
3508.106889,229.828649,296.082377,9622.677246
3508.107203,306.438199,518.144159,9474.636058
3508.107517,612.876398,592.164754,9622.677246
3508.107831,383.047749,370.102971,9030.512492
3508.108145,229.828649,592.164754,9104.533087
3508.108459,612.876398,518.144159,9474.636058
3508.108773,612.876398,518.144159,9696.697840
3508.109087,306.438199,296.082377,9696.697840
3508.109401,0.000000,296.082377,9548.656652
3508.109715,76.609550,148.041188,9622.677246
3508.110029,76.609550,296.082377,9770.718434
3508.110343,229.828649,370.102971,9548.656652
3508.110657,0.000000,222.061783,9992.780217
3508.110971,0.000000,518.144159,9548.656652
3508.111285,153.219100,666.185348,9252.574275
3508.111599,229.828649,592.164754,9326.594869
3508.111913,229.828649,592.164754,9622.677246
3508.112227,-306.438199,740.205942,9696.697840
3508.112541,229.828649,666.185348,9474.636058
3508.112855,229.828649,592.164754,9474.636058
3508.113169,306.438199,444.123565,9474.636058
3508.113483,0.000000,296.082377,9622.677246
3508.113797,0.000000,296.082377,10066.800811
3508.114111,0.000000,518.144159,9992.780217
3508.114425,-306.438199,370.102971,9622.677246
3508.114739,0.000000,296.082377,9696.697840
3508.115053,383.047749,-0.000000,9696.697840
3508.115367,76.609550,-0.000000,9696.697840
3508.115681,0.000000,-0.000000,9474.636058
3508.115995,0.000000,-0.000000,9770.718434
3508.116309,0.000000,370.102971,9992.780217
3508.116623,76.609550,-296.082377,10288.862594
3508.116937,0.000000,-0.000000,9548.656652
3508.117251,0.000000,-0.000000,9622.677246
3508.117565,76.609550,-0.000000,9770.718434
3508.117879,0.000000,148.041188,9622.677246
3508.118193,76.609550,-0.000000,10214.842000
3508.118507,0.000000,222.061783,9548.656652
3508.118821,0.000000,222.061783,9548.656652
3508.119135,0.000000,222.061783,9474.636058
3508.119449,0.000000,-0.000000,9622.677246
3508.119763,0.000000,296.082377,10066.800811
3508.120077,153.219100,-0.000000,9622.677246
3508.120391,76.609550,-0.000000,9696.697840
3508.120705,0.000000,-0.000000,9622.677246
3508.121019,459.657299,296.082377,9992.780217
3508.121333,459.657299,-74.020594,9548.656652
3508.121647,229.828649,-0.000000,9548.656652
3508.121961,536.266849,444.123565,9178.553681
3508.122275,229.828649,-0.000000,8882.471304
3508.122589,153.219100,370.102971,9252.574275
3508.122903,383.047749,-0.000000,9252.574275
3508.123217,306.438199,-0.000000,9104.533087
3508.123531,229.828649,-0.000000,9178.553681
3508.123845,306.438199,148.041188,9474.636058
3508.124159,536.266849,-296.082377,9548.656652
3508.124473,0.000000,-296.082377,9548.656652
3508.124787,0.000000,-222.061783,9474.636058
3508.125101,-153.219100,-296.082377,9474.636058
3508.125415,229.828649,-0.000000,9474.636058
3508.125729,306.438199,-0.000000,9622.677246
3508.126043,383.047749,-0.000000,9548.656652
3508.126357,306.438199,-0.000000,9548.656652
3508.126671,306.438199,-148.041188,9400.615463
3508.126985,536.266849,-0.000000,9548.656652
3508.127299,689.485948,148.041188,10066.800811
3508.127613,383.047749,-222.061783,9474.636058
3508.127927,0.000000,-0.000000,9104.533087
3508.128241,536.266849,-74.020594,9548.656652
3508.128555,153.219100,222.061783,9696.697840
3508.128869,306.438199,-222.061783,9770.718434
3508.129183,76.609550,-0.000000,9770.718434
3508.129497,0.000000,222.061783,9992.780217
3508.129811,76.609550,222.061783,9844.739029
3508.130125,76.609550,-0.000000,9474.636058
3508.130439,306.438199,-0.000000,10066.800811
3508.130753,0.000000,-0.000000,9844.739029
3508.131067,0.000000,222.061783,9696.697840
3508.131381,0.000000,444.123565,9844.739029
3508.131695,459.657299,518.144159,9918.759623
3508.132009,459.657299,666.185348,9844.739029
3508.132323,0.000000,444.123565,9474.636058
3508.132637,153.219100,518.144159,9696.697840
3508.132951,153.219100,296.082377,9548.656652
3508.133265,306.438199,370.102971,9770.718434
3508.133579,0.000000,148.041188,10066.800811
3508.133893,-459.657299,-0.000000,9622.677246
3508.134207,-612.876398,296.082377,9696.697840
3508.134521,0.000000,222.061783,9622.677246
3508.134835,0.000000,296.082377,9770.718434
3508.135149,0.000000,222.061783,9474.636058
3508.135463,0.000000,370.102971,9474.636058
3508.135777,0.000000,444.123565,9696.697840
3508.136091,229.828649,666.185348,9474.636058
3508.136405,383.047749,740.205942,9474.636058
3508.136719,229.828649,592.164754,9548.656652
3508.137033,306.438199,222.061783,9474.636058
3508.137347,306.438199,370.102971,9548.656652
3508.137661,0.000000,-0.000000,9400.615463
3508.137975,0.000000,148.041188,10140.821405
3508.138289,153.219100,-148.041188,9696.697840
3508.138603,76.609550,-0.000000,9696.697840
3508.138917,0.000000,-0.000000,9622.677246
3508.139231,459.657299,-370.102971,9770.718434
3508.139545,229.828649,-0.000000,9770.718434
3508.139859,0.000000,518.144159,9548.656652
3508.140173,383.047749,-74.020594,9918.759623
3508.140487,229.828649,296.082377,9474.636058
3508.140801,459.657299,296.082377,9696.697840
3508.141115,0.000000,222.061783,9548.656652
3508.141429,76.609550,-0.000000,9992.780217
3508.141743,76.609550,-0.000000,9622.677246
3508.142057,153.219100,222.061783,9548.656652
3508.142371,0.000000,-0.000000,9474.636058
3508.142685,0.000000,-0.000000,9770.718434
3508.142999,306.438199,-0.000000,9474.636058
3508.143313,0.000000,-0.000000,9474.636058
3508.143627,383.047749,-0.000000,9474.636058
3508.143941,306.438199,222.061783,9696.697840
3508.144255,0.000000,370.102971,9474.636058
3508.144569,229.828649,-0.000000,9844.739029
3508.144883,0.000000,148.041188,9474.636058
3508.145197,153.219100,-0.000000,9326.594869
3508.145511,0.000000,-0.000000,9474.636058
3508.145825,0.000000,-0.000000,9622.677246
3508.146139,0.000000,-0.000000,9400.615463
3508.146453,229.828649,-0.000000,9030.512492
3508.146767,0.000000,296.082377,9474.636058
3508.147081,0.000000,-0.000000,9844.739029
3508.147395,0.000000,-74.020594,9474.636058
3508.147709,0.000000,-0.000000,9918.759623
3508.148023,0.000000,-0.000000,9622.677246
3508.148337,153.219100,-0.000000,9548.656652
3508.148651,76.609550,-148.041188,9844.739029
3508.148965,-306.438199,-222.061783,9918.759623
3508.149279,0.000000,74.020594,9992.780217
3508.149593,0.000000,-222.061783,9474.636058
3508.149907,0.000000,-74.020594,9696.697840
3508.150221,536.266849,-0.000000,9770.718434
3508.150535,153.219100,-0.000000,9770.718434
3508.150849,0.000000,-0.000000,9622.677246
3508.151163,153.219100,-0.000000,9474.636058
3508.151477,306.438199,-0.000000,9918.759623
3508.151791,0.000000,-222.061783,9844.739029
3508.152105,0.000000,-0.000000,9770.718434
3508.152419,229.828649,-0.000000,9844.739029
3508.152733,0.000000,-0.000000,9622.677246
3508.153047,229.828649,-0.000000,9696.697840
3508.153361,0.000000,-74.020594,9622.677246
3508.153675,0.000000,296.082377,9918.759623
3508.153989,153.219100,-0.000000,9474.636058
3508.154303,0.000000,370.102971,9474.636058
3508.154617,153.219100,222.061783,9770.718434
3508.154931,76.609550,-0.000000,9548.656652
3508.155245,0.000000,222.061783,9622.677246
3508.155559,0.000000,-0.000000,9400.615463
3508.155873,153.219100,-0.000000,9400.615463
3508.156187,229.828649,-0.000000,9400.615463
3508.156501,153.219100,148.041188,9474.636058
3508.156815,76.609550,444.123565,9770.718434
3508.157129,76.609550,296.082377,9104.533087
3508.157443,0.000000,444.123565,9474.636058
3508.157757,229.828649,148.041188,9474.636058
3508.158071,0.000000,-0.000000,9844.739029
3508.158385,459.657299,-0.000000,9548.656652
3508.158699,229.828649,296.082377,9474.636058
3508.159013,383.047749,222.061783,9548.656652
3508.159327,229.828649,518.144159,9400.615463
3508.159641,229.828649,222.061783,9252.574275
3508.159955,229.828649,-0.000000,9770.718434
3508.160269,0.000000,-0.000000,9474.636058
3508.160583,76.609550,-0.000000,9474.636058
3508.160897,153.219100,-74.020594,9696.697840
3508.161211,0.000000,-74.020594,9992.780217
3508.161525,0.000000,-0.000000,9548.656652
3508.161839,0.000000,222.061783,9474.636058
3508.162153,0.000000,148.041188,9918.759623
3508.162467,153.219100,148.041188,9918.759623
3508.162781,612.876398,-0.000000,9622.677246
3508.163095,153.219100,74.020594,9474.636058
3508.163409,153.219100,-0.000000,9474.636058
3508.163723,306.438199,222.061783,9770.718434
3508.164037,536.266849,-0.000000,10140.821405
3508.164351,0.000000,296.082377,10066.800811
3508.164665,0.000000,296.082377,9844.739029
3508.164979,0.000000,444.123565,9992.780217
3508.165293,0.000000,148.041188,9844.739029
3508.165607,612.876398,-0.000000,9770.718434
3508.165921,0.000000,-0.000000,9844.739029
3508.166235,-76.609550,370.102971,9474.636058
3508.166549,0.000000,148.041188,9548.656652
3508.166863,0.000000,296.082377,9548.656652
3508.167177,229.828649,370.102971,9104.533087
3508.167491,0.000000,148.041188,9474.636058
3508.167805,0.000000,222.061783,9844.739029
3508.168119,0.000000,296.082377,9622.677246
3508.168433,0.000000,-0.000000,9400.615463
3508.168747,459.657299,370.102971,9844.739029
3508.169061,306.438199,-0.000000,9474.636058
3508.169375,536.266849,370.102971,9178.553681
3508.169689,0.000000,-0.000000,9548.656652
3508.170003,153.219100,-0.000000,9474.636058
3508.170317,459.657299,-0.000000,9326.594869
3508.170631,153.219100,148.041188,9400.615463
3508.170945,0.000000,-0.000000,9548.656652
3508.171259,0.000000,-74.020594,9400.615463
3508.171573,0.000000,-0.000000,9622.677246
3508.171887,229.828649,-444.123565,9844.739029
3508.172201,153.219100,-0.000000,9844.739029
3508.172515,76.609550,-0.000000,9770.718434
3508.172829,-153.219100,-0.000000,9696.697840
3508.173143,383.047749,-0.000000,9844.739029
3508.173457,919.314598,-0.000000,10066.800811
3508.173771,536.266849,296.082377,9474.636058
3508.174085,459.657299,-0.000000,9400.615463
3508.174399,306.438199,-0.000000,9252.574275
3508.174713,383.047749,-0.000000,9622.677246
3508.175027,459.657299,-0.000000,9622.677246
3508.175341,229.828649,222.061783,9770.718434
3508.175655,153.219100,-74.020594,9474.636058
3508.175969,0.000000,-0.000000,9474.636058
3508.176283,0.000000,-0.000000,10066.800811
3508.176597,76.609550,-148.041188,9992.780217
3508.176911,0.000000,-0.000000,9474.636058
3508.177225,153.219100,148.041188,9474.636058
3508.177539,0.000000,222.061783,9326.594869
3508.177853,383.047749,296.082377,9622.677246
3508.178167,153.219100,-0.000000,8808.450710
3508.178481,0.000000,-222.061783,9178.553681
3508.178795,153.219100,370.102971,9548.656652
3508.179109,153.219100,296.082377,9252.574275
3508.179423,536.266849,444.123565,9548.656652
3508.179737,459.657299,222.061783,9696.697840
3508.180051,153.219100,148.041188,9474.636058
3508.180365,0.000000,-0.000000,9252.574275
3508.180679,0.000000,518.144159,9474.636058
3508.180993,306.438199,222.061783,9918.759623
3508.181307,76.609550,222.061783,9178.553681
3508.181621,306.438199,370.102971,9326.594869
3508.181935,76.609550,-0.000000,9696.697840
3508.182249,306.438199,518.144159,9696.697840
3508.182563,306.438199,518.144159,9622.677246
3508.182877,306.438199,370.102971,9770.718434
3508.183191,306.438199,370.102971,9918.759623
3508.183505,0.000000,296.082377,9622.677246
3508.183819,0.000000,148.041188,9622.677246
3508.184133,76.609550,222.061783,9992.780217
3508.184447,0.000000,814.226536,9696.697840
3508.184761,76.609550,666.185348,9696.697840
3508.185075,76.609550,518.144159,9918.759623
3508.185389,0.000000,222.061783,9918.759623
3508.185703,76.609550,148.041188,9696.697840
3508.186017,459.657299,-0.000000,9918.759623
3508.186331,0.000000,222.061783,9918.759623
3508.186645,0.000000,296.082377,9770.718434
3508.186959,0.000000,222.061783,9474.636058
3508.187273,536.266849,296.082377,9992.780217
3508.187587,306.438199,-0.000000,9918.759623
3508.187901,0.000000,370.102971,9474.636058
3508.188215,0.000000,370.102971,9770.718434
3508.188529,0.000000,-0.000000,9770.718434
3508.188843,0.000000,296.082377,9622.677246
3508.189157,0.000000,-0.000000,8882.471304
3508.189471,76.609550,-0.000000,9474.636058
3508.189785,0.000000,148.041188,9474.636058
3508.190099,0.000000,148.041188,9474.636058
3508.190413,306.438199,-0.000000,9548.656652
3508.190727,536.266849,-222.061783,9326.594869
3508.191041,306.438199,-0.000000,9326.594869
3508.191355,0.000000,444.123565,9326.594869
3508.191669,153.219100,-0.000000,9918.759623
3508.191983,153.219100,-74.020594,9770.718434
3508.192297,76.609550,-518.144159,9474.636058
3508.192611,229.828649,-0.000000,9400.615463
3508.192925,229.828649,-0.000000,9548.656652
3508.193239,383.047749,148.041188,9696.697840
3508.193553,459.657299,-0.000000,9696.697840
3508.193867,459.657299,-74.020594,9696.697840
3508.194181,76.609550,222.061783,9400.615463
3508.194495,229.828649,296.082377,9326.594869
3508.194809,229.828649,-0.000000,9622.677246
3508.195123,229.828649,-0.000000,9770.718434
3508.195437,0.000000,-148.041188,9844.739029
3508.195751,153.219100,-0.000000,9474.636058
3508.196065,229.828649,222.061783,9770.718434
3508.196379,0.000000,-0.000000,9696.697840
3508.196693,536.266849,222.061783,9622.677246
3508.197007,0.000000,-74.020594,10140.821405
3508.197321,76.609550,-0.000000,10066.800811
3508.197635,153.219100,-0.000000,10140.821405
3508.197949,76.609550,444.123565,9622.677246
3508.198263,153.219100,-0.000000,9548.656652
3508.198577,229.828649,-0.000000,9844.739029
3508.198891,0.000000,222.061783,9474.636058
3508.199205,76.609550,-0.000000,9474.636058
3508.199519,0.000000,-0.000000,9696.697840
3508.199833,306.438199,148.041188,9474.636058
3508.200147,0.000000,444.123565,9474.636058
3508.200461,0.000000,-74.020594,9400.615463
3508.200775,0.000000,148.041188,9622.677246
3508.201089,0.000000,148.041188,9548.656652
3508.201403,76.609550,-0.000000,9622.677246
3508.201717,-229.828649,-0.000000,9474.636058
3508.202031,0.000000,222.061783,9622.677246
3508.202345,153.219100,148.041188,9474.636058
3508.202659,0.000000,-0.000000,9400.615463
3508.202973,153.219100,74.020594,9770.718434
3508.203287,229.828649,222.061783,9252.574275
3508.203601,76.609550,-0.000000,9844.739029
3508.203915,459.657299,-0.000000,9918.759623
3508.204229,306.438199,-0.000000,9548.656652
3508.204543,0.000000,-0.000000,9622.677246
3508.204857,0.000000,148.041188,9474.636058
3508.205171,76.609550,-148.041188,9992.780217
3508.205485,153.219100,-0.000000,9474.636058
3508.205799,0.000000,222.061783,9770.718434
3508.206113,0.000000,-0.000000,9474.636058
3508.206427,76.609550,148.041188,9326.594869
3508.206741,153.219100,-0.000000,9696.697840
3508.207055,229.828649,-0.000000,9770.718434
3508.207369,383.047749,370.102971,10140.821405
3508.207683,0.000000,148.041188,9474.636058
3508.207997,0.000000,222.061783,9474.636058
3508.208311,306.438199,-0.000000,10140.821405
3508.208625,0.000000,-0.000000,9474.636058
3508.208939,-229.828649,-0.000000,9474.636058
3508.209253,-306.438199,-0.000000,9474.636058
3508.209567,0.000000,148.041188,9474.636058
3508.209881,0.000000,-0.000000,9252.574275
3508.210195,153.219100,-0.000000,9474.636058
3508.210509,153.219100,222.061783,9696.697840
3508.210823,76.609550,222.061783,9474.636058
3508.211137,0.000000,444.123565,9548.656652
3508.211451,76.609550,-0.000000,9696.697840
3508.211765,306.438199,-0.000000,9400.615463
3508.212079,229.828649,444.123565,9474.636058
3508.212393,153.219100,296.082377,9474.636058
3508.212707,153.219100,-0.000000,9548.656652
3508.213021,383.047749,296.082377,9474.636058
3508.213335,229.828649,-74.020594,9474.636058
3508.213649,76.609550,370.102971,9622.677246
3508.213963,306.438199,222.061783,9548.656652
3508.214277,536.266849,-148.041188,9696.697840
3508.214591,229.828649,-74.020594,9548.656652
3508.214905,229.828649,-0.000000,9548.656652
3508.215219,76.609550,-0.000000,9548.656652
3508.215532,76.609550,222.061783,9474.636058
3508.215846,153.219100,296.082377,9548.656652
3508.216160,153.219100,-0.000000,9770.718434
3508.216474,76.609550,-0.000000,9474.636058
3508.216788,0.000000,-0.000000,9918.759623
3508.217102,0.000000,222.061783,9918.759623
3508.217416,0.000000,-222.061783,9474.636058
3508.217730,0.000000,222.061783,9992.780217
3508.218044,76.609550,-0.000000,10214.842000
3508.218358,76.609550,296.082377,9696.697840
3508.218672,0.000000,222.061783,9474.636058
3508.218986,0.000000,-0.000000,9548.656652
3508.219300,0.000000,370.102971,9844.739029
3508.219614,-229.828649,-0.000000,9474.636058
3508.219928,-306.438199,-0.000000,9474.636058
3508.220242,0.000000,-0.000000,9474.636058
3508.220556,153.219100,-74.020594,9696.697840
3508.220870,76.609550,148.041188,9252.574275
3508.221184,76.609550,222.061783,9622.677246
3508.221498,-383.047749,-0.000000,9696.697840
3508.221812,153.219100,-0.000000,9400.615463
3508.222126,229.828649,-0.000000,9474.636058
3508.222440,612.876398,222.061783,9474.636058
3508.222754,383.047749,370.102971,9474.636058
3508.223068,229.828649,-0.000000,9326.594869
3508.223382,229.828649,-0.000000,9474.636058
3508.223696,459.657299,222.061783,9770.718434
3508.224010,0.000000,-0.000000,9474.636058
3508.224324,0.000000,-0.000000,9548.656652
3508.224637,0.000000,-222.061783,9474.636058
3508.224951,306.438199,-74.020594,9474.636058
3508.225265,0.000000,-148.041188,9474.636058
3508.225579,153.219100,-148.041188,9474.636058
3508.225893,153.219100,-0.000000,9400.615463
3508.226207,306.438199,-0.000000,9400.615463
3508.226521,0.000000,74.020594,9326.594869
3508.226835,306.438199,-0.000000,10214.842000
3508.227149,153.219100,-0.000000,9844.739029
3508.227463,229.828649,222.061783,9474.636058
3508.227777,306.438199,222.061783,9770.718434
3508.228091,0.000000,-0.000000,9696.697840
3508.228405,0.000000,-0.000000,10140.821405
3508.228719,0.000000,148.041188,9992.780217
3508.229033,0.000000,296.082377,9918.759623
3508.229347,76.609550,370.102971,9918.759623
3508.229661,383.047749,222.061783,9326.594869
3508.229975,612.876398,370.102971,9178.553681
3508.230289,153.219100,370.102971,9622.677246
3508.230603,0.000000,296.082377,9474.636058
3508.230917,76.609550,296.082377,9622.677246
3508.231231,153.219100,296.082377,9474.636058
3508.231545,306.438199,-0.000000,9918.759623
3508.231859,0.000000,-0.000000,9548.656652
3508.232173,0.000000,-0.000000,9918.759623
3508.232487,0.000000,-0.000000,9844.739029
3508.232801,0.000000,148.041188,9622.677246
3508.233115,153.219100,-0.000000,9622.677246
3508.233429,306.438199,370.102971,9474.636058
3508.233742,153.219100,222.061783,9326.594869
3508.234056,229.828649,370.102971,9400.615463
3508.234370,383.047749,296.082377,9474.636058
3508.234684,76.609550,-0.000000,9474.636058
3508.234998,229.828649,-0.000000,9474.636058
3508.235312,459.657299,370.102971,9474.636058
3508.235626,0.000000,-0.000000,9474.636058
3508.235940,153.219100,-0.000000,9622.677246
3508.236254,306.438199,-0.000000,9918.759623
3508.236568,0.000000,-0.000000,9918.759623
3508.236882,76.609550,-0.000000,9622.677246
3508.237196,0.000000,222.061783,9030.512492
3508.237510,306.438199,-0.000000,9400.615463
3508.237824,76.609550,518.144159,9918.759623
3508.238138,0.000000,-0.000000,9844.739029
3508.238452,0.000000,-74.020594,9696.697840
3508.238766,0.000000,148.041188,9622.677246
3508.239080,229.828649,-0.000000,9844.739029
3508.239394,0.000000,-0.000000,9622.677246
3508.239708,153.219100,296.082377,9326.594869
3508.240022,0.000000,222.061783,9696.697840
3508.240336,153.219100,222.061783,9474.636058
3508.240650,306.438199,296.082377,9622.677246
3508.240964,0.000000,-444.123565,9844.739029
3508.241278,0.000000,-0.000000,9326.594869
3508.241592,-306.438199,-0.000000,9474.636058
3508.241906,-383.047749,-222.061783,9548.656652
3508.242220,0.000000,-296.082377,9844.739029
3508.242534,0.000000,518.144159,9770.718434
3508.242847,-459.657299,-74.020594,9622.677246
3508.243161,-306.438199,-148.041188,9548.656652
3508.243475,-306.438199,-0.000000,9844.739029
3508.243789,76.609550,-0.000000,9770.718434
3508.244103,306.438199,-0.000000,9770.718434
3508.244417,76.609550,-148.041188,9400.615463
3508.244731,153.219100,444.123565,9400.615463
3508.245045,459.657299,222.061783,9474.636058
3508.245359,612.876398,-0.000000,9474.636058
3508.245673,-229.828649,-0.000000,9474.636058
3508.245987,459.657299,-0.000000,9326.594869
3508.246301,153.219100,-0.000000,9474.636058
3508.246615,459.657299,-148.041188,9548.656652
3508.246929,229.828649,-222.061783,9178.553681
3508.247243,459.657299,-222.061783,9400.615463
3508.247557,76.609550,-222.061783,9770.718434
3508.247871,76.609550,-74.020594,9770.718434
3508.248185,306.438199,296.082377,9696.697840
3508.248499,383.047749,-0.000000,9474.636058
3508.248813,459.657299,148.041188,9622.677246
3508.249127,612.876398,296.082377,9326.594869
3508.249441,383.047749,518.144159,9474.636058
3508.249755,689.485948,444.123565,9622.677246
3508.250069,842.705048,296.082377,9622.677246
3508.250383,536.266849,296.082377,9474.636058
3508.250697,383.047749,518.144159,9622.677246
3508.251011,0.000000,-0.000000,9918.759623
3508.251325,153.219100,148.041188,9918.759623
3508.251638,153.219100,-0.000000,9696.697840
3508.251952,76.609550,-0.000000,9992.780217
3508.252266,459.657299,-0.000000,9548.656652
3508.252580,153.219100,148.041188,9474.636058
3508.252894,459.657299,370.102971,9548.656652
3508.253208,383.047749,370.102971,9474.636058
3508.253522,153.219100,518.144159,9474.636058
3508.253836,76.609550,370.102971,9030.512492
3508.254150,153.219100,666.185348,9474.636058
3508.254464,229.828649,592.164754,9622.677246
3508.254778,76.609550,296.082377,9474.636058
3508.255092,536.266849,296.082377,9918.759623
3508.255406,0.000000,370.102971,9770.718434
3508.255720,0.000000,296.082377,9770.718434
3508.256034,0.000000,370.102971,9918.759623
3508.256348,-306.438199,222.061783,9770.718434
3508.256662,-306.438199,592.164754,9696.697840
3508.256976,76.609550,-74.020594,9104.533087
3508.257290,153.219100,-0.000000,9474.636058
3508.257604,0.000000,296.082377,9770.718434
3508.257918,0.000000,-0.000000,9622.677246
3508.258232,-153.219100,-0.000000,9918.759623
3508.258546,0.000000,370.102971,9474.636058
3508.258860,0.000000,296.082377,9844.739029
3508.259174,0.000000,370.102971,9548.656652
3508.259488,76.609550,444.123565,9992.780217
3508.259802,0.000000,148.041188,9844.739029
3508.260116,-459.657299,148.041188,9622.677246
3508.260430,0.000000,296.082377,9918.759623
3508.260743,-153.219100,-0.000000,9696.697840
3508.261057,0.000000,148.041188,9992.780217
3508.261371,306.438199,-0.000000,9548.656652
3508.261685,76.609550,222.061783,9548.656652
3508.261999,153.219100,148.041188,9918.759623
3508.262313,0.000000,-0.000000,9548.656652
3508.262627,76.609550,-0.000000,9622.677246
3508.262941,76.609550,-296.082377,9622.677246
3508.263255,536.266849,-0.000000,9474.636058
3508.263569,153.219100,-0.000000,9474.636058
3508.263883,0.000000,-0.000000,9474.636058
3508.264197,536.266849,-148.041188,9548.656652
3508.264511,459.657299,-148.041188,9104.533087
3508.264825,229.828649,-0.000000,9178.553681
3508.265139,383.047749,-0.000000,8956.491898
3508.265453,536.266849,-0.000000,9474.636058
3508.265767,383.047749,-0.000000,9548.656652
3508.266081,383.047749,-0.000000,9474.636058
3508.266395,0.000000,-0.000000,9474.636058
3508.266709,229.828649,-148.041188,9400.615463
3508.267023,153.219100,-0.000000,9770.718434
3508.267337,229.828649,-0.000000,9622.677246
3508.267651,306.438199,-296.082377,9548.656652
3508.267965,383.047749,-0.000000,9178.553681
3508.268279,536.266849,-0.000000,9400.615463
3508.268593,306.438199,-0.000000,9548.656652
3508.268907,306.438199,-0.000000,9326.594869
3508.269221,459.657299,-148.041188,9104.533087
3508.269535,766.095498,-0.000000,9622.677246
3508.269848,229.828649,-0.000000,9918.759623
3508.270162,306.438199,-0.000000,9844.739029
3508.270476,153.219100,-0.000000,9770.718434
3508.270790,459.657299,-592.164754,9844.739029
3508.271104,0.000000,-0.000000,10066.800811
3508.271418,-153.219100,-0.000000,10066.800811
3508.271732,-229.828649,-0.000000,9918.759623
3508.272046,0.000000,-0.000000,9770.718434
3508.272360,76.609550,518.144159,9770.718434
3508.272674,383.047749,518.144159,9474.636058
3508.272988,612.876398,370.102971,9696.697840
3508.273302,0.000000,296.082377,9548.656652
3508.273616,-153.219100,222.061783,9696.697840
3508.273930,-766.095498,-148.041188,9548.656652
3508.274244,-229.828649,148.041188,9548.656652
3508.274558,-153.219100,-0.000000,9844.739029
3508.274872,0.000000,-0.000000,9992.780217
3508.275186,153.219100,222.061783,9770.718434
3508.275500,0.000000,-0.000000,9770.718434
3508.275814,0.000000,444.123565,10066.800811
3508.276128,0.000000,222.061783,9770.718434
3508.276442,0.000000,148.041188,9252.574275
3508.276756,76.609550,666.185348,9400.615463
3508.277070,153.219100,518.144159,10436.903782
3508.277384,153.219100,518.144159,9622.677246
3508.277698,306.438199,370.102971,9400.615463
3508.278012,0.000000,518.144159,9474.636058
3508.278326,-153.219100,444.123565,9474.636058
3508.278639,229.828649,222.061783,10214.842000
3508.278953,153.219100,-0.000000,9548.656652
3508.279267,306.438199,-0.000000,9696.697840
3508.279581,153.219100,222.061783,9548.656652
3508.279895,0.000000,370.102971,9326.594869
3508.280209,76.609550,296.082377,9474.636058
3508.280523,229.828649,-0.000000,9548.656652
3508.280837,76.609550,222.061783,9918.759623
3508.281151,229.828649,148.041188,9474.636058
3508.281465,383.047749,-0.000000,9474.636058
3508.281779,459.657299,-0.000000,9400.615463
3508.282093,459.657299,296.082377,9548.656652
3508.282407,229.828649,-0.000000,9474.636058
3508.282721,383.047749,222.061783,9474.636058
3508.283035,76.609550,370.102971,9770.718434
3508.283349,383.047749,370.102971,9548.656652
3508.283663,229.828649,-0.000000,9622.677246
3508.283977,0.000000,296.082377,9622.677246
3508.284291,0.000000,-0.000000,9474.636058
3508.284605,306.438199,148.041188,9696.697840
3508.284919,153.219100,-0.000000,9696.697840
3508.285233,0.000000,-0.000000,9696.697840
3508.285547,229.828649,-0.000000,9548.656652
3508.285861,229.828649,-0.000000,9696.697840
3508.286175,0.000000,-0.000000,9770.718434
3508.286489,76.609550,-0.000000,9474.636058
3508.286803,306.438199,-0.000000,9770.718434
3508.287117,229.828649,-0.000000,9770.718434
3508.287431,229.828649,148.041188,9474.636058
3508.287744,612.876398,-0.000000,9474.636058
3508.288058,0.000000,592.164754,9844.739029
3508.288372,229.828649,296.082377,9474.636058
3508.288686,0.000000,296.082377,9326.594869
3508.289000,229.828649,222.061783,9474.636058
3508.289314,0.000000,-74.020594,9844.739029
3508.289628,0.000000,-0.000000,9770.718434
3508.289942,76.609550,-0.000000,9770.718434
3508.290256,229.828649,-0.000000,9696.697840
3508.290570,229.828649,592.164754,10140.821405
3508.290884,0.000000,222.061783,9400.615463
3508.291198,153.219100,370.102971,9474.636058
3508.291512,306.438199,-0.000000,9844.739029
3508.291826,0.000000,-0.000000,9474.636058
3508.292140,76.609550,-0.000000,9474.636058
3508.292454,76.609550,-0.000000,9696.697840
3508.292768,0.000000,148.041188,9548.656652
3508.293082,153.219100,-0.000000,9622.677246
3508.293396,-76.609550,222.061783,9696.697840
3508.293710,153.219100,-370.102971,9844.739029
3508.294024,0.000000,-0.000000,9622.677246
3508.294338,0.000000,222.061783,9844.739029
3508.294652,0.000000,-74.020594,9548.656652
3508.294966,0.000000,-148.041188,9474.636058
3508.295280,76.609550,-444.123565,9770.718434
3508.295594,0.000000,-0.000000,9696.697840
3508.295908,76.609550,-0.000000,9548.656652
3508.296222,306.438199,-0.000000,9400.615463
3508.296536,-229.828649,-0.000000,9474.636058
3508.296849,153.219100,444.123565,9548.656652
3508.297163,0.000000,148.041188,9548.656652
3508.297477,0.000000,-0.000000,9474.636058
3508.297791,76.609550,-74.020594,9844.739029
3508.298105,76.609550,-0.000000,9474.636058
3508.298419,229.828649,-148.041188,9178.553681
3508.298733,76.609550,222.061783,9474.636058
3508.299047,306.438199,-0.000000,9844.739029
3508.299361,306.438199,-0.000000,9474.636058
3508.299675,229.828649,370.102971,9030.512492
3508.299989,306.438199,-0.000000,9400.615463
3508.300303,306.438199,222.061783,9696.697840
3508.300617,306.438199,-0.000000,9400.615463
3508.300931,536.266849,444.123565,9474.636058
3508.301245,383.047749,370.102971,9844.739029
3508.301559,-229.828649,444.123565,9622.677246
3508.301873,153.219100,592.164754,9400.615463
3508.302187,153.219100,296.082377,9474.636058
3508.302501,0.000000,296.082377,9918.759623
3508.302815,0.000000,-0.000000,9770.718434
3508.303129,76.609550,-0.000000,9770.718434
3508.303443,306.438199,-0.000000,9622.677246
3508.303757,76.609550,518.144159,9696.697840
3508.304071,0.000000,222.061783,9696.697840
3508.304385,229.828649,222.061783,9992.780217
3508.304699,153.219100,518.144159,9770.718434
3508.305013,229.828649,592.164754,9770.718434
3508.305327,0.000000,666.185348,9622.677246
3508.305640,229.828649,-0.000000,9622.677246
3508.305954,153.219100,444.123565,9696.697840
3508.306268,0.000000,222.061783,9548.656652
3508.306582,153.219100,-0.000000,10066.800811
3508.306896,0.000000,-0.000000,9770.718434
3508.307210,0.000000,-0.000000,9400.615463
3508.307524,0.000000,-0.000000,9474.636058
3508.307838,0.000000,222.061783,9548.656652
3508.308152,76.609550,-0.000000,9474.636058
3508.308466,76.609550,-0.000000,9548.656652
3508.308780,229.828649,296.082377,10066.800811
3508.309094,229.828649,296.082377,9548.656652
3508.309408,306.438199,444.123565,9326.594869
3508.309722,76.609550,-0.000000,9696.697840
3508.310036,306.438199,-0.000000,9696.697840
3508.310350,76.609550,-0.000000,9622.677246
3508.310664,153.219100,-0.000000,9326.594869
3508.310978,0.000000,-0.000000,9474.636058
3508.311292,76.609550,222.061783,9696.697840
3508.311606,76.609550,-0.000000,9474.636058
3508.311920,536.266849,-74.020594,9474.636058
3508.312234,-229.828649,-0.000000,9474.636058
3508.312547,0.000000,444.123565,9474.636058
3508.312861,0.000000,370.102971,9474.636058
3508.313175,0.000000,222.061783,9548.656652
3508.313489,-229.828649,-148.041188,9696.697840
3508.313803,0.000000,-148.041188,9622.677246
3508.314117,0.000000,-74.020594,9844.739029
3508.314431,0.000000,296.082377,10066.800811
3508.314745,76.609550,-74.020594,9992.780217
3508.315059,76.609550,296.082377,9474.636058
3508.315372,383.047749,222.061783,9474.636058
3508.315686,383.047749,296.082377,9474.636058
3508.316000,229.828649,518.144159,9178.553681
3508.316314,536.266849,-0.000000,9474.636058
3508.316628,306.438199,-0.000000,9178.553681
3508.316942,229.828649,-444.123565,9178.553681
3508.317256,229.828649,-296.082377,9548.656652
3508.317570,229.828649,-148.041188,9770.718434
3508.317883,383.047749,-74.020594,9844.739029
3508.318197,0.000000,-148.041188,9400.615463
3508.318511,0.000000,-0.000000,9474.636058
3508.318825,0.000000,-0.000000,9622.677246
3508.319139,153.219100,148.041188,9474.636058
3508.319453,689.485948,222.061783,9548.656652
3508.319767,383.047749,222.061783,9474.636058
3508.320081,612.876398,-0.000000,9696.697840
3508.320395,383.047749,222.061783,9326.594869
3508.320708,306.438199,-0.000000,9696.697840
3508.321022,612.876398,-0.000000,9992.780217
3508.321336,0.000000,-0.000000,9474.636058
3508.321650,0.000000,222.061783,9844.739029
3508.321964,153.219100,296.082377,10066.800811
3508.322278,0.000000,148.041188,9548.656652
3508.322592,0.000000,-0.000000,9622.677246
3508.322906,76.609550,74.020594,9400.615463
3508.323220,76.609550,-0.000000,9622.677246
3508.323533,459.657299,444.123565,9326.594869
3508.323847,306.438199,518.144159,9770.718434
3508.324161,459.657299,296.082377,9548.656652
3508.324475,153.219100,370.102971,9252.574275
3508.324789,153.219100,666.185348,9770.718434
3508.325103,0.000000,666.185348,9918.759623
3508.325417,76.609550,370.102971,10066.800811
3508.325731,76.609550,370.102971,9992.780217
3508.326045,0.000000,222.061783,9548.656652
3508.326358,0.000000,222.061783,9696.697840
3508.326672,0.000000,-0.000000,9548.656652
3508.326986,0.000000,148.041188,9548.656652
3508.327300,76.609550,222.061783,9770.718434
3508.327614,0.000000,148.041188,9474.636058
3508.327928,0.000000,-0.000000,9252.574275
3508.328242,229.828649,-0.000000,9622.677246
3508.328556,0.000000,-0.000000,9844.739029
3508.328870,153.219100,-148.041188,9622.677246
3508.329183,0.000000,444.123565,9770.718434
3508.329497,0.000000,296.082377,9548.656652
3508.329811,0.000000,222.061783,9622.677246
3508.330125,0.000000,-0.000000,9844.739029
3508.330439,-229.828649,-0.000000,9400.615463
3508.330753,229.828649,-0.000000,9770.718434
3508.331067,153.219100,222.061783,9548.656652
3508.331381,153.219100,-74.020594,9326.594869
3508.331695,306.438199,-0.000000,9474.636058
3508.332008,689.485948,-222.061783,9252.574275
3508.332322,153.219100,222.061783,9474.636058
3508.332636,0.000000,-0.000000,9844.739029
3508.332950,306.438199,-0.000000,9696.697840
3508.333264,76.609550,-0.000000,9548.656652
3508.333578,229.828649,296.082377,9474.636058
3508.333892,76.609550,-0.000000,9474.636058
3508.334206,153.219100,148.041188,9622.677246
3508.334519,306.438199,-0.000000,9474.636058
3508.334833,306.438199,370.102971,9474.636058
3508.335147,306.438199,888.247130,9474.636058
3508.335461,383.047749,296.082377,9622.677246
3508.335775,383.047749,148.041188,9622.677246
3508.336089,153.219100,-0.000000,9696.697840
3508.336403,229.828649,-0.000000,9548.656652
3508.336717,76.609550,222.061783,9474.636058
3508.337031,153.219100,-0.000000,9474.636058
3508.337344,229.828649,148.041188,9696.697840
3508.337658,0.000000,148.041188,9548.656652
3508.337972,0.000000,-0.000000,9622.677246
3508.338286,229.828649,-0.000000,9400.615463
3508.338600,229.828649,-0.000000,9474.636058
3508.338914,229.828649,-74.020594,9548.656652
3508.339228,153.219100,-74.020594,9400.615463
3508.339542,0.000000,-222.061783,9622.677246
3508.339856,0.000000,-148.041188,9844.739029
3508.340169,0.000000,148.041188,9474.636058
3508.340483,153.219100,-0.000000,9548.656652
3508.340797,153.219100,-0.000000,9770.718434
3508.341111,0.000000,-74.020594,9474.636058
3508.341425,76.609550,-0.000000,9474.636058
3508.341739,306.438199,-0.000000,9474.636058
3508.342053,76.609550,-0.000000,9696.697840
3508.342367,0.000000,-74.020594,9548.656652
3508.342681,153.219100,-0.000000,9548.656652
3508.342994,383.047749,-148.041188,9400.615463
3508.343308,383.047749,148.041188,9548.656652
3508.343622,229.828649,-0.000000,9622.677246
3508.343936,153.219100,370.102971,9622.677246
3508.344250,0.000000,-0.000000,9400.615463
3508.344564,76.609550,-0.000000,9252.574275
3508.344878,0.000000,518.144159,9770.718434
3508.345192,76.609550,-0.000000,9622.677246
3508.345506,76.609550,-0.000000,9548.656652
3508.345819,0.000000,296.082377,9474.636058
3508.346133,0.000000,222.061783,9622.677246
3508.346447,0.000000,444.123565,9548.656652
3508.346761,0.000000,-0.000000,9696.697840
3508.347075,-536.266849,-0.000000,9918.759623
3508.347389,0.000000,444.123565,9992.780217
3508.347703,0.000000,444.123565,9696.697840
3508.348017,0.000000,444.123565,9918.759623
3508.348330,0.000000,444.123565,9548.656652
3508.348644,229.828649,518.144159,9622.677246
3508.348958,76.609550,296.082377,9474.636058
3508.349272,153.219100,-0.000000,9400.615463
3508.349586,76.609550,-0.000000,10140.821405
3508.349900,229.828649,-0.000000,9474.636058
3508.350214,306.438199,-0.000000,9474.636058
3508.350528,153.219100,-0.000000,9844.739029
3508.350842,153.219100,-0.000000,9548.656652
3508.351155,153.219100,296.082377,9548.656652
3508.351469,0.000000,74.020594,9696.697840
3508.351783,0.000000,-0.000000,9696.697840
3508.352097,76.609550,222.061783,9326.594869
3508.352411,306.438199,370.102971,9622.677246
3508.352725,536.266849,-0.000000,9622.677246
3508.353039,306.438199,-0.000000,9474.636058
3508.353353,229.828649,148.041188,9474.636058
3508.353667,306.438199,-0.000000,9474.636058
3508.353980,689.485948,-0.000000,9474.636058
3508.354294,306.438199,-0.000000,9474.636058
3508.354608,229.828649,-0.000000,9844.739029
3508.354922,0.000000,-74.020594,9918.759623
3508.355236,229.828649,-0.000000,9474.636058
3508.355550,0.000000,296.082377,9622.677246
3508.355864,306.438199,-0.000000,9918.759623
3508.356178,229.828649,-0.000000,9770.718434
3508.356492,306.438199,222.061783,9400.615463
3508.356805,306.438199,-0.000000,9548.656652
3508.357119,306.438199,518.144159,9770.718434
3508.357433,76.609550,296.082377,9474.636058
3508.357747,229.828649,518.144159,9548.656652
3508.358061,0.000000,148.041188,9770.718434
3508.358375,76.609550,222.061783,9548.656652
3508.358689,0.000000,370.102971,9548.656652
3508.359003,0.000000,296.082377,9622.677246
3508.359317,0.000000,592.164754,9992.780217
3508.359630,0.000000,-0.000000,9770.718434
3508.359944,-383.047749,-0.000000,9474.636058
3508.360258,0.000000,-0.000000,9770.718434
3508.360572,153.219100,-148.041188,9696.697840
3508.360886,-229.828649,-0.000000,9474.636058
3508.361200,-229.828649,296.082377,9400.615463
3508.361514,76.609550,148.041188,9474.636058
3508.361828,0.000000,148.041188,9400.615463
3508.362142,0.000000,-0.000000,9474.636058
3508.362455,0.000000,-0.000000,9696.697840
3508.362769,0.000000,74.020594,9400.615463
3508.363083,76.609550,-0.000000,9622.677246
3508.363397,0.000000,-148.041188,9844.739029
3508.363711,153.219100,-0.000000,9696.697840
3508.364025,0.000000,-0.000000,9696.697840
3508.364339,0.000000,-0.000000,9474.636058
3508.364653,229.828649,-74.020594,9696.697840
3508.364966,0.000000,-0.000000,9770.718434
3508.365280,153.219100,-0.000000,9474.636058
3508.365594,0.000000,-296.082377,9844.739029
3508.365908,76.609550,-148.041188,9696.697840
3508.366222,153.219100,-0.000000,9548.656652
3508.366536,0.000000,-0.000000,9844.739029
3508.366850,306.438199,222.061783,9844.739029
3508.367164,306.438199,296.082377,9474.636058
3508.367478,76.609550,222.061783,9622.677246
3508.367791,153.219100,148.041188,9696.697840
3508.368105,153.219100,296.082377,9548.656652
3508.368419,0.000000,-0.000000,9548.656652
3508.368733,0.000000,-296.082377,9474.636058
3508.369047,383.047749,222.061783,9548.656652
3508.369361,0.000000,74.020594,9992.780217
3508.369675,0.000000,-0.000000,9622.677246
3508.369989,76.609550,296.082377,9770.718434
3508.370303,-229.828649,-0.000000,9548.656652
3508.370616,76.609550,-0.000000,9548.656652
3508.370930,153.219100,-0.000000,9548.656652
3508.371244,306.438199,370.102971,9548.656652
3508.371558,383.047749,-0.000000,9548.656652
3508.371872,76.609550,222.061783,9104.533087
3508.372186,306.438199,444.123565,9474.636058
3508.372500,229.828649,296.082377,9696.697840
3508.372814,76.609550,-0.000000,9474.636058
3508.373128,229.828649,-0.000000,9622.677246
3508.373441,76.609550,74.020594,9474.636058
3508.373755,0.000000,-0.000000,9918.759623
3508.374069,76.609550,-0.000000,9474.636058
3508.374383,76.609550,-0.000000,9770.718434
3508.374697,459.657299,222.061783,9474.636058
3508.375011,153.219100,-0.000000,9400.615463
3508.375325,229.828649,444.123565,9474.636058
3508.375639,153.219100,148.041188,9474.636058
3508.375953,153.219100,222.061783,9696.697840
3508.376266,766.095498,-148.041188,9474.636058
3508.376580,459.657299,-0.000000,9548.656652
3508.376894,153.219100,-0.000000,9844.739029
3508.377208,153.219100,-0.000000,9770.718434
3508.377522,153.219100,296.082377,9844.739029
3508.377836,0.000000,-0.000000,9844.739029
3508.378150,0.000000,370.102971,9548.656652
3508.378464,0.000000,444.123565,9992.780217
3508.378778,0.000000,370.102971,9770.718434
3508.379091,153.219100,-0.000000,10066.800811
3508.379405,0.000000,222.061783,9770.718434
3508.379719,0.000000,148.041188,9252.574275
3508.380033,76.609550,222.061783,9622.677246
3508.380347,0.000000,148.041188,9400.615463
3508.380661,-229.828649,-0.000000,9474.636058
3508.380975,-306.438199,222.061783,9548.656652
3508.381289,-229.828649,222.061783,9400.615463
3508.381602,-229.828649,444.123565,9474.636058
3508.381916,0.000000,518.144159,9474.636058
3508.382230,76.609550,-74.020594,9474.636058
3508.382544,-153.219100,-0.000000,9400.615463
3508.382858,-229.828649,-0.000000,9548.656652
3508.383172,0.000000,-0.000000,9474.636058
3508.383486,-153.219100,-0.000000,9548.656652
3508.383800,153.219100,-444.123565,9548.656652
3508.384114,-306.438199,-74.020594,9622.677246
3508.384427,0.000000,-0.000000,9918.759623
3508.384741,-229.828649,-0.000000,9548.656652
3508.385055,0.000000,-0.000000,9696.697840
3508.385369,383.047749,-74.020594,9770.718434
3508.385683,383.047749,-0.000000,9474.636058
3508.385997,229.828649,-0.000000,9400.615463
3508.386311,459.657299,296.082377,9622.677246
3508.386625,612.876398,-0.000000,9474.636058
3508.386939,612.876398,-148.041188,9178.553681
3508.387252,612.876398,-0.000000,9400.615463
3508.387566,459.657299,-222.061783,9474.636058
3508.387880,306.438199,-74.020594,9696.697840
3508.388194,229.828649,-148.041188,10214.842000
3508.388508,0.000000,-444.123565,9770.718434
3508.388822,0.000000,-444.123565,9844.739029
3508.389136,76.609550,-0.000000,9992.780217
3508.389450,76.609550,-0.000000,9770.718434
3508.389764,229.828649,-0.000000,9548.656652
3508.390077,153.219100,444.123565,9770.718434
3508.390391,536.266849,518.144159,9400.615463
3508.390705,536.266849,592.164754,9252.574275
3508.391019,536.266849,370.102971,9400.615463
3508.391333,459.657299,-0.000000,9474.636058
3508.391647,76.609550,592.164754,9548.656652
3508.391961,306.438199,296.082377,9326.594869
3508.392275,0.000000,370.102971,9326.594869
3508.392589,0.000000,222.061783,9548.656652
3508.392902,76.609550,-0.000000,9474.636058
3508.393216,0.000000,-74.020594,9622.677246
3508.393530,0.000000,296.082377,9548.656652
3508.393844,76.609550,370.102971,9474.636058
3508.394158,76.609550,296.082377,9326.594869
3508.394472,459.657299,370.102971,9474.636058
3508.394786,536.266849,518.144159,9178.553681
3508.395100,306.438199,666.185348,9252.574275
3508.395413,0.000000,592.164754,9474.636058
3508.395727,153.219100,370.102971,9548.656652
3508.396041,0.000000,296.082377,9474.636058
3508.396355,153.219100,370.102971,9770.718434
3508.396669,0.000000,370.102971,9548.656652
3508.396983,76.609550,370.102971,9844.739029
3508.397297,76.609550,222.061783,10066.800811
3508.397611,0.000000,-0.000000,9696.697840
3508.397925,0.000000,-0.000000,9918.759623
3508.398238,0.000000,222.061783,9622.677246
3508.398552,229.828649,296.082377,9622.677246
3508.398866,153.219100,-0.000000,10288.862594
3508.399180,0.000000,-0.000000,9548.656652
3508.399494,0.000000,-0.000000,9770.718434
3508.399808,0.000000,148.041188,10140.821405
3508.400122,0.000000,296.082377,10214.842000
3508.400436,0.000000,296.082377,9844.739029
3508.400750,0.000000,444.123565,9992.780217
3508.401063,153.219100,518.144159,10362.883188
3508.401377,0.000000,-0.000000,9474.636058
3508.401691,459.657299,-0.000000,9474.636058
3508.402005,229.828649,666.185348,9622.677246
3508.402319,306.438199,-0.000000,9326.594869
3508.402633,153.219100,148.041188,9474.636058
3508.402947,76.609550,-0.000000,9474.636058
3508.403261,153.219100,-0.000000,9770.718434
3508.403575,0.000000,222.061783,9474.636058
3508.403888,-153.219100,-74.020594,9474.636058
3508.404202,153.219100,-0.000000,9252.574275
3508.404516,153.219100,-148.041188,9400.615463
3508.404830,153.219100,-0.000000,9400.615463
3508.405144,612.876398,-0.000000,9178.553681
3508.405458,306.438199,-296.082377,8660.409521
3508.405772,536.266849,296.082377,9178.553681
3508.406086,612.876398,222.061783,9326.594869
3508.406400,612.876398,-0.000000,9326.594869
3508.406713,0.000000,-74.020594,9252.574275
3508.407027,612.876398,-74.020594,9474.636058
3508.407341,76.609550,-74.020594,9622.677246
3508.407655,0.000000,-0.000000,9622.677246
3508.407969,153.219100,-0.000000,9770.718434
3508.408283,76.609550,-0.000000,9622.677246
3508.408597,0.000000,-222.061783,10066.800811
3508.408911,76.609550,-74.020594,9474.636058
3508.409225,383.047749,-0.000000,9474.636058
3508.409538,153.219100,-0.000000,9696.697840
3508.409852,459.657299,222.061783,9696.697840
3508.410166,0.000000,-592.164754,9548.656652
3508.410480,229.828649,-0.000000,9548.656652
3508.410794,229.828649,-0.000000,9622.677246
3508.411108,0.000000,-74.020594,9696.697840
3508.411422,76.609550,-0.000000,9474.636058
3508.411736,0.000000,-0.000000,9770.718434
3508.412049,0.000000,-0.000000,10214.842000
3508.412363,153.219100,-0.000000,9844.739029
3508.412677,0.000000,-0.000000,9696.697840
3508.412991,459.657299,-0.000000,9770.718434
3508.413305,-229.828649,222.061783,9622.677246
3508.413619,0.000000,296.082377,9622.677246
3508.413932,0.000000,222.061783,10066.800811
3508.414246,306.438199,518.144159,9474.636058
3508.414560,153.219100,148.041188,9400.615463
3508.414874,76.609550,370.102971,9474.636058
3508.415188,0.000000,370.102971,9400.615463
3508.415502,0.000000,370.102971,9622.677246
3508.415816,0.000000,-0.000000,9474.636058
3508.416130,0.000000,-0.000000,9622.677246
3508.416444,0.000000,-0.000000,9178.553681
3508.416758,-153.219100,518.144159,9474.636058
3508.417072,0.000000,-222.061783,9622.677246
3508.417385,0.000000,-0.000000,9622.677246
3508.417699,229.828649,370.102971,9696.697840
3508.418013,153.219100,370.102971,9696.697840
3508.418327,689.485948,296.082377,9844.739029
3508.418641,536.266849,518.144159,9696.697840
3508.418955,306.438199,444.123565,9696.697840
3508.419269,153.219100,-0.000000,9474.636058
3508.419583,229.828649,444.123565,9326.594869
3508.419897,919.314598,296.082377,9770.718434
3508.420211,306.438199,74.020594,9474.636058
3508.420524,76.609550,-74.020594,9548.656652
3508.420838,153.219100,-0.000000,9770.718434
3508.421152,153.219100,148.041188,9474.636058
3508.421466,306.438199,148.041188,10140.821405
3508.421780,-229.828649,-0.000000,9770.718434
3508.422094,76.609550,-0.000000,9992.780217
3508.422408,76.609550,-74.020594,9770.718434
3508.422722,153.219100,222.061783,9622.677246
3508.423036,536.266849,-0.000000,9844.739029
3508.423350,459.657299,222.061783,9696.697840
3508.423664,459.657299,296.082377,9548.656652
3508.423977,76.609550,-0.000000,9474.636058
3508.424291,383.047749,222.061783,9548.656652
3508.424605,842.705048,-74.020594,9548.656652
3508.424919,383.047749,-0.000000,9770.718434
3508.425233,0.000000,-0.000000,9622.677246
3508.425547,0.000000,-0.000000,9400.615463
3508.425861,0.000000,222.061783,9548.656652
3508.426175,0.000000,-222.061783,9474.636058
3508.426489,383.047749,296.082377,9474.636058
3508.426803,0.000000,370.102971,9548.656652
3508.427117,153.219100,444.123565,9474.636058
3508.427430,76.609550,222.061783,9326.594869
3508.427744,-229.828649,444.123565,9326.594869
3508.428058,76.609550,-0.000000,9474.636058
3508.428372,0.000000,222.061783,9770.718434
3508.428686,0.000000,222.061783,9400.615463
3508.429000,306.438199,222.061783,9622.677246
3508.429314,229.828649,222.061783,9622.677246
3508.429628,229.828649,370.102971,9918.759623
3508.429942,76.609550,-0.000000,9178.553681
3508.430256,0.000000,-0.000000,9400.615463
3508.430570,0.000000,-0.000000,9992.780217
3508.430883,536.266849,-74.020594,9918.759623
3508.431197,153.219100,-0.000000,9844.739029
3508.431511,76.609550,-0.000000,9918.759623
3508.431825,0.000000,-0.000000,9548.656652
3508.432139,0.000000,-0.000000,9844.739029
3508.432453,306.438199,-0.000000,9844.739029
3508.432767,229.828649,-0.000000,9918.759623
3508.433081,383.047749,444.123565,9770.718434
3508.433395,153.219100,-0.000000,9622.677246
3508.433709,153.219100,-0.000000,9696.697840
3508.434023,0.000000,148.041188,9622.677246
3508.434336,-153.219100,-0.000000,9548.656652
3508.434650,0.000000,-0.000000,9622.677246
3508.434964,0.000000,-0.000000,9548.656652
3508.435278,0.000000,-222.061783,9696.697840
3508.435592,383.047749,-74.020594,9992.780217
3508.435906,76.609550,-0.000000,9622.677246
3508.436220,0.000000,-0.000000,9474.636058
3508.436534,0.000000,-0.000000,9548.656652
3508.436848,76.609550,-0.000000,9474.636058
3508.437162,383.047749,-148.041188,9178.553681
3508.437475,153.219100,222.061783,9400.615463
3508.437789,229.828649,296.082377,9474.636058
3508.438103,153.219100,-0.000000,9548.656652
3508.438417,153.219100,222.061783,9400.615463
3508.438731,689.485948,-0.000000,9252.574275
3508.439045,0.000000,-0.000000,9474.636058
3508.439359,76.609550,-0.000000,9474.636058
3508.439673,153.219100,-0.000000,9326.594869
3508.439987,76.609550,-0.000000,9622.677246
3508.440301,229.828649,-0.000000,9622.677246
3508.440615,383.047749,-0.000000,9474.636058
3508.440928,229.828649,370.102971,9474.636058
3508.441242,76.609550,222.061783,9474.636058
3508.441556,459.657299,222.061783,9770.718434
3508.441870,536.266849,518.144159,10140.821405
3508.442184,153.219100,296.082377,9622.677246
3508.442498,153.219100,370.102971,9474.636058
3508.442812,76.609550,296.082377,9548.656652
3508.443126,0.000000,-0.000000,9696.697840
3508.443440,306.438199,-0.000000,9918.759623
3508.443754,-459.657299,444.123565,9992.780217
3508.444068,0.000000,-0.000000,9918.759623
3508.444381,0.000000,222.061783,9770.718434
3508.444695,153.219100,-0.000000,9844.739029
3508.445009,0.000000,222.061783,9622.677246
3508.445323,76.609550,444.123565,9992.780217
3508.445637,153.219100,222.061783,9474.636058
3508.445951,153.219100,370.102971,9474.636058
3508.446265,229.828649,296.082377,9622.677246
3508.446579,919.314598,222.061783,9474.636058
3508.446893,76.609550,-0.000000,9474.636058
3508.447207,-229.828649,296.082377,9622.677246
3508.447521,0.000000,-0.000000,9474.636058
3508.447834,76.609550,-0.000000,9770.718434
3508.448148,76.609550,-0.000000,9622.677246
3508.448462,153.219100,-0.000000,9474.636058
3508.448776,0.000000,-0.000000,9622.677246
3508.449090,76.609550,444.123565,9844.739029
3508.449404,0.000000,-0.000000,9474.636058
3508.449718,536.266849,-74.020594,8956.491898
3508.450032,306.438199,296.082377,9474.636058
3508.450346,306.438199,-0.000000,9400.615463
3508.450660,76.609550,222.061783,9548.656652
3508.450973,306.438199,296.082377,9474.636058
3508.451287,0.000000,-0.000000,9474.636058
3508.451601,76.609550,148.041188,9400.615463
3508.451915,0.000000,-0.000000,9770.718434
3508.452229,229.828649,370.102971,9548.656652
3508.452543,0.000000,-0.000000,9548.656652
3508.452857,459.657299,74.020594,9696.697840
3508.453171,76.609550,-0.000000,9622.677246
3508.453485,-229.828649,222.061783,9548.656652
3508.453799,0.000000,-0.000000,9696.697840
3508.454113,0.000000,-0.000000,9770.718434
3508.454426,0.000000,-0.000000,9844.739029
3508.454740,383.047749,-0.000000,9770.718434
3508.455054,0.000000,-0.000000,9770.718434
3508.455368,0.000000,-74.020594,9844.739029
3508.455682,-229.828649,-0.000000,9844.739029
3508.455996,-76.609550,-222.061783,9622.677246
3508.456310,0.000000,148.041188,9696.697840
3508.456624,0.000000,-0.000000,9474.636058
3508.456938,536.266849,148.041188,9548.656652
3508.457252,229.828649,-0.000000,9326.594869
3508.457566,306.438199,-148.041188,9104.533087
3508.457879,76.609550,-148.041188,9474.636058
3508.458193,0.000000,-74.020594,9474.636058
3508.458507,76.609550,-148.041188,9548.656652
3508.458821,0.000000,-0.000000,9770.718434
3508.459135,0.000000,-0.000000,9548.656652
3508.459449,0.000000,-0.000000,9326.594869
3508.459763,153.219100,-0.000000,9326.594869
3508.460077,459.657299,-0.000000,9918.759623
3508.460391,153.219100,-0.000000,9474.636058
3508.460705,536.266849,-0.000000,9252.574275
3508.461019,766.095498,-0.000000,9326.594869
3508.461332,383.047749,222.061783,9252.574275
3508.461646,612.876398,370.102971,9622.677246
3508.461960,459.657299,370.102971,9770.718434
3508.462274,153.219100,-0.000000,9548.656652
3508.462588,306.438199,296.082377,9474.636058
3508.462902,459.657299,296.082377,9548.656652
3508.463216,0.000000,296.082377,9622.677246
3508.463530,0.000000,-0.000000,9548.656652
3508.463844,0.000000,-148.041188,9400.615463
3508.464158,306.438199,-0.000000,9252.574275
3508.464472,612.876398,74.020594,9474.636058
3508.464785,153.219100,444.123565,9474.636058
3508.465099,306.438199,370.102971,9548.656652
3508.465413,0.000000,-0.000000,9844.739029
3508.465727,229.828649,148.041188,9548.656652
3508.466041,153.219100,444.123565,9844.739029
3508.466355,0.000000,444.123565,9770.718434
3508.466669,0.000000,222.061783,9770.718434
3508.466983,-459.657299,-0.000000,9844.739029
3508.467297,0.000000,-0.000000,9770.718434
3508.467611,229.828649,-0.000000,9918.759623
3508.467924,0.000000,296.082377,9696.697840
3508.468238,0.000000,370.102971,9474.636058
3508.468552,76.609550,-0.000000,9622.677246
3508.468866,0.000000,296.082377,9474.636058
3508.469180,76.609550,-74.020594,9474.636058
3508.469494,0.000000,222.061783,9696.697840
3508.469808,-306.438199,-0.000000,9622.677246
3508.470122,153.219100,-74.020594,9474.636058
3508.470436,229.828649,296.082377,9326.594869
3508.470750,0.000000,-0.000000,9548.656652
3508.471064,76.609550,-0.000000,9992.780217
3508.471377,0.000000,-0.000000,9474.636058
3508.471691,76.609550,74.020594,9474.636058
3508.472005,0.000000,296.082377,9400.615463
3508.472319,306.438199,222.061783,9474.636058
3508.472633,306.438199,296.082377,9474.636058
3508.472947,306.438199,-0.000000,9696.697840
3508.473261,153.219100,370.102971,9400.615463
3508.473575,0.000000,222.061783,9696.697840
3508.473889,459.657299,-0.000000,9770.718434
3508.474203,153.219100,222.061783,9622.677246
3508.474517,229.828649,-0.000000,9696.697840
3508.474830,383.047749,-0.000000,9474.636058
3508.475144,229.828649,-0.000000,9622.677246
3508.475458,76.609550,222.061783,9548.656652
3508.475772,76.609550,-0.000000,9622.677246
3508.476086,383.047749,-0.000000,9548.656652
3508.476400,76.609550,444.123565,9400.615463
3508.476714,306.438199,444.123565,9696.697840
3508.477028,306.438199,296.082377,9770.718434
3508.477342,383.047749,74.020594,9622.677246
3508.477656,0.000000,-74.020594,9770.718434
3508.477970,0.000000,-148.041188,9474.636058
3508.478283,153.219100,-0.000000,9474.636058
3508.478597,229.828649,-0.000000,9696.697840
3508.478911,153.219100,-0.000000,9770.718434
3508.479225,0.000000,-0.000000,9400.615463
3508.479539,229.828649,-0.000000,9326.594869
3508.479853,0.000000,-74.020594,9548.656652
3508.480167,76.609550,-0.000000,9548.656652
3508.480481,229.828649,-0.000000,9474.636058
3508.480795,459.657299,-592.164754,9326.594869
3508.481109,153.219100,148.041188,9548.656652
3508.481423,229.828649,-74.020594,9252.574275
3508.481736,153.219100,-0.000000,9400.615463
3508.482050,76.609550,222.061783,9622.677246
3508.482364,0.000000,-0.000000,9474.636058
3508.482678,229.828649,-148.041188,9548.656652
3508.482992,76.609550,-0.000000,9918.759623
3508.483306,76.609550,444.123565,9918.759623
3508.483620,0.000000,-0.000000,9474.636058
3508.483934,153.219100,-0.000000,9622.677246
3508.484248,306.438199,-0.000000,9918.759623
3508.484562,153.219100,148.041188,9770.718434
3508.484875,0.000000,518.144159,9844.739029
3508.485189,0.000000,222.061783,9474.636058
3508.485503,153.219100,518.144159,9474.636058
3508.485817,612.876398,222.061783,9696.697840
3508.486131,459.657299,370.102971,9770.718434
3508.486445,0.000000,-0.000000,10288.862594
3508.486759,0.000000,-0.000000,9548.656652
3508.487073,-153.219100,222.061783,9474.636058
3508.487387,-153.219100,-0.000000,9696.697840
3508.487701,0.000000,296.082377,9844.739029
3508.488015,0.000000,148.041188,9622.677246
3508.488328,0.000000,296.082377,9474.636058
3508.488642,76.609550,-0.000000,9474.636058
3508.488956,306.438199,296.082377,9400.615463
3508.489270,76.609550,518.144159,9400.615463
3508.489584,76.609550,222.061783,9622.677246
3508.489898,0.000000,-0.000000,9770.718434
3508.490212,76.609550,222.061783,9696.697840
3508.490526,229.828649,148.041188,9696.697840
3508.490840,153.219100,222.061783,9548.656652
3508.491154,0.000000,296.082377,9548.656652
3508.491468,229.828649,148.041188,9548.656652
3508.491781,306.438199,148.041188,9400.615463
3508.492095,153.219100,222.061783,9252.574275
3508.492409,383.047749,-0.000000,9474.636058
3508.492723,76.609550,-0.000000,9548.656652
3508.493037,0.000000,-0.000000,9548.656652
3508.493351,153.219100,-0.000000,9400.615463
3508.493665,383.047749,296.082377,9474.636058
3508.493979,383.047749,222.061783,9622.677246
3508.494293,229.828649,296.082377,9696.697840
3508.494607,76.609550,222.061783,9474.636058
3508.494921,76.609550,148.041188,9548.656652
3508.495234,229.828649,-0.000000,9622.677246
3508.495548,383.047749,74.020594,9770.718434
3508.495862,229.828649,222.061783,9696.697840
3508.496176,229.828649,296.082377,9622.677246
3508.496490,153.219100,518.144159,9474.636058
3508.496804,612.876398,-0.000000,9918.759623
3508.497118,153.219100,222.061783,9548.656652
3508.497432,76.609550,296.082377,9474.636058
3508.497746,153.219100,370.102971,9548.656652
3508.498060,0.000000,222.061783,9474.636058
3508.498373,383.047749,296.082377,9548.656652
3508.498687,0.000000,-0.000000,9992.780217
3508.499001,-153.219100,74.020594,9622.677246
3508.499315,0.000000,-0.000000,9622.677246
3508.499629,-153.219100,222.061783,9400.615463
3508.499943,-153.219100,296.082377,9474.636058
3508.500257,0.000000,-0.000000,9474.636058
3508.500571,0.000000,148.041188,9548.656652
3508.500885,0.000000,148.041188,9548.656652
3508.501199,0.000000,444.123565,9326.594869
3508.501513,536.266849,-0.000000,9474.636058
3508.501826,153.219100,-0.000000,9844.739029
3508.502140,0.000000,-0.000000,9770.718434
3508.502454,0.000000,-0.000000,9918.759623
3508.502768,-229.828649,-0.000000,9474.636058
3508.503082,-229.828649,-0.000000,9622.677246
3508.503396,76.609550,-0.000000,9770.718434
3508.503710,0.000000,-0.000000,9474.636058
3508.504024,153.219100,148.041188,9400.615463
3508.504338,383.047749,222.061783,9622.677246
3508.504652,229.828649,-0.000000,9696.697840
3508.504966,-76.609550,-0.000000,9622.677246
3508.505279,0.000000,148.041188,9770.718434
3508.505593,76.609550,222.061783,9474.636058
3508.505907,76.609550,148.041188,9548.656652
3508.506221,229.828649,-222.061783,10140.821405
3508.506535,0.000000,-0.000000,9696.697840
3508.506849,0.000000,-0.000000,9548.656652
3508.507163,0.000000,-0.000000,9474.636058
3508.507477,0.000000,-0.000000,9696.697840
3508.507791,153.219100,-74.020594,9696.697840
3508.508105,-306.438199,222.061783,9622.677246
3508.508419,229.828649,148.041188,9622.677246
3508.508732,229.828649,222.061783,9400.615463
3508.509046,229.828649,444.123565,9474.636058
3508.509360,153.219100,-0.000000,9622.677246
3508.509674,0.000000,-0.000000,9548.656652
3508.509988,0.000000,296.082377,9474.636058
3508.510302,229.828649,-0.000000,9622.677246
3508.510616,153.219100,-0.000000,10066.800811
3508.510930,76.609550,148.041188,9992.780217
3508.511244,153.219100,-0.000000,9326.594869
3508.511558,229.828649,222.061783,9548.656652
3508.511872,0.000000,-0.000000,9696.697840
3508.512185,76.609550,222.061783,9622.677246
3508.512499,919.314598,-0.000000,9474.636058
3508.512813,383.047749,-0.000000,9326.594869
3508.513127,76.609550,296.082377,9326.594869
3508.513441,229.828649,296.082377,9548.656652
3508.513755,383.047749,-74.020594,9622.677246
3508.514069,153.219100,-74.020594,9622.677246
3508.514383,76.609550,222.061783,9474.636058
3508.514697,0.000000,-74.020594,9474.636058
3508.515011,76.609550,296.082377,9548.656652
3508.515324,0.000000,222.061783,9992.780217
3508.515638,0.000000,-0.000000,9696.697840
3508.515952,0.000000,148.041188,9696.697840
3508.516266,229.828649,296.082377,9474.636058
3508.516580,229.828649,444.123565,9770.718434
3508.516894,383.047749,296.082377,9548.656652
3508.517208,229.828649,-0.000000,9548.656652
3508.517522,383.047749,296.082377,9548.656652
3508.517836,-153.219100,74.020594,9400.615463
3508.518150,0.000000,518.144159,9844.739029
3508.518464,0.000000,296.082377,9474.636058
3508.518777,0.000000,-0.000000,9844.739029
3508.519091,76.609550,518.144159,9696.697840
3508.519405,-229.828649,222.061783,9770.718434
3508.519719,153.219100,370.102971,9918.759623
3508.520033,153.219100,444.123565,9622.677246
3508.520347,0.000000,-0.000000,9770.718434
3508.520661,153.219100,-0.000000,9622.677246
3508.520975,0.000000,148.041188,9992.780217
3508.521289,0.000000,-74.020594,9770.718434
3508.521603,76.609550,-0.000000,9696.697840
3508.521917,536.266849,-74.020594,9474.636058
3508.522230,76.609550,222.061783,9252.574275
3508.522544,76.609550,148.041188,9474.636058
3508.522858,0.000000,222.061783,9548.656652
3508.523172,76.609550,-0.000000,9474.636058
3508.523486,229.828649,-296.082377,9474.636058
3508.523800,76.609550,-0.000000,9326.594869
3508.524114,229.828649,-0.000000,9474.636058
3508.524428,153.219100,-148.041188,9548.656652
3508.524742,0.000000,-0.000000,9770.718434
3508.525056,0.000000,-148.041188,9696.697840
3508.525370,-153.219100,-0.000000,9548.656652
3508.525683,0.000000,-148.041188,9622.677246
3508.525997,-229.828649,-148.041188,9770.718434
3508.526311,229.828649,-0.000000,10066.800811
3508.526625,229.828649,-0.000000,9696.697840
3508.526939,76.609550,222.061783,9548.656652
3508.527253,536.266849,-0.000000,9844.739029
3508.527567,612.876398,148.041188,9400.615463
3508.527881,459.657299,222.061783,9400.615463
3508.528195,306.438199,-0.000000,9326.594869
3508.528509,383.047749,148.041188,9178.553681
3508.528822,459.657299,148.041188,9474.636058
3508.529136,306.438199,-0.000000,9474.636058
3508.529450,536.266849,-0.000000,9844.739029
3508.529764,306.438199,-0.000000,9400.615463
3508.530078,0.000000,-296.082377,9696.697840
3508.530392,0.000000,-74.020594,9992.780217
3508.530706,153.219100,-0.000000,9844.739029
3508.531020,0.000000,-0.000000,9622.677246
3508.531334,0.000000,-74.020594,9770.718434
3508.531648,306.438199,222.061783,9474.636058
3508.531962,383.047749,370.102971,9474.636058
3508.532276,383.047749,518.144159,9252.574275
3508.532590,842.705048,444.123565,9474.636058
3508.532904,536.266849,-0.000000,9400.615463
3508.533218,919.314598,592.164754,9474.636058
3508.533532,306.438199,296.082377,9326.594869
3508.533846,153.219100,148.041188,9548.656652
3508.534160,229.828649,-0.000000,9770.718434
3508.534474,153.219100,-0.000000,9548.656652
3508.534788,153.219100,296.082377,9696.697840
3508.535101,0.000000,-0.000000,9400.615463
3508.535415,153.219100,-0.000000,9548.656652
3508.535729,0.000000,-0.000000,9548.656652
3508.536043,229.828649,-0.000000,9178.553681
3508.536357,0.000000,518.144159,9400.615463
3508.536671,459.657299,592.164754,9622.677246
3508.536985,459.657299,444.123565,9844.739029
3508.537299,76.609550,444.123565,9474.636058
3508.537613,0.000000,296.082377,9548.656652
3508.537927,0.000000,444.123565,9918.759623
3508.538241,153.219100,518.144159,9918.759623
3508.538555,0.000000,444.123565,9918.759623
3508.538869,0.000000,222.061783,10066.800811
3508.539183,153.219100,-0.000000,9918.759623
3508.539497,229.828649,592.164754,9622.677246
3508.539811,-383.047749,-0.000000,9918.759623
3508.540125,0.000000,-0.000000,10140.821405
3508.540439,-306.438199,518.144159,9696.697840
3508.540753,0.000000,370.102971,9326.594869
3508.541067,0.000000,296.082377,9770.718434
3508.541381,0.000000,222.061783,9918.759623
3508.541695,0.000000,296.082377,9918.759623
3508.542009,-383.047749,222.061783,9474.636058
3508.542323,0.000000,-0.000000,9548.656652
3508.542637,0.000000,-0.000000,9622.677246
3508.542951,0.000000,-0.000000,9622.677246
3508.543265,0.000000,-0.000000,9696.697840
3508.543579,0.000000,-148.041188,9622.677246
3508.543893,0.000000,148.041188,9474.636058
3508.544207,0.000000,-0.000000,9326.594869
3508.544521,76.609550,-148.041188,9622.677246
3508.544835,76.609550,-148.041188,9474.636058
3508.545149,0.000000,-148.041188,9622.677246
3508.545463,76.609550,-148.041188,9474.636058
3508.545777,459.657299,-0.000000,9474.636058
3508.546090,76.609550,-0.000000,9474.636058
3508.546404,0.000000,-74.020594,8956.491898
3508.546718,153.219100,296.082377,9474.636058
3508.547032,153.219100,-0.000000,9474.636058
3508.547346,689.485948,-0.000000,9326.594869
3508.547660,536.266849,-74.020594,9400.615463
3508.547974,76.609550,-0.000000,9104.533087
3508.548288,383.047749,-0.000000,9400.615463
3508.548602,76.609550,-0.000000,9474.636058
3508.548916,306.438199,-74.020594,9770.718434
3508.549230,306.438199,-0.000000,9992.780217
3508.549544,0.000000,-0.000000,9548.656652
3508.549858,0.000000,-74.020594,9548.656652
3508.550172,153.219100,-0.000000,9696.697840
3508.550486,229.828649,222.061783,9844.739029
3508.550800,0.000000,-148.041188,9474.636058
3508.551114,536.266849,-0.000000,9548.656652
3508.551428,459.657299,-0.000000,9474.636058
3508.551742,0.000000,296.082377,9178.553681
3508.552056,306.438199,444.123565,9548.656652
3508.552370,0.000000,-0.000000,9844.739029
3508.552684,459.657299,222.061783,9844.739029
3508.552998,0.000000,-296.082377,9400.615463
3508.553312,0.000000,-148.041188,9474.636058
3508.553626,0.000000,-0.000000,9844.739029
3508.553940,0.000000,-0.000000,9844.739029
3508.554254,-153.219100,296.082377,9770.718434
3508.554568,-229.828649,148.041188,9844.739029
3508.554882,76.609550,148.041188,9622.677246
3508.555196,306.438199,-0.000000,9696.697840
3508.555510,153.219100,444.123565,9770.718434
3508.555824,0.000000,148.041188,8956.491898
3508.556138,229.828649,296.082377,9400.615463
3508.556452,383.047749,370.102971,9696.697840
3508.556766,306.438199,74.020594,9548.656652
3508.557079,0.000000,148.041188,9474.636058
3508.557393,0.000000,222.061783,9474.636058
3508.557707,229.828649,-0.000000,9770.718434
3508.558021,153.219100,-0.000000,9770.718434
3508.558335,306.438199,-0.000000,9696.697840
3508.558649,153.219100,222.061783,9474.636058
3508.558963,0.000000,-0.000000,9696.697840
3508.559277,229.828649,370.102971,9622.677246
3508.559591,0.000000,370.102971,9474.636058
3508.559905,76.609550,518.144159,9992.780217
3508.560219,0.000000,296.082377,9622.677246
3508.560533,0.000000,444.123565,9474.636058
3508.560847,0.000000,444.123565,9474.636058
3508.561161,76.609550,592.164754,9918.759623
3508.561475,0.000000,296.082377,9918.759623
3508.561789,153.219100,296.082377,9548.656652
3508.562103,0.000000,-0.000000,9622.677246
3508.562417,-153.219100,-0.000000,9548.656652
3508.562731,0.000000,370.102971,9548.656652
3508.563045,76.609550,148.041188,9474.636058
3508.563359,0.000000,-0.000000,9474.636058
3508.563673,153.219100,-0.000000,9548.656652
3508.563987,0.000000,-74.020594,9844.739029
3508.564301,306.438199,370.102971,9696.697840
3508.564615,153.219100,-0.000000,9474.636058
3508.564929,383.047749,-0.000000,9548.656652
3508.565243,0.000000,-0.000000,9622.677246
3508.565557,459.657299,148.041188,9326.594869
3508.565871,383.047749,296.082377,9548.656652
3508.566185,383.047749,222.061783,9474.636058
3508.566499,459.657299,222.061783,9474.636058
3508.566813,306.438199,222.061783,9252.574275
3508.567127,229.828649,148.041188,8956.491898
3508.567441,153.219100,-0.000000,9474.636058
3508.567755,383.047749,-0.000000,9696.697840
3508.568068,76.609550,-148.041188,9474.636058
3508.568382,0.000000,-148.041188,9474.636058
3508.568696,306.438199,-444.123565,9770.718434
3508.569010,229.828649,148.041188,9770.718434
3508.569324,76.609550,-0.000000,9696.697840
3508.569638,153.219100,-0.000000,9622.677246
3508.569952,153.219100,-0.000000,9474.636058
3508.570266,383.047749,-0.000000,9104.533087
3508.570580,229.828649,148.041188,9474.636058
3508.570894,306.438199,-74.020594,9326.594869
3508.571208,76.609550,-0.000000,9326.594869
3508.571522,0.000000,-0.000000,9474.636058
3508.571836,0.000000,-74.020594,9844.739029
3508.572150,-229.828649,-0.000000,10066.800811
3508.572464,76.609550,-0.000000,9844.739029
3508.572778,0.000000,-74.020594,9474.636058
3508.573092,0.000000,-0.000000,9770.718434
3508.573406,-229.828649,222.061783,9696.697840
3508.573720,0.000000,296.082377,9918.759623
3508.574034,0.000000,296.082377,9918.759623
3508.574348,0.000000,222.061783,9696.697840
3508.574662,153.219100,296.082377,9326.594869
3508.574976,153.219100,74.020594,9474.636058
3508.575290,153.219100,-0.000000,9548.656652
3508.575604,0.000000,-74.020594,9474.636058
3508.575918,0.000000,-0.000000,9474.636058
3508.576232,0.000000,-0.000000,9474.636058
3508.576546,-153.219100,-0.000000,9918.759623
3508.576860,153.219100,-0.000000,9474.636058
3508.577174,-459.657299,296.082377,9696.697840
3508.577488,-229.828649,148.041188,9474.636058
3508.577802,0.000000,296.082377,9474.636058
3508.578116,76.609550,-0.000000,9622.677246
3508.578430,-306.438199,-0.000000,9622.677246
3508.578744,76.609550,-0.000000,9622.677246
3508.579057,153.219100,148.041188,9326.594869
3508.579371,229.828649,-0.000000,9696.697840
3508.579685,383.047749,-0.000000,9696.697840
3508.579999,153.219100,-0.000000,9622.677246
3508.580313,76.609550,-74.020594,9474.636058
3508.580627,76.609550,-0.000000,9326.594869
3508.580941,229.828649,518.144159,9918.759623
3508.581255,76.609550,296.082377,9548.656652
3508.581569,459.657299,222.061783,9696.697840
3508.581883,76.609550,-0.000000,9844.739029
3508.582197,0.000000,222.061783,9622.677246
3508.582511,229.828649,518.144159,9622.677246
3508.582825,229.828649,-0.000000,9696.697840
3508.583139,153.219100,148.041188,9918.759623
3508.583453,0.000000,222.061783,9474.636058
3508.583767,153.219100,148.041188,9548.656652
3508.584081,229.828649,296.082377,9474.636058
3508.584395,229.828649,592.164754,9696.697840
3508.584709,-536.266849,296.082377,9696.697840
3508.585023,0.000000,-0.000000,9548.656652
3508.585337,0.000000,148.041188,9696.697840
3508.585651,0.000000,-0.000000,9622.677246
3508.585965,0.000000,-0.000000,9844.739029
3508.586279,153.219100,370.102971,9992.780217
3508.586593,76.609550,-0.000000,9770.718434
3508.586907,229.828649,296.082377,9474.636058
3508.587221,0.000000,222.061783,9400.615463
3508.587535,229.828649,-0.000000,9548.656652
3508.587849,306.438199,-74.020594,9548.656652
3508.588163,153.219100,370.102971,9474.636058
3508.588477,306.438199,222.061783,9770.718434
3508.588791,0.000000,296.082377,9548.656652
3508.589105,76.609550,-0.000000,9474.636058
3508.589419,0.000000,222.061783,9992.780217
3508.589733,-306.438199,-74.020594,9844.739029
3508.590046,0.000000,222.061783,9622.677246
3508.590360,153.219100,444.123565,9770.718434
3508.590674,0.000000,-0.000000,9696.697840
3508.590988,306.438199,-0.000000,9326.594869
3508.591302,0.000000,518.144159,9178.553681
3508.591616,0.000000,148.041188,9992.780217
3508.591930,306.438199,222.061783,9844.739029
3508.592244,153.219100,222.061783,9622.677246
3508.592558,76.609550,370.102971,9696.697840
3508.592872,0.000000,-0.000000,9770.718434
3508.593186,306.438199,-0.000000,9548.656652
3508.593500,0.000000,222.061783,9770.718434
3508.593814,0.000000,-74.020594,9844.739029
3508.594128,-229.828649,-0.000000,9474.636058
3508.594442,0.000000,-0.000000,9400.615463
3508.594756,76.609550,148.041188,9474.636058
3508.595070,76.609550,222.061783,9696.697840
3508.595384,0.000000,-0.000000,9696.697840
3508.595698,-612.876398,222.061783,9696.697840
3508.596012,-76.609550,-0.000000,9474.636058
3508.596326,76.609550,-0.000000,9326.594869
3508.596640,0.000000,-74.020594,9474.636058
3508.596954,0.000000,-148.041188,9992.780217
3508.597268,-76.609550,-0.000000,10362.883188
3508.597582,153.219100,296.082377,9622.677246
3508.597896,153.219100,370.102971,9474.636058
3508.598210,229.828649,-0.000000,9696.697840
3508.598524,383.047749,-0.000000,9252.574275
3508.598838,459.657299,-74.020594,9252.574275
3508.599152,383.047749,-222.061783,9178.553681
3508.599466,689.485948,-0.000000,9326.594869
3508.599780,612.876398,-0.000000,9326.594869
3508.600094,0.000000,-74.020594,9474.636058
3508.600408,-383.047749,-148.041188,9770.718434
3508.600722,0.000000,-222.061783,9696.697840
3508.601035,76.609550,-0.000000,9918.759623
3508.601349,76.609550,-0.000000,9622.677246
3508.601663,76.609550,-0.000000,9548.656652
3508.601977,76.609550,-0.000000,9474.636058
3508.602291,383.047749,-0.000000,9400.615463
3508.602605,536.266849,222.061783,9474.636058
3508.602919,383.047749,444.123565,9622.677246
3508.603233,459.657299,518.144159,9548.656652
3508.603547,0.000000,222.061783,9696.697840
3508.603861,76.609550,-0.000000,9696.697840
3508.604175,0.000000,-0.000000,9918.759623
3508.604489,306.438199,-0.000000,9770.718434
3508.604803,0.000000,-0.000000,9844.739029
3508.605117,76.609550,-0.000000,9696.697840
3508.605431,0.000000,222.061783,9696.697840
3508.605745,0.000000,518.144159,9548.656652
3508.606059,76.609550,370.102971,9918.759623
3508.606373,0.000000,444.123565,9474.636058
3508.606687,229.828649,-0.000000,9548.656652
3508.607001,0.000000,296.082377,9548.656652
3508.607315,153.219100,370.102971,9844.739029
3508.607629,229.828649,296.082377,9474.636058
3508.607943,-153.219100,222.061783,9770.718434
3508.608257,229.828649,-0.000000,10288.862594
3508.608571,-306.438199,444.123565,9696.697840
3508.608885,0.000000,148.041188,9696.697840
3508.609199,153.219100,148.041188,9696.697840
3508.609513,229.828649,370.102971,9548.656652
3508.609827,383.047749,-0.000000,8882.471304
3508.610141,383.047749,370.102971,9474.636058
3508.610455,76.609550,-0.000000,9696.697840
3508.610769,229.828649,-0.000000,9326.594869
3508.611083,0.000000,148.041188,9474.636058
3508.611397,153.219100,222.061783,9696.697840
3508.611711,0.000000,222.061783,9548.656652
3508.612024,76.609550,222.061783,9548.656652
3508.612338,0.000000,-0.000000,9770.718434
3508.612652,0.000000,296.082377,9622.677246
3508.612966,0.000000,-74.020594,9696.697840
3508.613280,0.000000,148.041188,9696.697840
3508.613594,76.609550,370.102971,9844.739029
3508.613908,0.000000,148.041188,9622.677246
3508.614222,0.000000,222.061783,9622.677246
3508.614536,153.219100,-0.000000,9622.677246
3508.614850,229.828649,-0.000000,9548.656652
3508.615164,0.000000,-0.000000,9992.780217
3508.615478,76.609550,148.041188,9770.718434
3508.615792,0.000000,-0.000000,9844.739029
3508.616106,76.609550,-0.000000,9400.615463
3508.616420,383.047749,296.082377,9326.594869
3508.616734,76.609550,222.061783,9622.677246
3508.617048,76.609550,148.041188,9622.677246
3508.617362,153.219100,-0.000000,9252.574275
3508.617675,612.876398,444.123565,9548.656652
3508.617989,306.438199,-148.041188,9548.656652
3508.618303,306.438199,-0.000000,9252.574275
3508.618617,76.609550,-148.041188,9252.574275
3508.618931,229.828649,-74.020594,9696.697840
3508.619245,383.047749,-0.000000,9548.656652
3508.619559,229.828649,-0.000000,9400.615463
3508.619873,0.000000,-0.000000,9326.594869
3508.620187,459.657299,-0.000000,9474.636058
3508.620501,459.657299,222.061783,9178.553681
3508.620815,612.876398,-0.000000,9326.594869
3508.621129,153.219100,148.041188,10140.821405
3508.621443,229.828649,-0.000000,9770.718434
3508.621757,76.609550,-0.000000,9474.636058
3508.622071,306.438199,-0.000000,9474.636058
3508.622385,76.609550,-0.000000,9918.759623
3508.622699,229.828649,-0.000000,9696.697840
3508.623012,306.438199,-0.000000,9548.656652
3508.623326,0.000000,-222.061783,9844.739029
3508.623640,153.219100,148.041188,9548.656652
3508.623954,229.828649,222.061783,9548.656652
3508.624268,153.219100,-74.020594,9622.677246
3508.624582,76.609550,-0.000000,9770.718434
3508.624896,0.000000,-0.000000,9696.697840
3508.625210,0.000000,-0.000000,9622.677246
3508.625524,153.219100,222.061783,9622.677246
3508.625838,76.609550,296.082377,9696.697840
3508.626152,76.609550,222.061783,9696.697840
3508.626466,76.609550,370.102971,9770.718434
3508.626780,0.000000,222.061783,9918.759623
3508.627094,0.000000,370.102971,10066.800811
3508.627408,229.828649,296.082377,9622.677246
3508.627722,0.000000,-0.000000,9844.739029
3508.628036,-153.219100,-0.000000,9474.636058
3508.628349,153.219100,-0.000000,9400.615463
3508.628663,76.609550,-0.000000,9548.656652
3508.628977,0.000000,222.061783,9622.677246
3508.629291,0.000000,-0.000000,9326.594869
3508.629605,0.000000,148.041188,9178.553681
3508.629919,0.000000,148.041188,9548.656652
3508.630233,0.000000,222.061783,9696.697840
3508.630547,0.000000,444.123565,9844.739029
3508.630861,153.219100,296.082377,9474.636058
3508.631175,0.000000,370.102971,9252.574275
3508.631489,0.000000,518.144159,9400.615463
3508.631803,153.219100,-0.000000,9548.656652
3508.632117,153.219100,-0.000000,9770.718434
3508.632431,76.609550,148.041188,9770.718434
3508.632745,0.000000,-0.000000,9474.636058
3508.633059,229.828649,-0.000000,9918.759623
3508.633372,153.219100,-0.000000,9622.677246
3508.633686,306.438199,-0.000000,9474.636058
3508.634000,229.828649,148.041188,9400.615463
3508.634314,76.609550,444.123565,9474.636058
3508.634628,459.657299,370.102971,9770.718434
3508.634942,306.438199,296.082377,9474.636058
3508.635256,229.828649,-0.000000,9844.739029
3508.635570,0.000000,148.041188,9696.697840
3508.635884,153.219100,-0.000000,9474.636058
3508.636198,383.047749,296.082377,9918.759623
3508.636512,0.000000,148.041188,9918.759623
3508.636826,229.828649,296.082377,10066.800811
3508.637140,229.828649,444.123565,9400.615463
3508.637454,689.485948,-0.000000,9400.615463
3508.637768,229.828649,148.041188,9844.739029
3508.638082,0.000000,296.082377,9696.697840
3508.638396,0.000000,222.061783,9474.636058
3508.638709,0.000000,-0.000000,9696.697840
3508.639023,153.219100,-0.000000,9548.656652
3508.639337,0.000000,-74.020594,9252.574275
3508.639651,0.000000,-0.000000,9400.615463
3508.639965,-76.609550,222.061783,9918.759623
3508.640279,0.000000,-0.000000,9326.594869
3508.640593,306.438199,-0.000000,9474.636058
3508.640907,153.219100,222.061783,9696.697840
3508.641221,306.438199,222.061783,9474.636058
3508.641535,306.438199,-0.000000,9474.636058
3508.641849,76.609550,222.061783,9474.636058
3508.642163,383.047749,-0.000000,9770.718434
3508.642477,383.047749,296.082377,9548.656652
3508.642791,0.000000,-0.000000,9326.594869
3508.643105,153.219100,-0.000000,9474.636058
3508.643419,0.000000,-0.000000,9548.656652
3508.643733,0.000000,-74.020594,9696.697840
3508.644046,153.219100,-0.000000,9622.677246
3508.644360,153.219100,-0.000000,9622.677246
3508.644674,0.000000,-74.020594,9474.636058
3508.644988,229.828649,-74.020594,9474.636058
3508.645302,306.438199,296.082377,9992.780217
3508.645616,0.000000,-0.000000,9622.677246
3508.645930,0.000000,-0.000000,9622.677246
3508.646244,229.828649,-0.000000,9918.759623
3508.646558,-153.219100,-0.000000,9622.677246
3508.646872,0.000000,148.041188,9326.594869
3508.647186,0.000000,-0.000000,9474.636058
3508.647500,0.000000,-74.020594,9992.780217
3508.647814,0.000000,-0.000000,9474.636058
3508.648128,-153.219100,-74.020594,9252.574275
3508.648442,-536.266849,-148.041188,9474.636058
3508.648756,-153.219100,-0.000000,9918.759623
3508.649070,0.000000,-0.000000,9844.739029
3508.649383,-306.438199,296.082377,9622.677246
3508.649697,459.657299,-0.000000,9548.656652
3508.650011,0.000000,-0.000000,9474.636058
3508.650325,459.657299,518.144159,9400.615463
3508.650639,153.219100,-0.000000,9474.636058
3508.650953,76.609550,-0.000000,9770.718434
3508.651267,0.000000,-0.000000,9326.594869
3508.651581,306.438199,370.102971,9474.636058
3508.651895,459.657299,-0.000000,9548.656652
3508.652209,229.828649,-0.000000,9696.697840
3508.652523,306.438199,296.082377,9474.636058
3508.652837,0.000000,296.082377,9474.636058
3508.653151,229.828649,-0.000000,9474.636058
3508.653465,0.000000,-0.000000,9474.636058
3508.653779,0.000000,296.082377,9548.656652
3508.654093,536.266849,222.061783,9474.636058
3508.654407,306.438199,148.041188,9474.636058
3508.654720,306.438199,222.061783,9548.656652
3508.655034,383.047749,222.061783,9770.718434
3508.655348,306.438199,-0.000000,9770.718434
3508.655662,76.609550,296.082377,9622.677246
3508.655976,76.609550,-0.000000,9548.656652
3508.656290,306.438199,296.082377,9992.780217
3508.656604,306.438199,370.102971,10140.821405
3508.656918,612.876398,-0.000000,9696.697840
3508.657232,153.219100,222.061783,9770.718434
3508.657546,0.000000,-0.000000,9770.718434
3508.657860,0.000000,222.061783,9622.677246
3508.658174,76.609550,148.041188,9918.759623
3508.658488,306.438199,-0.000000,9770.718434
3508.658802,459.657299,518.144159,9548.656652
3508.659116,229.828649,296.082377,9178.553681
3508.659430,76.609550,370.102971,9622.677246
3508.659744,76.609550,296.082377,9918.759623
3508.660057,76.609550,-74.020594,9844.739029
3508.660371,229.828649,148.041188,9474.636058
3508.660685,0.000000,-0.000000,9622.677246
3508.660999,0.000000,296.082377,10066.800811
3508.661313,76.609550,-0.000000,9474.636058
3508.661627,0.000000,-222.061783,9548.656652
3508.661941,153.219100,-0.000000,9622.677246
3508.662255,0.000000,74.020594,9400.615463
3508.662569,76.609550,-0.000000,9474.636058
3508.662883,153.219100,148.041188,9548.656652
3508.663197,229.828649,-222.061783,9326.594869
3508.663511,229.828649,148.041188,9400.615463
3508.663825,153.219100,296.082377,9400.615463
3508.664139,229.828649,-0.000000,9548.656652
3508.664453,229.828649,-0.000000,9474.636058
3508.664767,0.000000,-0.000000,9474.636058
3508.665081,-229.828649,-0.000000,9030.512492
3508.665394,0.000000,-148.041188,9474.636058
3508.665708,0.000000,-0.000000,9696.697840
3508.666022,0.000000,-0.000000,9622.677246
3508.666336,153.219100,-518.144159,9400.615463
3508.666650,0.000000,-222.061783,9474.636058
3508.666964,0.000000,-74.020594,9696.697840
3508.667278,-306.438199,-0.000000,9992.780217
3508.667592,-229.828649,-0.000000,9844.739029
3508.667906,76.609550,296.082377,10140.821405
3508.668220,76.609550,-0.000000,10066.800811
3508.668534,383.047749,-0.000000,9548.656652
3508.668848,306.438199,-0.000000,9252.574275
3508.669162,306.438199,444.123565,9326.594869
3508.669476,459.657299,148.041188,9400.615463
3508.669790,536.266849,-0.000000,9326.594869
3508.670104,612.876398,-0.000000,9400.615463
3508.670417,153.219100,-0.000000,9474.636058
3508.670731,229.828649,-222.061783,9474.636058
3508.671045,0.000000,-222.061783,9326.594869
3508.671359,0.000000,-444.123565,9622.677246
3508.671673,76.609550,-518.144159,9992.780217
3508.671987,0.000000,-148.041188,9696.697840
3508.672301,0.000000,-0.000000,9474.636058
3508.672615,536.266849,-0.000000,9474.636058
3508.672929,459.657299,222.061783,9474.636058
3508.673243,459.657299,148.041188,9474.636058
3508.673557,612.876398,370.102971,9252.574275
3508.673871,612.876398,370.102971,9326.594869
3508.674185,306.438199,370.102971,9400.615463
3508.674499,536.266849,444.123565,9178.553681
3508.674813,536.266849,-0.000000,9474.636058
3508.675127,229.828649,222.061783,9548.656652
3508.675441,0.000000,-0.000000,9622.677246
3508.675754,0.000000,-0.000000,9844.739029
3508.676068,0.000000,-74.020594,9770.718434
3508.676382,153.219100,296.082377,9326.594869
3508.676696,153.219100,296.082377,9400.615463
3508.677010,0.000000,74.020594,9770.718434
3508.677324,383.047749,296.082377,9474.636058
3508.677638,689.485948,740.205942,9474.636058
3508.677952,383.047749,666.185348,9474.636058
3508.678266,306.438199,666.185348,9770.718434
3508.678580,0.000000,592.164754,9696.697840
3508.678894,0.000000,592.164754,9770.718434
3508.679208,76.609550,666.185348,9992.780217
3508.679522,-153.219100,740.205942,9992.780217
3508.679836,0.000000,444.123565,9770.718434
3508.680150,-306.438199,-0.000000,9844.739029
3508.680464,0.000000,-0.000000,10140.821405
3508.680778,153.219100,222.061783,9770.718434
3508.681091,-153.219100,370.102971,9548.656652
3508.681405,-306.438199,-0.000000,9696.697840
3508.681719,-383.047749,-222.061783,9696.697840
3508.682033,-306.438199,370.102971,9622.677246
3508.682347,0.000000,-0.000000,9918.759623
3508.682661,0.000000,296.082377,9696.697840
3508.682975,0.000000,-0.000000,9474.636058
3508.683289,153.219100,-0.000000,9400.615463
3508.683603,0.000000,-0.000000,10066.800811
3508.683917,-229.828649,222.061783,9696.697840
3508.684231,0.000000,370.102971,9622.677246
3508.684545,0.000000,-0.000000,9548.656652
3508.684859,153.219100,-0.000000,9474.636058
3508.685173,0.000000,-222.061783,9548.656652
3508.685487,229.828649,-0.000000,9622.677246
3508.685801,0.000000,222.061783,9548.656652
3508.686115,76.609550,222.061783,9400.615463
3508.686428,459.657299,-0.000000,8956.491898
3508.686742,459.657299,-296.082377,9548.656652
3508.687056,153.219100,-0.000000,9918.759623
3508.687370,306.438199,-0.000000,9548.656652
3508.687684,229.828649,-0.000000,9326.594869
3508.687998,306.438199,148.041188,9400.615463
3508.688312,459.657299,222.061783,9474.636058
3508.688626,766.095498,-0.000000,9400.615463
3508.688940,459.657299,-0.000000,9474.636058
3508.689254,459.657299,148.041188,9696.697840
3508.689568,0.000000,-0.000000,9178.553681
3508.689882,0.000000,222.061783,9696.697840
3508.690196,306.438199,-0.000000,9992.780217
3508.690510,0.000000,-0.000000,10140.821405
3508.690824,153.219100,-148.041188,9548.656652
3508.691138,0.000000,-0.000000,9548.656652
3508.691452,153.219100,-296.082377,9844.739029
3508.691765,76.609550,-0.000000,9548.656652
3508.692079,0.000000,-74.020594,9770.718434
3508.692393,153.219100,-0.000000,9474.636058
3508.692707,229.828649,-74.020594,9030.512492
3508.693021,306.438199,-0.000000,9474.636058
3508.693335,0.000000,-74.020594,9474.636058
3508.693649,-153.219100,-296.082377,9770.718434
3508.693963,0.000000,-222.061783,9474.636058
3508.694277,0.000000,-222.061783,9770.718434
3508.694591,0.000000,-74.020594,9474.636058
3508.694905,153.219100,-0.000000,9548.656652
3508.695219,76.609550,-0.000000,9844.739029
3508.695533,153.219100,-0.000000,9696.697840
3508.695847,229.828649,-0.000000,9622.677246
3508.696161,229.828649,-0.000000,9178.553681
3508.696475,0.000000,-0.000000,9474.636058
3508.696789,0.000000,148.041188,9474.636058
3508.697102,0.000000,296.082377,9548.656652
3508.697416,153.219100,222.061783,9400.615463
3508.697730,0.000000,-0.000000,9770.718434
3508.698044,76.609550,222.061783,9918.759623
3508.698358,0.000000,-0.000000,9474.636058
3508.698672,0.000000,-0.000000,9474.636058
3508.698986,0.000000,148.041188,10140.821405
3508.699300,-153.219100,-0.000000,9770.718434
3508.699614,0.000000,148.041188,9770.718434
3508.699928,0.000000,444.123565,9844.739029
3508.700242,153.219100,296.082377,9474.636058
3508.700556,76.609550,666.185348,9770.718434
3508.700870,229.828649,592.164754,9770.718434
3508.701184,153.219100,222.061783,9770.718434
3508.701498,0.000000,444.123565,9622.677246
3508.701812,0.000000,148.041188,9548.656652
3508.702126,153.219100,-0.000000,9474.636058
3508.702439,0.000000,148.041188,9696.697840
3508.702753,0.000000,74.020594,9548.656652
3508.703067,0.000000,222.061783,9622.677246
3508.703381,0.000000,296.082377,9548.656652
3508.703695,76.609550,-0.000000,9474.636058
3508.704009,0.000000,370.102971,9474.636058
3508.704323,306.438199,-0.000000,9548.656652
3508.704637,153.219100,222.061783,9474.636058
3508.704951,153.219100,-0.000000,9474.636058
3508.705265,229.828649,296.082377,9474.636058
3508.705579,306.438199,148.041188,9400.615463
3508.705893,229.828649,-0.000000,9770.718434
3508.706207,306.438199,222.061783,9696.697840
3508.706521,229.828649,-74.020594,10066.800811
3508.706835,76.609550,222.061783,9622.677246
3508.707149,153.219100,-0.000000,8956.491898
3508.707462,76.609550,-0.000000,9474.636058
3508.707776,153.219100,-148.041188,9548.656652
3508.708090,306.438199,-148.041188,9400.615463
3508.708404,306.438199,-0.000000,9178.553681
3508.708718,229.828649,-0.000000,9622.677246
3508.709032,0.000000,-0.000000,9474.636058
3508.709346,0.000000,-0.000000,9622.677246
3508.709660,76.609550,-0.000000,9474.636058
3508.709974,612.876398,-0.000000,9844.739029
3508.710288,0.000000,296.082377,10214.842000
3508.710602,76.609550,222.061783,9622.677246
3508.710916,153.219100,-0.000000,9696.697840
3508.711230,0.000000,-0.000000,9696.697840
3508.711544,76.609550,370.102971,9622.677246
3508.711858,0.000000,148.041188,9696.697840
3508.712172,0.000000,-0.000000,9548.656652
3508.712486,0.000000,296.082377,9474.636058
3508.712799,-229.828649,222.061783,9548.656652
3508.713113,76.609550,-74.020594,9992.780217
3508.713427,0.000000,-0.000000,9770.718434
3508.713741,0.000000,-0.000000,9770.718434
3508.714055,0.000000,-148.041188,9696.697840
3508.714369,0.000000,-0.000000,9696.697840
3508.714683,306.438199,-370.102971,9548.656652
3508.714997,-229.828649,-0.000000,9400.615463
3508.715311,0.000000,-370.102971,9474.636058
3508.715625,-76.609550,-0.000000,9622.677246
3508.715939,0.000000,-0.000000,9474.636058
3508.716253,153.219100,-0.000000,9622.677246
3508.716567,76.609550,-148.041188,9696.697840
