#time,accel_x,accel_y,accel_z
4030.257410,-2528.115143,-666.185348,10140.821405
4030.257725,-2834.553343,-1110.308913,10140.821405
4030.258040,-2834.553343,-1554.432478,10140.821405
4030.258354,-2298.286494,-1554.432478,9548.656652
4030.258669,-1915.238745,-888.247130,9104.533087
4030.258984,-1302.362347,-222.061783,8438.347739
4030.259299,-612.876398,-74.020594,8290.306550
4030.259614,-306.438199,-0.000000,8142.265362
4030.259929,0.000000,296.082377,8364.327145
4030.260244,229.828649,222.061783,8290.306550
4030.260559,689.485948,666.185348,8512.368333
4030.260874,459.657299,444.123565,8808.450710
4030.261189,229.828649,444.123565,9252.574275
4030.261504,0.000000,-0.000000,9474.636058
4030.261819,-229.828649,-444.123565,9474.636058
4030.262134,-612.876398,-1036.288319,9770.718434
4030.262449,-536.266849,-962.267725,10140.821405
4030.262763,-1302.362347,-1480.411884,9770.718434
4030.263078,-612.876398,-1480.411884,9178.553681
4030.263393,-766.095498,-1110.308913,9252.574275
4030.263708,-536.266849,-814.226536,9030.512492
4030.264023,-229.828649,-814.226536,9178.553681
4030.264338,229.828649,-444.123565,8956.491898
4030.264653,383.047749,-296.082377,8586.388927
4030.264968,229.828649,-296.082377,8586.388927
4030.265283,229.828649,-148.041188,9104.533087
4030.265598,306.438199,-444.123565,9252.574275
4030.265913,383.047749,-740.205942,9474.636058
4030.266228,229.828649,-518.144159,9326.594869
4030.266543,229.828649,-296.082377,9474.636058
4030.266857,0.000000,-296.082377,9844.739029
4030.267172,0.000000,-740.205942,10288.862594
4030.267487,-919.314598,-222.061783,10214.842000
4030.267802,-919.314598,-74.020594,10214.842000
4030.268117,-459.657299,-74.020594,9918.759623
4030.268432,-229.828649,-222.061783,9918.759623
4030.268747,0.000000,-0.000000,9622.677246
4030.269062,0.000000,-0.000000,9178.553681
4030.269377,229.828649,592.164754,9252.574275
4030.269692,306.438199,444.123565,9030.512492
4030.270007,459.657299,814.226536,9622.677246
4030.270322,0.000000,1036.288319,9770.718434
4030.270637,153.219100,1184.329507,9400.615463
4030.270952,229.828649,962.267725,9400.615463
4030.271266,76.609550,888.247130,9696.697840
4030.271581,76.609550,1184.329507,9770.718434
4030.271896,612.876398,1110.308913,9696.697840
4030.272211,229.828649,1258.350101,9696.697840
4030.272526,383.047749,1184.329507,9474.636058
4030.272841,229.828649,1480.411884,9474.636058
4030.273156,229.828649,1480.411884,9918.759623
4030.273471,229.828649,740.205942,9844.739029
4030.273786,0.000000,1332.370696,9696.697840
4030.274101,0.000000,1554.432478,9918.759623
4030.274416,0.000000,1480.411884,10288.862594
4030.274731,-153.219100,1258.350101,10436.903782
4030.275046,-306.438199,1184.329507,9918.759623
4030.275360,76.609550,1554.432478,9992.780217
4030.275675,229.828649,1332.370696,9770.718434
4030.275990,536.266849,1258.350101,9548.656652
4030.276305,689.485948,888.247130,9770.718434
4030.276620,995.924147,740.205942,10140.821405
4030.276935,842.705048,592.164754,9770.718434
4030.277250,536.266849,740.205942,10066.800811
4030.277565,612.876398,-0.000000,9992.780217
4030.277880,689.485948,-0.000000,10288.862594
4030.278195,919.314598,-0.000000,10510.924376
4030.278510,459.657299,-0.000000,9696.697840
4030.278825,536.266849,148.041188,9992.780217
4030.279140,612.876398,-222.061783,9696.697840
4030.279455,612.876398,-148.041188,9548.656652
4030.279769,612.876398,-148.041188,9548.656652
4030.280084,689.485948,-222.061783,9696.697840
4030.280399,536.266849,-222.061783,9770.718434
4030.280714,459.657299,-444.123565,9770.718434
4030.281029,306.438199,-518.144159,9622.677246
4030.281344,0.000000,-518.144159,9474.636058
4030.281659,0.000000,-592.164754,9474.636058
4030.281974,0.000000,-222.061783,9622.677246
4030.282289,229.828649,-518.144159,9474.636058
4030.282604,0.000000,-740.205942,9252.574275
4030.282919,0.000000,-444.123565,9474.636058
4030.283234,0.000000,-518.144159,9104.533087
4030.283549,0.000000,-888.247130,9474.636058
4030.283863,76.609550,-740.205942,9474.636058
4030.284178,-306.438199,-740.205942,9474.636058
4030.284493,76.609550,-444.123565,9326.594869
4030.284808,0.000000,-370.102971,9252.574275
4030.285123,76.609550,-518.144159,9474.636058
4030.285438,0.000000,-370.102971,9326.594869
4030.285753,-306.438199,-740.205942,9548.656652
4030.286068,153.219100,-296.082377,9252.574275
4030.286383,0.000000,-222.061783,9030.512492
4030.286698,153.219100,-518.144159,9178.553681
4030.287013,153.219100,-370.102971,9400.615463
4030.287328,0.000000,-592.164754,9474.636058
4030.287643,76.609550,-444.123565,9474.636058
4030.287958,229.828649,-444.123565,9474.636058
4030.288272,536.266849,-518.144159,9474.636058
4030.288587,0.000000,-444.123565,9474.636058
4030.288902,0.000000,-296.082377,9400.615463
4030.289217,-306.438199,-370.102971,9548.656652
4030.289532,0.000000,-222.061783,9474.636058
4030.289847,229.828649,-370.102971,9770.718434
4030.290162,229.828649,-74.020594,9474.636058
4030.290477,383.047749,-0.000000,9770.718434
4030.290792,153.219100,-296.082377,9918.759623
4030.291107,76.609550,-0.000000,9992.780217
4030.291422,229.828649,222.061783,9474.636058
4030.291737,306.438199,148.041188,9844.739029
4030.292052,0.000000,296.082377,9770.718434
4030.292366,0.000000,444.123565,9844.739029
4030.292681,153.219100,444.123565,9844.739029
4030.292996,306.438199,814.226536,10140.821405
4030.293311,153.219100,740.205942,9770.718434
4030.293626,0.000000,740.205942,10066.800811
4030.293941,0.000000,666.185348,9696.697840
4030.294256,76.609550,814.226536,9992.780217
4030.294571,76.609550,888.247130,10288.862594
4030.294886,0.000000,888.247130,9918.759623
4030.295201,229.828649,1110.308913,9918.759623
4030.295516,0.000000,1110.308913,9696.697840
4030.295831,153.219100,1184.329507,9992.780217
4030.296146,0.000000,1036.288319,9992.780217
4030.296461,-459.657299,1036.288319,9770.718434
4030.296775,-383.047749,1036.288319,9992.780217
4030.297090,153.219100,888.247130,9770.718434
4030.297405,76.609550,1036.288319,9770.718434
4030.297720,0.000000,814.226536,9696.697840
4030.298035,-229.828649,888.247130,9622.677246
4030.298350,0.000000,518.144159,9548.656652
4030.298667,0.000000,888.247130,9548.656652
4030.298982,-153.219100,592.164754,9474.636058
4030.299297,0.000000,444.123565,9474.636058
4030.299611,-153.219100,370.102971,9548.656652
4030.299926,0.000000,518.144159,9622.677246
4030.300241,0.000000,-0.000000,9252.574275
4030.300556,0.000000,-0.000000,9622.677246
4030.300871,153.219100,296.082377,9400.615463
4030.301186,459.657299,-0.000000,9474.636058
4030.301501,229.828649,-74.020594,9474.636058
4030.301816,153.219100,-0.000000,9474.636058
4030.302131,306.438199,-0.000000,8956.491898
4030.302446,383.047749,-444.123565,8956.491898
4030.302761,459.657299,-296.082377,9326.594869
4030.303076,612.876398,-0.000000,9474.636058
4030.303391,306.438199,-0.000000,9474.636058
4030.303706,0.000000,-296.082377,9548.656652
4030.304020,229.828649,-148.041188,9474.636058
4030.304335,76.609550,-370.102971,9474.636058
4030.304650,229.828649,-296.082377,9104.533087
4030.304965,306.438199,-444.123565,9326.594869
4030.305280,76.609550,-222.061783,9474.636058
4030.305595,0.000000,-296.082377,9400.615463
4030.305910,0.000000,-444.123565,9400.615463
4030.306225,-306.438199,-444.123565,9622.677246
4030.306540,0.000000,-148.041188,9252.574275
4030.306855,0.000000,-296.082377,9326.594869
4030.307170,0.000000,-370.102971,9326.594869
4030.307485,0.000000,-74.020594,9252.574275
4030.307800,153.219100,-0.000000,9104.533087
4030.308115,76.609550,-0.000000,9252.574275
4030.308429,0.000000,-148.041188,9252.574275
4030.308744,76.609550,-296.082377,9104.533087
4030.309059,306.438199,-0.000000,9252.574275
4030.309374,0.000000,-74.020594,9474.636058
4030.309689,0.000000,-296.082377,9400.615463
4030.310004,0.000000,-74.020594,9696.697840
4030.310319,0.000000,-74.020594,9696.697840
4030.310634,0.000000,-74.020594,9400.615463
4030.310949,0.000000,-0.000000,9622.677246
4030.311264,0.000000,-0.000000,9474.636058
4030.311579,76.609550,-74.020594,9548.656652
4030.311894,229.828649,444.123565,9770.718434
4030.312209,0.000000,-0.000000,9548.656652
4030.312524,0.000000,-0.000000,9696.697840
4030.312838,306.438199,518.144159,9622.677246
4030.313153,-383.047749,444.123565,9622.677246
4030.313468,0.000000,518.144159,9992.780217
4030.313783,0.000000,370.102971,9992.780217
4030.314098,229.828649,666.185348,10140.821405
4030.314413,229.828649,666.185348,9918.759623
4030.314728,306.438199,222.061783,10066.800811
4030.315043,153.219100,740.205942,9918.759623
4030.315358,76.609550,814.226536,9696.697840
4030.315673,153.219100,444.123565,9696.697840
4030.315988,536.266849,518.144159,10140.821405
4030.316303,-76.609550,962.267725,10140.821405
4030.316618,229.828649,518.144159,9844.739029
4030.316932,76.609550,1110.308913,10066.800811
4030.317247,306.438199,814.226536,10066.800811
4030.317562,0.000000,814.226536,9844.739029
4030.317877,153.219100,666.185348,10140.821405
4030.318192,76.609550,888.247130,9918.759623
4030.318507,153.219100,666.185348,9548.656652
4030.318822,459.657299,962.267725,9696.697840
4030.319137,383.047749,444.123565,9622.677246
4030.319452,-76.609550,666.185348,9918.759623
4030.319767,153.219100,370.102971,9770.718434
4030.320082,0.000000,592.164754,9548.656652
4030.320397,153.219100,592.164754,9770.718434
4030.320712,-459.657299,148.041188,9992.780217
4030.321027,0.000000,-74.020594,9844.739029
4030.321341,0.000000,296.082377,9770.718434
4030.321656,0.000000,296.082377,9622.677246
4030.321971,76.609550,222.061783,9696.697840
4030.322286,383.047749,74.020594,9696.697840
4030.322601,306.438199,370.102971,9696.697840
4030.322916,459.657299,-370.102971,9400.615463
4030.323231,153.219100,296.082377,9474.636058
4030.323546,153.219100,-0.000000,9474.636058
4030.323861,0.000000,-74.020594,9178.553681
4030.324176,0.000000,-296.082377,9252.574275
4030.324491,76.609550,-370.102971,9474.636058
4030.324806,306.438199,-222.061783,9400.615463
4030.325121,153.219100,-444.123565,9474.636058
4030.325436,76.609550,-296.082377,9326.594869
4030.325750,229.828649,-74.020594,9474.636058
4030.326065,306.438199,-74.020594,9030.512492
4030.326380,153.219100,-296.082377,9252.574275
4030.326695,153.219100,-222.061783,9696.697840
4030.327010,-153.219100,-74.020594,9474.636058
4030.327325,0.000000,-222.061783,9474.636058
4030.327640,0.000000,-222.061783,9400.615463
4030.327955,0.000000,-148.041188,9326.594869
4030.328270,306.438199,-74.020594,9474.636058
4030.328585,459.657299,-148.041188,9474.636058
4030.328900,0.000000,-74.020594,9622.677246
4030.329215,229.828649,-0.000000,9178.553681
4030.329530,153.219100,-0.000000,9548.656652
4030.329845,0.000000,-296.082377,9474.636058
4030.330159,-229.828649,-518.144159,9178.553681
4030.330474,0.000000,-222.061783,9474.636058
4030.330789,153.219100,-74.020594,9474.636058
4030.331104,153.219100,-74.020594,9474.636058
4030.331419,0.000000,-74.020594,9474.636058
4030.331734,-229.828649,-444.123565,9178.553681
4030.332049,536.266849,-0.000000,9474.636058
4030.332364,153.219100,-0.000000,9252.574275
4030.332679,459.657299,-0.000000,9622.677246
4030.332994,229.828649,-0.000000,9844.739029
4030.333309,306.438199,-0.000000,9474.636058
4030.333624,153.219100,-0.000000,9326.594869
4030.333939,306.438199,296.082377,9696.697840
4030.334254,459.657299,222.061783,9918.759623
4030.334568,0.000000,-0.000000,9474.636058
4030.334883,383.047749,666.185348,9918.759623
4030.335198,0.000000,-148.041188,9474.636058
4030.335513,0.000000,-0.000000,9696.697840
4030.335828,229.828649,296.082377,9770.718434
4030.336143,153.219100,592.164754,10066.800811
4030.336458,306.438199,370.102971,9770.718434
4030.336773,76.609550,296.082377,9548.656652
4030.337088,0.000000,518.144159,9770.718434
4030.337403,0.000000,666.185348,10066.800811
4030.337718,306.438199,666.185348,9770.718434
4030.338033,459.657299,666.185348,9844.739029
4030.338348,229.828649,592.164754,10140.821405
4030.338663,229.828649,592.164754,9770.718434
4030.338977,76.609550,518.144159,10066.800811
4030.339292,0.000000,518.144159,9696.697840
4030.339607,383.047749,518.144159,9696.697840
4030.339922,153.219100,592.164754,9548.656652
4030.340237,229.828649,370.102971,9844.739029
4030.340552,153.219100,592.164754,9696.697840
4030.340867,459.657299,592.164754,9400.615463
4030.341182,0.000000,222.061783,9696.697840
4030.341497,0.000000,370.102971,9696.697840
4030.341812,0.000000,296.082377,9844.739029
4030.342127,0.000000,222.061783,9474.636058
4030.342442,76.609550,-0.000000,9696.697840
4030.342757,153.219100,-0.000000,9844.739029
4030.343072,-153.219100,296.082377,9474.636058
4030.343386,153.219100,296.082377,9622.677246
4030.343701,153.219100,296.082377,9844.739029
4030.344016,612.876398,-148.041188,9696.697840
4030.344331,-76.609550,-74.020594,9474.636058
4030.344646,0.000000,74.020594,9548.656652
4030.344961,0.000000,148.041188,9696.697840
4030.345276,76.609550,-0.000000,9326.594869
4030.345591,0.000000,-0.000000,9474.636058
4030.345906,76.609550,-444.123565,9548.656652
4030.346221,229.828649,-0.000000,9474.636058
4030.346536,229.828649,-74.020594,9548.656652
4030.346851,0.000000,-148.041188,9474.636058
4030.347166,-536.266849,-148.041188,9622.677246
4030.347481,76.609550,-296.082377,9252.574275
4030.347795,0.000000,-148.041188,9622.677246
4030.348110,459.657299,-74.020594,9770.718434
4030.348425,229.828649,-0.000000,9622.677246
4030.348740,536.266849,444.123565,9622.677246
4030.349055,229.828649,-0.000000,9474.636058
4030.349370,0.000000,-0.000000,9474.636058
4030.349685,0.000000,-74.020594,9400.615463
4030.350000,0.000000,-0.000000,9548.656652
4030.350315,-153.219100,-148.041188,9474.636058
4030.350630,0.000000,-0.000000,9178.553681
4030.350945,153.219100,296.082377,9400.615463
4030.351260,0.000000,-0.000000,9400.615463
4030.351575,0.000000,-0.000000,9400.615463
4030.351890,-306.438199,-148.041188,9474.636058
4030.352204,0.000000,-0.000000,9474.636058
4030.352519,153.219100,-74.020594,9770.718434
4030.352834,0.000000,-0.000000,9326.594869
4030.353149,0.000000,-0.000000,9400.615463
4030.353464,153.219100,-148.041188,9770.718434
4030.353779,0.000000,-0.000000,9326.594869
4030.354094,0.000000,-0.000000,9548.656652
4030.354409,306.438199,-0.000000,9474.636058
4030.354724,229.828649,296.082377,9622.677246
4030.355039,459.657299,-0.000000,9622.677246
4030.355354,0.000000,370.102971,9474.636058
4030.355669,229.828649,666.185348,9770.718434
4030.355984,459.657299,-0.000000,9400.615463
4030.356299,-153.219100,-0.000000,9326.594869
4030.356613,459.657299,-0.000000,9400.615463
4030.356928,0.000000,518.144159,10066.800811
4030.357243,536.266849,444.123565,9844.739029
4030.357558,536.266849,444.123565,9918.759623
4030.357873,0.000000,296.082377,9992.780217
4030.358188,0.000000,444.123565,9548.656652
4030.358503,76.609550,444.123565,9696.697840
4030.358818,153.219100,296.082377,9844.739029
4030.359133,0.000000,518.144159,9844.739029
4030.359448,383.047749,444.123565,9844.739029
4030.359763,0.000000,444.123565,9696.697840
4030.360078,0.000000,518.144159,9696.697840
4030.360393,76.609550,444.123565,9548.656652
4030.360708,229.828649,444.123565,9918.759623
4030.361022,76.609550,148.041188,9992.780217
4030.361337,229.828649,592.164754,9474.636058
4030.361652,306.438199,666.185348,9474.636058
4030.361967,229.828649,518.144159,9548.656652
4030.362282,0.000000,74.020594,9474.636058
4030.362597,229.828649,222.061783,9326.594869
4030.362912,306.438199,370.102971,9474.636058
4030.363227,153.219100,370.102971,9918.759623
4030.363542,153.219100,148.041188,9474.636058
4030.363857,0.000000,148.041188,9178.553681
4030.364172,76.609550,296.082377,9622.677246
4030.364487,0.000000,444.123565,9474.636058
4030.364802,153.219100,222.061783,9770.718434
4030.365116,306.438199,-0.000000,9622.677246
4030.365431,76.609550,444.123565,9400.615463
4030.365746,76.609550,296.082377,9400.615463
4030.366061,229.828649,-0.000000,9474.636058
4030.366376,229.828649,-0.000000,9622.677246
4030.366691,383.047749,-74.020594,9622.677246
4030.367006,0.000000,-148.041188,9474.636058
4030.367321,153.219100,-74.020594,9400.615463
4030.367636,76.609550,-0.000000,9622.677246
4030.367951,383.047749,-0.000000,9622.677246
4030.368266,0.000000,74.020594,9992.780217
4030.368581,0.000000,-0.000000,9622.677246
4030.368896,76.609550,-74.020594,9326.594869
4030.369211,383.047749,-148.041188,9622.677246
4030.369525,459.657299,-74.020594,9918.759623
4030.369840,-153.219100,-222.061783,9696.697840
4030.370155,-229.828649,-0.000000,9474.636058
4030.370470,306.438199,148.041188,9622.677246
4030.370785,229.828649,148.041188,9844.739029
4030.371100,0.000000,-0.000000,9252.574275
4030.371415,229.828649,-0.000000,9918.759623
4030.371730,0.000000,148.041188,9770.718434
4030.372045,0.000000,-0.000000,9400.615463
4030.372360,0.000000,222.061783,9844.739029
4030.372675,0.000000,-74.020594,9696.697840
4030.372990,153.219100,-0.000000,9622.677246
4030.373305,0.000000,-0.000000,9326.594869
4030.373620,0.000000,-0.000000,9400.615463
4030.373934,229.828649,-0.000000,10066.800811
4030.374249,0.000000,-0.000000,9548.656652
4030.374564,0.000000,-0.000000,8956.491898
4030.374879,-229.828649,296.082377,9548.656652
4030.375194,229.828649,-0.000000,9474.636058
4030.375509,76.609550,-74.020594,9474.636058
4030.375824,0.000000,-0.000000,9770.718434
4030.376139,612.876398,-0.000000,9474.636058
4030.376454,76.609550,370.102971,9326.594869
4030.376769,0.000000,148.041188,9474.636058
4030.377084,306.438199,-0.000000,9844.739029
4030.377399,919.314598,-0.000000,9548.656652
4030.377714,153.219100,-0.000000,9474.636058
4030.378029,0.000000,-0.000000,9474.636058
4030.378343,229.828649,222.061783,9918.759623
4030.378658,76.609550,222.061783,9770.718434
4030.378973,0.000000,-222.061783,9548.656652
4030.379288,383.047749,-0.000000,9844.739029
4030.379603,229.828649,-0.000000,9548.656652
4030.379918,229.828649,296.082377,9770.718434
4030.380233,306.438199,-0.000000,10140.821405
4030.380548,459.657299,518.144159,9696.697840
4030.380863,0.000000,444.123565,9622.677246
4030.381178,76.609550,148.041188,9696.697840
4030.381493,153.219100,-0.000000,9992.780217
4030.381808,0.000000,222.061783,9918.759623
4030.382123,306.438199,-0.000000,9548.656652
4030.382438,153.219100,222.061783,10140.821405
4030.382752,76.609550,592.164754,9918.759623
4030.383067,76.609550,296.082377,9474.636058
4030.383382,0.000000,296.082377,9696.697840
4030.383697,-153.219100,222.061783,9474.636058
4030.384012,0.000000,-0.000000,9326.594869
4030.384327,153.219100,444.123565,9474.636058
4030.384642,0.000000,222.061783,9992.780217
4030.384957,-383.047749,-0.000000,9474.636058
4030.385272,153.219100,370.102971,9104.533087
4030.385587,76.609550,296.082377,9622.677246
4030.385902,306.438199,370.102971,9252.574275
4030.386217,153.219100,222.061783,9474.636058
4030.386532,383.047749,-0.000000,9400.615463
4030.386847,383.047749,-0.000000,9474.636058
4030.387161,153.219100,296.082377,9252.574275
4030.387476,229.828649,222.061783,9474.636058
4030.387791,229.828649,-0.000000,9548.656652
4030.388106,0.000000,-74.020594,9474.636058
4030.388421,0.000000,296.082377,9770.718434
4030.388736,76.609550,-0.000000,9400.615463
4030.389051,153.219100,-74.020594,9548.656652
4030.389366,229.828649,-0.000000,9474.636058
4030.389681,383.047749,-0.000000,9474.636058
4030.389996,229.828649,370.102971,9696.697840
4030.390311,229.828649,-0.000000,9400.615463
4030.390626,0.000000,-0.000000,9474.636058
4030.390941,153.219100,-0.000000,9770.718434
4030.391256,0.000000,-0.000000,9696.697840
4030.391570,0.000000,-0.000000,9844.739029
4030.391885,0.000000,-0.000000,9770.718434
4030.392200,0.000000,-74.020594,9696.697840
4030.392515,76.609550,-148.041188,9548.656652
4030.392830,306.438199,-222.061783,9770.718434
4030.393145,0.000000,-0.000000,9992.780217
4030.393460,0.000000,74.020594,9548.656652
4030.393775,0.000000,-0.000000,9474.636058
4030.394090,76.609550,-0.000000,9548.656652
4030.394405,-229.828649,-74.020594,9474.636058
4030.394720,0.000000,-0.000000,9548.656652
4030.395035,-76.609550,-0.000000,9474.636058
4030.395350,0.000000,-74.020594,9474.636058
4030.395665,0.000000,370.102971,9326.594869
4030.395979,0.000000,-0.000000,9252.574275
4030.396294,0.000000,370.102971,9400.615463
4030.396609,0.000000,296.082377,9474.636058
4030.396924,153.219100,222.061783,9252.574275
4030.397239,76.609550,-0.000000,9474.636058
4030.397554,0.000000,222.061783,9400.615463
4030.397869,229.828649,370.102971,9178.553681
4030.398184,-229.828649,148.041188,9474.636058
4030.398499,76.609550,148.041188,9400.615463
4030.398814,0.000000,222.061783,9474.636058
4030.399129,0.000000,148.041188,9696.697840
4030.399444,153.219100,222.061783,9178.553681
4030.399759,306.438199,222.061783,9474.636058
4030.400074,459.657299,296.082377,9400.615463
4030.400389,536.266849,370.102971,9992.780217
4030.400704,76.609550,222.061783,10066.800811
4030.401020,0.000000,222.061783,9474.636058
4030.401335,0.000000,-0.000000,9696.697840
4030.401650,76.609550,444.123565,9992.780217
4030.401965,153.219100,370.102971,9548.656652
4030.402280,76.609550,296.082377,10140.821405
4030.402595,0.000000,148.041188,9696.697840
4030.402911,76.609550,-0.000000,10066.800811
4030.403226,0.000000,-0.000000,9696.697840
4030.403541,153.219100,-0.000000,9548.656652
4030.403856,153.219100,296.082377,10288.862594
4030.404171,76.609550,296.082377,9770.718434
4030.404486,0.000000,296.082377,9696.697840
4030.404801,76.609550,222.061783,9696.697840
4030.405117,229.828649,222.061783,9844.739029
4030.405432,0.000000,444.123565,9474.636058
4030.405747,0.000000,296.082377,9622.677246
4030.406062,0.000000,-0.000000,9992.780217
4030.406377,153.219100,-0.000000,9474.636058
4030.406692,-229.828649,-0.000000,9326.594869
4030.407008,-229.828649,-0.000000,9400.615463
4030.407323,-306.438199,-0.000000,9844.739029
4030.407638,153.219100,666.185348,9400.615463
4030.407953,-306.438199,666.185348,9030.512492
4030.408268,-536.266849,592.164754,9548.656652
4030.408583,-689.485948,740.205942,9474.636058
4030.408898,-383.047749,296.082377,9770.718434
4030.409214,-612.876398,222.061783,9770.718434
4030.409529,-383.047749,296.082377,9622.677246
4030.409844,-306.438199,370.102971,9474.636058
4030.410159,-536.266849,370.102971,9326.594869
4030.410474,0.000000,444.123565,8882.471304
4030.410789,-306.438199,1554.432478,8956.491898
4030.411104,-842.705048,1332.370696,8956.491898
4030.411420,-766.095498,1332.370696,9252.574275
4030.411735,-1378.971896,1332.370696,8660.409521
4030.412050,-1762.019645,1332.370696,8734.430116
4030.412365,-2298.286494,1184.329507,9400.615463
4030.412680,-2834.553343,1184.329507,9844.739029
4030.412995,-3140.991542,1184.329507,9918.759623
4030.413311,-3217.601092,1036.288319,10436.903782
4030.413626,-2987.772442,1406.391290,10066.800811
4030.413941,-2834.553343,1628.453072,10066.800811
4030.414256,-2451.505594,2220.617826,9992.780217
4030.414571,-2374.896044,2664.741391,10214.842000
4030.414886,-1762.019645,2516.700203,9400.615463
4030.415201,-1685.410096,3034.844362,8882.471304
4030.415517,-2298.286494,3478.967927,8956.491898
4030.415832,-2374.896044,3404.947333,8882.471304
4030.416147,-2451.505594,3627.009116,9104.533087
4030.416462,-3294.210641,3182.885551,9178.553681
4030.416777,-3447.429741,2664.741391,9696.697840
4030.417092,-3753.867940,2220.617826,10214.842000
4030.417407,-4060.306139,2294.638420,9992.780217
4030.417723,-3983.696590,2294.638420,10584.944971
4030.418038,-3370.820191,2590.720797,10510.924376
4030.418353,-2987.772442,2960.823768,10140.821405
4030.418668,-2451.505594,3849.070898,9844.739029
4030.418983,-1608.800546,4145.153275,9326.594869
4030.419298,-1378.971896,4441.235652,8956.491898
4030.419614,-919.314598,4441.235652,9326.594869
4030.419929,-919.314598,4589.276840,9992.780217
4030.420244,-995.924147,4367.215058,10066.800811
4030.420559,-612.876398,3775.050304,9474.636058
4030.420874,-766.095498,3108.864956,9992.780217
4030.421189,-919.314598,2664.741391,10584.944971
4030.421504,-919.314598,2516.700203,10807.006753
4030.421820,-995.924147,2812.782580,10584.944971
4030.422135,-766.095498,2590.720797,10140.821405
4030.422450,-919.314598,2664.741391,9992.780217
4030.422765,-766.095498,2812.782580,9252.574275
4030.423080,-536.266849,3108.864956,9474.636058
4030.423395,-689.485948,3034.844362,9548.656652
4030.423711,-919.314598,2738.761985,9770.718434
4030.424026,-919.314598,2294.638420,10362.883188
4030.424341,-842.705048,2294.638420,10732.986159
4030.424656,-1149.143247,2368.659014,11029.068536
4030.424971,-919.314598,1776.494261,10955.047942
4030.425286,-459.657299,1776.494261,11029.068536
4030.425601,-766.095498,1332.370696,10732.986159
4030.425917,0.000000,1332.370696,10214.842000
4030.426232,459.657299,1332.370696,9844.739029
4030.426547,919.314598,1480.411884,9400.615463
4030.426862,1072.533697,1258.350101,9178.553681
4030.427177,919.314598,962.267725,9104.533087
4030.427492,842.705048,370.102971,9104.533087
4030.427807,995.924147,-0.000000,9326.594869
4030.428123,536.266849,-444.123565,9326.594869
4030.428438,459.657299,-592.164754,9326.594869
4030.428753,306.438199,-518.144159,9326.594869
4030.429068,306.438199,-444.123565,9104.533087
4030.429383,306.438199,-444.123565,8660.409521
4030.429698,306.438199,-0.000000,8512.368333
4030.430014,-383.047749,222.061783,7772.162391
4030.430329,-766.095498,370.102971,8364.327145
4030.430644,-1225.752797,-74.020594,9400.615463
4030.430959,-1685.410096,-814.226536,9474.636058
4030.431274,-2145.067394,-1332.370696,9992.780217
4030.431589,-2451.505594,-1406.391290,9844.739029
4030.431904,-2374.896044,-1184.329507,9918.759623
4030.432220,-1532.190996,-1332.370696,10584.944971
4030.432535,-1225.752797,-1258.350101,10510.924376
4030.432850,-1532.190996,-1110.308913,10510.924376
4030.433165,-919.314598,-814.226536,9992.780217
4030.433480,0.000000,-592.164754,9252.574275
4030.433795,689.485948,-518.144159,9474.636058
4030.434111,536.266849,-592.164754,8882.471304
4030.434426,842.705048,-740.205942,8364.327145
4030.434741,229.828649,-888.247130,8364.327145
4030.435056,76.609550,-1184.329507,8586.388927
4030.435371,0.000000,-1036.288319,8364.327145
4030.435686,-919.314598,-1332.370696,8364.327145
4030.436001,-1455.581446,-1702.473667,8956.491898
4030.436317,-1991.848295,-1554.432478,9400.615463
4030.436632,-2298.286494,-2146.597232,9992.780217
4030.436947,-2221.676944,-1924.535449,10288.862594
4030.437262,-2221.676944,-1628.453072,10288.862594
4030.437577,-1532.190996,-1184.329507,10510.924376
4030.437892,-766.095498,-592.164754,10362.883188
4030.438207,76.609550,-0.000000,10288.862594
4030.438523,536.266849,370.102971,9622.677246
4030.438838,1532.190996,740.205942,9400.615463
4030.439153,2298.286494,740.205942,9474.636058
4030.439468,2757.943793,1332.370696,8882.471304
4030.439783,2451.505594,888.247130,8586.388927
4030.440098,2145.067394,296.082377,7920.203579
4030.440414,1608.800546,-0.000000,8882.471304
4030.440729,1149.143247,-592.164754,8882.471304
4030.441044,536.266849,-296.082377,8364.327145
4030.441359,383.047749,-296.082377,9474.636058
4030.441674,-536.266849,-518.144159,9030.512492
4030.441989,-612.876398,-370.102971,8882.471304
4030.442304,-919.314598,-74.020594,9400.615463
4030.442620,-1072.533697,-148.041188,9400.615463
4030.442935,-383.047749,444.123565,9548.656652
4030.443250,229.828649,1036.288319,10066.800811
4030.443565,995.924147,1480.411884,10807.006753
4030.443880,1838.629195,2294.638420,10436.903782
4030.444195,2068.457845,2664.741391,10066.800811
4030.444510,2451.505594,2664.741391,10584.944971
4030.444826,2757.943793,2738.761985,10658.965565
4030.445141,2987.772442,2664.741391,10510.924376
4030.445456,2451.505594,1628.453072,9992.780217
4030.445771,2221.676944,1036.288319,9770.718434
4030.446086,1455.581446,740.205942,9992.780217
4030.446401,536.266849,518.144159,9622.677246
4030.446717,0.000000,296.082377,9696.697840
4030.447032,-612.876398,-0.000000,9622.677246
4030.447347,-1149.143247,-0.000000,9474.636058
4030.447662,-1532.190996,-0.000000,10288.862594
4030.447977,-1762.019645,-148.041188,10584.944971
4030.448292,-1915.238745,-74.020594,10732.986159
4030.448607,-1608.800546,592.164754,11103.089130
4030.448923,-995.924147,592.164754,11029.068536
4030.449238,0.000000,1258.350101,10881.027347
4030.449553,536.266849,1924.535449,10510.924376
4030.449868,919.314598,1850.514855,10288.862594
4030.450183,919.314598,1998.556043,10362.883188
4030.450498,1302.362347,2072.576638,10214.842000
4030.450814,919.314598,1554.432478,9326.594869
4030.451129,766.095498,370.102971,9252.574275
4030.451444,153.219100,-518.144159,9030.512492
4030.451759,-459.657299,-888.247130,9104.533087
4030.452074,-919.314598,-1332.370696,9770.718434
4030.452389,-1455.581446,-1776.494261,8808.450710
4030.452704,-1455.581446,-1702.473667,8882.471304
4030.453020,-1532.190996,-1776.494261,8956.491898
4030.453335,-1532.190996,-1258.350101,8216.285956
4030.453650,-1302.362347,-444.123565,8586.388927
4030.453965,-1378.971896,-222.061783,9474.636058
4030.454280,-1225.752797,-222.061783,9474.636058
4030.454595,-383.047749,-296.082377,9770.718434
4030.454910,383.047749,888.247130,9474.636058
4030.455226,689.485948,814.226536,9548.656652
4030.455541,689.485948,592.164754,10436.903782
4030.455856,995.924147,518.144159,10288.862594
4030.456171,1302.362347,-0.000000,10066.800811
4030.456486,995.924147,-0.000000,9622.677246
4030.456801,1072.533697,-222.061783,9104.533087
4030.457117,842.705048,-888.247130,9104.533087
4030.457432,536.266849,-1110.308913,8364.327145
4030.457747,0.000000,-1332.370696,8882.471304
4030.458062,-229.828649,-1332.370696,8586.388927
4030.458377,-612.876398,-1258.350101,8438.347739
4030.458692,-536.266849,-962.267725,8438.347739
4030.459007,-1072.533697,-1258.350101,8734.430116
4030.459323,-1072.533697,-1036.288319,9326.594869
4030.459638,-1149.143247,-1110.308913,9918.759623
4030.459953,-842.705048,-1110.308913,10288.862594
4030.460268,-306.438199,-370.102971,10658.965565
4030.460583,76.609550,-222.061783,10214.842000
4030.460898,689.485948,296.082377,10510.924376
4030.461214,1225.752797,518.144159,10510.924376
4030.461529,1225.752797,814.226536,10436.903782
4030.461844,1762.019645,962.267725,10066.800811
4030.462159,2451.505594,666.185348,9400.615463
4030.462474,2068.457845,666.185348,9400.615463
4030.462789,1608.800546,-148.041188,9696.697840
4030.463104,995.924147,-888.247130,9178.553681
4030.463420,383.047749,-962.267725,9252.574275
4030.463735,0.000000,-888.247130,9252.574275
4030.464050,0.000000,-814.226536,8882.471304
4030.464365,-306.438199,-592.164754,8882.471304
4030.464680,-536.266849,-0.000000,9104.533087
4030.464995,-536.266849,-0.000000,9474.636058
4030.465310,-995.924147,370.102971,9548.656652
4030.465626,-1072.533697,592.164754,9548.656652
4030.465941,-229.828649,740.205942,10214.842000
4030.466256,306.438199,1184.329507,10436.903782
4030.466571,536.266849,1702.473667,10362.883188
4030.466886,306.438199,1406.391290,10658.965565
4030.467201,919.314598,1776.494261,10658.965565
4030.467517,1072.533697,1924.535449,10140.821405
4030.467832,1302.362347,1924.535449,10140.821405
4030.468147,1608.800546,1406.391290,9474.636058
4030.468462,1072.533697,814.226536,9178.553681
4030.468777,689.485948,-0.000000,8956.491898
4030.469092,229.828649,-0.000000,8734.430116
4030.469407,-612.876398,-0.000000,8586.388927
4030.469723,-1302.362347,-74.020594,8512.368333
4030.470038,-1225.752797,-0.000000,8364.327145
4030.470353,-1532.190996,-370.102971,9400.615463
4030.470668,-1608.800546,-222.061783,9770.718434
4030.470983,-1991.848295,-74.020594,9622.677246
4030.471298,-1685.410096,222.061783,10584.944971
4030.471613,-1225.752797,740.205942,10362.883188
4030.471929,-306.438199,518.144159,10658.965565
4030.472244,229.828649,1628.453072,10658.965565
4030.472559,689.485948,1628.453072,10362.883188
4030.472874,1149.143247,2072.576638,9844.739029
4030.473189,1991.848295,2146.597232,9326.594869
4030.473504,842.705048,1480.411884,9622.677246
4030.473820,919.314598,888.247130,9400.615463
4030.474135,842.705048,592.164754,9030.512492
4030.474450,306.438199,-444.123565,8808.450710
4030.474765,-153.219100,-814.226536,9104.533087
4030.475080,-689.485948,-1036.288319,9770.718434
4030.475395,-919.314598,-1258.350101,8808.450710
4030.475710,-842.705048,-888.247130,8808.450710
4030.476026,-1149.143247,-370.102971,9104.533087
4030.476341,-1149.143247,-0.000000,9178.553681
4030.476656,-1149.143247,222.061783,10066.800811
4030.476971,-766.095498,666.185348,9992.780217
4030.477286,-153.219100,666.185348,10066.800811
4030.477601,536.266849,1036.288319,10066.800811
4030.477917,1302.362347,1184.329507,10140.821405
4030.478232,1072.533697,1258.350101,10436.903782
4030.478547,1532.190996,1332.370696,10807.006753
4030.478862,1915.238745,1258.350101,10288.862594
4030.479177,1991.848295,814.226536,9622.677246
4030.479492,1532.190996,444.123565,9326.594869
4030.479807,842.705048,-296.082377,8956.491898
4030.480123,383.047749,-592.164754,8660.409521
4030.480438,0.000000,-1332.370696,8808.450710
4030.480753,-306.438199,-1406.391290,8438.347739
4030.481068,-383.047749,-1702.473667,8734.430116
4030.481383,-842.705048,-1184.329507,9104.533087
4030.481698,-1378.971896,-1036.288319,8882.471304
4030.482013,-1225.752797,-888.247130,9474.636058
4030.482329,-1225.752797,-592.164754,10066.800811
4030.482644,-1072.533697,-444.123565,10288.862594
4030.482959,0.000000,-0.000000,10807.006753
4030.483274,383.047749,444.123565,10658.965565
4030.483589,919.314598,814.226536,10066.800811
4030.483904,1225.752797,962.267725,10066.800811
4030.484220,1225.752797,518.144159,10214.842000
4030.484535,1072.533697,444.123565,10288.862594
4030.484850,1378.971896,518.144159,9474.636058
4030.485165,1225.752797,-148.041188,9400.615463
4030.485480,229.828649,-1332.370696,9252.574275
4030.485795,76.609550,-1480.411884,9474.636058
4030.486110,0.000000,-1480.411884,9622.677246
4030.486426,-383.047749,-1554.432478,8586.388927
4030.486741,-995.924147,-1554.432478,8734.430116
4030.487056,-766.095498,-1036.288319,8586.388927
4030.487371,-1149.143247,-592.164754,9178.553681
4030.487686,-842.705048,-222.061783,9326.594869
4030.488001,-1302.362347,-0.000000,9474.636058
4030.488317,-1149.143247,222.061783,9918.759623
4030.488632,-229.828649,-0.000000,9992.780217
4030.488947,153.219100,888.247130,9992.780217
4030.489262,383.047749,1332.370696,10807.006753
4030.489577,383.047749,814.226536,10584.944971
4030.489892,919.314598,962.267725,10510.924376
4030.490207,1302.362347,1036.288319,10436.903782
4030.490523,1225.752797,1036.288319,9622.677246
4030.490838,1225.752797,888.247130,8956.491898
4030.491153,842.705048,370.102971,8956.491898
4030.491468,229.828649,-222.061783,8882.471304
4030.491783,76.609550,-592.164754,8734.430116
4030.492098,-383.047749,-370.102971,8734.430116
4030.492413,-229.828649,-592.164754,8142.265362
4030.492729,-766.095498,-296.082377,8290.306550
4030.493044,-1225.752797,-0.000000,9104.533087
4030.493359,-1225.752797,-74.020594,9474.636058
4030.493674,-1378.971896,296.082377,10140.821405
4030.493989,-995.924147,592.164754,10288.862594
4030.494304,-153.219100,962.267725,10362.883188
4030.494620,689.485948,1554.432478,10214.842000
4030.494935,766.095498,1776.494261,10732.986159
4030.495250,842.705048,1480.411884,10955.047942
4030.495565,1225.752797,1480.411884,10584.944971
4030.495880,2221.676944,1628.453072,9918.759623
4030.496195,2145.067394,1702.473667,9696.697840
4030.496510,1991.848295,1258.350101,9770.718434
4030.496826,1378.971896,444.123565,9400.615463
4030.497141,919.314598,-370.102971,9178.553681
4030.497456,0.000000,-740.205942,9474.636058
4030.497771,0.000000,-814.226536,9104.533087
4030.498086,-459.657299,-740.205942,9326.594869
4030.498401,-383.047749,-592.164754,9252.574275
4030.498716,-1072.533697,-370.102971,9474.636058
4030.499031,-1838.629195,-0.000000,9326.594869
4030.499346,-766.095498,370.102971,9844.739029
4030.499661,-766.095498,888.247130,10214.842000
4030.499976,-229.828649,814.226536,10807.006753
4030.500291,459.657299,1036.288319,10658.965565
4030.500607,919.314598,888.247130,10436.903782
4030.500922,1225.752797,1110.308913,10807.006753
4030.501237,1149.143247,1184.329507,10288.862594
4030.501552,1838.629195,1184.329507,10066.800811
4030.501867,2298.286494,962.267725,9548.656652
4030.502182,2221.676944,296.082377,9104.533087
4030.502497,1072.533697,-0.000000,8586.388927
4030.502812,766.095498,-666.185348,8660.409521
4030.503127,0.000000,-814.226536,8142.265362
4030.503442,-919.314598,-1184.329507,7994.224174
4030.503757,-1225.752797,-1480.411884,7920.203579
4030.504072,-1072.533697,-1332.370696,8734.430116
4030.504388,-1915.238745,-1184.329507,9474.636058
4030.504703,-1608.800546,-888.247130,9696.697840
4030.505018,-1378.971896,-370.102971,9474.636058
4030.505333,-842.705048,-148.041188,10288.862594
4030.505648,-229.828649,296.082377,10066.800811
4030.505963,0.000000,592.164754,9918.759623
4030.506278,612.876398,1184.329507,10214.842000
4030.506593,689.485948,1184.329507,10288.862594
4030.506908,1072.533697,1110.308913,10140.821405
4030.507223,1608.800546,962.267725,9548.656652
4030.507538,1532.190996,888.247130,9474.636058
4030.507853,1225.752797,222.061783,9326.594869
4030.508169,612.876398,-518.144159,8882.471304
4030.508484,153.219100,-1036.288319,8882.471304
4030.508799,-306.438199,-1628.453072,9400.615463
4030.509114,-766.095498,-1702.473667,9252.574275
4030.509429,-1302.362347,-1776.494261,8734.430116
4030.509744,-995.924147,-1332.370696,8734.430116
4030.510059,-1455.581446,-888.247130,9104.533087
4030.510374,-1532.190996,-592.164754,9252.574275
4030.510689,-1455.581446,-74.020594,9918.759623
4030.511004,-995.924147,370.102971,10288.862594
4030.511319,-229.828649,-0.000000,10584.944971
4030.511634,383.047749,1110.308913,10510.924376
4030.511949,306.438199,962.267725,10881.027347
4030.512265,383.047749,962.267725,10584.944971
4030.512580,766.095498,888.247130,10658.965565
4030.512895,1608.800546,1110.308913,10214.842000
4030.513210,1455.581446,740.205942,9918.759623
4030.513525,1455.581446,444.123565,9622.677246
4030.513840,919.314598,222.061783,9030.512492
4030.514155,0.000000,-222.061783,8586.388927
4030.514470,-383.047749,-962.267725,8586.388927
4030.514785,-536.266849,-666.185348,8882.471304
4030.515100,-766.095498,-1036.288319,8956.491898
4030.515415,-689.485948,-740.205942,8586.388927
4030.515730,-766.095498,-518.144159,8808.450710
4030.516046,-1225.752797,-148.041188,9548.656652
4030.516361,-995.924147,296.082377,9548.656652
4030.516676,-766.095498,666.185348,10066.800811
4030.516991,0.000000,888.247130,10214.842000
4030.517306,536.266849,1628.453072,10214.842000
4030.517621,919.314598,2072.576638,10362.883188
4030.517936,1378.971896,1850.514855,10732.986159
4030.518251,1455.581446,1998.556043,10510.924376
4030.518566,1685.410096,1850.514855,9992.780217
4030.518881,1455.581446,1924.535449,9548.656652
4030.519196,1455.581446,1258.350101,9474.636058
4030.519511,1302.362347,148.041188,9104.533087
4030.519827,536.266849,-444.123565,9104.533087
4030.520142,0.000000,-740.205942,8808.450710
4030.520457,-612.876398,-962.267725,8956.491898
4030.520772,-612.876398,-666.185348,8882.471304
4030.521087,-1225.752797,-518.144159,8734.430116
4030.521402,-1302.362347,-0.000000,9474.636058
4030.521717,-1225.752797,-0.000000,9474.636058
4030.522032,-1225.752797,222.061783,9696.697840
4030.522347,-919.314598,740.205942,10510.924376
4030.522662,-383.047749,814.226536,10732.986159
4030.522977,306.438199,962.267725,10584.944971
4030.523292,536.266849,1184.329507,10955.047942
4030.523607,536.266849,1110.308913,10807.006753
4030.523923,1685.410096,962.267725,10584.944971
4030.524238,1685.410096,1480.411884,10362.883188
4030.524553,1762.019645,1554.432478,9622.677246
4030.524868,1149.143247,740.205942,8956.491898
4030.525183,1149.143247,296.082377,8512.368333
4030.525498,459.657299,-518.144159,8142.265362
4030.525813,0.000000,-1036.288319,8734.430116
4030.526128,-536.266849,-1036.288319,8660.409521
4030.526443,-842.705048,-1258.350101,8068.244768
4030.526758,-919.314598,-1332.370696,9104.533087
4030.527073,-1532.190996,-1554.432478,9474.636058
4030.527388,-1915.238745,-814.226536,9696.697840
4030.527704,-1762.019645,-296.082377,9992.780217
4030.528019,-1149.143247,-0.000000,10066.800811
4030.528334,0.000000,518.144159,10584.944971
4030.528649,689.485948,1332.370696,10140.821405
4030.528964,1149.143247,1406.391290,10140.821405
4030.529279,1302.362347,1702.473667,10066.800811
4030.529594,1838.629195,1554.432478,9770.718434
4030.529909,1378.971896,1628.453072,9622.677246
4030.530224,1532.190996,814.226536,9474.636058
4030.530539,1072.533697,296.082377,9400.615463
4030.530854,612.876398,-518.144159,9104.533087
4030.531169,-229.828649,-1258.350101,9030.512492
4030.531485,0.000000,-1406.391290,8438.347739
4030.531800,-842.705048,-1406.391290,9104.533087
4030.532115,-1072.533697,-1480.411884,8734.430116
4030.532430,-1225.752797,-1110.308913,8734.430116
4030.532745,-1072.533697,-1036.288319,9104.533087
4030.533060,-1532.190996,-814.226536,9326.594869
4030.533375,-1149.143247,-0.000000,9622.677246
4030.533690,-536.266849,296.082377,10066.800811
4030.534005,0.000000,370.102971,10510.924376
4030.534320,842.705048,740.205942,10807.006753
4030.534635,1072.533697,740.205942,10584.944971
4030.534950,1302.362347,740.205942,11103.089130
4030.535265,1685.410096,962.267725,10510.924376
4030.535581,1532.190996,814.226536,10066.800811
4030.535896,1532.190996,962.267725,9400.615463
4030.536211,1455.581446,-0.000000,9326.594869
4030.536526,1072.533697,-0.000000,8660.409521
4030.536841,229.828649,-888.247130,8512.368333
4030.537156,-153.219100,-1110.308913,8734.430116
4030.537471,-536.266849,-1258.350101,8512.368333
4030.537786,-689.485948,-1332.370696,8956.491898
4030.538101,-995.924147,-1258.350101,8882.471304
4030.538416,-1302.362347,-1036.288319,9326.594869
4030.538731,-1225.752797,-444.123565,9474.636058
4030.539046,-689.485948,-0.000000,10066.800811
4030.539362,-383.047749,518.144159,10436.903782
4030.539677,76.609550,888.247130,10732.986159
4030.539992,612.876398,1184.329507,10510.924376
4030.540307,842.705048,1850.514855,9992.780217
4030.540622,919.314598,2146.597232,10066.800811
4030.540937,1378.971896,1702.473667,10140.821405
4030.541252,1532.190996,1480.411884,9992.780217
4030.541567,1302.362347,888.247130,9548.656652
4030.541882,689.485948,222.061783,9326.594869
4030.542197,842.705048,-74.020594,9400.615463
4030.542512,0.000000,-740.205942,9252.574275
4030.542827,-306.438199,-444.123565,8882.471304
4030.543143,-919.314598,-814.226536,8586.388927
4030.543458,-1149.143247,-518.144159,8734.430116
4030.543773,-1378.971896,-296.082377,8882.471304
4030.544088,-1608.800546,-0.000000,9178.553681
4030.544403,-1685.410096,518.144159,9696.697840
4030.544718,-1685.410096,888.247130,10140.821405
4030.545033,-995.924147,888.247130,10807.006753
4030.545348,0.000000,1110.308913,10214.842000
4030.545663,153.219100,1332.370696,10881.027347
4030.545978,536.266849,1480.411884,11177.109724
4030.546293,919.314598,1554.432478,11103.089130
4030.546608,1302.362347,1850.514855,10362.883188
4030.546923,995.924147,1332.370696,9770.718434
4030.547239,1685.410096,1258.350101,9622.677246
4030.547554,1532.190996,814.226536,9030.512492
4030.547869,1072.533697,296.082377,8586.388927
4030.548184,76.609550,-518.144159,8586.388927
4030.548499,-689.485948,-1036.288319,9104.533087
4030.548814,-459.657299,-962.267725,8956.491898
4030.549129,-842.705048,-1332.370696,8882.471304
4030.549444,-919.314598,-1036.288319,9104.533087
4030.549759,-919.314598,-888.247130,9474.636058
4030.550074,-1072.533697,-222.061783,9696.697840
4030.550389,-842.705048,370.102971,10214.842000
4030.550704,-153.219100,518.144159,10436.903782
4030.551020,306.438199,1332.370696,10362.883188
4030.551335,1072.533697,1258.350101,10510.924376
4030.551650,842.705048,1110.308913,10140.821405
4030.551965,1378.971896,1480.411884,10658.965565
4030.552280,1532.190996,1332.370696,10362.883188
4030.552595,2221.676944,814.226536,9622.677246
4030.552910,1608.800546,666.185348,9474.636058
4030.553225,1302.362347,-74.020594,9178.553681
4030.553540,995.924147,-518.144159,9030.512492
4030.553855,229.828649,-1332.370696,8734.430116
4030.554170,-153.219100,-1628.453072,8660.409521
4030.554485,-689.485948,-1406.391290,8512.368333
4030.554801,-995.924147,-814.226536,8512.368333
4030.555116,-995.924147,-888.247130,8956.491898
4030.555431,-1225.752797,-666.185348,8956.491898
4030.555746,-1378.971896,-296.082377,9770.718434
4030.556061,-1225.752797,-518.144159,9844.739029
4030.556376,-842.705048,-148.041188,10288.862594
4030.556691,76.609550,666.185348,10658.965565
4030.557006,383.047749,814.226536,10362.883188
4030.557321,766.095498,962.267725,10214.842000
4030.557636,1149.143247,888.247130,10362.883188
4030.557951,1378.971896,740.205942,9844.739029
4030.558266,1991.848295,666.185348,9474.636058
4030.558581,2068.457845,370.102971,9030.512492
4030.558897,1149.143247,-0.000000,8660.409521
4030.559212,383.047749,-1036.288319,8586.388927
4030.559527,0.000000,-1554.432478,8586.388927
4030.559842,-766.095498,-1702.473667,8660.409521
4030.560157,-842.705048,-1628.453072,8512.368333
4030.560472,-1149.143247,-1332.370696,8882.471304
4030.560787,-1225.752797,-1258.350101,8956.491898
4030.561102,-1608.800546,-592.164754,9400.615463
4030.561417,-1685.410096,-370.102971,9770.718434
4030.561732,-1455.581446,-0.000000,9918.759623
4030.562047,0.000000,444.123565,10436.903782
4030.562362,-229.828649,1036.288319,10140.821405
4030.562678,229.828649,1184.329507,10584.944971
4030.562993,306.438199,1554.432478,10732.986159
4030.563308,306.438199,1110.308913,10658.965565
4030.563623,1225.752797,1332.370696,10658.965565
4030.563938,1455.581446,1184.329507,10066.800811
4030.564253,1302.362347,888.247130,9770.718434
4030.564568,919.314598,148.041188,9178.553681
4030.564883,842.705048,-148.041188,9178.553681
4030.565198,612.876398,-592.164754,8882.471304
4030.565513,-306.438199,-518.144159,8512.368333
4030.565828,-612.876398,-666.185348,8808.450710
4030.566143,-766.095498,-518.144159,8290.306550
4030.566458,-1149.143247,-666.185348,8586.388927
4030.566774,-1072.533697,-222.061783,8586.388927
4030.567089,-1378.971896,222.061783,9474.636058
4030.567404,-1072.533697,740.205942,9844.739029
4030.567719,-689.485948,740.205942,10140.821405
4030.568034,229.828649,888.247130,10881.027347
4030.568349,536.266849,1480.411884,10362.883188
4030.568664,842.705048,1554.432478,10584.944971
4030.568979,919.314598,1332.370696,10584.944971
4030.569294,1149.143247,1628.453072,10140.821405
4030.569609,1838.629195,1628.453072,9918.759623
4030.569924,1532.190996,1110.308913,9696.697840
4030.570239,1072.533697,444.123565,9474.636058
4030.570555,919.314598,-0.000000,8882.471304
4030.570870,153.219100,-518.144159,8586.388927
4030.571185,0.000000,-1036.288319,9030.512492
4030.571500,-536.266849,-370.102971,8882.471304
4030.571815,-612.876398,-666.185348,9104.533087
4030.572130,-1072.533697,-888.247130,9178.553681
4030.572445,-1149.143247,-222.061783,9622.677246
4030.572760,-1225.752797,370.102971,9992.780217
4030.573075,-995.924147,814.226536,9918.759623
4030.573390,-536.266849,1036.288319,10584.944971
4030.573705,153.219100,1406.391290,10807.006753
4030.574020,153.219100,1554.432478,10140.821405
4030.574336,1072.533697,2220.617826,10881.027347
4030.574651,1455.581446,1924.535449,10658.965565
4030.574966,1838.629195,1776.494261,10584.944971
4030.575281,1685.410096,1332.370696,9622.677246
4030.575596,1532.190996,814.226536,9548.656652
4030.575911,1149.143247,296.082377,9400.615463
4030.576226,689.485948,-74.020594,9104.533087
4030.576541,0.000000,-740.205942,8808.450710
4030.576856,-689.485948,-888.247130,8734.430116
4030.577171,-612.876398,-1110.308913,8512.368333
4030.577486,-919.314598,-1258.350101,8512.368333
4030.577801,-1225.752797,-962.267725,8956.491898
4030.578116,-1378.971896,-518.144159,9326.594869
4030.578432,-1608.800546,-148.041188,9696.697840
4030.578747,-919.314598,-0.000000,10436.903782
4030.579062,-612.876398,444.123565,10510.924376
4030.579377,76.609550,814.226536,10584.944971
4030.579692,766.095498,962.267725,10214.842000
4030.580007,995.924147,1110.308913,10214.842000
4030.580322,1378.971896,962.267725,10362.883188
4030.580637,1455.581446,666.185348,10066.800811
4030.580952,1608.800546,370.102971,10436.903782
4030.581267,1532.190996,296.082377,9474.636058
4030.581582,1149.143247,-370.102971,8660.409521
4030.581897,536.266849,-962.267725,8364.327145
4030.582213,229.828649,-1628.453072,9178.553681
4030.582528,-383.047749,-1628.453072,8734.430116
4030.582843,-459.657299,-1998.556043,8512.368333
4030.583158,-689.485948,-1628.453072,8660.409521
4030.583473,-842.705048,-1554.432478,9030.512492
4030.583788,-842.705048,-814.226536,9178.553681
4030.584103,-306.438199,-444.123565,9474.636058
4030.584418,-612.876398,-222.061783,9770.718434
4030.584733,0.000000,518.144159,9918.759623
4030.585048,459.657299,888.247130,10436.903782
4030.585363,919.314598,962.267725,10510.924376
4030.585678,842.705048,888.247130,10510.924376
4030.585994,1302.362347,962.267725,10362.883188
4030.586309,1455.581446,814.226536,10362.883188
4030.586624,995.924147,370.102971,9918.759623
4030.586939,919.314598,-0.000000,9844.739029
4030.587254,1072.533697,-444.123565,9326.594869
4030.587569,383.047749,-1184.329507,9030.512492
4030.587884,153.219100,-1406.391290,8956.491898
4030.588199,-153.219100,-1332.370696,8290.306550
4030.588514,-459.657299,-1332.370696,8438.347739
4030.588829,-689.485948,-740.205942,8290.306550
4030.589144,-1302.362347,-1036.288319,8734.430116
4030.589459,-1149.143247,-222.061783,9474.636058
4030.589774,-1225.752797,-0.000000,9474.636058
4030.590090,-1149.143247,296.082377,9548.656652
4030.590405,-153.219100,518.144159,10510.924376
4030.590720,153.219100,814.226536,10584.944971
4030.591035,459.657299,888.247130,10214.842000
4030.591350,766.095498,888.247130,10658.965565
4030.591665,1072.533697,814.226536,10732.986159
4030.591980,1608.800546,1332.370696,9992.780217
4030.592295,1532.190996,962.267725,9474.636058
4030.592610,1225.752797,962.267725,9030.512492
4030.592925,1302.362347,444.123565,9252.574275
4030.593240,995.924147,-0.000000,8734.430116
4030.593555,76.609550,-666.185348,8438.347739
4030.593871,0.000000,-814.226536,8586.388927
4030.594186,-995.924147,-740.205942,8660.409521
4030.594501,-1149.143247,-888.247130,8660.409521
4030.594816,-1378.971896,-666.185348,9400.615463
4030.595131,-1378.971896,-74.020594,9844.739029
4030.595446,-1378.971896,222.061783,9770.718434
4030.595761,-1149.143247,888.247130,10510.924376
4030.596076,-459.657299,1036.288319,10955.047942
4030.596391,0.000000,1332.370696,10732.986159
4030.596706,383.047749,1998.556043,10510.924376
4030.597021,612.876398,1702.473667,10436.903782
4030.597336,919.314598,1702.473667,10510.924376
4030.597652,1302.362347,2072.576638,10140.821405
4030.597967,1838.629195,1406.391290,9548.656652
4030.598282,1149.143247,1332.370696,9400.615463
4030.598597,1149.143247,444.123565,8956.491898
4030.598912,459.657299,-222.061783,8512.368333
4030.599227,0.000000,-592.164754,8808.450710
4030.599542,-766.095498,-740.205942,8734.430116
4030.599857,-153.219100,-1036.288319,8808.450710
4030.600172,-1149.143247,-814.226536,8734.430116
4030.600487,-1302.362347,-370.102971,9178.553681
4030.600802,-1378.971896,-74.020594,9326.594869
4030.601117,-1302.362347,296.082377,9696.697840
4030.601433,-1225.752797,888.247130,10140.821405
4030.601748,-383.047749,1332.370696,10510.924376
4030.602063,383.047749,1480.411884,10362.883188
4030.602378,536.266849,1258.350101,10881.027347
4030.602693,995.924147,1554.432478,11103.089130
4030.603008,2145.067394,1258.350101,10436.903782
4030.603323,1762.019645,1702.473667,9770.718434
4030.603638,2068.457845,1480.411884,9696.697840
4030.603954,1532.190996,888.247130,9252.574275
4030.604269,919.314598,-222.061783,8734.430116
4030.604584,229.828649,-888.247130,8660.409521
4030.604899,-229.828649,-1258.350101,8956.491898
4030.605214,-766.095498,-1480.411884,8956.491898
4030.605529,-689.485948,-1776.494261,8882.471304
4030.605844,-842.705048,-1332.370696,9030.512492
4030.606159,-995.924147,-592.164754,9548.656652
4030.606474,-1072.533697,-370.102971,9400.615463
4030.606790,-995.924147,222.061783,9622.677246
4030.607105,-612.876398,666.185348,10214.842000
4030.607420,-459.657299,814.226536,10214.842000
4030.607735,612.876398,888.247130,10214.842000
4030.608050,612.876398,1258.350101,10436.903782
4030.608365,842.705048,962.267725,10807.006753
4030.608680,1072.533697,888.247130,10658.965565
4030.608995,1685.410096,296.082377,10140.821405
4030.609311,1302.362347,-74.020594,9696.697840
4030.609626,1225.752797,-296.082377,9548.656652
4030.609941,1072.533697,-666.185348,9326.594869
4030.610256,153.219100,-1332.370696,8512.368333
4030.610571,0.000000,-1702.473667,8438.347739
4030.610886,-306.438199,-1554.432478,8364.327145
4030.611201,-536.266849,-1628.453072,8438.347739
4030.611516,-842.705048,-888.247130,8660.409521
4030.611831,-1072.533697,-1110.308913,9104.533087
4030.612147,-919.314598,-222.061783,9400.615463
4030.612462,-1072.533697,-222.061783,9696.697840
4030.612777,-612.876398,-74.020594,9918.759623
4030.613092,-383.047749,-0.000000,10955.047942
4030.613407,383.047749,518.144159,10807.006753
4030.613722,689.485948,-0.000000,10362.883188
4030.614037,919.314598,592.164754,10362.883188
4030.614352,1149.143247,962.267725,10658.965565
4030.614668,1455.581446,740.205942,9844.739029
4030.614983,1378.971896,666.185348,9326.594869
4030.615298,1225.752797,148.041188,9030.512492
4030.615613,919.314598,-0.000000,8956.491898
4030.615928,766.095498,-518.144159,8882.471304
4030.616243,0.000000,-1110.308913,8586.388927
4030.616558,-306.438199,-1332.370696,8438.347739
4030.616873,-1072.533697,-1110.308913,8512.368333
4030.617188,-919.314598,-888.247130,8512.368333
4030.617504,-995.924147,-370.102971,9178.553681
4030.617819,-1532.190996,222.061783,9622.677246
4030.618134,-1378.971896,222.061783,9548.656652
4030.618449,-1378.971896,-222.061783,10140.821405
4030.618764,-612.876398,666.185348,10955.047942
4030.619079,383.047749,1332.370696,10658.965565
4030.619394,0.000000,1184.329507,10807.006753
4030.619709,536.266849,1554.432478,10658.965565
4030.620024,919.314598,1480.411884,10288.862594
4030.620340,1378.971896,1480.411884,9918.759623
4030.620655,1378.971896,1406.391290,10214.842000
4030.620970,1532.190996,1184.329507,9548.656652
4030.621285,1225.752797,740.205942,8734.430116
4030.621600,459.657299,-0.000000,8512.368333
4030.621915,153.219100,-592.164754,8512.368333
4030.622230,-689.485948,-444.123565,8586.388927
4030.622545,-766.095498,-518.144159,8808.450710
4030.622861,-1225.752797,-518.144159,8956.491898
4030.623176,-1532.190996,-0.000000,9474.636058
4030.623491,-1608.800546,-0.000000,9770.718434
4030.623806,-1608.800546,-0.000000,10658.965565
4030.624121,-1225.752797,1036.288319,10732.986159
4030.624436,-306.438199,1036.288319,10732.986159
4030.624751,459.657299,1628.453072,10658.965565
4030.625066,612.876398,1850.514855,11103.089130
4030.625381,1072.533697,2220.617826,10584.944971
4030.625697,1532.190996,2220.617826,10066.800811
4030.626012,2145.067394,2294.638420,9696.697840
4030.626327,1608.800546,1776.494261,9400.615463
4030.626642,1608.800546,814.226536,9178.553681
4030.626957,919.314598,-0.000000,9030.512492
4030.627272,76.609550,-666.185348,8956.491898
4030.627587,-306.438199,-962.267725,8956.491898
4030.627902,-842.705048,-1258.350101,8734.430116
4030.628218,-919.314598,-1036.288319,9178.553681
4030.628533,-1225.752797,-888.247130,9326.594869
4030.628848,-1378.971896,-592.164754,9252.574275
4030.629163,-1378.971896,-0.000000,9548.656652
4030.629478,-1378.971896,592.164754,9770.718434
4030.629793,-536.266849,962.267725,10066.800811
4030.630108,0.000000,1184.329507,10436.903782
4030.630423,766.095498,1554.432478,10510.924376
4030.630738,1225.752797,1258.350101,10436.903782
4030.631054,1302.362347,1184.329507,10510.924376
4030.631369,2068.457845,1036.288319,10510.924376
4030.631684,1991.848295,1258.350101,9548.656652
4030.631999,1608.800546,592.164754,8882.471304
4030.632314,1378.971896,-0.000000,8808.450710
4030.632629,1302.362347,-1258.350101,8734.430116
4030.632944,76.609550,-1184.329507,8660.409521
4030.633259,-459.657299,-1406.391290,8586.388927
4030.633575,-689.485948,-1702.473667,8438.347739
4030.633890,-536.266849,-1332.370696,8734.430116
4030.634205,-919.314598,-1036.288319,9252.574275
4030.634520,-1149.143247,-1110.308913,9548.656652
4030.634835,-1378.971896,-740.205942,9548.656652
4030.635150,-1149.143247,-148.041188,9770.718434
4030.635465,-459.657299,296.082377,10140.821405
4030.635780,383.047749,370.102971,11103.089130
4030.636095,842.705048,1184.329507,10584.944971
4030.636411,536.266849,1036.288319,10140.821405
4030.636726,995.924147,1184.329507,10362.883188
4030.637041,842.705048,1110.308913,10807.006753
4030.637356,1915.238745,740.205942,10362.883188
4030.637671,1378.971896,370.102971,9844.739029
4030.637986,1149.143247,-222.061783,9474.636058
4030.638301,766.095498,-814.226536,9178.553681
4030.638616,306.438199,-1110.308913,8808.450710
4030.638932,0.000000,-1628.453072,8660.409521
4030.639247,-612.876398,-1480.411884,8808.450710
4030.639562,-919.314598,-1258.350101,8438.347739
4030.639877,-1072.533697,-1036.288319,8586.388927
4030.640192,-995.924147,-1036.288319,9030.512492
4030.640507,-1302.362347,-370.102971,9178.553681
4030.640822,-1532.190996,-222.061783,9474.636058
4030.641137,-1225.752797,-0.000000,10214.842000
4030.641452,-229.828649,296.082377,10732.986159
4030.641768,0.000000,444.123565,10510.924376
4030.642083,612.876398,814.226536,10881.027347
4030.642398,842.705048,888.247130,11029.068536
4030.642713,1149.143247,962.267725,10214.842000
4030.643028,1455.581446,1332.370696,9696.697840
4030.643343,1915.238745,962.267725,9400.615463
4030.643658,1302.362347,296.082377,8808.450710
4030.643973,1149.143247,74.020594,8734.430116
4030.644289,612.876398,-370.102971,8364.327145
4030.644604,76.609550,-666.185348,8290.306550
4030.644919,-229.828649,-962.267725,8068.244768
4030.645234,-536.266849,-1332.370696,8438.347739
4030.645549,-1072.533697,-1036.288319,8808.450710
4030.645864,-1378.971896,-518.144159,9178.553681
4030.646179,-1455.581446,-74.020594,9548.656652
4030.646494,-612.876398,-148.041188,10140.821405
4030.646809,-612.876398,592.164754,10436.903782
4030.647125,0.000000,1258.350101,10214.842000
4030.647440,536.266849,1850.514855,10214.842000
4030.647755,919.314598,2146.597232,10658.965565
4030.648070,1302.362347,1998.556043,10436.903782
4030.648385,1685.410096,2220.617826,10584.944971
4030.648700,2145.067394,1924.535449,9918.759623
4030.649015,1685.410096,1480.411884,9548.656652
4030.649330,1685.410096,740.205942,9326.594869
4030.649646,995.924147,-0.000000,9474.636058
4030.649961,612.876398,-592.164754,9400.615463
4030.650276,0.000000,-888.247130,9104.533087
4030.650591,-612.876398,-888.247130,8586.388927
4030.650906,-612.876398,-888.247130,8734.430116
4030.651221,-1225.752797,-518.144159,9252.574275
4030.651536,-1149.143247,-370.102971,9400.615463
4030.651851,-1685.410096,-0.000000,9844.739029
4030.652166,-1302.362347,370.102971,9992.780217
4030.652482,-842.705048,444.123565,10288.862594
4030.652797,0.000000,962.267725,10881.027347
4030.653112,306.438199,1480.411884,11251.130318
4030.653427,919.314598,1554.432478,10807.006753
4030.653742,919.314598,1628.453072,10807.006753
4030.654057,1608.800546,1702.473667,10807.006753
4030.654372,1762.019645,1258.350101,9918.759623
4030.654687,1838.629195,1406.391290,9474.636058
4030.655003,1149.143247,222.061783,9104.533087
4030.655318,689.485948,-222.061783,8734.430116
4030.655633,536.266849,-962.267725,8586.388927
4030.655948,-689.485948,-1184.329507,8734.430116
4030.656263,-995.924147,-1406.391290,8808.450710
4030.656578,-1302.362347,-1554.432478,8734.430116
4030.656893,-1072.533697,-1110.308913,9178.553681
4030.657208,-1302.362347,-962.267725,9326.594869
4030.657523,-1532.190996,-370.102971,9992.780217
4030.657839,-1225.752797,-148.041188,9992.780217
4030.658154,-689.485948,444.123565,10362.883188
4030.658469,0.000000,1184.329507,10140.821405
4030.658784,766.095498,1406.391290,10140.821405
4030.659099,995.924147,1184.329507,10658.965565
4030.659414,1532.190996,1554.432478,10436.903782
4030.659729,1608.800546,1258.350101,10140.821405
4030.660044,1608.800546,1258.350101,9548.656652
4030.660360,1378.971896,666.185348,9548.656652
4030.660675,1302.362347,-148.041188,9770.718434
4030.660990,766.095498,-888.247130,9178.553681
4030.661305,229.828649,-1628.453072,8660.409521
4030.661620,-459.657299,-1850.514855,8956.491898
4030.661935,-689.485948,-1554.432478,8290.306550
4030.662250,-766.095498,-1924.535449,8586.388927
4030.662565,-1072.533697,-1628.453072,8808.450710
4030.662880,-1455.581446,-1258.350101,9178.553681
4030.663196,-995.924147,-592.164754,9178.553681
4030.663511,-689.485948,-74.020594,9474.636058
4030.663826,-383.047749,74.020594,10288.862594
4030.664141,0.000000,592.164754,10214.842000
4030.664456,689.485948,1184.329507,10658.965565
4030.664771,766.095498,1036.288319,10584.944971
4030.665086,1072.533697,888.247130,10436.903782
4030.665401,1532.190996,888.247130,10362.883188
4030.665717,1838.629195,962.267725,10140.821405
4030.666032,1608.800546,1332.370696,10140.821405
4030.666347,1225.752797,-0.000000,8882.471304
4030.666662,1149.143247,-296.082377,8808.450710
4030.666977,383.047749,-1258.350101,8882.471304
4030.667292,0.000000,-1110.308913,8660.409521
4030.667607,-459.657299,-1480.411884,8586.388927
4030.667922,-536.266849,-1184.329507,8882.471304
4030.668237,-995.924147,-740.205942,9030.512492
4030.668553,-1149.143247,-666.185348,9326.594869
4030.668868,-995.924147,-74.020594,9622.677246
4030.669183,-766.095498,-0.000000,9992.780217
4030.669498,-689.485948,888.247130,10436.903782
4030.669813,153.219100,1110.308913,10881.027347
4030.670128,306.438199,1628.453072,10436.903782
4030.670443,842.705048,1702.473667,10658.965565
4030.670758,1225.752797,1332.370696,10658.965565
4030.671074,1149.143247,1776.494261,10436.903782
4030.671389,1455.581446,1554.432478,10732.986159
4030.671704,1225.752797,962.267725,9622.677246
4030.672019,1072.533697,-0.000000,9104.533087
4030.672334,689.485948,-370.102971,9104.533087
4030.672649,0.000000,-740.205942,8734.430116
4030.672964,-536.266849,-1036.288319,8882.471304
4030.673279,-995.924147,-1036.288319,8586.388927
4030.673594,-842.705048,-814.226536,8364.327145
4030.673910,-1302.362347,-666.185348,8660.409521
4030.674225,-1378.971896,-148.041188,9030.512492
4030.674540,-1608.800546,222.061783,9918.759623
4030.674855,-1455.581446,444.123565,9992.780217
4030.675170,-689.485948,962.267725,10732.986159
4030.675485,-229.828649,1036.288319,10955.047942
4030.675800,229.828649,1628.453072,10955.047942
4030.676115,766.095498,1776.494261,10732.986159
4030.676431,995.924147,1554.432478,10658.965565
4030.676746,1762.019645,1554.432478,10584.944971
4030.677061,1915.238745,1258.350101,9770.718434
4030.677376,1378.971896,814.226536,9030.512492
4030.677691,995.924147,370.102971,8660.409521
4030.678006,612.876398,-148.041188,8364.327145
4030.678321,0.000000,-518.144159,8512.368333
4030.678636,-383.047749,-1036.288319,9030.512492
4030.678951,-612.876398,-1184.329507,8882.471304
4030.679267,-766.095498,-1258.350101,8586.388927
4030.679582,-1072.533697,-740.205942,9104.533087
4030.679897,-1225.752797,-666.185348,10066.800811
4030.680212,-1149.143247,370.102971,9918.759623
4030.680527,-842.705048,962.267725,9918.759623
4030.680842,-612.876398,1036.288319,10140.821405
4030.681157,306.438199,1332.370696,10436.903782
4030.681472,383.047749,1406.391290,10362.883188
4030.681788,536.266849,1776.494261,10510.924376
4030.682103,995.924147,1332.370696,10881.027347
4030.682418,919.314598,1184.329507,10510.924376
4030.682733,1302.362347,888.247130,9770.718434
4030.683048,1455.581446,444.123565,10140.821405
4030.683363,766.095498,-0.000000,9326.594869
4030.683678,383.047749,-518.144159,9252.574275
4030.683993,0.000000,-1110.308913,8734.430116
4030.684308,0.000000,-1406.391290,8364.327145
4030.684624,-612.876398,-1258.350101,8438.347739
4030.684939,-995.924147,-1184.329507,8290.306550
4030.685254,-919.314598,-740.205942,9104.533087
4030.685569,-1072.533697,-592.164754,9104.533087
4030.685884,-1225.752797,-74.020594,9474.636058
4030.686199,-995.924147,296.082377,10066.800811
4030.686514,-536.266849,148.041188,10584.944971
4030.686829,229.828649,592.164754,10510.924376
4030.687145,689.485948,666.185348,10732.986159
4030.687460,842.705048,888.247130,10881.027347
4030.687775,1072.533697,740.205942,10584.944971
4030.688090,1532.190996,1184.329507,9918.759623
4030.688405,1915.238745,1036.288319,9474.636058
4030.688720,1685.410096,592.164754,9252.574275
4030.689035,1532.190996,-222.061783,8808.450710
4030.689350,919.314598,-370.102971,8512.368333
4030.689665,229.828649,-1258.350101,8290.306550
4030.689981,-229.828649,-1332.370696,8660.409521
4030.690296,-766.095498,-1628.453072,8290.306550
4030.690611,-1225.752797,-1628.453072,9104.533087
4030.690926,-766.095498,-1332.370696,9400.615463
4030.691241,-1302.362347,-740.205942,9696.697840
4030.691556,-1225.752797,-148.041188,9622.677246
4030.691871,-995.924147,370.102971,9918.759623
4030.692186,-153.219100,1036.288319,10140.821405
4030.692502,229.828649,1184.329507,10732.986159
4030.692817,689.485948,1702.473667,10584.944971
4030.693132,612.876398,1406.391290,10362.883188
4030.693447,919.314598,1110.308913,10510.924376
4030.693762,1378.971896,1258.350101,10584.944971
4030.694077,1685.410096,1036.288319,9844.739029
4030.694392,1608.800546,370.102971,9696.697840
4030.694707,842.705048,-370.102971,9326.594869
4030.695022,766.095498,-888.247130,8882.471304
4030.695338,153.219100,-1332.370696,8512.368333
4030.695653,-306.438199,-1184.329507,8438.347739
4030.695968,0.000000,-962.267725,8438.347739
4030.696283,-919.314598,-888.247130,8290.306550
4030.696598,-1302.362347,-518.144159,8882.471304
4030.696913,-1149.143247,-518.144159,9030.512492
4030.697228,-1302.362347,-148.041188,9548.656652
4030.697543,-919.314598,-0.000000,10214.842000
4030.697859,-536.266849,740.205942,10584.944971
4030.698174,306.438199,814.226536,10955.047942
4030.698489,689.485948,1258.350101,10510.924376
4030.698804,1072.533697,1258.350101,10955.047942
4030.699119,919.314598,1628.453072,10584.944971
4030.699434,1685.410096,1406.391290,9918.759623
4030.699749,2145.067394,1702.473667,9844.739029
4030.700064,1532.190996,1332.370696,8882.471304
4030.700379,1455.581446,518.144159,8956.491898
4030.700695,536.266849,-222.061783,8734.430116
4030.701010,-383.047749,-1036.288319,8364.327145
4030.701325,-383.047749,-1184.329507,9030.512492
4030.701640,-1225.752797,-1110.308913,8882.471304
4030.701955,-1302.362347,-888.247130,9178.553681
4030.702270,-1378.971896,-814.226536,9474.636058
4030.702585,-1685.410096,-148.041188,9918.759623
4030.702900,-1225.752797,-0.000000,9918.759623
4030.703216,-1225.752797,1036.288319,10214.842000
4030.703531,-536.266849,1406.391290,10955.047942
4030.703846,459.657299,1776.494261,10436.903782
4030.704161,536.266849,1998.556043,10288.862594
4030.704476,1072.533697,1924.535449,11029.068536
4030.704791,1378.971896,1924.535449,10510.924376
4030.705106,1685.410096,1554.432478,10436.903782
4030.705421,1762.019645,1184.329507,9770.718434
4030.705737,1149.143247,370.102971,9104.533087
4030.706052,919.314598,-370.102971,8882.471304
4030.706367,0.000000,-814.226536,8734.430116
4030.706682,-306.438199,-1258.350101,8586.388927
4030.706997,-689.485948,-1702.473667,8808.450710
4030.707312,-1072.533697,-1480.411884,8364.327145
4030.707627,-1302.362347,-1110.308913,8290.306550
4030.707942,-1302.362347,-814.226536,8956.491898
4030.708258,-766.095498,-222.061783,9622.677246
4030.708573,-1149.143247,296.082377,9696.697840
4030.708888,-766.095498,444.123565,10288.862594
4030.709203,0.000000,666.185348,10658.965565
4030.709518,612.876398,1036.288319,10881.027347
4030.709833,842.705048,1110.308913,10881.027347
4030.710148,689.485948,1184.329507,10732.986159
4030.710463,1608.800546,1776.494261,10510.924376
4030.710779,1532.190996,1258.350101,9696.697840
4030.711094,1762.019645,740.205942,9400.615463
4030.711409,1378.971896,-0.000000,8808.450710
4030.711724,766.095498,-444.123565,8586.388927
4030.712039,153.219100,-1110.308913,8734.430116
4030.712354,-153.219100,-1628.453072,8586.388927
4030.712669,-612.876398,-1554.432478,8808.450710
4030.712984,-995.924147,-1924.535449,8438.347739
4030.713300,-1225.752797,-1258.350101,8660.409521
4030.713615,-1072.533697,-444.123565,9252.574275
4030.713930,-1149.143247,-148.041188,9548.656652
4030.714245,-842.705048,370.102971,10066.800811
4030.714560,-689.485948,370.102971,10140.821405
4030.714875,0.000000,1184.329507,10066.800811
4030.715190,612.876398,1406.391290,10955.047942
4030.715505,842.705048,1554.432478,10807.006753
4030.715821,1072.533697,1332.370696,11177.109724
4030.716136,766.095498,1480.411884,10881.027347
4030.716451,1072.533697,814.226536,10214.842000
4030.716766,1455.581446,518.144159,9622.677246
4030.717081,1455.581446,-74.020594,9622.677246
4030.717396,766.095498,-444.123565,9252.574275
4030.717711,153.219100,-518.144159,8734.430116
4030.718026,76.609550,-666.185348,8216.285956
4030.718342,-459.657299,-888.247130,8142.265362
4030.718657,-459.657299,-1258.350101,8068.244768
4030.718972,-1149.143247,-1036.288319,8512.368333
4030.719287,-1302.362347,-592.164754,8882.471304
4030.719602,-1072.533697,-444.123565,9474.636058
4030.719917,-1455.581446,-296.082377,9844.739029
4030.720232,-1225.752797,-0.000000,10881.027347
4030.720547,-689.485948,148.041188,11251.130318
4030.720863,229.828649,1036.288319,10881.027347
4030.721178,536.266849,1332.370696,10807.006753
4030.721493,1072.533697,1554.432478,10807.006753
4030.721808,1455.581446,1554.432478,10436.903782
4030.722123,1608.800546,1480.411884,9548.656652
4030.722438,1838.629195,1332.370696,9030.512492
4030.722753,1685.410096,814.226536,9104.533087
4030.723068,1302.362347,-0.000000,8882.471304
4030.723384,689.485948,-666.185348,8586.388927
4030.723699,-229.828649,-1184.329507,9030.512492
4030.724014,-612.876398,-1258.350101,8808.450710
4030.724329,-766.095498,-1554.432478,8660.409521
4030.724644,-1072.533697,-1110.308913,9178.553681
4030.724959,-1455.581446,-740.205942,9992.780217
4030.725274,-1532.190996,-74.020594,9696.697840
4030.725589,-1608.800546,370.102971,9548.656652
4030.725905,-842.705048,888.247130,10584.944971
4030.726220,-306.438199,1480.411884,10584.944971
4030.726535,459.657299,1924.535449,10658.965565
4030.726850,612.876398,1702.473667,10584.944971
4030.727165,919.314598,1702.473667,10510.924376
4030.727480,1225.752797,1554.432478,10362.883188
4030.727795,1455.581446,1184.329507,10140.821405
4030.728111,1378.971896,666.185348,9844.739029
4030.728426,1762.019645,518.144159,9104.533087
4030.728741,766.095498,-370.102971,8660.409521
4030.729056,306.438199,-592.164754,8512.368333
4030.729371,0.000000,-888.247130,8290.306550
4030.729686,-383.047749,-1258.350101,8438.347739
4030.730001,-766.095498,-814.226536,8216.285956
4030.730316,-919.314598,-1036.288319,8734.430116
4030.730632,-995.924147,-666.185348,9104.533087
4030.730947,-1225.752797,-518.144159,9770.718434
4030.731262,-1072.533697,-0.000000,10288.862594
4030.731577,-1378.971896,148.041188,10584.944971
4030.731892,0.000000,962.267725,11473.192101
4030.732207,919.314598,1258.350101,11103.089130
4030.732522,919.314598,1480.411884,10881.027347
4030.732837,1149.143247,1406.391290,10436.903782
4030.733153,1455.581446,1554.432478,9992.780217
4030.733468,1991.848295,1332.370696,10140.821405
4030.733783,1838.629195,814.226536,9548.656652
4030.734098,1225.752797,-0.000000,8882.471304
4030.734413,995.924147,-370.102971,8808.450710
4030.734728,306.438199,-962.267725,8734.430116
4030.735043,0.000000,-1332.370696,8882.471304
4030.735358,-536.266849,-1554.432478,8808.450710
4030.735674,-919.314598,-1776.494261,8882.471304
4030.735989,-1149.143247,-1554.432478,8660.409521
4030.736304,-1302.362347,-814.226536,9178.553681
4030.736619,-1072.533697,-148.041188,9474.636058
4030.736934,-1455.581446,444.123565,10214.842000
4030.737249,-842.705048,888.247130,10362.883188
4030.737564,0.000000,1110.308913,10436.903782
4030.737879,306.438199,1184.329507,10066.800811
4030.738195,536.266849,1258.350101,10436.903782
4030.738510,536.266849,1258.350101,10807.006753
4030.738825,459.657299,592.164754,11103.089130
4030.739140,842.705048,666.185348,10288.862594
4030.739455,1149.143247,518.144159,9696.697840
4030.739770,1072.533697,-148.041188,9326.594869
4030.740085,766.095498,-740.205942,8512.368333
4030.740400,459.657299,-592.164754,8586.388927
4030.740716,76.609550,-962.267725,8586.388927
4030.741031,-612.876398,-740.205942,8364.327145
4030.741346,-459.657299,-1184.329507,7772.162391
4030.741661,-536.266849,-740.205942,8734.430116
4030.741976,-1072.533697,-814.226536,9178.553681
4030.742291,-1378.971896,-444.123565,9474.636058
4030.742606,-919.314598,-222.061783,9992.780217
4030.742921,-612.876398,296.082377,10436.903782
4030.743237,0.000000,666.185348,11177.109724
4030.743552,459.657299,1110.308913,10732.986159
4030.743867,995.924147,1554.432478,10288.862594
4030.744182,995.924147,1554.432478,10807.006753
4030.744497,766.095498,1406.391290,10436.903782
4030.744812,1302.362347,1628.453072,10066.800811
4030.745127,1302.362347,1332.370696,9548.656652
4030.745442,1149.143247,444.123565,8882.471304
4030.745758,919.314598,-0.000000,8882.471304
4030.746073,153.219100,-666.185348,9326.594869
4030.746388,-229.828649,-1258.350101,8882.471304
4030.746703,-612.876398,-1184.329507,8882.471304
4030.747018,-995.924147,-1406.391290,8586.388927
4030.747333,-1072.533697,-888.247130,8956.491898
4030.747648,-1302.362347,-0.000000,9770.718434
4030.747963,-842.705048,-0.000000,9474.636058
4030.748279,-1072.533697,814.226536,10066.800811
4030.748594,-995.924147,888.247130,10288.862594
4030.748909,-306.438199,1110.308913,10732.986159
4030.749224,536.266849,1480.411884,10807.006753
4030.749539,919.314598,1406.391290,11029.068536
4030.749854,766.095498,1554.432478,10881.027347
4030.750169,1225.752797,1480.411884,10732.986159
4030.750484,1838.629195,1184.329507,9992.780217
4030.750800,1991.848295,888.247130,9474.636058
4030.751115,2145.067394,222.061783,9252.574275
4030.751430,1455.581446,-296.082377,8734.430116
4030.751745,689.485948,-370.102971,8290.306550
4030.752060,76.609550,-962.267725,8216.285956
4030.752375,-383.047749,-1184.329507,8290.306550
4030.752690,-766.095498,-1258.350101,8660.409521
4030.753005,-1225.752797,-888.247130,8586.388927
4030.753321,-1149.143247,-518.144159,9178.553681
4030.753636,-1532.190996,-222.061783,9918.759623
4030.753951,-995.924147,370.102971,10288.862594
4030.754266,-536.266849,444.123565,10510.924376
4030.754581,0.000000,740.205942,10807.006753
4030.754896,842.705048,1480.411884,10658.965565
4030.755211,1149.143247,1850.514855,10807.006753
4030.755526,1302.362347,1776.494261,10510.924376
4030.755842,1455.581446,1628.453072,9992.780217
4030.756157,1455.581446,1554.432478,9474.636058
4030.756472,1685.410096,666.185348,9400.615463
4030.756787,919.314598,-74.020594,9252.574275
4030.757102,766.095498,-814.226536,9104.533087
4030.757417,612.876398,-1258.350101,8956.491898
4030.757732,-689.485948,-1702.473667,8512.368333
4030.758047,-919.314598,-1554.432478,8808.450710
4030.758363,-995.924147,-1258.350101,8734.430116
4030.758678,-1302.362347,-1258.350101,9030.512492
4030.758993,-1225.752797,-518.144159,8956.491898
4030.759308,-1149.143247,-148.041188,9474.636058
4030.759623,-1302.362347,592.164754,9474.636058
4030.759938,-842.705048,592.164754,10288.862594
4030.760253,76.609550,814.226536,10436.903782
4030.760568,229.828649,888.247130,10362.883188
4030.760884,459.657299,1332.370696,10881.027347
4030.761199,766.095498,1036.288319,10658.965565
4030.761514,1378.971896,962.267725,10436.903782
4030.761829,1762.019645,592.164754,10066.800811
4030.762144,1685.410096,444.123565,9400.615463
4030.762459,1762.019645,-148.041188,9104.533087
4030.762774,1072.533697,-518.144159,8068.244768
4030.763089,76.609550,-1184.329507,7698.141797
4030.763405,-459.657299,-1332.370696,8808.450710
4030.763720,-995.924147,-1332.370696,8142.265362
4030.764035,-766.095498,-1480.411884,8216.285956
4030.764350,-842.705048,-1110.308913,8808.450710
4030.764665,-1149.143247,-1184.329507,9770.718434
4030.764980,-1302.362347,-0.000000,9622.677246
4030.765295,-1149.143247,-296.082377,9992.780217
4030.765610,-536.266849,296.082377,10436.903782
4030.765926,0.000000,1184.329507,10658.965565
4030.766241,766.095498,1702.473667,10288.862594
4030.766556,1455.581446,1850.514855,10288.862594
4030.766871,766.095498,2220.617826,10436.903782
4030.767186,1072.533697,1776.494261,9992.780217
4030.767501,1225.752797,1554.432478,9696.697840
4030.767816,1072.533697,666.185348,9770.718434
4030.768131,689.485948,-370.102971,9474.636058
4030.768447,383.047749,-740.205942,9548.656652
4030.768762,-153.219100,-1110.308913,9326.594869
4030.769077,-459.657299,-1332.370696,9400.615463
4030.769392,-612.876398,-962.267725,9104.533087
4030.769707,-306.438199,-1036.288319,8734.430116
4030.770022,-995.924147,-518.144159,8438.347739
4030.770337,-766.095498,-0.000000,8438.347739
4030.770653,-919.314598,370.102971,9400.615463
4030.770968,-1149.143247,888.247130,10066.800811
4030.771283,-689.485948,1036.288319,10584.944971
4030.771598,0.000000,1406.391290,10658.965565
4030.771913,383.047749,1628.453072,10732.986159
4030.772228,995.924147,1628.453072,10955.047942
4030.772543,919.314598,1258.350101,11177.109724
4030.772858,1072.533697,2146.597232,11103.089130
4030.773174,1608.800546,1332.370696,10362.883188
4030.773489,1532.190996,1184.329507,9548.656652
4030.773804,1378.971896,296.082377,8734.430116
4030.774119,995.924147,-0.000000,8734.430116
4030.774434,306.438199,-296.082377,8512.368333
4030.774749,0.000000,-592.164754,8364.327145
4030.775064,-383.047749,-888.247130,8734.430116
4030.775379,-842.705048,-814.226536,8586.388927
4030.775695,-1072.533697,-740.205942,9104.533087
4030.776010,-1072.533697,-592.164754,9474.636058
4030.776325,-995.924147,-0.000000,10066.800811
4030.776640,-1072.533697,444.123565,10140.821405
4030.776955,-536.266849,814.226536,10732.986159
4030.777270,536.266849,1332.370696,10807.006753
4030.777585,766.095498,1480.411884,10658.965565
4030.777900,1072.533697,1850.514855,10807.006753
4030.778216,1455.581446,1850.514855,10584.944971
4030.778531,1608.800546,1702.473667,10362.883188
4030.778846,2374.896044,962.267725,9844.739029
4030.779161,1149.143247,740.205942,9622.677246
4030.779476,1149.143247,-148.041188,9400.615463
4030.779791,919.314598,-666.185348,8956.491898
4030.780106,153.219100,-1628.453072,8586.388927
4030.780421,-383.047749,-1998.556043,8882.471304
4030.780737,-536.266849,-1554.432478,8512.368333
4030.781052,-766.095498,-1406.391290,7994.224174
4030.781367,-995.924147,-888.247130,8660.409521
4030.781682,-1302.362347,-740.205942,9178.553681
4030.781997,-1149.143247,-370.102971,8734.430116
4030.782312,-1225.752797,-0.000000,9474.636058
4030.782627,-612.876398,222.061783,10362.883188
4030.782942,0.000000,518.144159,10807.006753
4030.783258,76.609550,888.247130,10436.903782
4030.783573,459.657299,814.226536,10881.027347
4030.783888,1149.143247,888.247130,10955.047942
4030.784203,1225.752797,888.247130,10362.883188
4030.784518,1685.410096,666.185348,9696.697840
4030.784833,1685.410096,-0.000000,9622.677246
4030.785148,919.314598,-296.082377,8808.450710
4030.785463,919.314598,-666.185348,8660.409521
4030.785779,0.000000,-962.267725,8438.347739
4030.786094,-306.438199,-1406.391290,8512.368333
4030.786409,-766.095498,-1554.432478,8364.327145
4030.786724,-1072.533697,-1554.432478,8216.285956
4030.787039,-1225.752797,-1406.391290,8956.491898
4030.787354,-1302.362347,-1184.329507,9548.656652
4030.787669,-1302.362347,-666.185348,9770.718434
4030.787984,-1302.362347,-222.061783,10140.821405
4030.788300,-536.266849,296.082377,10362.883188
4030.788615,76.609550,1036.288319,10510.924376
4030.788930,766.095498,1480.411884,10584.944971
4030.789245,995.924147,1332.370696,10436.903782
4030.789560,1225.752797,1258.350101,10436.903782
4030.789875,1608.800546,1480.411884,10140.821405
4030.790190,1302.362347,1110.308913,10140.821405
4030.790505,1685.410096,814.226536,9400.615463
4030.790821,1072.533697,-0.000000,9326.594869
4030.791136,536.266849,-666.185348,9252.574275
4030.791451,383.047749,-1406.391290,8882.471304
4030.791766,-306.438199,-1480.411884,8290.306550
4030.792081,-842.705048,-1480.411884,8290.306550
4030.792396,-766.095498,-1036.288319,8734.430116
4030.792711,-1225.752797,-592.164754,8512.368333
4030.793026,-1072.533697,-0.000000,8808.450710
4030.793342,-1378.971896,-0.000000,9474.636058
4030.793657,-1455.581446,296.082377,10066.800811
4030.793972,0.000000,1036.288319,10288.862594
4030.794287,-229.828649,1110.308913,10955.047942
4030.794602,459.657299,1702.473667,11177.109724
4030.794917,612.876398,1776.494261,10955.047942
4030.795232,766.095498,1406.391290,10732.986159
4030.795547,1072.533697,1554.432478,11029.068536
4030.795863,1762.019645,1554.432478,9918.759623
4030.796178,1685.410096,1184.329507,9252.574275
4030.796493,1302.362347,740.205942,8808.450710
4030.796808,995.924147,148.041188,8660.409521
4030.797123,306.438199,-74.020594,8142.265362
4030.797438,-306.438199,-592.164754,8216.285956
4030.797753,-842.705048,-444.123565,8882.471304
4030.798068,-1225.752797,-1036.288319,8882.471304
4030.798384,-766.095498,-962.267725,9252.574275
4030.798699,-1762.019645,-518.144159,9992.780217
4030.799014,-1838.629195,-0.000000,10140.821405
4030.799329,-1225.752797,666.185348,10658.965565
4030.799644,-383.047749,1258.350101,10955.047942
4030.799959,459.657299,1702.473667,10732.986159
4030.800274,689.485948,2368.659014,10584.944971
4030.800589,1149.143247,2516.700203,10362.883188
4030.800905,1608.800546,2368.659014,10214.842000
4030.801220,1838.629195,1924.535449,10288.862594
4030.801535,1378.971896,1332.370696,9844.739029
4030.801850,995.924147,740.205942,9622.677246
4030.802165,919.314598,-74.020594,9178.553681
4030.802480,459.657299,-888.247130,8882.471304
4030.802795,-229.828649,-1480.411884,8586.388927
4030.803111,-766.095498,-1702.473667,9548.656652
4030.803426,-1072.533697,-1776.494261,8734.430116
4030.803741,-1225.752797,-1332.370696,8364.327145
4030.804056,-919.314598,-592.164754,8808.450710
4030.804371,-1225.752797,-148.041188,8956.491898
4030.804687,-612.876398,666.185348,9474.636058
4030.805002,-689.485948,888.247130,9696.697840
4030.805317,0.000000,962.267725,10436.903782
4030.805632,459.657299,1110.308913,10436.903782
4030.805947,536.266849,1184.329507,10584.944971
4030.806263,919.314598,962.267725,10881.027347
4030.806578,1455.581446,814.226536,10807.006753
4030.806893,1608.800546,888.247130,10288.862594
4030.807208,1685.410096,666.185348,9548.656652
4030.807523,1608.800546,-0.000000,9326.594869
4030.807839,1378.971896,222.061783,8660.409521
4030.808154,612.876398,-962.267725,8068.244768
4030.808469,153.219100,-1480.411884,8216.285956
4030.808784,-459.657299,-1406.391290,8216.285956
4030.809099,-766.095498,-1702.473667,8364.327145
4030.809415,-766.095498,-1554.432478,8882.471304
4030.809730,-1225.752797,-1258.350101,9474.636058
4030.810045,-1225.752797,-518.144159,9696.697840
4030.810360,-1072.533697,-222.061783,10140.821405
4030.810675,-459.657299,-0.000000,10881.027347
4030.810990,-383.047749,814.226536,10436.903782
4030.811306,153.219100,888.247130,9992.780217
4030.811621,689.485948,1184.329507,10510.924376
4030.811936,766.095498,1258.350101,10362.883188
4030.812251,995.924147,1184.329507,10362.883188
4030.812566,1149.143247,740.205942,9918.759623
4030.812882,1302.362347,296.082377,9548.656652
4030.813197,1072.533697,-0.000000,9326.594869
4030.813512,689.485948,-814.226536,9252.574275
4030.813827,76.609550,-1332.370696,9474.636058
4030.814142,0.000000,-1850.514855,8882.471304
4030.814458,-842.705048,-1850.514855,8808.450710
4030.814773,-612.876398,-1480.411884,8438.347739
4030.815088,-459.657299,-1184.329507,8290.306550
4030.815403,-459.657299,-296.082377,8290.306550
4030.815718,-842.705048,-0.000000,8734.430116
4030.816034,-995.924147,370.102971,9326.594869
4030.816349,-919.314598,666.185348,9696.697840
4030.816664,-459.657299,888.247130,10658.965565
4030.816979,0.000000,444.123565,10955.047942
4030.817294,306.438199,962.267725,10807.006753
4030.817610,612.876398,740.205942,11399.171507
4030.817925,842.705048,1184.329507,10881.027347
4030.818240,1302.362347,1258.350101,10510.924376
4030.818555,2068.457845,1036.288319,9252.574275
4030.818870,1608.800546,814.226536,8808.450710
4030.819186,1302.362347,444.123565,8586.388927
4030.819501,995.924147,-0.000000,8364.327145
4030.819816,153.219100,-592.164754,8142.265362
4030.820131,-766.095498,-888.247130,8068.244768
4030.820446,-689.485948,-1036.288319,8734.430116
4030.820762,-995.924147,-888.247130,8660.409521
4030.821077,-1302.362347,-740.205942,9622.677246
4030.821392,-1072.533697,-592.164754,10510.924376
4030.821707,-1302.362347,296.082377,10214.842000
4030.822022,-995.924147,888.247130,10140.821405
4030.822338,-306.438199,1480.411884,10807.006753
4030.822653,536.266849,1702.473667,10658.965565
4030.822968,229.828649,1702.473667,10658.965565
4030.823283,1455.581446,2072.576638,10510.924376
4030.823598,766.095498,2072.576638,10362.883188
4030.823914,1455.581446,1850.514855,9844.739029
4030.824229,1378.971896,1332.370696,9474.636058
4030.824544,1149.143247,444.123565,9844.739029
4030.824859,536.266849,-518.144159,9178.553681
4030.825174,153.219100,-1184.329507,9030.512492
4030.825489,-153.219100,-1258.350101,8660.409521
4030.825805,-306.438199,-1110.308913,8808.450710
4030.826120,-612.876398,-1036.288319,8808.450710
4030.826435,-995.924147,-296.082377,8438.347739
4030.826750,-842.705048,-74.020594,8882.471304
4030.827065,-995.924147,444.123565,9104.533087
4030.827381,-1378.971896,814.226536,9474.636058
4030.827696,-1225.752797,1184.329507,10066.800811
4030.828011,-536.266849,1036.288319,10881.027347
4030.828326,0.000000,1184.329507,10955.047942
4030.828641,459.657299,1110.308913,11325.150913
4030.828957,689.485948,1036.288319,11473.192101
4030.829272,919.314598,1110.308913,10658.965565
4030.829587,1378.971896,1110.308913,9992.780217
4030.829902,1608.800546,888.247130,9844.739029
4030.830217,1455.581446,592.164754,9178.553681
4030.830533,1225.752797,296.082377,8290.306550
4030.830848,612.876398,-148.041188,7994.224174
4030.831163,153.219100,-888.247130,7772.162391
4030.831478,-306.438199,-1036.288319,8216.285956
4030.831793,-459.657299,-1480.411884,8512.368333
4030.832109,-1072.533697,-1702.473667,9326.594869
4030.832424,-1302.362347,-962.267725,9474.636058
4030.832739,-919.314598,-518.144159,9622.677246
4030.833054,-689.485948,-74.020594,10066.800811
4030.833369,-612.876398,518.144159,10658.965565
4030.833685,-153.219100,1036.288319,10510.924376
4030.834000,229.828649,1332.370696,10584.944971
4030.834315,1302.362347,1480.411884,10288.862594
4030.834630,995.924147,1184.329507,10140.821405
4030.834945,995.924147,1406.391290,10066.800811
4030.835261,1225.752797,814.226536,10732.986159
4030.835576,1455.581446,-0.000000,10066.800811
4030.835891,1608.800546,-370.102971,9622.677246
4030.836206,842.705048,-962.267725,9548.656652
4030.836521,459.657299,-1628.453072,9326.594869
4030.836837,383.047749,-1480.411884,9104.533087
4030.837152,0.000000,-1480.411884,8882.471304
4030.837467,153.219100,-1628.453072,8364.327145
4030.837782,-306.438199,-1184.329507,8364.327145
4030.838097,-306.438199,-518.144159,8586.388927
4030.838413,-995.924147,-296.082377,9326.594869
4030.838728,-919.314598,-74.020594,9474.636058
4030.839043,-383.047749,-0.000000,10066.800811
4030.839358,-229.828649,222.061783,10732.986159
4030.839673,689.485948,592.164754,11399.171507
4030.839988,459.657299,592.164754,10732.986159
4030.840304,306.438199,666.185348,10807.006753
4030.840619,919.314598,888.247130,11325.150913
4030.840934,1455.581446,666.185348,10436.903782
4030.841249,1685.410096,666.185348,9622.677246
4030.841564,1608.800546,592.164754,8882.471304
4030.841880,1455.581446,-74.020594,8512.368333
4030.842195,689.485948,-370.102971,8364.327145
4030.842510,153.219100,-888.247130,8216.285956
4030.842825,-842.705048,-1480.411884,8660.409521
4030.843140,-1072.533697,-1406.391290,8364.327145
4030.843456,-1378.971896,-1184.329507,8586.388927
4030.843771,-1378.971896,-1036.288319,9104.533087
4030.844086,-1762.019645,-444.123565,9918.759623
4030.844401,-1915.238745,-0.000000,10214.842000
4030.844716,-1685.410096,444.123565,10510.924376
4030.845032,-459.657299,740.205942,10658.965565
4030.845347,306.438199,1110.308913,10140.821405
4030.845662,383.047749,2220.617826,10436.903782
4030.845977,919.314598,2146.597232,10362.883188
4030.846292,1225.752797,1850.514855,10066.800811
4030.846608,1455.581446,1776.494261,10140.821405
4030.846923,1455.581446,1184.329507,9474.636058
4030.847238,1225.752797,444.123565,9104.533087
4030.847553,1149.143247,-74.020594,9178.553681
4030.847868,383.047749,-666.185348,8956.491898
4030.848184,76.609550,-1036.288319,8364.327145
4030.848499,-612.876398,-1184.329507,8364.327145
4030.848814,-919.314598,-1258.350101,8364.327145
4030.849129,-1225.752797,-888.247130,8882.471304
4030.849444,-1378.971896,-148.041188,9252.574275
4030.849760,-1149.143247,-74.020594,9474.636058
4030.850075,-1378.971896,814.226536,9770.718434
4030.850390,-1072.533697,1258.350101,10658.965565
4030.850705,0.000000,1480.411884,10881.027347
4030.851020,1225.752797,1554.432478,10881.027347
4030.851336,919.314598,1702.473667,11399.171507
4030.851651,1225.752797,1850.514855,11177.109724
4030.851966,1608.800546,1924.535449,10881.027347
4030.852281,1685.410096,1702.473667,10140.821405
4030.852596,1685.410096,1184.329507,9622.677246
4030.852912,1378.971896,740.205942,9252.574275
4030.853227,766.095498,370.102971,8734.430116
4030.853542,383.047749,-814.226536,8882.471304
4030.853857,-383.047749,-1110.308913,8438.347739
4030.854172,-1072.533697,-1036.288319,8290.306550
4030.854487,-1455.581446,-1406.391290,8734.430116
4030.854803,-1685.410096,-1554.432478,9400.615463
4030.855118,-1072.533697,-814.226536,10288.862594
4030.855433,-1072.533697,-0.000000,9992.780217
4030.855748,-306.438199,222.061783,10066.800811
4030.856063,-229.828649,1258.350101,10214.842000
4030.856379,459.657299,1850.514855,10362.883188
4030.856694,1149.143247,1998.556043,10584.944971
4030.857009,1302.362347,1850.514855,10214.842000
4030.857324,1455.581446,1776.494261,10140.821405
4030.857639,1149.143247,1554.432478,9918.759623
4030.857955,1302.362347,592.164754,9844.739029
4030.858270,1072.533697,148.041188,9770.718434
4030.858585,842.705048,-814.226536,9326.594869
4030.858900,229.828649,-1332.370696,9178.553681
4030.859215,0.000000,-1776.494261,8586.388927
4030.859531,-306.438199,-1850.514855,8660.409521
4030.859846,-536.266849,-1924.535449,8734.430116
4030.860161,-459.657299,-1776.494261,8586.388927
4030.860476,-689.485948,-518.144159,8586.388927
4030.860791,-842.705048,-222.061783,8808.450710
4030.861107,-536.266849,-74.020594,9474.636058
4030.861422,-612.876398,370.102971,9622.677246
4030.861737,-459.657299,740.205942,10140.821405
4030.862052,76.609550,370.102971,10732.986159
4030.862367,536.266849,518.144159,11029.068536
4030.862683,383.047749,592.164754,11399.171507
4030.862998,459.657299,296.082377,11177.109724
4030.863313,536.266849,296.082377,10510.924376
4030.863628,1225.752797,592.164754,9918.759623
4030.863943,1225.752797,444.123565,9474.636058
4030.864259,1149.143247,-74.020594,9252.574275
4030.864574,1302.362347,-592.164754,9030.512492
4030.864889,153.219100,-888.247130,7920.203579
4030.865204,-229.828649,-888.247130,8364.327145
4030.865519,-459.657299,-1036.288319,8438.347739
4030.865835,-689.485948,-1480.411884,8512.368333
4030.866150,-766.095498,-1258.350101,8956.491898
4030.866465,-1225.752797,-962.267725,9252.574275
4030.866780,-1149.143247,-666.185348,9474.636058
4030.867095,-995.924147,-74.020594,9992.780217
4030.867411,-536.266849,518.144159,10584.944971
4030.867726,76.609550,666.185348,11029.068536
4030.868041,76.609550,1554.432478,9918.759623
4030.868356,383.047749,1554.432478,10214.842000
4030.868671,995.924147,1702.473667,10658.965565
4030.868986,1149.143247,1184.329507,10140.821405
4030.869302,1378.971896,740.205942,10066.800811
4030.869617,1685.410096,444.123565,9474.636058
4030.869932,1455.581446,-0.000000,9474.636058
4030.870247,919.314598,-444.123565,9252.574275
4030.870562,459.657299,-666.185348,8882.471304
4030.870878,0.000000,-666.185348,9030.512492
4030.871193,-229.828649,-962.267725,8660.409521
4030.871508,-536.266849,-666.185348,8216.285956
4030.871823,-612.876398,-518.144159,8956.491898
4030.872138,-919.314598,-0.000000,8882.471304
4030.872454,-766.095498,370.102971,9622.677246
4030.872769,-1225.752797,592.164754,10066.800811
4030.873084,-842.705048,740.205942,11103.089130
4030.873399,-229.828649,1110.308913,11547.212695
4030.873714,459.657299,962.267725,11251.130318
4030.874030,536.266849,1628.453072,11325.150913
4030.874345,995.924147,1850.514855,11029.068536
4030.874660,1685.410096,1924.535449,10362.883188
4030.874975,1685.410096,1628.453072,10066.800811
4030.875290,2068.457845,1702.473667,9326.594869
4030.875606,1838.629195,814.226536,8216.285956
4030.875921,1225.752797,222.061783,8290.306550
4030.876236,383.047749,-370.102971,8512.368333
4030.876551,0.000000,-814.226536,8438.347739
4030.876866,-689.485948,-1110.308913,8734.430116
4030.877182,-995.924147,-1702.473667,8882.471304
4030.877497,-1608.800546,-1332.370696,9178.553681
4030.877812,-1532.190996,-666.185348,9844.739029
4030.878127,-1762.019645,-148.041188,10140.821405
4030.878442,-1608.800546,296.082377,10140.821405
4030.878758,-842.705048,1110.308913,10362.883188
4030.879073,0.000000,1702.473667,10510.924376
4030.879388,612.876398,1776.494261,10584.944971
4030.879703,919.314598,1924.535449,10140.821405
4030.880018,1225.752797,2294.638420,10510.924376
4030.880334,1455.581446,1480.411884,10288.862594
4030.880649,1608.800546,1184.329507,9770.718434
4030.880964,1532.190996,444.123565,9474.636058
4030.881279,919.314598,-296.082377,9326.594869
4030.881594,153.219100,-962.267725,8882.471304
4030.881910,0.000000,-1554.432478,8660.409521
4030.882225,-536.266849,-1480.411884,8734.430116
4030.882540,-1149.143247,-1850.514855,8586.388927
4030.882855,-1149.143247,-1480.411884,8290.306550
4030.883170,-1149.143247,-740.205942,8660.409521
4030.883485,-1072.533697,-296.082377,9252.574275
4030.883801,-1455.581446,-0.000000,10140.821405
4030.884116,-1225.752797,888.247130,10288.862594
4030.884431,-459.657299,962.267725,10658.965565
4030.884746,229.828649,1184.329507,10807.006753
4030.885061,689.485948,1036.288319,11177.109724
4030.885377,766.095498,1332.370696,11399.171507
4030.885692,1225.752797,1184.329507,10807.006753
4030.886007,1455.581446,1258.350101,10436.903782
4030.886322,1915.238745,1332.370696,9844.739029
4030.886637,1991.848295,370.102971,9178.553681
4030.886953,1302.362347,-0.000000,9030.512492
4030.887268,766.095498,-666.185348,8364.327145
4030.887583,0.000000,-1332.370696,8512.368333
4030.887898,-229.828649,-1628.453072,8438.347739
4030.888213,-612.876398,-1850.514855,8142.265362
4030.888529,-842.705048,-1776.494261,8882.471304
4030.888844,-1149.143247,-1406.391290,9252.574275
4030.889159,-1225.752797,-666.185348,9622.677246
4030.889474,-1072.533697,-148.041188,9474.636058
4030.889789,-1225.752797,370.102971,10510.924376
4030.890105,-612.876398,592.164754,10214.842000
4030.890420,153.219100,1258.350101,10807.006753
4030.890735,612.876398,1406.391290,10584.944971
4030.891050,1685.410096,1332.370696,10732.986159
4030.891365,919.314598,1184.329507,10510.924376
4030.891681,1378.971896,962.267725,10140.821405
4030.891996,1532.190996,814.226536,9770.718434
4030.892311,1378.971896,296.082377,9474.636058
4030.892626,842.705048,-296.082377,9474.636058
4030.892941,766.095498,-1110.308913,8956.491898
4030.893257,229.828649,-1110.308913,8290.306550
4030.893572,76.609550,-1036.288319,8438.347739
4030.893887,-153.219100,-1036.288319,8142.265362
4030.894202,0.000000,-1036.288319,8290.306550
4030.894517,-536.266849,-740.205942,8660.409521
4030.894833,-1225.752797,-296.082377,9252.574275
4030.895148,-1225.752797,-0.000000,9474.636058
4030.895463,-1225.752797,296.082377,9844.739029
4030.895778,-536.266849,518.144159,10732.986159
4030.896093,153.219100,1036.288319,11399.171507
4030.896409,153.219100,962.267725,10807.006753
4030.896724,459.657299,1110.308913,11251.130318
4030.897039,842.705048,1554.432478,10658.965565
4030.897354,1302.362347,1628.453072,10510.924376
4030.897669,1608.800546,1702.473667,9918.759623
4030.897984,1532.190996,1110.308913,9474.636058
4030.898300,1225.752797,370.102971,8808.450710
4030.898615,1302.362347,-148.041188,9030.512492
4030.898930,995.924147,-74.020594,8512.368333
4030.899245,0.000000,-888.247130,8660.409521
4030.899560,-766.095498,-1258.350101,9030.512492
4030.899876,-1149.143247,-1480.411884,8808.450710
4030.900191,-1072.533697,-1110.308913,9474.636058
4030.900506,-1532.190996,-518.144159,9474.636058
4030.900821,-1532.190996,-0.000000,9844.739029
4030.901136,-1455.581446,148.041188,9992.780217
4030.901451,-383.047749,814.226536,10362.883188
4030.901766,0.000000,1184.329507,11029.068536
4030.902081,536.266849,1406.391290,10510.924376
4030.902396,1072.533697,1924.535449,10362.883188
4030.902711,1225.752797,1628.453072,10214.842000
4030.903027,1685.410096,1628.453072,10066.800811
4030.903342,2298.286494,1332.370696,9770.718434
4030.903657,1455.581446,740.205942,9548.656652
4030.903972,1302.362347,-0.000000,9030.512492
4030.904287,612.876398,-666.185348,8734.430116
4030.904602,229.828649,-814.226536,8290.306550
4030.904917,-612.876398,-1406.391290,8512.368333
4030.905232,-919.314598,-1332.370696,8512.368333
4030.905547,-1532.190996,-1184.329507,8956.491898
4030.905862,-1455.581446,-888.247130,8956.491898
4030.906177,-1608.800546,-148.041188,9474.636058
4030.906492,-1378.971896,148.041188,10066.800811
4030.906807,-1149.143247,592.164754,10362.883188
4030.907122,-459.657299,666.185348,10881.027347
4030.907438,0.000000,1480.411884,10658.965565
4030.907753,766.095498,1702.473667,10510.924376
4030.908068,1072.533697,2368.659014,11251.130318
4030.908383,1302.362347,1924.535449,10584.944971
4030.908698,1455.581446,1554.432478,9992.780217
4030.909013,1838.629195,1184.329507,9474.636058
4030.909328,1455.581446,814.226536,8882.471304
4030.909643,1072.533697,-148.041188,8660.409521
4030.909958,383.047749,-666.185348,8660.409521
4030.910273,-229.828649,-1258.350101,8660.409521
4030.910588,-689.485948,-1628.453072,8660.409521
4030.910903,-1149.143247,-1702.473667,8438.347739
4030.911218,-1378.971896,-1776.494261,8586.388927
4030.911533,-1762.019645,-1036.288319,9030.512492
4030.911849,-1532.190996,-444.123565,9400.615463
4030.912164,-1608.800546,-0.000000,9622.677246
4030.912479,-1149.143247,-0.000000,10214.842000
4030.912794,-536.266849,740.205942,10510.924376
4030.913109,306.438199,1258.350101,10362.883188
4030.913424,689.485948,1406.391290,10881.027347
4030.913739,766.095498,1406.391290,10807.006753
4030.914054,842.705048,1554.432478,10732.986159
4030.914369,1455.581446,1184.329507,10436.903782
4030.914684,1991.848295,962.267725,9844.739029
4030.914999,1302.362347,444.123565,9474.636058
4030.915314,536.266849,-370.102971,8808.450710
4030.915629,689.485948,-1036.288319,8882.471304
4030.915944,0.000000,-1406.391290,8734.430116
4030.916260,-383.047749,-1332.370696,8882.471304
4030.916575,-536.266849,-1554.432478,8290.306550
4030.916890,-766.095498,-1332.370696,8660.409521
4030.917205,-536.266849,-518.144159,9252.574275
4030.917520,-766.095498,-0.000000,9474.636058
4030.917835,-1532.190996,-0.000000,9696.697840
4030.918150,-536.266849,370.102971,9770.718434
4030.918465,-383.047749,814.226536,10066.800811
4030.918780,229.828649,962.267725,10510.924376
4030.919095,689.485948,1480.411884,10732.986159
4030.919410,766.095498,1554.432478,11029.068536
4030.919725,995.924147,1258.350101,10658.965565
4030.920040,1302.362347,1258.350101,9918.759623
4030.920355,1762.019645,962.267725,9474.636058
4030.920671,1532.190996,592.164754,9474.636058
4030.920986,1225.752797,-0.000000,9030.512492
4030.921301,842.705048,-592.164754,9104.533087
4030.921616,0.000000,-1184.329507,8216.285956
4030.921931,-536.266849,-1184.329507,8512.368333
4030.922246,-383.047749,-1406.391290,8586.388927
4030.922561,-766.095498,-1406.391290,8364.327145
4030.922876,-1072.533697,-814.226536,9326.594869
4030.923191,-995.924147,-740.205942,9548.656652
4030.923506,-766.095498,-0.000000,9844.739029
4030.923821,-1072.533697,296.082377,9992.780217
4030.924136,-536.266849,666.185348,10807.006753
4030.924451,0.000000,1258.350101,10732.986159
4030.924766,536.266849,1036.288319,10881.027347
4030.925082,1072.533697,1332.370696,10955.047942
4030.925397,1532.190996,1332.370696,10584.944971
4030.925712,1838.629195,1406.391290,10140.821405
4030.926027,1991.848295,1184.329507,9844.739029
4030.926342,1685.410096,518.144159,9252.574275
4030.926657,1685.410096,-222.061783,8808.450710
4030.926972,766.095498,-814.226536,8882.471304
4030.927287,153.219100,-1332.370696,8438.347739
4030.927602,0.000000,-1332.370696,8512.368333
4030.927917,-842.705048,-1628.453072,8438.347739
4030.928232,-1302.362347,-1110.308913,8956.491898
4030.928547,-1532.190996,-962.267725,9178.553681
4030.928862,-1225.752797,-592.164754,9326.594869
4030.929177,-1455.581446,-0.000000,9770.718434
4030.929493,-1378.971896,592.164754,10362.883188
4030.929808,-689.485948,814.226536,11103.089130
4030.930123,0.000000,1332.370696,10584.944971
4030.930438,-383.047749,1776.494261,10807.006753
4030.930753,612.876398,1554.432478,10658.965565
4030.931068,995.924147,1480.411884,10288.862594
4030.931383,1532.190996,1776.494261,9918.759623
4030.931698,1378.971896,1110.308913,9400.615463
4030.932013,1455.581446,74.020594,9178.553681
4030.932328,995.924147,-74.020594,8438.347739
4030.932643,459.657299,-518.144159,8364.327145
4030.932958,0.000000,-1258.350101,8364.327145
4030.933273,-536.266849,-1258.350101,8438.347739
4030.933588,-1302.362347,-1406.391290,8512.368333
4030.933904,-1225.752797,-1554.432478,8882.471304
4030.934219,-1149.143247,-740.205942,9326.594869
4030.934534,-1455.581446,-74.020594,9030.512492
4030.934849,-1608.800546,-0.000000,9548.656652
4030.935164,-383.047749,222.061783,9548.656652
4030.935479,-229.828649,1036.288319,10510.924376
4030.935794,0.000000,1332.370696,10658.965565
4030.936109,689.485948,1628.453072,10807.006753
4030.936424,842.705048,1628.453072,10807.006753
4030.936739,1455.581446,1406.391290,10288.862594
4030.937054,1608.800546,1332.370696,10066.800811
4030.937369,1762.019645,1258.350101,9474.636058
4030.937684,1455.581446,666.185348,9548.656652
4030.937999,842.705048,-148.041188,8808.450710
4030.938315,306.438199,-1036.288319,8882.471304
4030.938630,0.000000,-1110.308913,8660.409521
4030.938945,-612.876398,-1480.411884,8808.450710
4030.939260,-766.095498,-1480.411884,8660.409521
4030.939575,-1225.752797,-1036.288319,9030.512492
4030.939890,-1378.971896,-518.144159,9178.553681
4030.940205,-1608.800546,-296.082377,9548.656652
4030.940520,-1225.752797,592.164754,9844.739029
4030.940835,-919.314598,888.247130,10066.800811
4030.941150,-536.266849,888.247130,10807.006753
4030.941465,306.438199,1480.411884,10584.944971
4030.941780,689.485948,1776.494261,10955.047942
4030.942095,1072.533697,1702.473667,10584.944971
4030.942410,1455.581446,1554.432478,10658.965565
4030.942726,1838.629195,1258.350101,10140.821405
4030.943041,1532.190996,962.267725,9400.615463
4030.943356,1455.581446,370.102971,8808.450710
4030.943671,995.924147,-74.020594,8586.388927
4030.943986,689.485948,-518.144159,8290.306550
4030.944301,0.000000,-1628.453072,8290.306550
4030.944616,-306.438199,-1554.432478,8364.327145
4030.944931,-842.705048,-1702.473667,8364.327145
4030.945246,-766.095498,-1110.308913,8438.347739
4030.945561,-995.924147,-666.185348,9104.533087
4030.945876,-1302.362347,-222.061783,9400.615463
4030.946191,-1378.971896,296.082377,9622.677246
4030.946506,-1072.533697,666.185348,10288.862594
4030.946821,0.000000,1036.288319,10881.027347
4030.947137,536.266849,1332.370696,10658.965565
4030.947452,766.095498,1480.411884,10362.883188
4030.947767,1455.581446,1480.411884,11029.068536
4030.948082,1225.752797,1184.329507,10732.986159
4030.948397,1685.410096,814.226536,10584.944971
4030.948712,1762.019645,962.267725,9696.697840
4030.949027,1532.190996,-0.000000,9400.615463
4030.949342,1225.752797,-518.144159,9104.533087
4030.949657,536.266849,-888.247130,8882.471304
4030.949972,0.000000,-1480.411884,8882.471304
4030.950287,-459.657299,-1406.391290,8660.409521
4030.950602,-766.095498,-1554.432478,8512.368333
4030.950917,-995.924147,-1554.432478,8734.430116
4030.951232,-842.705048,-1184.329507,9326.594869
4030.951548,-1378.971896,-370.102971,9918.759623
4030.951863,-1378.971896,-0.000000,10066.800811
4030.952178,-842.705048,-0.000000,10584.944971
4030.952493,0.000000,888.247130,11177.109724
4030.952808,689.485948,1258.350101,10362.883188
4030.953123,383.047749,1036.288319,10584.944971
4030.953438,689.485948,1184.329507,10658.965565
4030.953753,1072.533697,1406.391290,10362.883188
4030.954068,1225.752797,1110.308913,9918.759623
4030.954383,1685.410096,740.205942,9770.718434
4030.954698,1378.971896,148.041188,9326.594869
4030.955013,842.705048,-666.185348,8586.388927
4030.955328,766.095498,-1332.370696,8438.347739
4030.955643,0.000000,-1332.370696,8512.368333
4030.955959,-689.485948,-1554.432478,8290.306550
4030.956274,-766.095498,-1628.453072,8290.306550
4030.956589,-995.924147,-1036.288319,8438.347739
4030.956904,-1072.533697,-518.144159,9030.512492
4030.957219,-1149.143247,-444.123565,9326.594869
4030.957534,-1225.752797,222.061783,9918.759623
4030.957849,-1149.143247,518.144159,10214.842000
4030.958164,-229.828649,814.226536,10510.924376
4030.958479,689.485948,1184.329507,10658.965565
4030.958794,689.485948,1480.411884,10732.986159
4030.959109,1149.143247,1702.473667,10807.006753
4030.959424,1302.362347,1480.411884,10362.883188
4030.959739,1685.410096,1110.308913,9992.780217
4030.960054,1455.581446,814.226536,9252.574275
4030.960370,1685.410096,222.061783,9104.533087
4030.960685,995.924147,-518.144159,9178.553681
4030.961000,383.047749,-888.247130,8660.409521
4030.961315,459.657299,-1110.308913,8290.306550
4030.961630,-689.485948,-1332.370696,8438.347739
4030.961945,-919.314598,-888.247130,8660.409521
4030.962260,-1378.971896,-1036.288319,9178.553681
4030.962575,-1608.800546,-888.247130,9252.574275
4030.962890,-1455.581446,-222.061783,9696.697840
4030.963205,-1378.971896,444.123565,9918.759623
4030.963520,-766.095498,888.247130,10510.924376
4030.963835,0.000000,1184.329507,11029.068536
4030.964150,306.438199,1702.473667,11103.089130
4030.964465,689.485948,2368.659014,10881.027347
4030.964781,919.314598,1850.514855,10436.903782
4030.965096,1378.971896,1628.453072,10510.924376
4030.965411,1455.581446,1702.473667,10066.800811
4030.965726,1378.971896,1110.308913,9400.615463
4030.966041,1302.362347,-0.000000,9252.574275
4030.966356,612.876398,-74.020594,8660.409521
4030.966671,229.828649,-740.205942,8734.430116
4030.966986,-153.219100,-888.247130,8512.368333
4030.967301,-919.314598,-1184.329507,8512.368333
4030.967616,-1072.533697,-962.267725,8364.327145
4030.967931,-1455.581446,-444.123565,8882.471304
4030.968246,-1378.971896,-148.041188,9178.553681
4030.968561,-1455.581446,-0.000000,9918.759623
4030.968876,-1532.190996,518.144159,10066.800811
4030.969192,-536.266849,962.267725,10362.883188
4030.969507,-229.828649,1332.370696,11177.109724
4030.969822,689.485948,1628.453072,11177.109724
4030.970137,766.095498,1850.514855,11029.068536
4030.970452,1072.533697,1628.453072,10658.965565
4030.970767,1532.190996,1554.432478,9992.780217
4030.971082,1378.971896,1406.391290,9770.718434
4030.971397,1378.971896,740.205942,9622.677246
4030.971712,995.924147,222.061783,9400.615463
4030.972027,612.876398,-222.061783,8512.368333
4030.972342,76.609550,-1258.350101,8290.306550
4030.972657,-383.047749,-1406.391290,8734.430116
4030.972972,-689.485948,-1480.411884,9030.512492
4030.973288,-1149.143247,-1628.453072,8586.388927
4030.973603,-1455.581446,-1332.370696,9030.512492
4030.973918,-1225.752797,-666.185348,9326.594869
4030.974233,-1225.752797,-222.061783,9844.739029
4030.974548,-919.314598,222.061783,9770.718434
4030.974863,-766.095498,370.102971,10732.986159
4030.975178,76.609550,962.267725,10658.965565
4030.975493,536.266849,1184.329507,10510.924376
4030.975808,842.705048,1554.432478,10732.986159
4030.976123,919.314598,1628.453072,10807.006753
4030.976438,1838.629195,962.267725,10436.903782
4030.976753,1455.581446,666.185348,9696.697840
4030.977068,1455.581446,370.102971,9474.636058
4030.977383,1302.362347,-222.061783,9326.594869
4030.977699,612.876398,-740.205942,8438.347739
4030.978014,153.219100,-1184.329507,8142.265362
4030.978329,0.000000,-1702.473667,8364.327145
4030.978644,-459.657299,-1480.411884,8364.327145
4030.978959,-459.657299,-1554.432478,8438.347739
4030.979274,-995.924147,-962.267725,8438.347739
4030.979589,-919.314598,-518.144159,9030.512492
4030.979904,-383.047749,-74.020594,9844.739029
4030.980219,-1149.143247,296.082377,10140.821405
4030.980534,-153.219100,592.164754,10214.842000
4030.980849,76.609550,814.226536,10881.027347
4030.981164,536.266849,1110.308913,10732.986159
4030.981479,689.485948,1110.308913,10881.027347
4030.981794,1072.533697,1110.308913,10807.006753
4030.982110,1149.143247,1184.329507,10807.006753
4030.982425,1378.971896,888.247130,9992.780217
4030.982740,1532.190996,814.226536,9104.533087
4030.983055,1225.752797,-0.000000,8734.430116
4030.983370,919.314598,-444.123565,8956.491898
4030.983685,306.438199,-1184.329507,8808.450710
4030.984000,-383.047749,-1184.329507,8290.306550
4030.984315,-383.047749,-1702.473667,8660.409521
4030.984630,-842.705048,-1628.453072,8734.430116
4030.984945,-842.705048,-1184.329507,9178.553681
4030.985260,-1225.752797,-592.164754,9400.615463
4030.985575,-1455.581446,-296.082377,9918.759623
4030.985890,-1225.752797,444.123565,10214.842000
4030.986205,-995.924147,1332.370696,10436.903782
4030.986521,76.609550,1184.329507,10732.986159
4030.986836,383.047749,1702.473667,10732.986159
4030.987151,919.314598,1554.432478,10955.047942
4030.987466,1149.143247,1332.370696,10214.842000
4030.987781,1685.410096,1554.432478,10214.842000
4030.988096,2145.067394,1258.350101,9770.718434
4030.988411,1608.800546,592.164754,9622.677246
4030.988726,1378.971896,-0.000000,8956.491898
4030.989041,766.095498,-148.041188,8808.450710
4030.989356,383.047749,-888.247130,8142.265362
4030.989671,0.000000,-1258.350101,8660.409521
4030.989986,-766.095498,-1184.329507,8216.285956
4030.990301,-1225.752797,-740.205942,8512.368333
4030.990616,-1072.533697,-1036.288319,8586.388927
4030.990932,-1149.143247,-518.144159,9548.656652
4030.991247,-1149.143247,444.123565,9696.697840
4030.991562,-1302.362347,518.144159,10214.842000
4030.991877,-689.485948,1110.308913,10584.944971
4030.992192,-306.438199,1184.329507,10881.027347
4030.992507,459.657299,1776.494261,10881.027347
4030.992822,383.047749,1480.411884,10881.027347
4030.993137,612.876398,1480.411884,10510.924376
4030.993452,1149.143247,1702.473667,10362.883188
4030.993767,1455.581446,1406.391290,9992.780217
4030.994082,1455.581446,1036.288319,9474.636058
4030.994397,766.095498,222.061783,9252.574275
4030.994712,306.438199,-444.123565,8734.430116
4030.995027,0.000000,-962.267725,8586.388927
4030.995343,-306.438199,-1110.308913,8512.368333
4030.995658,-766.095498,-1332.370696,8586.388927
4030.995973,-1149.143247,-1702.473667,8660.409521
4030.996288,-1378.971896,-888.247130,8956.491898
4030.996603,-919.314598,-222.061783,9104.533087
4030.996918,-1072.533697,444.123565,9548.656652
4030.997233,-842.705048,814.226536,9918.759623
4030.997548,-383.047749,1258.350101,10510.924376
4030.997863,0.000000,1554.432478,10807.006753
4030.998178,536.266849,1850.514855,10584.944971
4030.998493,995.924147,1702.473667,10732.986159
4030.998808,1225.752797,1480.411884,10732.986159
4030.999123,1225.752797,1184.329507,10436.903782
4030.999438,1762.019645,740.205942,9844.739029
4030.999754,1532.190996,222.061783,9326.594869
4031.000069,1608.800546,-0.000000,8956.491898
4031.000384,1072.533697,-296.082377,8734.430116
4031.000699,612.876398,-740.205942,8734.430116
4031.001014,0.000000,-1184.329507,8438.347739
4031.001329,0.000000,-1258.350101,8068.244768
4031.001644,-536.266849,-1332.370696,8364.327145
4031.001959,-766.095498,-592.164754,9104.533087
4031.002274,-1072.533697,-666.185348,9400.615463
4031.002589,-1225.752797,-222.061783,9696.697840
4031.002904,-1532.190996,370.102971,10288.862594
4031.003219,-612.876398,518.144159,10510.924376
4031.003534,306.438199,518.144159,10881.027347
4031.003849,689.485948,1258.350101,10881.027347
4031.004165,995.924147,1480.411884,10955.047942
4031.004480,1149.143247,1332.370696,10214.842000
4031.004795,1302.362347,1184.329507,10140.821405
4031.005110,1532.190996,814.226536,9696.697840
4031.005425,1532.190996,296.082377,9178.553681
4031.005740,1608.800546,-74.020594,9178.553681
4031.006055,689.485948,-1258.350101,8660.409521
4031.006370,76.609550,-1628.453072,8586.388927
4031.006685,-689.485948,-1702.473667,8586.388927
4031.007000,-995.924147,-1850.514855,8808.450710
4031.007315,-842.705048,-1628.453072,8660.409521
4031.007631,-766.095498,-962.267725,9400.615463
4031.007946,-995.924147,-814.226536,9400.615463
4031.008261,-1072.533697,-148.041188,9548.656652
4031.008576,-1072.533697,222.061783,9622.677246
4031.008891,306.438199,888.247130,10066.800811
4031.009206,0.000000,1036.288319,10362.883188
4031.009521,383.047749,1406.391290,10362.883188
4031.009836,689.485948,1184.329507,10658.965565
4031.010151,766.095498,888.247130,10584.944971
4031.010466,1378.971896,1036.288319,10066.800811
4031.010781,1532.190996,666.185348,9548.656652
4031.011097,1225.752797,-0.000000,9474.636058
4031.011412,919.314598,-222.061783,9030.512492
4031.011727,459.657299,-740.205942,8660.409521
4031.012042,0.000000,-1258.350101,7920.203579
4031.012357,-229.828649,-1258.350101,8290.306550
4031.012672,-536.266849,-1184.329507,8956.491898
4031.012987,-1072.533697,-1110.308913,8290.306550
4031.013302,-1149.143247,-518.144159,8956.491898
4031.013617,-1455.581446,-296.082377,9474.636058
4031.013932,-1225.752797,-74.020594,9918.759623
4031.014247,-1149.143247,370.102971,10288.862594
4031.014562,-842.705048,888.247130,10732.986159
4031.014878,0.000000,1332.370696,10955.047942
4031.015193,842.705048,1406.391290,10732.986159
4031.015508,842.705048,1554.432478,11029.068536
4031.015823,1225.752797,1406.391290,10510.924376
4031.016138,995.924147,1332.370696,10140.821405
4031.016453,1455.581446,1258.350101,9474.636058
4031.016768,1991.848295,518.144159,9474.636058
4031.017083,1225.752797,-74.020594,9030.512492
4031.017398,842.705048,-740.205942,8808.450710
4031.017713,0.000000,-1110.308913,8586.388927
4031.018028,-306.438199,-1258.350101,8512.368333
4031.018344,-536.266849,-1332.370696,8734.430116
4031.018659,-459.657299,-1258.350101,8734.430116
4031.018974,-1225.752797,-740.205942,9104.533087
4031.019289,-1072.533697,-0.000000,9474.636058
4031.019604,-919.314598,592.164754,9178.553681
4031.019919,-689.485948,1332.370696,9548.656652
4031.020234,-612.876398,1480.411884,10362.883188
4031.020549,-153.219100,1406.391290,10510.924376
4031.020864,306.438199,1998.556043,10510.924376
4031.021179,612.876398,1924.535449,10807.006753
4031.021494,612.876398,1924.535449,10881.027347
4031.021810,1302.362347,1258.350101,10584.944971
4031.022125,1455.581446,1258.350101,10288.862594
4031.022440,1455.581446,962.267725,9474.636058
4031.022755,1149.143247,222.061783,8586.388927
4031.023070,689.485948,-0.000000,8290.306550
4031.023385,306.438199,-740.205942,8734.430116
4031.023700,-229.828649,-740.205942,8216.285956
4031.024015,-459.657299,-962.267725,8290.306550
4031.024330,-842.705048,-888.247130,8216.285956
4031.024645,-1072.533697,-666.185348,9178.553681
4031.024960,-1378.971896,-222.061783,9474.636058
4031.025276,-1378.971896,296.082377,10066.800811
4031.025591,-1378.971896,592.164754,10362.883188
4031.025906,-689.485948,814.226536,11103.089130
4031.026221,-306.438199,1258.350101,11103.089130
4031.026536,306.438199,1480.411884,11029.068536
4031.026851,612.876398,1406.391290,11029.068536
4031.027166,995.924147,1480.411884,10436.903782
4031.027481,1455.581446,1554.432478,10288.862594
4031.027796,1838.629195,962.267725,9548.656652
4031.028111,1378.971896,518.144159,9326.594869
4031.028426,842.705048,-0.000000,9104.533087
4031.028742,306.438199,-666.185348,8734.430116
4031.029057,-153.219100,-1332.370696,8586.388927
4031.029372,-459.657299,-1628.453072,8808.450710
4031.029687,-536.266849,-1702.473667,8734.430116
4031.030002,-995.924147,-1406.391290,8660.409521
4031.030317,-995.924147,-1406.391290,9030.512492
4031.030632,-1378.971896,-666.185348,9770.718434
4031.030947,-1455.581446,-0.000000,9992.780217
4031.031262,-1072.533697,-0.000000,9696.697840
4031.031577,-383.047749,666.185348,10510.924376
4031.031892,153.219100,962.267725,10881.027347
4031.032208,689.485948,1332.370696,10807.006753
4031.032523,995.924147,1184.329507,10807.006753
4031.032838,1685.410096,1184.329507,10436.903782
4031.033153,1532.190996,962.267725,10584.944971
4031.033468,1991.848295,888.247130,9622.677246
4031.033783,1685.410096,-0.000000,9104.533087
4031.034098,1532.190996,-148.041188,9326.594869
4031.034413,919.314598,-888.247130,8660.409521
4031.034728,536.266849,-1554.432478,8512.368333
4031.035043,-383.047749,-1850.514855,8808.450710
4031.035358,-536.266849,-1480.411884,8586.388927
4031.035674,-995.924147,-1554.432478,8290.306550
4031.035989,-1149.143247,-1332.370696,9104.533087
4031.036304,-1455.581446,-740.205942,9918.759623
4031.036619,-1072.533697,-370.102971,9474.636058
4031.036934,-995.924147,-0.000000,10066.800811
4031.037249,-306.438199,370.102971,10288.862594
4031.037564,383.047749,814.226536,10807.006753
4031.037879,612.876398,518.144159,9918.759623
4031.038194,919.314598,1258.350101,10362.883188
4031.038509,1149.143247,1258.350101,10214.842000
4031.038824,1225.752797,962.267725,9992.780217
4031.039139,1532.190996,740.205942,9474.636058
4031.039455,1149.143247,370.102971,9474.636058
4031.039770,766.095498,-370.102971,8734.430116
4031.040085,306.438199,-1332.370696,8586.388927
4031.040400,0.000000,-1480.411884,8956.491898
4031.040715,-612.876398,-1628.453072,8734.430116
4031.041030,-842.705048,-1850.514855,7846.182985
4031.041345,-842.705048,-1184.329507,8660.409521
4031.041660,-766.095498,-666.185348,9326.594869
4031.041975,-919.314598,-0.000000,8808.450710
4031.042290,-1225.752797,222.061783,9474.636058
4031.042605,-1072.533697,592.164754,9770.718434
4031.042921,-306.438199,1332.370696,10658.965565
4031.043236,0.000000,1776.494261,10510.924376
4031.043551,536.266849,1628.453072,10807.006753
4031.043866,919.314598,1628.453072,11547.212695
4031.044181,919.314598,1480.411884,10955.047942
4031.044496,1302.362347,1702.473667,10436.903782
4031.044811,1378.971896,1184.329507,10214.842000
4031.045126,1225.752797,962.267725,9400.615463
4031.045441,1455.581446,-74.020594,9030.512492
4031.045756,689.485948,-148.041188,8586.388927
4031.046071,383.047749,-666.185348,8512.368333
4031.046387,-306.438199,-592.164754,8142.265362
4031.046702,-689.485948,-962.267725,8438.347739
4031.047017,-1532.190996,-962.267725,8882.471304
4031.047332,-1378.971896,-814.226536,9326.594869
4031.047647,-1685.410096,-148.041188,9622.677246
4031.047962,-1685.410096,370.102971,10288.862594
4031.048277,-1225.752797,666.185348,10732.986159
4031.048592,-306.438199,1110.308913,10955.047942
4031.048907,76.609550,1702.473667,10658.965565
4031.049222,842.705048,2072.576638,10658.965565
4031.049537,1225.752797,2072.576638,10658.965565
4031.049853,1302.362347,2072.576638,10214.842000
4031.050168,1608.800546,1554.432478,10066.800811
4031.050483,2221.676944,1036.288319,9474.636058
4031.050798,1532.190996,814.226536,9030.512492
4031.051113,842.705048,-814.226536,9104.533087
4031.051428,306.438199,-1110.308913,8956.491898
4031.051743,0.000000,-1554.432478,9030.512492
4031.052058,-842.705048,-1776.494261,8734.430116
4031.052373,-919.314598,-1702.473667,8734.430116
4031.052688,-1378.971896,-1110.308913,8586.388927
4031.053003,-1455.581446,-592.164754,9104.533087
