#time,accel_x,accel_y,accel_z
4133.818502,0.000000,222.061783,9770.718434
4133.818818,383.047749,296.082377,9400.615463
4133.819133,76.609550,-0.000000,9474.636058
4133.819448,0.000000,296.082377,9992.780217
4133.819764,0.000000,222.061783,9770.718434
4133.820079,0.000000,296.082377,9326.594869
4133.820394,0.000000,148.041188,9178.553681
4133.820710,229.828649,-148.041188,9252.574275
4133.821025,153.219100,-0.000000,9548.656652
4133.821341,0.000000,-0.000000,9474.636058
4133.821656,153.219100,-0.000000,9474.636058
4133.821971,-229.828649,444.123565,9548.656652
4133.822287,229.828649,296.082377,9474.636058
4133.822602,0.000000,-74.020594,9548.656652
4133.822917,153.219100,296.082377,9844.739029
4133.823233,76.609550,-0.000000,9400.615463
4133.823548,0.000000,-0.000000,9548.656652
4133.823864,306.438199,-0.000000,10066.800811
4133.824179,153.219100,222.061783,9548.656652
4133.824494,0.000000,148.041188,9400.615463
4133.824810,459.657299,444.123565,9326.594869
4133.825125,306.438199,222.061783,9474.636058
4133.825440,306.438199,-0.000000,9474.636058
4133.825756,0.000000,222.061783,9770.718434
4133.826071,153.219100,-0.000000,9770.718434
4133.826387,0.000000,370.102971,9844.739029
4133.826702,0.000000,-0.000000,9548.656652
4133.827017,0.000000,222.061783,9622.677246
4133.827333,0.000000,222.061783,9844.739029
4133.827648,0.000000,-0.000000,9696.697840
4133.827963,229.828649,-0.000000,9474.636058
4133.828279,153.219100,222.061783,9622.677246
4133.828594,0.000000,222.061783,9548.656652
4133.828910,0.000000,148.041188,9770.718434
4133.829225,0.000000,370.102971,9474.636058
4133.829540,459.657299,-0.000000,9474.636058
4133.829856,-76.609550,-148.041188,9178.553681
4133.830171,229.828649,-0.000000,9548.656652
4133.830486,0.000000,222.061783,9844.739029
4133.830802,0.000000,-0.000000,9400.615463
4133.831117,76.609550,-0.000000,9696.697840
4133.831433,0.000000,-0.000000,9474.636058
4133.831748,76.609550,-0.000000,9770.718434
4133.832063,229.828649,-0.000000,9474.636058
4133.832379,0.000000,-0.000000,9474.636058
4133.832694,306.438199,370.102971,9992.780217
4133.833009,153.219100,-0.000000,9326.594869
4133.833325,153.219100,-0.000000,9474.636058
4133.833640,76.609550,-0.000000,9918.759623
4133.833955,0.000000,-0.000000,9474.636058
4133.834271,0.000000,-0.000000,9844.739029
4133.834586,153.219100,-0.000000,9622.677246
4133.834902,76.609550,148.041188,9844.739029
4133.835217,76.609550,222.061783,9474.636058
4133.835532,76.609550,-0.000000,9474.636058
4133.835848,153.219100,296.082377,9770.718434
4133.836163,76.609550,222.061783,9696.697840
4133.836478,0.000000,222.061783,9844.739029
4133.836794,0.000000,444.123565,9622.677246
4133.837109,383.047749,-0.000000,9622.677246
4133.837425,0.000000,-0.000000,9622.677246
4133.837740,0.000000,222.061783,9770.718434
4133.838055,0.000000,296.082377,9696.697840
4133.838371,0.000000,296.082377,9548.656652
4133.838686,153.219100,148.041188,9770.718434
4133.839001,383.047749,-0.000000,9696.697840
4133.839317,-459.657299,148.041188,9474.636058
4133.839632,0.000000,444.123565,9696.697840
4133.839948,0.000000,222.061783,9622.677246
4133.840263,153.219100,296.082377,9548.656652
4133.840578,76.609550,222.061783,9474.636058
4133.840894,0.000000,222.061783,9474.636058
4133.841209,0.000000,370.102971,10066.800811
4133.841524,0.000000,148.041188,9918.759623
4133.841840,153.219100,296.082377,9548.656652
4133.842155,0.000000,-0.000000,9770.718434
4133.842471,76.609550,-0.000000,9696.697840
4133.842786,229.828649,370.102971,9548.656652
4133.843101,0.000000,148.041188,9474.636058
4133.843417,0.000000,-148.041188,9844.739029
4133.843732,306.438199,-0.000000,9178.553681
4133.844047,153.219100,222.061783,9178.553681
4133.844363,76.609550,-0.000000,9622.677246
4133.844678,0.000000,-0.000000,9474.636058
4133.844994,76.609550,-0.000000,9548.656652
4133.845309,0.000000,222.061783,9622.677246
4133.845624,0.000000,296.082377,9622.677246
4133.845940,-306.438199,518.144159,9400.615463
4133.846255,-536.266849,296.082377,9548.656652
4133.846570,-766.095498,296.082377,9770.718434
4133.846886,-459.657299,370.102971,9474.636058
4133.847201,-459.657299,296.082377,9622.677246
4133.847517,-689.485948,666.185348,9770.718434
4133.847832,-459.657299,592.164754,9474.636058
4133.848147,0.000000,518.144159,9770.718434
4133.848463,-229.828649,444.123565,9548.656652
4133.848778,-536.266849,740.205942,9548.656652
4133.849093,-689.485948,1480.411884,9326.594869
4133.849409,-842.705048,1258.350101,8956.491898
4133.849724,-1302.362347,1480.411884,9178.553681
4133.850040,-1608.800546,1332.370696,9252.574275
4133.850355,-2145.067394,1184.329507,9178.553681
4133.850670,-2221.676944,1110.308913,9474.636058
4133.850986,-2451.505594,1184.329507,9548.656652
4133.851301,-2604.724693,1406.391290,9474.636058
4133.851616,-2681.334243,1480.411884,9696.697840
4133.851932,-2911.162892,1628.453072,9770.718434
4133.852247,-2911.162892,1628.453072,9918.759623
4133.852562,-3064.381992,1924.535449,9326.594869
4133.852878,-2221.676944,2590.720797,9400.615463
4133.853193,-2528.115143,2442.679609,9104.533087
4133.853509,-2604.724693,3034.844362,9474.636058
4133.853824,-2374.896044,3108.864956,9474.636058
4133.854139,-2757.943793,2738.761985,9252.574275
4133.854455,-2681.334243,2368.659014,9548.656652
4133.854770,-2451.505594,2812.782580,9844.739029
4133.855085,-2451.505594,2590.720797,10140.821405
4133.855401,-2528.115143,2442.679609,10214.842000
4133.855716,-2145.067394,2294.638420,10140.821405
4133.856032,-1608.800546,2072.576638,9918.759623
4133.856347,-919.314598,2664.741391,9696.697840
4133.856662,-842.705048,3108.864956,9178.553681
4133.856978,-842.705048,3701.029710,8660.409521
4133.857293,-766.095498,4071.132681,8364.327145
4133.857608,-1149.143247,4145.153275,8364.327145
4133.857924,-1072.533697,3997.112087,8882.471304
4133.858239,-2145.067394,3552.988522,9474.636058
4133.858555,-2451.505594,2812.782580,10140.821405
4133.858870,-3294.210641,2516.700203,10510.924376
4133.859185,-2834.553343,2590.720797,11473.192101
4133.859501,-2834.553343,2220.617826,11843.295072
4133.859816,-2834.553343,2812.782580,11251.130318
4133.860131,-2451.505594,3478.967927,10584.944971
4133.860447,-1991.848295,4219.173869,9474.636058
4133.860762,-1762.019645,4589.276840,9030.512492
4133.861078,-1378.971896,4737.318029,8882.471304
4133.861393,-1838.629195,4589.276840,8808.450710
4133.861708,-2221.676944,4145.153275,8956.491898
4133.862024,-1915.238745,3182.885551,9178.553681
4133.862339,-2068.457845,2738.761985,9844.739029
4133.862654,-2451.505594,1998.556043,10732.986159
4133.862970,-2757.943793,1554.432478,11547.212695
4133.863285,-2451.505594,1628.453072,11177.109724
4133.863601,-1762.019645,2072.576638,11251.130318
4133.863916,-842.705048,1850.514855,10510.924376
4133.864231,-306.438199,2516.700203,9918.759623
4133.864547,153.219100,3034.844362,9178.553681
4133.864862,1072.533697,2960.823768,8364.327145
4133.865177,842.705048,3923.091493,7624.121203
4133.865493,76.609550,3775.050304,7179.997637
4133.865808,-689.485948,3478.967927,7994.224174
4133.866124,-1762.019645,2738.761985,8512.368333
4133.866439,-2604.724693,1702.473667,8808.450710
4133.866754,-3524.039291,1110.308913,9992.780217
4133.867070,-4213.525239,592.164754,11399.171507
4133.867385,-4749.792088,-0.000000,11621.233289
4133.867700,-4749.792088,-74.020594,11251.130318
4133.868016,-3907.087040,666.185348,11399.171507
4133.868331,-3217.601092,888.247130,10807.006753
4133.868647,-2145.067394,1406.391290,10732.986159
4133.868962,-766.095498,2368.659014,10066.800811
4133.869277,229.828649,2812.782580,8956.491898
4133.869593,766.095498,3701.029710,8142.265362
4133.869908,536.266849,3330.926739,8142.265362
4133.870223,229.828649,2960.823768,7698.141797
4133.870539,-1072.533697,2960.823768,7698.141797
4133.870854,-1762.019645,2072.576638,7624.121203
4133.871170,-3140.991542,666.185348,7846.182985
4133.871485,-3753.867940,-148.041188,8808.450710
4133.871800,-5209.449386,-740.205942,9770.718434
4133.872116,-5362.668486,-1554.432478,11399.171507
4133.872431,-5362.668486,-1110.308913,10214.842000
4133.872746,-5209.449386,-1110.308913,11991.336260
4133.873062,-3524.039291,-962.267725,12065.356855
4133.873377,-2374.896044,-444.123565,11621.233289
4133.873692,0.000000,1480.411884,10362.883188
4133.874008,1225.752797,2590.720797,9326.594869
4133.874323,1991.848295,5033.400406,7698.141797
4133.874639,2451.505594,5995.668130,6735.874072
4133.874954,2298.286494,6143.709319,5107.421000
4133.875269,995.924147,4737.318029,5625.565159
4133.875585,-1072.533697,4737.318029,5921.647536
4133.875900,-3753.867940,2294.638420,8216.285956
4133.876215,-5515.887586,-740.205942,11103.089130
4133.876531,-6971.469032,-3701.029710,13323.706956
4133.876846,-7354.516781,-4367.215058,13693.809927
4133.877162,-7124.688131,-4441.235652,15174.221811
4133.877477,-5286.058936,-2812.782580,14063.912898
4133.877792,-3140.991542,-74.020594,11251.130318
4133.878108,0.000000,3552.988522,8364.327145
4133.878423,1532.190996,6513.812290,6513.812290
4133.878738,2681.334243,9474.636058,4441.235652
4133.879054,2681.334243,10288.862594,3478.967927
4133.879369,1532.190996,8882.471304,4737.318029
4133.879685,229.828649,6513.812290,8142.265362
4133.880000,-842.705048,3034.844362,11029.068536
4133.880315,-3524.039291,-1110.308913,13101.645173
4133.880631,-4903.011187,-2886.803174,15544.324782
4133.880946,-4979.620737,-3330.926739,15470.304188
4133.881261,-4596.572988,-2664.741391,13767.830521
4133.881577,-3447.429741,-222.061783,11177.109724
4133.881892,-2068.457845,2516.700203,9992.780217
4133.882208,-919.314598,5773.606348,7031.956449
4133.882523,153.219100,6661.853478,4811.338623
4133.882838,1838.629195,7328.038826,4885.359217
4133.883154,689.485948,6809.894666,6365.771101
4133.883469,-306.438199,4737.318029,8512.368333
4133.883784,-536.266849,1850.514855,10584.944971
4133.884100,-383.047749,518.144159,11843.295072
4133.884415,76.609550,-222.061783,12583.501014
4133.884731,-229.828649,222.061783,13175.665768
4133.885046,-842.705048,1036.288319,11917.315666
4133.885361,-459.657299,1332.370696,11251.130318
4133.885677,-306.438199,2738.761985,9918.759623
4133.885992,-459.657299,3404.947333,7772.162391
4133.886307,-1302.362347,2812.782580,7402.059420
4133.886623,-1225.752797,2368.659014,7550.100608
4133.886938,-1302.362347,1332.370696,7920.203579
4133.887254,-766.095498,814.226536,8438.347739
4133.887569,-1378.971896,444.123565,10362.883188
4133.887884,-1532.190996,666.185348,11695.253884
4133.888200,-919.314598,-0.000000,12731.542202
4133.888515,0.000000,-222.061783,12583.501014
4133.888830,459.657299,-222.061783,11991.336260
4133.889146,459.657299,-0.000000,10881.027347
4133.889461,1225.752797,888.247130,8956.491898
4133.889777,1838.629195,2368.659014,6883.915261
4133.890092,1302.362347,3478.967927,6291.750507
4133.890407,383.047749,3775.050304,6291.750507
4133.890723,0.000000,2664.741391,7550.100608
4133.891038,-1532.190996,1184.329507,9178.553681
4133.891353,-2451.505594,-1628.453072,11177.109724
4133.891669,-2604.724693,-3923.091493,12139.377449
4133.891984,-1991.848295,-4589.276840,12953.603985
4133.892299,-919.314598,-3997.112087,12509.480420
4133.892615,-459.657299,-2368.659014,11399.171507
4133.892930,842.705048,-740.205942,10510.924376
4133.893246,2068.457845,1480.411884,8808.450710
4133.893561,3064.381992,2516.700203,7624.121203
4133.893876,2068.457845,4071.132681,6513.812290
4133.894192,1072.533697,3404.947333,6069.688724
4133.894507,842.705048,1110.308913,6291.750507
4133.894822,383.047749,-592.164754,7402.059420
4133.895138,-842.705048,-2146.597232,9104.533087
4133.895453,-1149.143247,-3034.844362,10807.006753
4133.895768,-1838.629195,-2960.823768,11917.315666
4133.896084,-2221.676944,-3701.029710,12805.562797
4133.896399,-2145.067394,-3330.926739,12583.501014
4133.896715,-1762.019645,-3849.070898,12065.356855
4133.897030,-1072.533697,-2368.659014,10214.842000
4133.897345,0.000000,-740.205942,9178.553681
4133.897661,536.266849,740.205942,7254.018232
4133.897976,1072.533697,1480.411884,6513.812290
4133.898291,1455.581446,2072.576638,6587.832884
4133.898607,1225.752797,2220.617826,7105.977043
4133.898922,1072.533697,370.102971,8290.306550
4133.899237,766.095498,-1184.329507,9844.739029
4133.899553,459.657299,-2368.659014,10140.821405
4133.899868,153.219100,-3478.967927,11177.109724
4133.900183,-306.438199,-3034.844362,11843.295072
4133.900499,-459.657299,-2590.720797,11103.089130
4133.900814,-306.438199,-2294.638420,10658.965565
4133.901130,-306.438199,-148.041188,9844.739029
4133.901445,-229.828649,370.102971,8734.430116
4133.901760,76.609550,-0.000000,8142.265362
4133.902076,153.219100,814.226536,6957.935855
4133.902391,536.266849,-0.000000,7328.038826
4133.902706,1149.143247,444.123565,8068.244768
4133.903022,689.485948,222.061783,9326.594869
4133.903337,919.314598,-444.123565,10436.903782
4133.903652,995.924147,-592.164754,11177.109724
4133.903968,1225.752797,-814.226536,11177.109724
4133.904283,1685.410096,-1332.370696,11103.089130
4133.904599,1532.190996,-0.000000,9696.697840
4133.904914,842.705048,1702.473667,8216.285956
4133.905229,153.219100,2146.597232,7624.121203
4133.905545,459.657299,2738.761985,7846.182985
4133.905860,0.000000,2368.659014,7476.080014
4133.906175,-383.047749,1036.288319,9104.533087
4133.906491,-766.095498,-370.102971,10140.821405
4133.906806,-689.485948,-1258.350101,10658.965565
4133.907121,0.000000,-1480.411884,11325.150913
4133.907437,-153.219100,-370.102971,11399.171507
4133.907752,0.000000,444.123565,11547.212695
4133.908068,536.266849,1258.350101,10807.006753
4133.908383,1455.581446,2368.659014,9992.780217
4133.908698,1532.190996,3256.906145,8808.450710
4133.909014,1608.800546,3330.926739,8290.306550
4133.909329,1378.971896,2442.679609,7550.100608
4133.909644,842.705048,2146.597232,8142.265362
4133.909960,0.000000,1480.411884,9178.553681
4133.910275,-995.924147,1184.329507,10214.842000
4133.910590,-1302.362347,-0.000000,11473.192101
4133.910906,-1608.800546,-296.082377,12583.501014
4133.911221,-1762.019645,-592.164754,12879.583391
4133.911537,-1762.019645,-1258.350101,12509.480420
4133.911852,-766.095498,-814.226536,11843.295072
4133.912167,-536.266849,-296.082377,10436.903782
4133.912483,0.000000,1850.514855,9030.512492
4133.912798,383.047749,2812.782580,7846.182985
4133.913113,1149.143247,3849.070898,7328.038826
4133.913429,919.314598,3478.967927,7920.203579
4133.913744,612.876398,1850.514855,8142.265362
4133.914059,76.609550,592.164754,9844.739029
4133.914375,0.000000,-740.205942,10362.883188
4133.914690,-919.314598,-962.267725,11103.089130
4133.915006,-2298.286494,-592.164754,11769.274478
4133.915321,-2145.067394,-1258.350101,11695.253884
4133.915636,-1455.581446,-740.205942,11029.068536
4133.915952,-842.705048,-74.020594,10436.903782
4133.916267,-536.266849,444.123565,9400.615463
4133.916582,-306.438199,1184.329507,8734.430116
4133.916898,536.266849,1554.432478,7846.182985
4133.917213,766.095498,1554.432478,7402.059420
4133.917528,995.924147,1406.391290,7772.162391
4133.917844,995.924147,1480.411884,8438.347739
4133.918159,1072.533697,666.185348,9178.553681
4133.918474,459.657299,-148.041188,9770.718434
4133.918790,383.047749,-962.267725,10584.944971
4133.919105,229.828649,-1554.432478,10510.924376
4133.919421,76.609550,-2442.679609,10288.862594
4133.919736,153.219100,-1258.350101,9622.677246
4133.920051,-229.828649,-518.144159,8808.450710
4133.920367,383.047749,-0.000000,8438.347739
4133.920682,612.876398,444.123565,8660.409521
4133.920997,766.095498,740.205942,8438.347739
4133.921313,612.876398,-0.000000,8512.368333
4133.921628,689.485948,-444.123565,9178.553681
4133.921943,919.314598,-1184.329507,9548.656652
4133.922259,689.485948,-1332.370696,9770.718434
4133.922574,153.219100,-370.102971,10881.027347
4133.922890,0.000000,-592.164754,10732.986159
4133.923205,229.828649,-740.205942,10362.883188
4133.923520,383.047749,-518.144159,10066.800811
4133.923836,153.219100,-370.102971,9696.697840
4133.924151,306.438199,-592.164754,9326.594869
4133.924466,612.876398,-370.102971,8068.244768
4133.924782,0.000000,-222.061783,8808.450710
4133.925097,-459.657299,-0.000000,9030.512492
4133.925412,-383.047749,-0.000000,9770.718434
4133.925728,-842.705048,-296.082377,10436.903782
4133.926043,-842.705048,-888.247130,10881.027347
4133.926359,-383.047749,-1258.350101,10732.986159
4133.926674,0.000000,-1628.453072,10658.965565
4133.926989,229.828649,-1258.350101,10214.842000
4133.927305,383.047749,-222.061783,9400.615463
4133.927620,306.438199,370.102971,8586.388927
4133.927935,842.705048,1332.370696,9030.512492
4133.928251,1072.533697,1776.494261,8290.306550
4133.928566,612.876398,888.247130,8364.327145
4133.928881,383.047749,296.082377,8882.471304
4133.929197,229.828649,-74.020594,9400.615463
4133.929512,0.000000,-666.185348,9696.697840
4133.929828,-766.095498,-962.267725,9622.677246
4133.930143,-919.314598,-888.247130,10807.006753
4133.930458,0.000000,-296.082377,10362.883188
4133.930774,-76.609550,222.061783,10362.883188
4133.931089,0.000000,444.123565,9770.718434
4133.931404,536.266849,592.164754,9252.574275
4133.931720,1302.362347,666.185348,8956.491898
4133.932035,1072.533697,1406.391290,7920.203579
4133.932350,1072.533697,1776.494261,8068.244768
4133.932666,919.314598,1628.453072,8808.450710
4133.932981,689.485948,962.267725,9400.615463
4133.933297,76.609550,1036.288319,9918.759623
4133.933612,-229.828649,-0.000000,10288.862594
4133.933927,-536.266849,-666.185348,10436.903782
4133.934243,-229.828649,-1036.288319,10140.821405
4133.934558,0.000000,-962.267725,9992.780217
4133.934873,-383.047749,-0.000000,10510.924376
4133.935189,-459.657299,666.185348,9400.615463
4133.935504,383.047749,592.164754,9474.636058
4133.935819,689.485948,1998.556043,9474.636058
4133.936135,153.219100,1850.514855,8438.347739
4133.936450,153.219100,888.247130,8956.491898
4133.936765,536.266849,370.102971,9622.677246
4133.937081,536.266849,-0.000000,8882.471304
4133.937396,-612.876398,444.123565,9548.656652
4133.937712,-306.438199,666.185348,9918.759623
4133.938027,-459.657299,-296.082377,10955.047942
4133.938342,-383.047749,-0.000000,10584.944971
4133.938658,-536.266849,-0.000000,10658.965565
4133.938973,-689.485948,148.041188,10214.842000
4133.939288,0.000000,-0.000000,9844.739029
4133.939604,0.000000,1480.411884,8586.388927
4133.939919,-459.657299,1332.370696,8808.450710
4133.940234,306.438199,2368.659014,9326.594869
4133.940550,0.000000,1554.432478,9030.512492
4133.940865,-153.219100,1036.288319,9696.697840
4133.941181,0.000000,592.164754,10436.903782
4133.941496,-459.657299,-148.041188,10288.862594
4133.941811,306.438199,-814.226536,10140.821405
4133.942127,306.438199,-0.000000,9918.759623
4133.942442,0.000000,444.123565,9770.718434
4133.942757,153.219100,666.185348,9400.615463
4133.943073,995.924147,1184.329507,9178.553681
4133.943388,689.485948,1628.453072,9622.677246
4133.943703,536.266849,888.247130,9252.574275
4133.944019,766.095498,148.041188,9252.574275
4133.944334,536.266849,-0.000000,9474.636058
4133.944650,-229.828649,-444.123565,9326.594869
4133.944965,153.219100,-148.041188,9844.739029
4133.945280,459.657299,-370.102971,10510.924376
4133.945596,229.828649,-0.000000,10584.944971
4133.945911,459.657299,-296.082377,10510.924376
4133.946226,919.314598,-592.164754,9918.759623
4133.946542,919.314598,-666.185348,9992.780217
4133.946857,919.314598,-444.123565,9104.533087
4133.947172,612.876398,-222.061783,9178.553681
4133.947488,459.657299,148.041188,8808.450710
4133.947803,459.657299,148.041188,9474.636058
4133.948119,612.876398,-222.061783,9474.636058
4133.948434,76.609550,-814.226536,9622.677246
4133.948749,0.000000,-1036.288319,10288.862594
4133.949065,-229.828649,-1850.514855,9770.718434
4133.949380,306.438199,-1998.556043,9622.677246
4133.949695,76.609550,-1110.308913,9770.718434
4133.950011,-306.438199,-592.164754,9622.677246
4133.950326,306.438199,-370.102971,9474.636058
4133.950641,459.657299,296.082377,9474.636058
4133.950957,536.266849,-0.000000,9474.636058
4133.951272,383.047749,-444.123565,8586.388927
4133.951587,766.095498,-740.205942,8660.409521
4133.951903,306.438199,-444.123565,8882.471304
4133.952218,-229.828649,-148.041188,8808.450710
4133.952534,-459.657299,-0.000000,9622.677246
4133.952849,-306.438199,-518.144159,9770.718434
4133.953164,-153.219100,-444.123565,9992.780217
4133.953480,-612.876398,-666.185348,9696.697840
4133.953795,-229.828649,-592.164754,9548.656652
4133.954110,0.000000,-814.226536,9696.697840
4133.954426,153.219100,148.041188,9178.553681
4133.954741,-229.828649,518.144159,8808.450710
4133.955056,-229.828649,1480.411884,8808.450710
4133.955372,383.047749,1036.288319,8956.491898
4133.955687,76.609550,1036.288319,9252.574275
4133.956003,0.000000,518.144159,9622.677246
4133.956318,-536.266849,-0.000000,9844.739029
4133.956633,-229.828649,-296.082377,9400.615463
4133.956949,-536.266849,-148.041188,9992.780217
4133.957264,-842.705048,-0.000000,9992.780217
4133.957579,-612.876398,444.123565,9844.739029
4133.957895,-306.438199,666.185348,9992.780217
4133.958210,-612.876398,962.267725,9844.739029
4133.958525,-842.705048,814.226536,9474.636058
4133.958841,-766.095498,814.226536,8882.471304
4133.959156,0.000000,740.205942,9030.512492
4133.959472,0.000000,444.123565,9770.718434
4133.959787,-306.438199,518.144159,9992.780217
4133.960102,0.000000,814.226536,10362.883188
4133.960418,-306.438199,1036.288319,10658.965565
4133.960733,0.000000,962.267725,10732.986159
4133.961048,0.000000,444.123565,10584.944971
4133.961364,0.000000,-74.020594,10436.903782
4133.961679,766.095498,-74.020594,10288.862594
4133.961994,536.266849,962.267725,9030.512492
4133.962310,76.609550,1332.370696,8734.430116
4133.962625,459.657299,1110.308913,9474.636058
4133.962941,0.000000,1332.370696,9770.718434
4133.963256,689.485948,888.247130,10362.883188
4133.963571,0.000000,1184.329507,9474.636058
4133.963887,153.219100,-222.061783,10362.883188
4133.964202,1532.190996,222.061783,9844.739029
4133.964517,459.657299,1184.329507,9104.533087
4133.964833,459.657299,740.205942,10288.862594
4133.965148,1072.533697,444.123565,10288.862594
4133.965463,612.876398,1776.494261,9770.718434
4133.965779,536.266849,1332.370696,9622.677246
4133.966094,612.876398,1036.288319,9844.739029
4133.966410,995.924147,814.226536,9474.636058
4133.966725,1455.581446,518.144159,9104.533087
4133.967040,766.095498,592.164754,9252.574275
4133.967356,0.000000,888.247130,9104.533087
4133.967671,306.438199,518.144159,9696.697840
4133.967986,383.047749,518.144159,9696.697840
4133.968302,229.828649,74.020594,10214.842000
4133.968617,229.828649,-444.123565,9844.739029
4133.968932,76.609550,-666.185348,9548.656652
4133.969248,383.047749,-814.226536,9030.512492
4133.969563,612.876398,-370.102971,8808.450710
4133.969878,536.266849,-74.020594,8290.306550
4133.970194,842.705048,222.061783,9104.533087
4133.970509,536.266849,222.061783,9178.553681
4133.970825,153.219100,-0.000000,9178.553681
4133.971140,153.219100,-444.123565,9474.636058
4133.971455,229.828649,-1110.308913,9696.697840
4133.971771,0.000000,-666.185348,9696.697840
4133.972086,0.000000,-370.102971,9696.697840
4133.972401,0.000000,-888.247130,9474.636058
4133.972717,-153.219100,-962.267725,10658.965565
4133.973032,-306.438199,-222.061783,9992.780217
4133.973347,-612.876398,-814.226536,9844.739029
4133.973663,-536.266849,-814.226536,9474.636058
4133.973978,0.000000,-1036.288319,9326.594869
4133.974294,0.000000,-814.226536,8808.450710
4133.974609,76.609550,-296.082377,8882.471304
4133.974924,-689.485948,-0.000000,9474.636058
4133.975240,-612.876398,-74.020594,9474.636058
4133.975555,0.000000,-0.000000,9844.739029
4133.975870,-383.047749,-444.123565,9770.718434
4133.976186,-612.876398,-1258.350101,10362.883188
4133.976501,-306.438199,-888.247130,9918.759623
4133.976816,0.000000,-888.247130,9474.636058
4133.977132,0.000000,-0.000000,9474.636058
4133.977447,536.266849,296.082377,9696.697840
4133.977763,0.000000,814.226536,9474.636058
4133.978078,-306.438199,1184.329507,9548.656652
4133.978393,-536.266849,444.123565,9474.636058
4133.978709,76.609550,-296.082377,9770.718434
4133.979024,0.000000,-814.226536,9622.677246
4133.979339,0.000000,-444.123565,9252.574275
4133.979655,-229.828649,-0.000000,9474.636058
4133.979970,0.000000,296.082377,9622.677246
4133.980285,612.876398,592.164754,9770.718434
4133.980601,689.485948,1258.350101,9622.677246
4133.980916,229.828649,-0.000000,9474.636058
4133.981232,1149.143247,-518.144159,9474.636058
4133.981547,1378.971896,518.144159,9178.553681
4133.981862,842.705048,592.164754,8438.347739
4133.982178,459.657299,592.164754,9030.512492
4133.982493,536.266849,740.205942,9474.636058
4133.982808,229.828649,666.185348,9622.677246
4133.983124,306.438199,-0.000000,9770.718434
4133.983439,229.828649,-148.041188,10288.862594
4133.983754,229.828649,-888.247130,10214.842000
4133.984070,0.000000,-444.123565,9918.759623
4133.984385,0.000000,222.061783,9770.718434
4133.984700,0.000000,296.082377,9992.780217
4133.985016,919.314598,666.185348,9844.739029
4133.985331,1302.362347,1554.432478,9770.718434
4133.985647,1072.533697,1480.411884,9622.677246
4133.985962,995.924147,1184.329507,9548.656652
4133.986277,1072.533697,296.082377,9326.594869
4133.986593,919.314598,-0.000000,8956.491898
4133.986908,306.438199,-148.041188,9474.636058
4133.987223,0.000000,444.123565,9548.656652
4133.987539,306.438199,-0.000000,10066.800811
4133.987854,-766.095498,148.041188,9918.759623
4133.988169,-842.705048,296.082377,10214.842000
4133.988485,-766.095498,-74.020594,9992.780217
4133.988800,-459.657299,-74.020594,9918.759623
4133.989116,-383.047749,740.205942,9252.574275
4133.989431,-229.828649,962.267725,9030.512492
4133.989746,0.000000,1702.473667,9252.574275
4133.990062,0.000000,1702.473667,9622.677246
4133.990377,0.000000,1702.473667,9548.656652
4133.990692,-76.609550,666.185348,9696.697840
4133.991008,76.609550,962.267725,9474.636058
4133.991323,306.438199,-0.000000,9548.656652
4133.991638,0.000000,518.144159,8734.430116
4133.991954,-383.047749,888.247130,9474.636058
4133.992269,-536.266849,370.102971,9400.615463
4133.992585,-306.438199,444.123565,9326.594869
4133.992900,0.000000,666.185348,9474.636058
4133.993215,-536.266849,148.041188,9622.677246
4133.993531,-919.314598,-222.061783,9474.636058
4133.993846,0.000000,-444.123565,9992.780217
4133.994161,-76.609550,222.061783,9474.636058
4133.994477,-229.828649,296.082377,9474.636058
4133.994792,306.438199,592.164754,9474.636058
4133.995107,612.876398,222.061783,9844.739029
4133.995423,919.314598,296.082377,9918.759623
4133.995738,689.485948,296.082377,9918.759623
4133.996053,612.876398,296.082377,9844.739029
4133.996369,612.876398,-74.020594,9548.656652
4133.996684,536.266849,-0.000000,9474.636058
4133.996999,153.219100,-0.000000,9474.636058
4133.997315,229.828649,-0.000000,9400.615463
4133.997630,536.266849,-222.061783,10214.842000
4133.997945,-383.047749,-148.041188,10288.862594
4133.998261,-842.705048,-740.205942,10510.924376
4133.998576,-229.828649,-1332.370696,10288.862594
4133.998891,229.828649,-1776.494261,9844.739029
4133.999207,612.876398,-1258.350101,9844.739029
4133.999522,536.266849,-296.082377,9918.759623
4133.999837,536.266849,592.164754,9770.718434
4134.000153,919.314598,814.226536,9474.636058
4134.000468,1302.362347,888.247130,9326.594869
4134.000783,1225.752797,-0.000000,9252.574275
4134.001099,1149.143247,-296.082377,9178.553681
4134.001414,1225.752797,-962.267725,8808.450710
4134.001729,153.219100,-962.267725,8586.388927
4134.002045,-383.047749,-444.123565,9622.677246
4134.002360,-306.438199,-518.144159,9622.677246
4134.002675,-459.657299,-518.144159,9474.636058
4134.002991,-612.876398,-666.185348,10066.800811
4134.003306,-383.047749,-888.247130,9770.718434
4134.003622,-306.438199,-1406.391290,9622.677246
4134.003937,76.609550,-1110.308913,9252.574275
4134.004252,153.219100,222.061783,8808.450710
4134.004568,306.438199,888.247130,8438.347739
4134.004883,1149.143247,1258.350101,8586.388927
4134.005198,1072.533697,1554.432478,9030.512492
4134.005514,536.266849,740.205942,8808.450710
4134.005829,153.219100,444.123565,9104.533087
4134.006144,153.219100,-370.102971,9252.574275
4134.006460,229.828649,-1036.288319,9252.574275
4134.006775,-459.657299,-592.164754,9622.677246
4134.007090,-995.924147,-296.082377,9918.759623
4134.007406,-995.924147,-370.102971,10288.862594
4134.007721,-383.047749,-0.000000,10214.842000
4134.008036,-766.095498,-0.000000,9918.759623
4134.008352,-536.266849,-148.041188,9918.759623
4134.008667,-153.219100,-0.000000,9548.656652
4134.008982,0.000000,296.082377,9622.677246
4134.009298,-229.828649,740.205942,9104.533087
4134.009613,0.000000,1184.329507,9400.615463
4134.009928,0.000000,888.247130,9548.656652
4134.010244,153.219100,1406.391290,9770.718434
4134.010559,-153.219100,888.247130,10584.944971
4134.010874,-1149.143247,-0.000000,10214.842000
4134.011190,-459.657299,-444.123565,10140.821405
4134.011505,-689.485948,-666.185348,9992.780217
4134.011820,-1685.410096,-148.041188,9696.697840
4134.012136,-1149.143247,148.041188,9770.718434
4134.012451,-536.266849,-0.000000,9622.677246
4134.012766,-383.047749,740.205942,9992.780217
4134.013082,-383.047749,814.226536,9622.677246
4134.013397,-459.657299,370.102971,9474.636058
4134.013712,0.000000,296.082377,9474.636058
4134.014028,0.000000,518.144159,9474.636058
4134.014343,76.609550,814.226536,9696.697840
4134.014658,229.828649,1036.288319,9622.677246
4134.014974,459.657299,1332.370696,9696.697840
4134.015289,766.095498,1480.411884,9844.739029
4134.015604,612.876398,1184.329507,9474.636058
4134.015920,536.266849,592.164754,9622.677246
4134.016235,689.485948,592.164754,9474.636058
4134.016550,766.095498,444.123565,9104.533087
4134.016866,0.000000,592.164754,9104.533087
4134.017181,459.657299,518.144159,9474.636058
4134.017496,842.705048,888.247130,9622.677246
4134.017812,536.266849,666.185348,9622.677246
4134.018127,842.705048,222.061783,9918.759623
4134.018442,842.705048,-0.000000,9252.574275
4134.018758,1378.971896,-444.123565,9474.636058
4134.019073,1532.190996,-222.061783,9326.594869
4134.019388,1149.143247,666.185348,8586.388927
4134.019704,1072.533697,592.164754,9178.553681
4134.020019,995.924147,518.144159,9474.636058
4134.020334,995.924147,592.164754,9400.615463
4134.020650,766.095498,222.061783,9474.636058
4134.020965,842.705048,-148.041188,9474.636058
4134.021280,1225.752797,-814.226536,9770.718434
4134.021596,76.609550,-0.000000,9474.636058
4134.021911,229.828649,-222.061783,9696.697840
4134.022226,76.609550,-592.164754,9696.697840
4134.022542,459.657299,-74.020594,10288.862594
4134.022857,0.000000,-518.144159,9992.780217
4134.023172,-383.047749,-740.205942,9844.739029
4134.023488,76.609550,-962.267725,9696.697840
4134.023803,76.609550,-888.247130,9474.636058
4134.024118,-383.047749,-0.000000,9178.553681
4134.024434,-689.485948,148.041188,9178.553681
4134.024749,0.000000,-0.000000,9548.656652
4134.025064,0.000000,-518.144159,9770.718434
4134.025380,-689.485948,-296.082377,9770.718434
4134.025695,-383.047749,-814.226536,9696.697840
4134.026010,0.000000,-1184.329507,9696.697840
4134.026326,76.609550,-666.185348,9474.636058
4134.026641,0.000000,-888.247130,9400.615463
4134.026956,-689.485948,-148.041188,8956.491898
4134.027272,-229.828649,222.061783,9548.656652
4134.027587,-459.657299,962.267725,9252.574275
4134.027902,-383.047749,-0.000000,9622.677246
4134.028218,-612.876398,-296.082377,9992.780217
4134.028533,0.000000,-1110.308913,9400.615463
4134.028848,383.047749,-444.123565,9104.533087
4134.029164,-306.438199,-0.000000,9252.574275
4134.029479,-153.219100,592.164754,9474.636058
4134.029794,-383.047749,592.164754,9474.636058
4134.030110,0.000000,888.247130,9844.739029
4134.030425,0.000000,222.061783,9918.759623
4134.030740,-229.828649,-0.000000,9474.636058
4134.031056,229.828649,-444.123565,9474.636058
4134.031371,766.095498,-518.144159,9252.574275
4134.031686,153.219100,518.144159,8956.491898
4134.032002,76.609550,518.144159,9030.512492
4134.032317,76.609550,592.164754,9548.656652
4134.032632,306.438199,592.164754,10140.821405
4134.032948,76.609550,-0.000000,9918.759623
4134.033263,0.000000,-444.123565,9770.718434
4134.033579,0.000000,-296.082377,9844.739029
4134.033894,459.657299,-444.123565,9696.697840
4134.034209,0.000000,-296.082377,9178.553681
4134.034525,536.266849,-148.041188,9474.636058
4134.034840,612.876398,222.061783,9696.697840
4134.035155,536.266849,518.144159,9696.697840
4134.035471,689.485948,518.144159,9326.594869
4134.035786,536.266849,370.102971,9474.636058
4134.036101,766.095498,296.082377,8364.327145
4134.036417,766.095498,-0.000000,9326.594869
4134.036732,0.000000,518.144159,9178.553681
4134.037047,153.219100,-74.020594,9696.697840
4134.037363,0.000000,-0.000000,9992.780217
4134.037678,306.438199,370.102971,10214.842000
4134.037993,-306.438199,222.061783,9992.780217
4134.038309,0.000000,148.041188,9844.739029
4134.038624,459.657299,296.082377,9474.636058
4134.038939,766.095498,518.144159,9104.533087
4134.039255,229.828649,1480.411884,9696.697840
4134.039570,229.828649,1554.432478,9474.636058
4134.039885,459.657299,2072.576638,9622.677246
4134.040201,459.657299,1554.432478,9770.718434
4134.040516,0.000000,888.247130,9918.759623
4134.040831,76.609550,592.164754,9770.718434
4134.041147,153.219100,-0.000000,9844.739029
4134.041462,153.219100,296.082377,9548.656652
4134.041777,-459.657299,1110.308913,9918.759623
4134.042093,-536.266849,666.185348,9622.677246
4134.042408,-306.438199,1036.288319,10288.862594
4134.042723,-612.876398,814.226536,9992.780217
4134.043039,-383.047749,-0.000000,9844.739029
4134.043354,229.828649,296.082377,9622.677246
4134.043669,536.266849,444.123565,9326.594869
4134.043985,76.609550,888.247130,9400.615463
4134.044300,-229.828649,1036.288319,9696.697840
4134.044615,153.219100,1036.288319,9548.656652
4134.044931,0.000000,740.205942,9844.739029
4134.045246,-229.828649,148.041188,9918.759623
4134.045561,-229.828649,-444.123565,9992.780217
4134.045877,-383.047749,-888.247130,9844.739029
4134.046192,-306.438199,-518.144159,9252.574275
4134.046507,-536.266849,-370.102971,9474.636058
4134.046823,-459.657299,296.082377,9400.615463
4134.047138,76.609550,444.123565,9696.697840
4134.047453,0.000000,444.123565,9622.677246
4134.047769,0.000000,-444.123565,9548.656652
4134.048084,612.876398,-962.267725,9548.656652
4134.048399,229.828649,-1036.288319,9326.594869
4134.048715,76.609550,-740.205942,9474.636058
4134.049030,0.000000,-518.144159,9400.615463
4134.049345,0.000000,-0.000000,9400.615463
4134.049661,766.095498,-0.000000,9474.636058
4134.049976,153.219100,-0.000000,9844.739029
4134.050291,0.000000,-592.164754,9548.656652
4134.050607,-306.438199,-740.205942,9400.615463
4134.050922,689.485948,-1036.288319,9770.718434
4134.051237,689.485948,-518.144159,9252.574275
4134.051553,459.657299,-518.144159,9252.574275
4134.051868,842.705048,370.102971,9400.615463
4134.052183,919.314598,296.082377,9474.636058
4134.052499,689.485948,814.226536,9178.553681
4134.052814,842.705048,148.041188,9326.594869
4134.053129,689.485948,-592.164754,9696.697840
4134.053445,995.924147,-888.247130,9104.533087
4134.053760,842.705048,-666.185348,8660.409521
4134.054075,459.657299,-296.082377,9474.636058
4134.054391,229.828649,222.061783,9474.636058
4134.054706,383.047749,518.144159,9696.697840
4134.055021,153.219100,444.123565,9696.697840
4134.055337,306.438199,-0.000000,9770.718434
4134.055652,766.095498,-444.123565,9474.636058
4134.055967,1072.533697,-666.185348,9474.636058
4134.056283,919.314598,-518.144159,9474.636058
4134.056598,383.047749,-222.061783,9326.594869
4134.056913,612.876398,-0.000000,9622.677246
4134.057229,766.095498,222.061783,9474.636058
4134.057544,689.485948,74.020594,9474.636058
4134.057859,76.609550,-74.020594,9474.636058
4134.058175,153.219100,-444.123565,9548.656652
4134.058490,0.000000,-666.185348,9622.677246
4134.058805,-459.657299,-444.123565,9474.636058
4134.059121,-1149.143247,-592.164754,9622.677246
4134.059436,-612.876398,-296.082377,10140.821405
4134.059751,-459.657299,-0.000000,10362.883188
4134.060067,-612.876398,-0.000000,10658.965565
4134.060382,-766.095498,-222.061783,10436.903782
4134.060697,-536.266849,148.041188,9992.780217
4134.061013,0.000000,-0.000000,9474.636058
4134.061328,-153.219100,740.205942,9252.574275
4134.061643,-612.876398,666.185348,9474.636058
4134.061959,-306.438199,666.185348,9622.677246
4134.062274,-229.828649,1184.329507,10066.800811
4134.062589,-766.095498,962.267725,9844.739029
4134.062905,-689.485948,444.123565,9770.718434
4134.063220,-612.876398,222.061783,9622.677246
4134.063535,-383.047749,518.144159,9548.656652
4134.063851,-1072.533697,222.061783,9622.677246
4134.064166,-1225.752797,666.185348,9696.697840
4134.064482,-919.314598,962.267725,9622.677246
4134.064797,-383.047749,962.267725,10140.821405
4134.065112,-383.047749,1406.391290,9770.718434
4134.065428,-306.438199,592.164754,9992.780217
4134.065743,229.828649,740.205942,9474.636058
4134.066058,229.828649,814.226536,9104.533087
4134.066374,536.266849,1776.494261,8660.409521
4134.066689,842.705048,1628.453072,9104.533087
4134.067004,919.314598,1258.350101,9622.677246
4134.067320,306.438199,888.247130,9474.636058
4134.067635,536.266849,296.082377,9548.656652
4134.067950,0.000000,-0.000000,9622.677246
4134.068266,306.438199,-0.000000,9474.636058
4134.068581,612.876398,-0.000000,9622.677246
4134.068896,612.876398,518.144159,9326.594869
4134.069212,612.876398,222.061783,9918.759623
4134.069527,612.876398,740.205942,9844.739029
4134.069842,842.705048,888.247130,9178.553681
4134.070158,842.705048,666.185348,9622.677246
4134.070473,919.314598,370.102971,9696.697840
4134.070788,1455.581446,-148.041188,9104.533087
4134.071104,1149.143247,148.041188,9252.574275
4134.071419,689.485948,592.164754,9030.512492
4134.071734,459.657299,666.185348,9770.718434
4134.072050,689.485948,962.267725,9918.759623
4134.072365,383.047749,518.144159,10066.800811
4134.072680,76.609550,-222.061783,10658.965565
4134.072996,76.609550,-888.247130,10584.944971
4134.073311,0.000000,-888.247130,9992.780217
4134.073626,76.609550,-444.123565,9992.780217
4134.073942,0.000000,-0.000000,9844.739029
4134.074257,229.828649,296.082377,9844.739029
4134.074572,612.876398,740.205942,9770.718434
4134.074888,842.705048,1110.308913,9622.677246
4134.075203,1072.533697,592.164754,9474.636058
4134.075518,459.657299,-222.061783,9548.656652
4134.075834,842.705048,-148.041188,9252.574275
4134.076149,0.000000,-0.000000,9252.574275
4134.076464,-383.047749,370.102971,9030.512492
4134.076780,-229.828649,-296.082377,9474.636058
4134.077095,-459.657299,-148.041188,9474.636058
4134.077410,-995.924147,-444.123565,9844.739029
4134.077726,-1378.971896,-1036.288319,9918.759623
4134.078041,-919.314598,-1110.308913,9770.718434
4134.078356,0.000000,-888.247130,9474.636058
4134.078672,-536.266849,-518.144159,9178.553681
4134.078987,-229.828649,-0.000000,9400.615463
4134.079302,306.438199,444.123565,9548.656652
4134.079618,306.438199,814.226536,9326.594869
4134.079933,766.095498,666.185348,9474.636058
4134.080248,383.047749,444.123565,9770.718434
4134.080564,612.876398,-296.082377,9104.533087
4134.080879,612.876398,-740.205942,8808.450710
4134.081194,459.657299,-740.205942,9104.533087
4134.081510,-229.828649,-592.164754,9474.636058
4134.081825,229.828649,-518.144159,9474.636058
4134.082140,-153.219100,-0.000000,9326.594869
4134.082456,-536.266849,-518.144159,9918.759623
4134.082771,-1149.143247,-1110.308913,9992.780217
4134.083086,0.000000,-1258.350101,9696.697840
4134.083402,0.000000,-1332.370696,9474.636058
4134.083717,0.000000,-814.226536,9696.697840
4134.084032,229.828649,296.082377,9622.677246
4134.084348,459.657299,296.082377,9474.636058
4134.084663,689.485948,1332.370696,9770.718434
4134.084978,919.314598,1110.308913,9326.594869
4134.085294,536.266849,370.102971,9474.636058
4134.085609,766.095498,-0.000000,9178.553681
4134.085924,459.657299,222.061783,9326.594869
4134.086240,-612.876398,296.082377,8882.471304
4134.086555,-1072.533697,444.123565,9400.615463
4134.086870,-1149.143247,-0.000000,10140.821405
4134.087186,-1685.410096,518.144159,10214.842000
4134.087501,-1149.143247,-0.000000,10510.924376
4134.087816,-919.314598,-0.000000,9992.780217
4134.088132,-459.657299,-0.000000,9474.636058
4134.088447,0.000000,148.041188,9104.533087
4134.088762,76.609550,740.205942,9622.677246
4134.089078,76.609550,1480.411884,9178.553681
4134.089393,689.485948,2220.617826,9474.636058
4134.089708,1149.143247,2442.679609,9030.512492
4134.090024,689.485948,1850.514855,9178.553681
4134.090339,459.657299,1110.308913,9548.656652
4134.090654,612.876398,518.144159,9400.615463
4134.090970,229.828649,222.061783,9252.574275
4134.091285,-306.438199,740.205942,9770.718434
4134.091600,-612.876398,296.082377,9918.759623
4134.091916,-306.438199,666.185348,10288.862594
4134.092231,-306.438199,370.102971,10214.842000
4134.092546,-459.657299,-0.000000,10288.862594
4134.092862,0.000000,-370.102971,9992.780217
4134.093177,689.485948,-222.061783,9918.759623
4134.093492,766.095498,592.164754,9696.697840
4134.093808,842.705048,666.185348,8956.491898
4134.094123,1072.533697,1258.350101,9252.574275
4134.094438,1225.752797,1332.370696,9622.677246
4134.094754,1378.971896,1036.288319,10214.842000
4134.095069,919.314598,592.164754,9844.739029
4134.095385,689.485948,-0.000000,9992.780217
4134.095700,689.485948,-592.164754,9770.718434
4134.096015,-153.219100,-296.082377,9622.677246
4134.096330,-766.095498,-148.041188,10214.842000
4134.096646,-383.047749,-222.061783,10881.027347
4134.096961,-229.828649,-0.000000,10214.842000
4134.097276,0.000000,-0.000000,10066.800811
4134.097591,0.000000,-222.061783,9622.677246
4134.097906,689.485948,-740.205942,9696.697840
4134.098222,1149.143247,-0.000000,8882.471304
4134.098537,306.438199,-148.041188,8512.368333
4134.098852,306.438199,370.102971,8956.491898
4134.099167,612.876398,518.144159,9178.553681
4134.099483,459.657299,962.267725,9104.533087
4134.099798,306.438199,-0.000000,9696.697840
4134.100113,76.609550,-518.144159,9548.656652
4134.100428,229.828649,-814.226536,9548.656652
4134.100744,766.095498,-962.267725,9178.553681
4134.101059,-306.438199,-222.061783,9030.512492
4134.101374,-306.438199,-0.000000,9104.533087
4134.101689,0.000000,370.102971,8882.471304
4134.102005,76.609550,888.247130,9400.615463
4134.102320,-306.438199,148.041188,9252.574275
4134.102635,0.000000,-370.102971,9104.533087
4134.102950,842.705048,-1036.288319,9474.636058
4134.103265,0.000000,-740.205942,9030.512492
4134.103581,-306.438199,-296.082377,9252.574275
4134.103896,-306.438199,-0.000000,9622.677246
4134.104211,0.000000,-0.000000,9844.739029
4134.104526,766.095498,666.185348,9178.553681
4134.104842,0.000000,-0.000000,9252.574275
4134.105157,76.609550,-148.041188,9696.697840
4134.105472,76.609550,-740.205942,9548.656652
4134.105787,0.000000,-814.226536,9252.574275
4134.106103,0.000000,-444.123565,9548.656652
4134.106418,-383.047749,-370.102971,10066.800811
4134.106733,-612.876398,222.061783,10140.821405
4134.107048,0.000000,148.041188,10436.903782
4134.107364,-383.047749,-222.061783,10362.883188
4134.107679,-459.657299,-592.164754,9992.780217
4134.107994,229.828649,-962.267725,9622.677246
4134.108309,459.657299,-296.082377,9622.677246
4134.108624,0.000000,-148.041188,9400.615463
4134.108940,0.000000,370.102971,10066.800811
4134.109255,536.266849,888.247130,10066.800811
4134.109570,76.609550,1036.288319,10214.842000
4134.109885,0.000000,370.102971,9622.677246
4134.110201,76.609550,-296.082377,9622.677246
4134.110516,0.000000,-814.226536,9918.759623
4134.110831,0.000000,-444.123565,9548.656652
4134.111146,-612.876398,296.082377,9770.718434
4134.111462,-229.828649,370.102971,9622.677246
4134.111777,0.000000,888.247130,9992.780217
4134.112092,0.000000,740.205942,9474.636058
4134.112407,153.219100,740.205942,8956.491898
4134.112722,306.438199,296.082377,9622.677246
4134.113038,536.266849,-0.000000,8882.471304
4134.113353,459.657299,296.082377,8586.388927
4134.113668,-459.657299,592.164754,8290.306550
4134.113983,76.609550,962.267725,9474.636058
4134.114299,536.266849,814.226536,9548.656652
4134.114614,229.828649,740.205942,9844.739029
4134.114929,76.609550,666.185348,10066.800811
4134.115244,306.438199,370.102971,9474.636058
4134.115560,689.485948,-0.000000,9326.594869
4134.115875,306.438199,444.123565,9474.636058
4134.116190,0.000000,962.267725,9696.697840
4134.116505,229.828649,888.247130,9844.739029
4134.116821,-229.828649,1110.308913,9400.615463
4134.117136,76.609550,1110.308913,9696.697840
4134.117451,76.609550,962.267725,9696.697840
4134.117766,383.047749,-0.000000,9992.780217
4134.118081,536.266849,-74.020594,9474.636058
4134.118397,153.219100,444.123565,9474.636058
4134.118712,153.219100,518.144159,9696.697840
4134.119027,0.000000,518.144159,10214.842000
4134.119342,229.828649,814.226536,9844.739029
4134.119658,306.438199,592.164754,10214.842000
4134.119973,0.000000,-0.000000,9696.697840
4134.120288,306.438199,-370.102971,9844.739029
4134.120603,689.485948,-0.000000,9622.677246
4134.120919,0.000000,370.102971,9178.553681
4134.121234,0.000000,592.164754,9252.574275
4134.121549,0.000000,444.123565,9844.739029
4134.121864,0.000000,518.144159,9918.759623
4134.122180,-383.047749,-0.000000,10214.842000
4134.122495,-383.047749,-222.061783,10214.842000
4134.122810,-383.047749,-444.123565,9770.718434
4134.123125,0.000000,-148.041188,8956.491898
4134.123440,0.000000,-0.000000,9474.636058
4134.123756,-536.266849,444.123565,9844.739029
4134.124071,0.000000,222.061783,9696.697840
4134.124386,76.609550,370.102971,9844.739029
4134.124701,0.000000,-0.000000,9770.718434
4134.125017,0.000000,-0.000000,9474.636058
4134.125332,612.876398,-518.144159,8956.491898
4134.125647,383.047749,-0.000000,8586.388927
4134.125962,229.828649,370.102971,9030.512492
4134.126278,0.000000,444.123565,8808.450710
4134.126593,0.000000,-0.000000,9696.697840
4134.126908,76.609550,296.082377,9622.677246
4134.127223,0.000000,-592.164754,9918.759623
4134.127538,306.438199,-1036.288319,9696.697840
4134.127854,459.657299,-1184.329507,9474.636058
4134.128169,383.047749,-444.123565,9104.533087
4134.128484,76.609550,-0.000000,9104.533087
4134.128799,766.095498,-0.000000,9548.656652
4134.129115,1149.143247,370.102971,9474.636058
4134.129430,689.485948,592.164754,9326.594869
4134.129745,612.876398,222.061783,9474.636058
4134.130060,229.828649,-518.144159,9622.677246
4134.130376,383.047749,-1036.288319,9326.594869
4134.130691,459.657299,-740.205942,9474.636058
4134.131006,-383.047749,-518.144159,9252.574275
4134.131321,76.609550,-518.144159,10066.800811
4134.131637,0.000000,-0.000000,9474.636058
4134.131952,0.000000,-0.000000,9992.780217
4134.132267,0.000000,-370.102971,9696.697840
4134.132582,-383.047749,-518.144159,9918.759623
4134.132897,0.000000,-592.164754,9178.553681
4134.133213,153.219100,-370.102971,9178.553681
4134.133528,-306.438199,-296.082377,9252.574275
4134.133843,0.000000,-74.020594,9622.677246
4134.134158,76.609550,-222.061783,9770.718434
4134.134474,0.000000,-0.000000,10214.842000
4134.134789,-995.924147,-148.041188,9992.780217
4134.135104,-689.485948,-814.226536,9918.759623
4134.135419,306.438199,-1406.391290,9622.677246
4134.135735,612.876398,-0.000000,9326.594869
4134.136050,0.000000,-0.000000,9030.512492
4134.136365,0.000000,666.185348,9474.636058
4134.136680,0.000000,1776.494261,9326.594869
4134.136996,76.609550,1406.391290,9622.677246
4134.137311,76.609550,1036.288319,9548.656652
4134.137626,153.219100,296.082377,9548.656652
4134.137941,0.000000,444.123565,9474.636058
4134.138256,-383.047749,666.185348,9326.594869
4134.138572,-689.485948,814.226536,9178.553681
4134.138887,-306.438199,1036.288319,9622.677246
4134.139202,-306.438199,1332.370696,10584.944971
4134.139517,-766.095498,814.226536,10214.842000
4134.139833,-459.657299,518.144159,9918.759623
4134.140148,229.828649,518.144159,9918.759623
4134.140463,0.000000,444.123565,9252.574275
4134.140778,0.000000,1036.288319,9178.553681
4134.141094,0.000000,1332.370696,9104.533087
4134.141409,766.095498,1406.391290,9474.636058
4134.141724,689.485948,1332.370696,9400.615463
4134.142039,76.609550,962.267725,9844.739029
4134.142354,76.609550,740.205942,10066.800811
4134.142670,0.000000,-0.000000,9844.739029
4134.142985,76.609550,74.020594,9474.636058
4134.143300,-306.438199,-0.000000,9918.759623
4134.143615,0.000000,666.185348,9992.780217
4134.143931,229.828649,592.164754,10658.965565
4134.144246,229.828649,740.205942,10658.965565
4134.144561,383.047749,592.164754,9770.718434
4134.144876,383.047749,370.102971,9992.780217
4134.145192,1302.362347,-0.000000,9696.697840
4134.145507,1378.971896,-0.000000,9474.636058
4134.145822,919.314598,444.123565,9104.533087
4134.146137,689.485948,370.102971,9252.574275
4134.146453,536.266849,-0.000000,9622.677246
4134.146768,766.095498,518.144159,9696.697840
4134.147083,153.219100,-296.082377,9696.697840
4134.147398,153.219100,-592.164754,9770.718434
4134.147713,536.266849,-1036.288319,9474.636058
4134.148029,76.609550,-962.267725,9030.512492
4134.148344,0.000000,-74.020594,9252.574275
4134.148659,0.000000,148.041188,9844.739029
4134.148974,0.000000,518.144159,9252.574275
4134.149290,0.000000,592.164754,9770.718434
4134.149605,0.000000,-0.000000,9992.780217
4134.149920,229.828649,-222.061783,9770.718434
4134.150235,689.485948,-518.144159,9326.594869
4134.150551,383.047749,-518.144159,8956.491898
4134.150866,689.485948,-74.020594,9030.512492
4134.151181,383.047749,296.082377,8956.491898
4134.151496,153.219100,-0.000000,9400.615463
4134.151812,0.000000,-148.041188,9474.636058
4134.152127,-229.828649,-592.164754,9400.615463
4134.152442,-383.047749,-1036.288319,8808.450710
4134.152757,76.609550,-1258.350101,9030.512492
4134.153072,-229.828649,-666.185348,9622.677246
4134.153388,-536.266849,-740.205942,9474.636058
4134.153703,-229.828649,-370.102971,9696.697840
4134.154018,229.828649,-0.000000,9770.718434
4134.154333,-153.219100,-148.041188,10066.800811
4134.154649,0.000000,-444.123565,9844.739029
4134.154964,459.657299,-148.041188,9696.697840
4134.155279,995.924147,-666.185348,9400.615463
4134.155594,766.095498,-222.061783,8808.450710
4134.155910,0.000000,-296.082377,9178.553681
4134.156225,0.000000,-0.000000,9474.636058
4134.156540,-229.828649,148.041188,9770.718434
4134.156855,-536.266849,-0.000000,9474.636058
4134.157170,-612.876398,-1036.288319,10214.842000
4134.157486,0.000000,-1332.370696,9770.718434
4134.157801,-383.047749,-1184.329507,9622.677246
4134.158116,-995.924147,-740.205942,9622.677246
4134.158431,-766.095498,-592.164754,9844.739029
4134.158747,0.000000,-0.000000,9992.780217
4134.159062,-229.828649,370.102971,10214.842000
4134.159377,-229.828649,740.205942,9770.718434
4134.159692,-153.219100,370.102971,9252.574275
4134.160008,383.047749,370.102971,9474.636058
4134.160323,536.266849,592.164754,9030.512492
4134.160638,0.000000,888.247130,9252.574275
4134.160953,0.000000,740.205942,9548.656652
4134.161269,0.000000,740.205942,9548.656652
4134.161584,-153.219100,1184.329507,10066.800811
4134.161899,0.000000,592.164754,10362.883188
4134.162214,-383.047749,-74.020594,10362.883188
4134.162529,-229.828649,-74.020594,10140.821405
4134.162845,0.000000,222.061783,9622.677246
4134.163160,0.000000,740.205942,9400.615463
4134.163475,306.438199,1332.370696,9178.553681
4134.163790,689.485948,1110.308913,9696.697840
4134.164106,536.266849,1332.370696,9474.636058
4134.164421,842.705048,1184.329507,9474.636058
4134.164736,689.485948,1110.308913,8734.430116
4134.165051,919.314598,814.226536,9178.553681
4134.165367,995.924147,1110.308913,9622.677246
4134.165682,383.047749,1184.329507,9326.594869
4134.165997,153.219100,740.205942,9918.759623
4134.166312,383.047749,814.226536,10140.821405
4134.166628,306.438199,370.102971,10214.842000
4134.166943,0.000000,-74.020594,10584.944971
4134.167258,-153.219100,-0.000000,9918.759623
4134.167573,536.266849,-0.000000,9326.594869
4134.167888,689.485948,148.041188,9548.656652
4134.168204,536.266849,740.205942,9474.636058
4134.168519,842.705048,888.247130,9326.594869
4134.168834,842.705048,888.247130,9548.656652
4134.169149,919.314598,370.102971,9770.718434
4134.169465,612.876398,-0.000000,9548.656652
4134.169780,459.657299,-74.020594,9770.718434
4134.170095,383.047749,-444.123565,9696.697840
4134.170410,0.000000,-0.000000,9474.636058
4134.170726,-536.266849,-0.000000,9474.636058
4134.171041,-383.047749,-222.061783,10214.842000
4134.171356,-612.876398,-0.000000,10436.903782
4134.171671,-842.705048,296.082377,10140.821405
4134.171986,-612.876398,-0.000000,9918.759623
4134.172302,-306.438199,-518.144159,9548.656652
4134.172617,229.828649,-444.123565,9252.574275
4134.172932,0.000000,-0.000000,9252.574275
4134.173247,0.000000,666.185348,9326.594869
4134.173563,0.000000,888.247130,9400.615463
4134.173878,689.485948,1184.329507,9104.533087
4134.174193,0.000000,592.164754,9252.574275
4134.174508,0.000000,-148.041188,9474.636058
4134.174824,-229.828649,-666.185348,9178.553681
4134.175139,-229.828649,-1036.288319,9178.553681
4134.175454,-536.266849,-148.041188,8882.471304
4134.175769,-1072.533697,-296.082377,9474.636058
4134.176085,-689.485948,-74.020594,9696.697840
4134.176400,-459.657299,148.041188,9918.759623
4134.176715,-459.657299,-0.000000,10140.821405
4134.177030,0.000000,-518.144159,9548.656652
4134.177345,0.000000,-296.082377,9252.574275
4134.177661,536.266849,-518.144159,9622.677246
4134.177976,229.828649,-0.000000,9030.512492
4134.178291,612.876398,-0.000000,9474.636058
4134.178606,995.924147,444.123565,9400.615463
4134.178922,766.095498,740.205942,9474.636058
4134.179237,383.047749,444.123565,9770.718434
4134.179552,229.828649,-296.082377,9696.697840
4134.179867,459.657299,-1554.432478,9252.574275
4134.180183,536.266849,-1258.350101,9770.718434
4134.180498,-306.438199,-814.226536,9622.677246
4134.180813,-306.438199,-592.164754,9696.697840
4134.181128,0.000000,-518.144159,10140.821405
4134.181444,383.047749,-0.000000,10140.821405
4134.181759,536.266849,-296.082377,10066.800811
4134.182074,536.266849,-592.164754,9474.636058
4134.182389,689.485948,-74.020594,9178.553681
4134.182704,995.924147,222.061783,9326.594869
4134.183020,766.095498,-0.000000,8956.491898
4134.183335,689.485948,740.205942,9326.594869
4134.183650,689.485948,740.205942,9622.677246
4134.183965,0.000000,518.144159,9770.718434
4134.184281,0.000000,-0.000000,9918.759623
4134.184596,-229.828649,-592.164754,9696.697840
4134.184911,0.000000,-740.205942,9918.759623
4134.185226,-459.657299,-666.185348,9474.636058
4134.185542,-766.095498,-74.020594,9622.677246
4134.185857,-306.438199,-0.000000,9548.656652
4134.186172,536.266849,1036.288319,9252.574275
4134.186487,459.657299,1332.370696,9326.594869
4134.186803,76.609550,962.267725,9252.574275
4134.187118,0.000000,518.144159,9104.533087
4134.187433,383.047749,814.226536,8956.491898
4134.187748,536.266849,148.041188,9474.636058
4134.188063,76.609550,518.144159,9474.636058
4134.188379,0.000000,740.205942,9548.656652
4134.188694,-306.438199,962.267725,10140.821405
4134.189009,-459.657299,814.226536,10288.862594
4134.189324,-1225.752797,814.226536,10362.883188
4134.189640,-306.438199,-0.000000,9844.739029
4134.189955,0.000000,-74.020594,9918.759623
4134.190270,-383.047749,740.205942,9770.718434
4134.190585,-459.657299,888.247130,9252.574275
4134.190901,0.000000,962.267725,9770.718434
4134.191216,383.047749,1406.391290,9992.780217
4134.191531,76.609550,1036.288319,9918.759623
4134.191846,76.609550,370.102971,9918.759623
4134.192161,306.438199,-0.000000,9474.636058
4134.192477,919.314598,-444.123565,9474.636058
4134.192792,153.219100,148.041188,9030.512492
4134.193107,0.000000,592.164754,9474.636058
4134.193422,76.609550,962.267725,10140.821405
4134.193738,0.000000,370.102971,10066.800811
4134.194053,229.828649,296.082377,9696.697840
4134.194369,0.000000,-148.041188,10214.842000
4134.194684,0.000000,-74.020594,9622.677246
4134.194999,612.876398,-0.000000,9474.636058
4134.195315,306.438199,-0.000000,9252.574275
4134.195630,153.219100,296.082377,9178.553681
4134.195945,306.438199,962.267725,9474.636058
4134.196261,459.657299,1110.308913,9622.677246
4134.196576,76.609550,370.102971,10140.821405
4134.196891,0.000000,-74.020594,9918.759623
4134.197207,76.609550,-888.247130,9622.677246
4134.197522,306.438199,-962.267725,9474.636058
4134.197838,0.000000,-148.041188,9548.656652
4134.198153,-306.438199,296.082377,9474.636058
4134.198468,0.000000,740.205942,9030.512492
4134.198784,766.095498,814.226536,9548.656652
4134.199099,229.828649,-0.000000,9326.594869
4134.199414,0.000000,-296.082377,9326.594869
4134.199730,612.876398,-370.102971,9178.553681
4134.200045,459.657299,-444.123565,9326.594869
4134.200360,612.876398,-444.123565,9400.615463
4134.200676,306.438199,296.082377,9844.739029
4134.200991,459.657299,888.247130,9844.739029
4134.201307,459.657299,962.267725,9622.677246
4134.201622,536.266849,-0.000000,9178.553681
4134.201937,536.266849,-0.000000,9622.677246
4134.202253,383.047749,-444.123565,9474.636058
4134.202568,459.657299,-296.082377,9252.574275
4134.202883,0.000000,-222.061783,9474.636058
4134.203199,153.219100,-592.164754,9696.697840
4134.203514,0.000000,-148.041188,9548.656652
4134.203829,383.047749,222.061783,10140.821405
4134.204145,0.000000,444.123565,9918.759623
4134.204460,229.828649,-444.123565,10066.800811
4134.204776,536.266849,-370.102971,9178.553681
4134.205091,383.047749,-444.123565,9696.697840
4134.205406,-229.828649,-222.061783,9252.574275
4134.205722,0.000000,-296.082377,10140.821405
4134.206037,153.219100,-0.000000,9696.697840
4134.206352,0.000000,-0.000000,10214.842000
4134.206668,-689.485948,-518.144159,9696.697840
4134.206983,-612.876398,-740.205942,9474.636058
4134.207298,-383.047749,-666.185348,9696.697840
4134.207614,0.000000,-592.164754,9252.574275
4134.207929,-536.266849,-666.185348,9844.739029
4134.208245,-383.047749,-518.144159,9844.739029
4134.208560,0.000000,-74.020594,10140.821405
4134.208875,0.000000,148.041188,9474.636058
4134.209191,76.609550,-0.000000,9770.718434
4134.209506,842.705048,-0.000000,10214.842000
4134.209821,536.266849,-0.000000,9104.533087
4134.210137,229.828649,296.082377,8734.430116
4134.210452,-153.219100,222.061783,8956.491898
4134.210767,0.000000,666.185348,9474.636058
4134.211083,0.000000,962.267725,9918.759623
4134.211398,-612.876398,666.185348,9992.780217
4134.211714,-536.266849,-222.061783,9992.780217
4134.212029,-459.657299,-518.144159,9844.739029
4134.212344,229.828649,-740.205942,9474.636058
4134.212660,0.000000,666.185348,9474.636058
4134.212975,-229.828649,962.267725,9474.636058
4134.213290,76.609550,1332.370696,9474.636058
4134.213606,459.657299,1702.473667,9104.533087
4134.213921,383.047749,1110.308913,9178.553681
4134.214236,-536.266849,296.082377,9400.615463
4134.214552,153.219100,592.164754,9400.615463
4134.214867,229.828649,370.102971,9326.594869
4134.215183,0.000000,814.226536,9252.574275
4134.215498,-229.828649,740.205942,9622.677246
4134.215813,0.000000,222.061783,9548.656652
4134.216129,-383.047749,740.205942,10214.842000
4134.216444,-229.828649,370.102971,10288.862594
4134.216759,0.000000,370.102971,9548.656652
4134.217075,153.219100,-0.000000,9622.677246
4134.217390,766.095498,-0.000000,9252.574275
4134.217705,229.828649,814.226536,9696.697840
4134.218021,229.828649,1036.288319,9770.718434
4134.218336,842.705048,962.267725,9844.739029
4134.218652,1072.533697,1332.370696,9696.697840
4134.218967,536.266849,666.185348,10066.800811
4134.219282,842.705048,222.061783,10066.800811
4134.219598,842.705048,-0.000000,9400.615463
4134.219913,919.314598,-222.061783,9030.512492
4134.220228,689.485948,222.061783,9548.656652
4134.220544,76.609550,518.144159,9992.780217
4134.220859,612.876398,740.205942,10066.800811
4134.221174,0.000000,518.144159,9918.759623
4134.221490,0.000000,-0.000000,10066.800811
4134.221805,0.000000,-0.000000,10066.800811
4134.222121,536.266849,-296.082377,9696.697840
4134.222436,153.219100,-148.041188,9400.615463
4134.222751,0.000000,222.061783,9696.697840
4134.223067,0.000000,888.247130,9844.739029
4134.223382,306.438199,888.247130,9844.739029
4134.223697,306.438199,962.267725,10288.862594
4134.224013,76.609550,-0.000000,10140.821405
4134.224328,0.000000,-222.061783,9474.636058
4134.224643,766.095498,-666.185348,9326.594869
4134.224959,306.438199,-0.000000,9474.636058
4134.225274,0.000000,148.041188,9178.553681
4134.225590,0.000000,370.102971,9030.512492
4134.225905,0.000000,444.123565,9326.594869
4134.226220,-383.047749,370.102971,9474.636058
4134.226536,-766.095498,-444.123565,9696.697840
4134.226851,-842.705048,-814.226536,9474.636058
4134.227166,-459.657299,-1110.308913,9400.615463
4134.227482,-612.876398,-962.267725,9326.594869
4134.227797,-153.219100,-222.061783,9548.656652
4134.228112,-229.828649,-370.102971,10288.862594
4134.228428,229.828649,518.144159,10066.800811
4134.228743,153.219100,-0.000000,9770.718434
4134.229059,229.828649,296.082377,9696.697840
4134.229374,842.705048,-74.020594,8882.471304
4134.229689,689.485948,-296.082377,8660.409521
4134.230005,229.828649,-666.185348,8734.430116
4134.230320,0.000000,-0.000000,8956.491898
4134.230635,459.657299,-148.041188,9400.615463
4134.230951,0.000000,-592.164754,9622.677246
4134.231266,-689.485948,-814.226536,10288.862594
4134.231581,-612.876398,-1036.288319,9918.759623
4134.231897,-459.657299,-1480.411884,9474.636058
4134.232212,0.000000,-1628.453072,9622.677246
4134.232528,76.609550,-370.102971,9252.574275
4134.232843,0.000000,-0.000000,9844.739029
4134.233158,612.876398,222.061783,9474.636058
4134.233474,612.876398,1258.350101,9474.636058
4134.233789,612.876398,592.164754,9474.636058
4134.234104,536.266849,444.123565,9474.636058
4134.234420,766.095498,-0.000000,9548.656652
4134.234735,612.876398,-222.061783,8956.491898
4134.235050,0.000000,-0.000000,9252.574275
4134.235366,-153.219100,-0.000000,9622.677246
4134.235681,-153.219100,-74.020594,9992.780217
4134.235997,-383.047749,-0.000000,9992.780217
4134.236312,-995.924147,222.061783,9918.759623
4134.236627,-536.266849,-222.061783,9474.636058
4134.236943,0.000000,-296.082377,9326.594869
4134.237258,229.828649,-0.000000,9104.533087
4134.237573,0.000000,370.102971,9400.615463
4134.237889,0.000000,1258.350101,9400.615463
4134.238204,383.047749,1702.473667,9474.636058
4134.238519,689.485948,1702.473667,9622.677246
4134.238835,383.047749,1332.370696,9696.697840
4134.239150,612.876398,370.102971,9844.739029
4134.239466,689.485948,-0.000000,9622.677246
4134.239781,229.828649,148.041188,9474.636058
4134.240096,-383.047749,370.102971,9474.636058
4134.240412,-229.828649,888.247130,9696.697840
4134.240727,0.000000,666.185348,9918.759623
4134.241042,-229.828649,814.226536,9844.739029
4134.241358,-306.438199,296.082377,10066.800811
4134.241673,0.000000,-0.000000,9326.594869
4134.241988,459.657299,-222.061783,9474.636058
4134.242304,612.876398,222.061783,9844.739029
4134.242619,0.000000,814.226536,9400.615463
4134.242935,306.438199,888.247130,10066.800811
4134.243250,1072.533697,814.226536,10214.842000
4134.243565,1149.143247,1036.288319,10362.883188
4134.243881,842.705048,962.267725,10066.800811
4134.244196,766.095498,518.144159,9474.636058
4134.244511,919.314598,370.102971,9104.533087
4134.244827,229.828649,222.061783,9178.553681
4134.245142,0.000000,-0.000000,9696.697840
4134.245457,-536.266849,-148.041188,10510.924376
4134.245773,-383.047749,444.123565,10214.842000
4134.246088,-612.876398,74.020594,9992.780217
4134.246404,-383.047749,-296.082377,10362.883188
4134.246719,0.000000,-666.185348,10288.862594
4134.247034,229.828649,-518.144159,9770.718434
4134.247350,459.657299,-74.020594,9178.553681
4134.247665,229.828649,-0.000000,9474.636058
4134.247980,536.266849,666.185348,9104.533087
4134.248296,536.266849,888.247130,9474.636058
4134.248611,0.000000,444.123565,9474.636058
4134.248926,76.609550,-0.000000,9104.533087
4134.249242,536.266849,-518.144159,8734.430116
4134.249557,383.047749,-888.247130,8882.471304
4134.249873,-459.657299,-666.185348,9400.615463
4134.250188,-612.876398,-666.185348,9474.636058
4134.250503,-766.095498,-740.205942,9474.636058
4134.250819,-306.438199,-222.061783,9474.636058
4134.251134,229.828649,-666.185348,9474.636058
4134.251449,-459.657299,-666.185348,9400.615463
4134.251765,0.000000,-444.123565,9252.574275
4134.252080,995.924147,-74.020594,9326.594869
4134.252395,919.314598,-0.000000,8290.306550
4134.252711,536.266849,518.144159,8512.368333
4134.253026,842.705048,814.226536,9400.615463
4134.253342,229.828649,1110.308913,9474.636058
4134.253657,76.609550,-0.000000,9770.718434
4134.253972,306.438199,-518.144159,10288.862594
4134.254288,0.000000,-1036.288319,9918.759623
4134.254603,0.000000,-740.205942,9548.656652
4134.254918,-383.047749,-444.123565,9696.697840
4134.255234,-229.828649,-0.000000,9992.780217
4134.255549,306.438199,518.144159,10584.944971
4134.255864,0.000000,148.041188,9918.759623
4134.256180,-459.657299,-0.000000,10214.842000
4134.256495,0.000000,-0.000000,9622.677246
4134.256811,536.266849,-592.164754,9400.615463
4134.257126,995.924147,-370.102971,9474.636058
4134.257441,306.438199,222.061783,9696.697840
4134.257757,229.828649,814.226536,9622.677246
4134.258072,536.266849,1184.329507,9548.656652
4134.258387,229.828649,666.185348,10140.821405
4134.258703,766.095498,-148.041188,10140.821405
4134.259018,0.000000,-740.205942,10066.800811
4134.259333,383.047749,-296.082377,9548.656652
4134.259649,76.609550,-666.185348,9030.512492
4134.259964,-153.219100,-0.000000,8882.471304
4134.260280,0.000000,222.061783,9474.636058
4134.260595,-229.828649,666.185348,9770.718434
4134.260910,-153.219100,666.185348,9548.656652
4134.261226,-153.219100,-0.000000,9696.697840
4134.261541,-306.438199,-0.000000,9400.615463
4134.261856,-229.828649,-370.102971,8882.471304
4134.262172,-153.219100,-148.041188,9474.636058
4134.262487,-536.266849,740.205942,9474.636058
4134.262802,0.000000,518.144159,9918.759623
4134.263118,459.657299,1184.329507,9696.697840
4134.263433,76.609550,1184.329507,9548.656652
4134.263749,0.000000,592.164754,9548.656652
4134.264064,0.000000,296.082377,9474.636058
4134.264379,842.705048,-0.000000,9400.615463
4134.264695,919.314598,74.020594,8956.491898
4134.265010,-76.609550,444.123565,9104.533087
4134.265325,0.000000,592.164754,9992.780217
4134.265641,229.828649,1258.350101,9992.780217
4134.265956,383.047749,814.226536,9844.739029
4134.266271,0.000000,370.102971,9844.739029
4134.266587,76.609550,-0.000000,10140.821405
4134.266902,229.828649,-222.061783,9474.636058
4134.267218,459.657299,-222.061783,9474.636058
4134.267533,229.828649,370.102971,9844.739029
4134.267848,612.876398,814.226536,9770.718434
4134.268164,306.438199,1702.473667,9992.780217
4134.268479,766.095498,1628.453072,9844.739029
4134.268794,612.876398,1036.288319,9918.759623
4134.269110,842.705048,-0.000000,9474.636058
4134.269425,842.705048,-148.041188,9474.636058
4134.269740,536.266849,-74.020594,9844.739029
4134.270056,0.000000,222.061783,9622.677246
4134.270371,306.438199,148.041188,9844.739029
4134.270687,0.000000,592.164754,10214.842000
4134.271002,0.000000,-0.000000,10214.842000
4134.271317,0.000000,-370.102971,9844.739029
4134.271633,0.000000,-518.144159,9548.656652
4134.271948,229.828649,-296.082377,9178.553681
4134.272263,76.609550,148.041188,9178.553681
4134.272579,153.219100,-0.000000,9474.636058
4134.272894,229.828649,370.102971,9474.636058
4134.273209,536.266849,444.123565,9992.780217
4134.273525,229.828649,-0.000000,10140.821405
4134.273840,306.438199,-222.061783,10066.800811
4134.274156,766.095498,-888.247130,9400.615463
4134.274471,536.266849,-74.020594,9178.553681
4134.274786,153.219100,-74.020594,8882.471304
4134.275102,229.828649,-74.020594,9622.677246
4134.275417,536.266849,222.061783,9252.574275
4134.275732,459.657299,518.144159,9474.636058
4134.276048,229.828649,-0.000000,9252.574275
4134.276363,229.828649,-518.144159,9474.636058
4134.276678,459.657299,-1184.329507,9030.512492
4134.276994,0.000000,-962.267725,9326.594869
4134.277309,0.000000,-444.123565,9548.656652
4134.277625,76.609550,-370.102971,9770.718434
4134.277940,-459.657299,-148.041188,10066.800811
4134.278255,0.000000,-0.000000,10436.903782
4134.278571,153.219100,-148.041188,9992.780217
4134.278886,383.047749,-296.082377,9622.677246
4134.279201,689.485948,-370.102971,9844.739029
4134.279517,842.705048,-0.000000,9474.636058
4134.279832,689.485948,148.041188,8660.409521
4134.280147,459.657299,296.082377,9400.615463
4134.280463,612.876398,592.164754,9474.636058
4134.280778,76.609550,-0.000000,9548.656652
4134.281094,-306.438199,-222.061783,9622.677246
4134.281409,0.000000,-1036.288319,9622.677246
4134.281724,-153.219100,-1554.432478,9474.636058
4134.282040,-229.828649,-1332.370696,9474.636058
4134.282355,-842.705048,-1184.329507,9622.677246
4134.282670,-459.657299,-444.123565,9844.739029
4134.282986,-306.438199,-0.000000,9548.656652
4134.283301,-383.047749,370.102971,9770.718434
4134.283616,76.609550,666.185348,9696.697840
4134.283932,76.609550,-0.000000,9400.615463
4134.284247,536.266849,-0.000000,8586.388927
4134.284563,229.828649,222.061783,9030.512492
4134.284878,-229.828649,740.205942,9104.533087
4134.285193,-229.828649,-0.000000,9696.697840
4134.285509,-612.876398,1036.288319,9622.677246
4134.285824,-612.876398,-0.000000,10140.821405
4134.286139,-1072.533697,-148.041188,9992.780217
4134.286455,-459.657299,-518.144159,9844.739029
4134.286770,-689.485948,-444.123565,9326.594869
4134.287085,-919.314598,296.082377,9770.718434
4134.287401,-919.314598,666.185348,9474.636058
4134.287716,-536.266849,814.226536,9548.656652
4134.288032,0.000000,1258.350101,9918.759623
4134.288347,-229.828649,592.164754,9992.780217
4134.288662,76.609550,814.226536,9844.739029
4134.288978,153.219100,518.144159,9474.636058
4134.289293,766.095498,444.123565,9918.759623
4134.289608,76.609550,1554.432478,9696.697840
4134.289924,459.657299,1258.350101,9696.697840
4134.290239,689.485948,962.267725,10140.821405
4134.290554,766.095498,1110.308913,9844.739029
4134.290870,459.657299,740.205942,9474.636058
4134.291185,459.657299,222.061783,9918.759623
4134.291501,383.047749,-0.000000,9770.718434
4134.291816,459.657299,-0.000000,9696.697840
4134.292131,0.000000,370.102971,8956.491898
4134.292447,153.219100,370.102971,9992.780217
4134.292762,229.828649,666.185348,10066.800811
4134.293077,536.266849,814.226536,9770.718434
4134.293393,612.876398,814.226536,9992.780217
4134.293708,383.047749,666.185348,9918.759623
4134.294023,919.314598,444.123565,9400.615463
4134.294339,995.924147,-0.000000,9178.553681
4134.294654,383.047749,740.205942,9474.636058
4134.294970,306.438199,962.267725,9252.574275
4134.295285,689.485948,962.267725,9474.636058
4134.295600,383.047749,888.247130,9548.656652
4134.295916,-536.266849,222.061783,10066.800811
4134.296231,0.000000,-0.000000,9474.636058
4134.296547,-76.609550,-592.164754,9030.512492
4134.296862,153.219100,-740.205942,9400.615463
4134.297177,0.000000,-222.061783,9326.594869
4134.297493,-383.047749,-0.000000,9622.677246
4134.297808,-306.438199,370.102971,9992.780217
4134.298124,-153.219100,518.144159,9622.677246
4134.298439,153.219100,148.041188,9622.677246
4134.298754,842.705048,-222.061783,9844.739029
4134.299070,995.924147,-444.123565,9474.636058
4134.299385,153.219100,-222.061783,8956.491898
4134.299701,229.828649,518.144159,9326.594869
4134.300016,0.000000,-0.000000,9326.594869
4134.300331,383.047749,666.185348,9548.656652
4134.300647,153.219100,592.164754,9918.759623
4134.300962,0.000000,-296.082377,9696.697840
4134.301278,-459.657299,-962.267725,9696.697840
4134.301593,0.000000,-1258.350101,9622.677246
4134.301908,-383.047749,-740.205942,9400.615463
4134.302224,-842.705048,-148.041188,9474.636058
4134.302539,-306.438199,-222.061783,9548.656652
4134.302855,-306.438199,-0.000000,9474.636058
4134.303170,0.000000,-222.061783,9622.677246
4134.303485,76.609550,-222.061783,10214.842000
4134.303801,229.828649,-74.020594,8882.471304
4134.304116,459.657299,-518.144159,8956.491898
4134.304431,153.219100,-74.020594,9400.615463
4134.304747,0.000000,-0.000000,9252.574275
4134.305062,0.000000,-0.000000,9548.656652
4134.305378,76.609550,-0.000000,9696.697840
4134.305693,-229.828649,-296.082377,10066.800811
4134.306008,-383.047749,-444.123565,9770.718434
4134.306324,-306.438199,-1258.350101,9770.718434
4134.306639,-306.438199,-1184.329507,9474.636058
4134.306955,-306.438199,-1258.350101,9474.636058
4134.307270,-842.705048,-592.164754,9474.636058
4134.307585,0.000000,-74.020594,9696.697840
4134.307901,-229.828649,-0.000000,10288.862594
4134.308216,0.000000,-0.000000,9844.739029
4134.308532,536.266849,-74.020594,9474.636058
4134.308847,842.705048,-0.000000,9474.636058
4134.309162,1072.533697,-148.041188,8512.368333
4134.309478,1072.533697,-0.000000,8808.450710
4134.309793,459.657299,814.226536,9326.594869
4134.310109,306.438199,666.185348,9622.677246
4134.310424,306.438199,888.247130,9548.656652
4134.310739,306.438199,-0.000000,9696.697840
4134.311055,-229.828649,-0.000000,9548.656652
4134.311370,-459.657299,-148.041188,9622.677246
4134.311686,-536.266849,-0.000000,9696.697840
4134.312001,-306.438199,148.041188,9548.656652
4134.312316,-229.828649,370.102971,10066.800811
4134.312632,76.609550,1036.288319,10140.821405
4134.312947,459.657299,1184.329507,9992.780217
4134.313263,306.438199,1628.453072,9992.780217
4134.313578,536.266849,1258.350101,9474.636058
4134.313893,1149.143247,740.205942,9400.615463
4134.314209,1532.190996,592.164754,8808.450710
4134.314524,766.095498,1332.370696,8956.491898
4134.314840,612.876398,1110.308913,9326.594869
4134.315155,536.266849,1036.288319,9548.656652
4134.315470,229.828649,1258.350101,9622.677246
4134.315786,0.000000,444.123565,9992.780217
4134.316101,0.000000,-148.041188,10140.821405
4134.316417,0.000000,-148.041188,9918.759623
4134.316732,153.219100,-0.000000,9178.553681
4134.317047,306.438199,-148.041188,9622.677246
4134.317363,0.000000,-296.082377,9992.780217
4134.317678,153.219100,1036.288319,10066.800811
4134.317994,383.047749,1628.453072,9770.718434
4134.318309,536.266849,1036.288319,9548.656652
4134.318624,1225.752797,444.123565,9326.594869
4134.318940,995.924147,222.061783,8808.450710
4134.319255,536.266849,222.061783,8660.409521
4134.319571,0.000000,370.102971,9400.615463
4134.319886,-153.219100,-0.000000,10140.821405
4134.320201,-383.047749,222.061783,10436.903782
4134.320517,-995.924147,444.123565,10288.862594
4134.320832,-1225.752797,-370.102971,10732.986159
4134.321148,-689.485948,-666.185348,10214.842000
4134.321463,153.219100,-592.164754,9252.574275
4134.321778,0.000000,-0.000000,9474.636058
4134.322094,-306.438199,888.247130,9400.615463
4134.322409,-536.266849,740.205942,9030.512492
4134.322725,536.266849,962.267725,9178.553681
4134.323040,153.219100,518.144159,10214.842000
4134.323355,153.219100,-0.000000,9474.636058
4134.323671,-459.657299,-370.102971,9696.697840
4134.323986,-459.657299,-444.123565,9696.697840
4134.324302,-306.438199,-370.102971,9178.553681
4134.324617,-689.485948,-0.000000,9548.656652
4134.324932,-306.438199,-0.000000,9918.759623
4134.325248,-842.705048,148.041188,10214.842000
4134.325563,-766.095498,-370.102971,9770.718434
4134.325878,-689.485948,-222.061783,9696.697840
4134.326194,0.000000,-740.205942,9178.553681
4134.326509,536.266849,-222.061783,8956.491898
4134.326825,536.266849,222.061783,8808.450710
4134.327140,459.657299,222.061783,8956.491898
4134.327455,1072.533697,-0.000000,9104.533087
4134.327771,1225.752797,-148.041188,9400.615463
4134.328086,536.266849,-296.082377,9844.739029
4134.328402,229.828649,-592.164754,9474.636058
4134.328717,612.876398,-962.267725,9326.594869
4134.329032,689.485948,-1258.350101,9474.636058
4134.329348,153.219100,-962.267725,9400.615463
4134.329663,-229.828649,-370.102971,9548.656652
4134.329979,76.609550,-296.082377,9548.656652
4134.330294,306.438199,-0.000000,9770.718434
4134.330609,306.438199,-74.020594,10288.862594
4134.330925,689.485948,-518.144159,9770.718434
4134.331240,459.657299,-666.185348,9696.697840
4134.331556,842.705048,-296.082377,9400.615463
4134.331871,536.266849,-74.020594,9252.574275
4134.332186,689.485948,518.144159,9252.574275
4134.332502,995.924147,518.144159,9696.697840
4134.332817,459.657299,444.123565,10066.800811
4134.333133,0.000000,-74.020594,9918.759623
4134.333448,-459.657299,-444.123565,9474.636058
4134.333763,0.000000,-1036.288319,9474.636058
4134.334079,-229.828649,-666.185348,9474.636058
4134.334394,-1072.533697,-518.144159,9770.718434
4134.334710,-842.705048,-0.000000,9844.739029
4134.335025,-459.657299,296.082377,9548.656652
4134.335340,-612.876398,592.164754,9770.718434
4134.335656,0.000000,518.144159,10066.800811
4134.335971,0.000000,370.102971,9622.677246
4134.336287,306.438199,222.061783,9326.594869
4134.336602,383.047749,814.226536,9030.512492
4134.336917,229.828649,888.247130,8882.471304
4134.337233,306.438199,666.185348,8956.491898
4134.337548,306.438199,1036.288319,9622.677246
4134.337864,76.609550,1184.329507,9696.697840
4134.338179,0.000000,518.144159,9992.780217
4134.338494,0.000000,-296.082377,10288.862594
4134.338810,-153.219100,-518.144159,9548.656652
4134.339125,-459.657299,-74.020594,9326.594869
4134.339441,-459.657299,-0.000000,9400.615463
4134.339756,0.000000,370.102971,9770.718434
4134.340071,153.219100,1110.308913,10066.800811
4134.340387,-153.219100,1110.308913,9696.697840
4134.340702,0.000000,888.247130,10140.821405
4134.341018,459.657299,740.205942,9252.574275
4134.341333,1072.533697,370.102971,9400.615463
4134.341648,459.657299,518.144159,9030.512492
4134.341964,0.000000,1036.288319,9548.656652
4134.342279,-306.438199,888.247130,9918.759623
4134.342595,0.000000,518.144159,9992.780217
4134.342910,-689.485948,222.061783,10214.842000
4134.343225,-612.876398,-74.020594,10436.903782
4134.343541,-383.047749,-370.102971,10584.944971
4134.343856,-306.438199,-518.144159,10066.800811
4134.344172,-459.657299,444.123565,9622.677246
4134.344487,0.000000,222.061783,9548.656652
4134.344802,76.609550,518.144159,9622.677246
4134.345118,689.485948,888.247130,9844.739029
4134.345433,612.876398,592.164754,9696.697840
4134.345749,459.657299,740.205942,9030.512492
4134.346064,612.876398,370.102971,8956.491898
4134.346379,842.705048,-0.000000,8956.491898
4134.346695,0.000000,-0.000000,9326.594869
4134.347010,0.000000,296.082377,9474.636058
4134.347325,-383.047749,-0.000000,9992.780217
4134.347641,-229.828649,370.102971,9918.759623
4134.347956,-306.438199,-74.020594,10214.842000
4134.348272,-229.828649,-0.000000,10214.842000
4134.348587,76.609550,-222.061783,9696.697840
4134.348902,842.705048,-222.061783,8956.491898
4134.349218,459.657299,296.082377,8956.491898
4134.349533,766.095498,740.205942,8586.388927
4134.349849,919.314598,1036.288319,9252.574275
4134.350164,919.314598,1258.350101,9104.533087
4134.350479,919.314598,370.102971,9474.636058
4134.350795,459.657299,-0.000000,9474.636058
4134.351110,229.828649,-962.267725,9696.697840
4134.351426,0.000000,-740.205942,9474.636058
4134.351741,-383.047749,-222.061783,9474.636058
4134.352056,-459.657299,-148.041188,9992.780217
4134.352372,-229.828649,-148.041188,10066.800811
4134.352687,153.219100,518.144159,10066.800811
4134.353003,-76.609550,-148.041188,10066.800811
4134.353318,0.000000,-296.082377,9548.656652
4134.353633,689.485948,-592.164754,9474.636058
4134.353949,995.924147,-370.102971,9104.533087
4134.354264,459.657299,-148.041188,9178.553681
4134.354580,153.219100,148.041188,9252.574275
4134.354895,766.095498,222.061783,9844.739029
4134.355210,459.657299,296.082377,9474.636058
4134.355526,76.609550,-370.102971,9844.739029
4134.355841,-306.438199,-444.123565,9622.677246
4134.356157,-306.438199,-888.247130,9548.656652
4134.356472,-76.609550,-1554.432478,9622.677246
4134.356787,-842.705048,-1110.308913,9844.739029
4134.357103,-459.657299,-962.267725,10214.842000
4134.357418,-229.828649,-0.000000,10362.883188
4134.357734,-612.876398,296.082377,10436.903782
4134.358049,-153.219100,-0.000000,9844.739029
4134.358364,153.219100,296.082377,9474.636058
4134.358680,536.266849,-0.000000,9030.512492
4134.358995,459.657299,296.082377,8586.388927
4134.359311,153.219100,518.144159,9326.594869
4134.359626,306.438199,-0.000000,9696.697840
4134.359941,229.828649,888.247130,9400.615463
4134.360257,-306.438199,518.144159,9252.574275
4134.360572,-766.095498,-0.000000,9178.553681
4134.360888,-842.705048,-518.144159,9326.594869
4134.361203,-383.047749,-444.123565,9474.636058
4134.361518,-919.314598,-222.061783,9178.553681
4134.361834,-1225.752797,148.041188,9548.656652
4134.362149,-612.876398,666.185348,9696.697840
4134.362465,-536.266849,1480.411884,10066.800811
4134.362780,229.828649,962.267725,9844.739029
4134.363095,229.828649,518.144159,9400.615463
4134.363411,459.657299,444.123565,9770.718434
4134.363726,1149.143247,666.185348,9178.553681
4134.364042,842.705048,888.247130,9104.533087
4134.364357,612.876398,814.226536,8956.491898
4134.364672,536.266849,592.164754,9770.718434
4134.364988,459.657299,888.247130,9622.677246
4134.365303,0.000000,666.185348,9770.718434
4134.365619,0.000000,-74.020594,10140.821405
4134.365934,76.609550,-296.082377,9474.636058
4134.366249,383.047749,-518.144159,9696.697840
4134.366565,229.828649,296.082377,9622.677246
4134.366880,0.000000,296.082377,9770.718434
4134.367196,459.657299,666.185348,10362.883188
4134.367511,766.095498,1036.288319,9770.718434
4134.367826,689.485948,1036.288319,10362.883188
4134.368142,459.657299,1110.308913,10288.862594
4134.368457,995.924147,296.082377,9770.718434
4134.368772,1302.362347,296.082377,9622.677246
4134.369088,919.314598,518.144159,9474.636058
4134.369403,1072.533697,1110.308913,9474.636058
4134.369719,306.438199,888.247130,10066.800811
4134.370034,0.000000,888.247130,10066.800811
4134.370349,-459.657299,-0.000000,10214.842000
4134.370665,0.000000,-518.144159,10214.842000
4134.370980,306.438199,-814.226536,10436.903782
4134.371296,153.219100,-370.102971,9104.533087
4134.371611,-76.609550,296.082377,9474.636058
4134.371926,153.219100,222.061783,9474.636058
4134.372242,459.657299,740.205942,9696.697840
4134.372557,842.705048,888.247130,9474.636058
4134.372873,612.876398,592.164754,9474.636058
4134.373188,919.314598,370.102971,9326.594869
4134.373503,1378.971896,-74.020594,8586.388927
4134.373819,919.314598,-518.144159,8142.265362
4134.374134,153.219100,222.061783,9178.553681
4134.374450,-306.438199,-0.000000,9918.759623
4134.374765,-153.219100,-222.061783,9770.718434
4134.375080,-229.828649,-0.000000,9770.718434
4134.375396,-842.705048,-148.041188,10214.842000
4134.375711,-689.485948,-592.164754,9548.656652
4134.376027,0.000000,-1184.329507,9252.574275
4134.376342,-153.219100,-666.185348,9474.636058
4134.376657,-383.047749,-148.041188,8586.388927
4134.376973,229.828649,296.082377,9104.533087
4134.377288,383.047749,296.082377,9178.553681
4134.377604,229.828649,666.185348,9104.533087
4134.377919,306.438199,-0.000000,9400.615463
4134.378234,0.000000,-370.102971,9104.533087
4134.378550,-306.438199,-1406.391290,8882.471304
4134.378865,153.219100,-888.247130,9252.574275
4134.379181,-383.047749,-518.144159,9252.574275
4134.379496,-842.705048,-518.144159,9992.780217
4134.379811,-612.876398,-148.041188,9992.780217
4134.380127,-689.485948,-296.082377,10140.821405
4134.380442,-459.657299,-296.082377,10066.800811
4134.380758,76.609550,-222.061783,9474.636058
4134.381073,383.047749,-518.144159,8956.491898
4134.381388,536.266849,-74.020594,9104.533087
4134.381704,153.219100,370.102971,9548.656652
4134.382019,76.609550,814.226536,9326.594869
4134.382335,0.000000,888.247130,9770.718434
4134.382650,0.000000,518.144159,10214.842000
4134.382965,0.000000,296.082377,9622.677246
4134.383281,306.438199,-148.041188,9696.697840
4134.383596,383.047749,-518.144159,9696.697840
4134.383912,0.000000,-0.000000,10288.862594
4134.384227,-383.047749,444.123565,9696.697840
4134.384542,-459.657299,962.267725,9696.697840
4134.384858,153.219100,1110.308913,9918.759623
4134.385173,229.828649,814.226536,10436.903782
4134.385489,0.000000,444.123565,10140.821405
4134.385804,306.438199,-74.020594,9622.677246
4134.386119,229.828649,222.061783,9030.512492
4134.386435,76.609550,592.164754,9474.636058
4134.386750,76.609550,962.267725,9770.718434
4134.387066,76.609550,1036.288319,10066.800811
4134.387381,229.828649,1036.288319,9918.759623
4134.387696,153.219100,666.185348,9918.759623
4134.388012,0.000000,222.061783,9770.718434
4134.388327,536.266849,-0.000000,9770.718434
4134.388643,383.047749,222.061783,9326.594869
4134.388958,153.219100,666.185348,8882.471304
4134.389273,229.828649,888.247130,9696.697840
4134.389589,383.047749,1036.288319,9992.780217
4134.389904,229.828649,592.164754,9326.594869
4134.390219,536.266849,222.061783,9992.780217
4134.390535,306.438199,370.102971,9252.574275
4134.390850,612.876398,-74.020594,9030.512492
4134.391166,383.047749,-0.000000,9474.636058
4134.391481,459.657299,518.144159,9400.615463
4134.391796,306.438199,444.123565,9400.615463
4134.392112,842.705048,740.205942,9400.615463
4134.392427,1072.533697,592.164754,10584.944971
4134.392743,459.657299,222.061783,10214.842000
4134.393058,766.095498,222.061783,9104.533087
4134.393373,459.657299,-222.061783,9104.533087
4134.393689,766.095498,-370.102971,8882.471304
4134.394004,229.828649,222.061783,8882.471304
4134.394320,0.000000,-74.020594,9474.636058
4134.394635,0.000000,296.082377,9918.759623
4134.394950,-306.438199,-74.020594,9548.656652
4134.395266,-459.657299,-222.061783,9474.636058
4134.395581,-306.438199,-592.164754,9622.677246
4134.395897,0.000000,-666.185348,10066.800811
4134.396212,-612.876398,-296.082377,9622.677246
4134.396527,-995.924147,148.041188,9474.636058
4134.396843,-995.924147,444.123565,9326.594869
4134.397158,-459.657299,962.267725,9622.677246
4134.397474,-153.219100,370.102971,9474.636058
4134.397789,0.000000,222.061783,9844.739029
4134.398104,-229.828649,-74.020594,9178.553681
4134.398420,-153.219100,-888.247130,9696.697840
4134.398738,-229.828649,296.082377,9326.594869
4134.399054,-766.095498,-222.061783,9992.780217
4134.399369,-612.876398,-0.000000,9474.636058
4134.399684,-383.047749,222.061783,9622.677246
4134.400000,-536.266849,-296.082377,9992.780217
4134.400315,-536.266849,-370.102971,10066.800811
4134.400631,-612.876398,-148.041188,9548.656652
4134.400946,-306.438199,-740.205942,9400.615463
4134.401261,0.000000,-74.020594,9548.656652
4134.401577,153.219100,222.061783,9622.677246
4134.401892,306.438199,-148.041188,10066.800811
4134.402207,536.266849,740.205942,10066.800811
4134.402523,383.047749,666.185348,9992.780217
4134.402838,536.266849,518.144159,9474.636058
4134.403154,1302.362347,-222.061783,9474.636058
4134.403469,1302.362347,-666.185348,9918.759623
4134.403784,459.657299,-222.061783,9178.553681
4134.404100,0.000000,-518.144159,9400.615463
4134.404415,76.609550,-222.061783,9696.697840
4134.404730,383.047749,-222.061783,9844.739029
4134.405046,153.219100,-222.061783,10214.842000
4134.405361,0.000000,-518.144159,9770.718434
4134.405676,306.438199,-666.185348,9326.594869
4134.405992,536.266849,-666.185348,9252.574275
4134.406307,536.266849,-74.020594,9400.615463
4134.406623,229.828649,444.123565,9474.636058
4134.406938,306.438199,518.144159,9474.636058
4134.407253,383.047749,444.123565,9474.636058
4134.407569,459.657299,-0.000000,9696.697840
4134.407884,306.438199,-0.000000,9400.615463
4134.408199,612.876398,-962.267725,9474.636058
4134.408515,229.828649,-296.082377,9030.512492
4134.408830,-383.047749,-0.000000,8956.491898
4134.409146,-383.047749,370.102971,9178.553681
4134.409461,0.000000,222.061783,9104.533087
4134.409776,0.000000,370.102971,9696.697840
4134.410092,-612.876398,-370.102971,9844.739029
4134.410407,-459.657299,-296.082377,9474.636058
4134.410722,229.828649,-518.144159,9252.574275
4134.411038,459.657299,222.061783,9104.533087
4134.411353,76.609550,962.267725,9474.636058
4134.411668,0.000000,1554.432478,8808.450710
4134.411984,383.047749,1850.514855,9326.594869
4134.412299,459.657299,1850.514855,9474.636058
4134.412615,0.000000,1036.288319,9770.718434
4134.412930,0.000000,1258.350101,9400.615463
4134.413245,0.000000,-74.020594,9548.656652
4134.413561,0.000000,296.082377,10066.800811
4134.413876,-842.705048,-0.000000,9548.656652
4134.414191,-536.266849,296.082377,10510.924376
4134.414507,-919.314598,592.164754,11029.068536
4134.414822,-612.876398,888.247130,9992.780217
4134.415138,-229.828649,518.144159,10362.883188
4134.415453,536.266849,444.123565,9770.718434
4134.415768,842.705048,296.082377,9400.615463
4134.416084,842.705048,1258.350101,9770.718434
4134.416399,0.000000,1480.411884,9326.594869
4134.416714,612.876398,1258.350101,9844.739029
4134.417030,383.047749,1110.308913,9844.739029
4134.417345,229.828649,814.226536,10140.821405
4134.417660,0.000000,222.061783,10066.800811
4134.417976,0.000000,-148.041188,10066.800811
4134.418291,-153.219100,-370.102971,9918.759623
4134.418607,-536.266849,-148.041188,10066.800811
4134.418922,-766.095498,-0.000000,10066.800811
4134.419237,-842.705048,-0.000000,10584.944971
4134.419553,0.000000,296.082377,10140.821405
4134.419868,0.000000,296.082377,10066.800811
4134.420183,0.000000,148.041188,9622.677246
4134.420499,459.657299,-148.041188,9918.759623
4134.420814,766.095498,222.061783,8660.409521
4134.421130,766.095498,296.082377,8660.409521
4134.421445,766.095498,740.205942,8586.388927
4134.421760,612.876398,444.123565,9252.574275
4134.422076,919.314598,296.082377,9622.677246
4134.422391,0.000000,-74.020594,9918.759623
4134.422706,0.000000,-296.082377,9696.697840
4134.423022,306.438199,-740.205942,9400.615463
4134.423337,306.438199,-592.164754,8956.491898
4134.423652,-229.828649,-222.061783,9326.594869
4134.423968,-459.657299,148.041188,9474.636058
4134.424283,76.609550,222.061783,9622.677246
4134.424599,306.438199,518.144159,9548.656652
4134.424914,306.438199,-222.061783,9844.739029
4134.425229,76.609550,-0.000000,9696.697840
4134.425545,612.876398,-0.000000,9548.656652
4134.425860,1149.143247,-74.020594,9474.636058
4134.426175,612.876398,-0.000000,9400.615463
4134.426491,919.314598,-0.000000,9474.636058
4134.426806,612.876398,-0.000000,9548.656652
4134.427122,689.485948,370.102971,9770.718434
4134.427437,612.876398,-518.144159,10584.944971
4134.427752,-612.876398,296.082377,9178.553681
4134.428068,306.438199,-1480.411884,9696.697840
4134.428383,459.657299,-1554.432478,9548.656652
4134.428698,0.000000,-370.102971,9622.677246
4134.429014,306.438199,-592.164754,9326.594869
4134.429329,383.047749,-0.000000,10140.821405
4134.429644,76.609550,296.082377,11029.068536
4134.429960,-229.828649,-444.123565,9918.759623
4134.430275,306.438199,-296.082377,9474.636058
4134.430591,612.876398,-444.123565,9400.615463
4134.430906,689.485948,-148.041188,8808.450710
4134.431221,612.876398,148.041188,9104.533087
4134.431537,-766.095498,370.102971,9474.636058
4134.431852,-306.438199,370.102971,10066.800811
4134.432167,0.000000,518.144159,9622.677246
4134.432483,-383.047749,-296.082377,9918.759623
4134.432798,-383.047749,-740.205942,9992.780217
4134.433114,-306.438199,-888.247130,9548.656652
4134.433429,-536.266849,-814.226536,9474.636058
4134.433744,-919.314598,-0.000000,9326.594869
4134.434060,-459.657299,518.144159,9252.574275
4134.434375,0.000000,1036.288319,9696.697840
4134.434690,0.000000,1110.308913,9622.677246
4134.435006,0.000000,1036.288319,9548.656652
4134.435321,306.438199,962.267725,9104.533087
4134.435636,-383.047749,-0.000000,9622.677246
4134.435952,-459.657299,222.061783,9474.636058
4134.436267,-766.095498,592.164754,9474.636058
4134.436583,-536.266849,740.205942,9400.615463
4134.436898,-306.438199,962.267725,9992.780217
4134.437213,0.000000,888.247130,9918.759623
4134.437529,-459.657299,592.164754,10066.800811
4134.437844,-306.438199,814.226536,9178.553681
4134.438159,153.219100,370.102971,9326.594869
4134.438475,919.314598,444.123565,9326.594869
4134.438790,229.828649,740.205942,9548.656652
4134.439106,306.438199,888.247130,9844.739029
4134.439421,919.314598,1332.370696,9178.553681
4134.439736,306.438199,1110.308913,9474.636058
4134.440052,0.000000,296.082377,9770.718434
4134.440367,766.095498,296.082377,9474.636058
4134.440682,766.095498,222.061783,9918.759623
4134.440998,306.438199,444.123565,9770.718434
4134.441313,306.438199,666.185348,9844.739029
4134.441628,459.657299,222.061783,9918.759623
4134.441944,153.219100,740.205942,10436.903782
4134.442259,306.438199,592.164754,10510.924376
4134.442575,536.266849,518.144159,9770.718434
4134.442890,1149.143247,-74.020594,9178.553681
4134.443205,1991.848295,-0.000000,9474.636058
4134.443521,612.876398,74.020594,9178.553681
4134.443836,383.047749,296.082377,9548.656652
4134.444151,689.485948,666.185348,10066.800811
4134.444467,612.876398,888.247130,9770.718434
4134.444782,306.438199,-0.000000,10066.800811
4134.445098,536.266849,-0.000000,9770.718434
4134.445413,383.047749,-592.164754,9992.780217
4134.445728,383.047749,-740.205942,9474.636058
4134.446044,0.000000,-370.102971,9622.677246
4134.446359,0.000000,222.061783,9548.656652
4134.446674,229.828649,296.082377,9918.759623
4134.446990,153.219100,740.205942,9622.677246
4134.447305,153.219100,-0.000000,9548.656652
4134.447620,229.828649,-0.000000,9474.636058
4134.447936,766.095498,-296.082377,9252.574275
4134.448251,536.266849,-74.020594,9030.512492
4134.448567,229.828649,-148.041188,9400.615463
4134.448882,0.000000,148.041188,9474.636058
4134.449197,-153.219100,296.082377,9548.656652
4134.449513,-153.219100,-0.000000,9844.739029
4134.449828,-536.266849,-148.041188,9696.697840
4134.450143,-689.485948,-518.144159,9326.594869
4134.450459,-306.438199,-1258.350101,9400.615463
4134.450774,-306.438199,-666.185348,9622.677246
4134.451090,-1225.752797,-962.267725,9326.594869
4134.451405,-995.924147,-592.164754,9992.780217
4134.451720,-536.266849,-222.061783,10140.821405
4134.452036,-229.828649,-0.000000,9918.759623
4134.452351,-306.438199,-444.123565,9918.759623
4134.452666,-153.219100,-296.082377,9400.615463
4134.452982,0.000000,-592.164754,9030.512492
4134.453297,0.000000,-444.123565,8512.368333
4134.453612,0.000000,-296.082377,8808.450710
4134.453928,0.000000,-518.144159,9622.677246
4134.454243,-306.438199,-74.020594,9548.656652
4134.454559,-919.314598,-518.144159,9622.677246
4134.454874,-1072.533697,-518.144159,9992.780217
4134.455189,-689.485948,-740.205942,9474.636058
4134.455505,0.000000,-1184.329507,9474.636058
4134.455820,-383.047749,-1110.308913,9474.636058
4134.456135,-536.266849,-518.144159,9400.615463
4134.456451,-153.219100,-0.000000,9696.697840
4134.456766,383.047749,370.102971,9474.636058
4134.457082,842.705048,370.102971,9992.780217
4134.457397,536.266849,518.144159,9326.594869
4134.457712,842.705048,296.082377,8882.471304
4134.458028,1149.143247,-74.020594,8808.450710
4134.458343,1149.143247,592.164754,8586.388927
4134.458658,306.438199,814.226536,9252.574275
4134.458974,0.000000,962.267725,9844.739029
4134.459289,76.609550,1036.288319,10510.924376
4134.459604,76.609550,296.082377,10436.903782
4134.459920,-229.828649,222.061783,9696.697840
4134.460235,0.000000,-148.041188,9992.780217
4134.460551,0.000000,-74.020594,9548.656652
4134.460866,0.000000,592.164754,9918.759623
4134.461181,153.219100,1184.329507,9918.759623
4134.461497,689.485948,1110.308913,10066.800811
4134.461812,689.485948,1776.494261,9548.656652
4134.462127,306.438199,2146.597232,9474.636058
4134.462443,383.047749,1850.514855,9844.739029
4134.462758,689.485948,814.226536,9696.697840
4134.463074,766.095498,444.123565,9474.636058
4134.463389,0.000000,444.123565,9474.636058
4134.463704,0.000000,814.226536,9844.739029
4134.464020,0.000000,740.205942,10584.944971
4134.464335,-229.828649,1036.288319,10140.821405
4134.464650,-612.876398,518.144159,10955.047942
4134.464966,0.000000,296.082377,9992.780217
4134.465281,229.828649,-0.000000,9622.677246
4134.465596,383.047749,-0.000000,9622.677246
4134.465912,612.876398,666.185348,9474.636058
4134.466227,689.485948,518.144159,9622.677246
4134.466543,842.705048,1110.308913,9548.656652
4134.466858,995.924147,962.267725,9474.636058
4134.467173,536.266849,444.123565,9622.677246
4134.467489,536.266849,-148.041188,9474.636058
4134.467804,919.314598,-518.144159,9252.574275
4134.468119,689.485948,-296.082377,9178.553681
4134.468435,76.609550,-0.000000,9400.615463
4134.468750,0.000000,-222.061783,9474.636058
4134.469066,0.000000,-296.082377,10214.842000
4134.469381,0.000000,-148.041188,9918.759623
4134.469696,-536.266849,-296.082377,9844.739029
4134.470012,-612.876398,-592.164754,9548.656652
4134.470327,0.000000,-370.102971,9178.553681
4134.470642,0.000000,-592.164754,8882.471304
4134.470958,-229.828649,-74.020594,9400.615463
4134.471273,-306.438199,370.102971,9696.697840
4134.471588,0.000000,518.144159,9622.677246
4134.471904,0.000000,444.123565,9844.739029
4134.472219,-153.219100,-0.000000,9696.697840
4134.472535,0.000000,-0.000000,9104.533087
4134.472850,536.266849,-222.061783,8956.491898
4134.473165,0.000000,-370.102971,9326.594869
4134.473481,-536.266849,-222.061783,9326.594869
4134.473796,-306.438199,-222.061783,9178.553681
4134.474111,-306.438199,296.082377,9252.574275
4134.474427,-612.876398,222.061783,9622.677246
4134.474742,-766.095498,-370.102971,9770.718434
4134.475058,-383.047749,-1184.329507,9400.615463
4134.475373,-459.657299,-1110.308913,9326.594869
4134.475688,-383.047749,-444.123565,9770.718434
4134.476004,-306.438199,-74.020594,9474.636058
4134.476319,153.219100,-74.020594,9474.636058
4134.476634,459.657299,-0.000000,10066.800811
4134.476950,842.705048,296.082377,9400.615463
4134.477265,766.095498,-0.000000,9474.636058
4134.477580,995.924147,-0.000000,9030.512492
4134.477896,842.705048,-296.082377,8882.471304
4134.478211,459.657299,-666.185348,9030.512492
4134.478527,76.609550,-592.164754,9622.677246
4134.478842,-76.609550,-444.123565,9918.759623
4134.479157,-383.047749,-0.000000,10510.924376
4134.479473,-612.876398,-148.041188,10066.800811
4134.479788,-459.657299,-444.123565,10436.903782
4134.480103,0.000000,-444.123565,9844.739029
4134.480419,306.438199,-518.144159,9844.739029
4134.480734,459.657299,-0.000000,9548.656652
4134.481050,306.438199,814.226536,9696.697840
4134.481365,536.266849,1110.308913,9696.697840
4134.481680,459.657299,1332.370696,9770.718434
4134.481996,459.657299,1110.308913,10066.800811
4134.482311,306.438199,-0.000000,10066.800811
4134.482626,383.047749,444.123565,9770.718434
4134.482942,536.266849,-0.000000,9400.615463
4134.483257,0.000000,518.144159,9178.553681
4134.483572,-612.876398,666.185348,9622.677246
4134.483888,-842.705048,-0.000000,9844.739029
4134.484203,-459.657299,370.102971,9622.677246
4134.484519,-229.828649,-0.000000,10140.821405
4134.484834,-612.876398,296.082377,9474.636058
4134.485149,0.000000,222.061783,9474.636058
4134.485465,153.219100,814.226536,8956.491898
4134.485780,76.609550,1184.329507,8956.491898
4134.486095,536.266849,1110.308913,9252.574275
4134.486411,229.828649,1406.391290,9918.759623
4134.486726,153.219100,1776.494261,9918.759623
4134.487042,-229.828649,962.267725,10140.821405
4134.487357,-306.438199,962.267725,9770.718434
4134.487672,383.047749,-0.000000,9844.739029
4134.487988,383.047749,-0.000000,9030.512492
4134.488303,0.000000,444.123565,9400.615463
4134.488618,-229.828649,370.102971,9474.636058
4134.488934,-153.219100,444.123565,10436.903782
4134.489249,0.000000,814.226536,9548.656652
4134.489564,-153.219100,-0.000000,9696.697840
4134.489880,153.219100,-74.020594,9770.718434
4134.490195,76.609550,370.102971,8734.430116
4134.490511,153.219100,-0.000000,9400.615463
4134.490826,536.266849,222.061783,9548.656652
4134.491141,306.438199,740.205942,9622.677246
4134.491457,612.876398,444.123565,10140.821405
4134.491772,612.876398,592.164754,9992.780217
4134.492087,76.609550,518.144159,10140.821405
4134.492403,383.047749,370.102971,9992.780217
4134.492718,766.095498,-0.000000,9548.656652
4134.493034,459.657299,592.164754,9400.615463
4134.493349,383.047749,296.082377,9622.677246
4134.493664,76.609550,296.082377,9474.636058
4134.493980,0.000000,222.061783,10066.800811
4134.494295,-306.438199,-296.082377,10140.821405
4134.494610,-306.438199,-666.185348,10140.821405
4134.494926,0.000000,-74.020594,9548.656652
4134.495241,766.095498,-592.164754,9844.739029
4134.495556,153.219100,-0.000000,8956.491898
4134.495872,229.828649,-0.000000,9474.636058
4134.496187,459.657299,444.123565,9474.636058
4134.496502,995.924147,740.205942,9178.553681
4134.496818,766.095498,666.185348,9326.594869
4134.497133,383.047749,-0.000000,9474.636058
4134.497448,383.047749,-518.144159,9622.677246
4134.497764,306.438199,-666.185348,9400.615463
4134.498079,-766.095498,-296.082377,9178.553681
4134.498394,-229.828649,-222.061783,9622.677246
4134.498709,-153.219100,-518.144159,9696.697840
4134.499025,-306.438199,370.102971,9030.512492
4134.499340,-383.047749,-740.205942,10140.821405
4134.499655,0.000000,-740.205942,10362.883188
4134.499971,306.438199,-740.205942,8808.450710
4134.500286,689.485948,-740.205942,8512.368333
4134.500601,383.047749,222.061783,9326.594869
4134.500916,153.219100,444.123565,8660.409521
4134.501232,689.485948,666.185348,9326.594869
4134.501547,536.266849,-0.000000,9474.636058
4134.501862,612.876398,-0.000000,10066.800811
4134.502177,0.000000,-74.020594,9400.615463
4134.502493,0.000000,-444.123565,9178.553681
4134.502808,153.219100,-370.102971,10066.800811
4134.503123,-153.219100,-518.144159,10140.821405
4134.503439,-229.828649,-296.082377,10140.821405
4134.503754,0.000000,-296.082377,10362.883188
4134.504069,306.438199,148.041188,10140.821405
4134.504384,459.657299,-222.061783,10140.821405
4134.504700,536.266849,444.123565,9622.677246
4134.505015,995.924147,-0.000000,9252.574275
4134.505330,995.924147,222.061783,8660.409521
4134.505646,612.876398,148.041188,8882.471304
4134.505961,306.438199,370.102971,9548.656652
4134.506276,306.438199,666.185348,9696.697840
4134.506591,0.000000,518.144159,10214.842000
4134.506907,-842.705048,-0.000000,10140.821405
4134.507222,-536.266849,-370.102971,10214.842000
4134.507537,-689.485948,-962.267725,9696.697840
4134.507852,-459.657299,-296.082377,9696.697840
4134.508168,-1072.533697,-0.000000,9844.739029
4134.508483,-766.095498,444.123565,9696.697840
4134.508798,-306.438199,1258.350101,9622.677246
4134.509114,0.000000,1554.432478,9474.636058
4134.509429,-306.438199,888.247130,9474.636058
4134.509744,153.219100,962.267725,9178.553681
4134.510059,229.828649,518.144159,8882.471304
4134.510375,229.828649,370.102971,9474.636058
4134.510690,-306.438199,962.267725,9474.636058
4134.511005,-459.657299,592.164754,9474.636058
4134.511321,0.000000,814.226536,10066.800811
4134.511636,-153.219100,592.164754,9770.718434
4134.511951,-306.438199,444.123565,9770.718434
4134.512266,-383.047749,-0.000000,9918.759623
4134.512582,536.266849,-0.000000,9696.697840
4134.512897,229.828649,592.164754,8808.450710
4134.513212,0.000000,888.247130,9030.512492
4134.513527,76.609550,444.123565,10066.800811
4134.513843,536.266849,1036.288319,10436.903782
4134.514158,459.657299,740.205942,10288.862594
4134.514473,383.047749,962.267725,9992.780217
4134.514789,459.657299,444.123565,9622.677246
4134.515104,1225.752797,148.041188,9622.677246
4134.515419,383.047749,296.082377,9474.636058
4134.515734,306.438199,296.082377,9548.656652
4134.516050,153.219100,370.102971,10362.883188
4134.516365,229.828649,444.123565,10510.924376
4134.516680,153.219100,296.082377,9696.697840
4134.516995,0.000000,-0.000000,10214.842000
4134.517311,76.609550,-148.041188,9474.636058
4134.517626,459.657299,-370.102971,9474.636058
4134.517941,536.266849,-0.000000,9400.615463
4134.518257,459.657299,-0.000000,9548.656652
4134.518572,306.438199,370.102971,9622.677246
4134.518887,459.657299,888.247130,9622.677246
4134.519202,306.438199,296.082377,9696.697840
4134.519518,536.266849,-0.000000,9178.553681
4134.519833,459.657299,-0.000000,9178.553681
4134.520148,383.047749,-444.123565,9030.512492
4134.520464,-536.266849,-0.000000,9474.636058
4134.520779,-612.876398,-592.164754,9696.697840
4134.521094,0.000000,-370.102971,9844.739029
4134.521409,76.609550,-444.123565,9992.780217
4134.521725,-76.609550,-370.102971,9918.759623
4134.522040,-153.219100,-296.082377,9474.636058
4134.522355,306.438199,-444.123565,9326.594869
4134.522670,1455.581446,-518.144159,8734.430116
4134.522986,689.485948,-222.061783,8956.491898
4134.523301,689.485948,-222.061783,8882.471304
4134.523616,919.314598,518.144159,9326.594869
4134.523932,383.047749,740.205942,9474.636058
4134.524247,76.609550,-222.061783,9400.615463
4134.524562,-229.828649,-148.041188,9474.636058
4134.524877,76.609550,-814.226536,9696.697840
4134.525193,0.000000,-888.247130,9474.636058
4134.525508,-383.047749,-518.144159,9918.759623
4134.525823,-306.438199,-592.164754,10510.924376
4134.526139,-383.047749,-0.000000,10807.006753
4134.526454,-383.047749,-74.020594,10362.883188
4134.526769,-383.047749,-0.000000,10288.862594
4134.527084,153.219100,-222.061783,10066.800811
4134.527400,306.438199,-592.164754,9474.636058
4134.527715,842.705048,-0.000000,8956.491898
4134.528030,0.000000,-0.000000,8882.471304
4134.528345,76.609550,-0.000000,9622.677246
4134.528661,76.609550,444.123565,9474.636058
4134.528976,0.000000,-0.000000,9104.533087
4134.529291,0.000000,-222.061783,10288.862594
4134.529607,-153.219100,-592.164754,9844.739029
4134.529922,-306.438199,-1184.329507,9400.615463
4134.530237,-383.047749,-592.164754,10066.800811
4134.530552,-612.876398,-814.226536,9844.739029
4134.530868,0.000000,-74.020594,9696.697840
4134.531183,0.000000,592.164754,9992.780217
4134.531498,229.828649,518.144159,9770.718434
4134.531814,0.000000,444.123565,9474.636058
4134.532129,459.657299,518.144159,8734.430116
4134.532444,842.705048,222.061783,8660.409521
4134.532759,842.705048,518.144159,8216.285956
4134.533075,229.828649,444.123565,8586.388927
4134.533390,306.438199,370.102971,9400.615463
4134.533705,153.219100,592.164754,9548.656652
4134.534020,-229.828649,296.082377,10066.800811
4134.534336,-459.657299,296.082377,9622.677246
4134.534651,-306.438199,-296.082377,9696.697840
4134.534966,306.438199,-296.082377,9474.636058
4134.535282,153.219100,296.082377,9178.553681
4134.535597,306.438199,666.185348,9252.574275
4134.535912,153.219100,962.267725,9992.780217
4134.536227,0.000000,1480.411884,9918.759623
4134.536543,0.000000,1332.370696,9548.656652
4134.536858,153.219100,1332.370696,9696.697840
4134.537173,459.657299,888.247130,9770.718434
4134.537489,536.266849,518.144159,9770.718434
4134.537804,306.438199,666.185348,9844.739029
4134.538119,76.609550,1036.288319,9770.718434
4134.538434,153.219100,592.164754,10362.883188
4134.538750,76.609550,1110.308913,10362.883188
4134.539065,-229.828649,666.185348,10732.986159
4134.539380,-306.438199,814.226536,9918.759623
4134.539695,76.609550,296.082377,9548.656652
4134.540011,536.266849,-74.020594,9548.656652
4134.540326,229.828649,-0.000000,9696.697840
4134.540641,0.000000,814.226536,9400.615463
4134.540957,0.000000,444.123565,10288.862594
4134.541272,459.657299,1110.308913,9696.697840
4134.541587,766.095498,592.164754,10362.883188
4134.541902,306.438199,888.247130,9548.656652
4134.542218,689.485948,-74.020594,9400.615463
4134.542533,766.095498,148.041188,9178.553681
4134.542848,383.047749,296.082377,9178.553681
4134.543163,459.657299,370.102971,10288.862594
4134.543479,0.000000,296.082377,9992.780217
4134.543794,-459.657299,296.082377,9548.656652
4134.544109,-689.485948,-0.000000,9474.636058
4134.544425,-459.657299,-444.123565,9622.677246
4134.544740,306.438199,-74.020594,9474.636058
4134.545055,0.000000,-74.020594,9474.636058
4134.545370,0.000000,-518.144159,9474.636058
4134.545686,0.000000,-296.082377,9400.615463
4134.546001,459.657299,-0.000000,9400.615463
4134.546316,0.000000,296.082377,9696.697840
4134.546632,76.609550,-0.000000,9992.780217
4134.546947,383.047749,-74.020594,9326.594869
4134.547262,536.266849,-518.144159,8734.430116
4134.547577,306.438199,-222.061783,8956.491898
4134.547893,153.219100,-0.000000,8956.491898
4134.548208,0.000000,-74.020594,9770.718434
4134.548523,76.609550,-74.020594,9696.697840
4134.548838,0.000000,-592.164754,10140.821405
4134.549154,-536.266849,-740.205942,10288.862594
4134.549469,0.000000,-518.144159,9696.697840
4134.549784,76.609550,-814.226536,9696.697840
4134.550100,76.609550,-444.123565,9548.656652
4134.550415,0.000000,-74.020594,9104.533087
4134.550730,536.266849,-0.000000,9474.636058
4134.551045,689.485948,296.082377,9474.636058
4134.551361,612.876398,-0.000000,9178.553681
4134.551676,689.485948,-74.020594,9104.533087
4134.551991,612.876398,-518.144159,8586.388927
4134.552307,689.485948,-1036.288319,9252.574275
4134.552622,459.657299,-518.144159,8956.491898
4134.552937,153.219100,-444.123565,9326.594869
4134.553252,229.828649,-296.082377,9770.718434
4134.553568,459.657299,-0.000000,9622.677246
4134.553883,0.000000,-518.144159,9992.780217
4134.554198,0.000000,-444.123565,10436.903782
4134.554513,-153.219100,-666.185348,9770.718434
4134.554829,536.266849,-1036.288319,9178.553681
4134.555144,383.047749,-296.082377,9548.656652
4134.555459,0.000000,444.123565,8956.491898
4134.555775,0.000000,444.123565,9696.697840
4134.556090,229.828649,962.267725,9918.759623
4134.556405,-383.047749,222.061783,9548.656652
4134.556720,-306.438199,-0.000000,9918.759623
4134.557036,0.000000,-444.123565,9400.615463
4134.557351,153.219100,-592.164754,9400.615463
4134.557666,0.000000,-0.000000,9474.636058
4134.557982,-612.876398,370.102971,9548.656652
4134.558297,-229.828649,592.164754,9326.594869
4134.558612,-383.047749,962.267725,9844.739029
4134.558927,-919.314598,888.247130,10066.800811
4134.559243,-689.485948,740.205942,9548.656652
4134.559558,76.609550,-296.082377,9548.656652
4134.559873,0.000000,222.061783,9696.697840
4134.560188,-612.876398,666.185348,9622.677246
4134.560504,-919.314598,962.267725,10214.842000
4134.560819,-383.047749,1480.411884,10658.965565
4134.561134,229.828649,1554.432478,10140.821405
4134.561450,0.000000,1332.370696,9918.759623
4134.561765,383.047749,1036.288319,9696.697840
4134.562080,229.828649,740.205942,9622.677246
4134.562395,229.828649,666.185348,9178.553681
4134.562711,0.000000,888.247130,8956.491898
4134.563026,-229.828649,370.102971,9474.636058
4134.563341,76.609550,518.144159,9622.677246
4134.563656,-153.219100,444.123565,9770.718434
4134.563972,-536.266849,-0.000000,10288.862594
4134.564287,-383.047749,-222.061783,10066.800811
4134.564602,229.828649,-296.082377,9622.677246
4134.564918,153.219100,-0.000000,9548.656652
4134.565233,0.000000,370.102971,9770.718434
4134.565548,306.438199,592.164754,9918.759623
4134.565863,459.657299,962.267725,10584.944971
4134.566179,1149.143247,1258.350101,9770.718434
4134.566494,612.876398,740.205942,9696.697840
4134.566809,1072.533697,814.226536,9548.656652
4134.567125,842.705048,518.144159,9030.512492
4134.567440,689.485948,296.082377,9400.615463
4134.567755,153.219100,-0.000000,9474.636058
4134.568070,153.219100,-74.020594,9918.759623
4134.568386,0.000000,-0.000000,10140.821405
4134.568701,0.000000,-370.102971,9992.780217
4134.569016,0.000000,-666.185348,9770.718434
4134.569331,0.000000,-962.267725,10066.800811
4134.569647,766.095498,-814.226536,9844.739029
4134.569962,383.047749,-296.082377,8586.388927
4134.570277,1149.143247,-0.000000,8956.491898
4134.570593,1225.752797,370.102971,8956.491898
4134.570908,1378.971896,962.267725,9030.512492
4134.571223,1149.143247,592.164754,9474.636058
4134.571538,689.485948,666.185348,9104.533087
4134.571854,842.705048,-296.082377,9474.636058
4134.572169,1072.533697,-740.205942,9400.615463
4134.572484,536.266849,-370.102971,8956.491898
4134.572800,-306.438199,-296.082377,9844.739029
4134.573115,-459.657299,-296.082377,10066.800811
4134.573430,-459.657299,-74.020594,9844.739029
4134.573745,-536.266849,-444.123565,10362.883188
4134.574061,-842.705048,-444.123565,9474.636058
4134.574376,0.000000,-296.082377,9548.656652
4134.574691,229.828649,-592.164754,8882.471304
4134.575006,842.705048,-370.102971,9474.636058
4134.575322,0.000000,-0.000000,9104.533087
4134.575637,153.219100,-0.000000,9474.636058
4134.575952,76.609550,-0.000000,9770.718434
4134.576268,0.000000,-222.061783,10066.800811
4134.576583,0.000000,-444.123565,9474.636058
4134.576898,153.219100,-1110.308913,9400.615463
4134.577213,-153.219100,-962.267725,9400.615463
4134.577529,-612.876398,-296.082377,9474.636058
4134.577844,-536.266849,-222.061783,9326.594869
4134.578159,-536.266849,-370.102971,9696.697840
4134.578475,-383.047749,-222.061783,10066.800811
4134.578790,-612.876398,-444.123565,10214.842000
4134.579105,-842.705048,-296.082377,9992.780217
4134.579420,-76.609550,-74.020594,9252.574275
4134.579736,76.609550,-0.000000,9104.533087
4134.580051,-229.828649,-0.000000,9104.533087
4134.580366,-229.828649,222.061783,9992.780217
4134.580681,0.000000,888.247130,9918.759623
4134.580997,-153.219100,962.267725,9474.636058
4134.581312,-459.657299,518.144159,9918.759623
4134.581627,-306.438199,370.102971,9844.739029
4134.581943,0.000000,-444.123565,9474.636058
4134.582258,-306.438199,370.102971,9474.636058
4134.582573,-689.485948,666.185348,8956.491898
4134.582888,-1072.533697,296.082377,9548.656652
4134.583204,-229.828649,814.226536,9844.739029
4134.583519,-536.266849,888.247130,10584.944971
4134.583834,-766.095498,592.164754,10510.924376
4134.584150,0.000000,518.144159,9622.677246
4134.584465,536.266849,518.144159,9548.656652
4134.584780,842.705048,740.205942,9474.636058
4134.585095,689.485948,1628.453072,9104.533087
4134.585411,612.876398,1628.453072,9400.615463
4134.585726,1149.143247,1776.494261,9696.697840
4134.586041,1149.143247,2072.576638,9400.615463
4134.586356,689.485948,1258.350101,9326.594869
4134.586672,536.266849,814.226536,9474.636058
4134.586987,766.095498,-0.000000,9474.636058
4134.587302,306.438199,-148.041188,9548.656652
4134.587618,153.219100,-0.000000,9918.759623
4134.587933,229.828649,222.061783,10362.883188
4134.588248,383.047749,1036.288319,10214.842000
4134.588563,536.266849,740.205942,10066.800811
4134.588879,842.705048,592.164754,9844.739029
4134.589194,1072.533697,222.061783,9474.636058
4134.589509,1302.362347,-0.000000,8956.491898
4134.589824,1149.143247,518.144159,9178.553681
4134.590140,919.314598,592.164754,9400.615463
4134.590455,842.705048,814.226536,9474.636058
4134.590770,1532.190996,222.061783,9918.759623
4134.591086,766.095498,-0.000000,10510.924376
4134.591401,76.609550,222.061783,10140.821405
4134.591716,383.047749,-222.061783,9326.594869
4134.592031,383.047749,-370.102971,9474.636058
4134.592347,229.828649,-148.041188,9400.615463
4134.592662,-153.219100,-222.061783,9474.636058
4134.592977,-383.047749,-0.000000,9770.718434
4134.593293,0.000000,-0.000000,9696.697840
4134.593608,-229.828649,-222.061783,9918.759623
4134.593923,0.000000,-0.000000,9474.636058
4134.594238,0.000000,-0.000000,8882.471304
4134.594554,0.000000,148.041188,8882.471304
4134.594869,-306.438199,-74.020594,9104.533087
4134.595184,-459.657299,-0.000000,9400.615463
4134.595499,-459.657299,222.061783,9844.739029
4134.595815,-536.266849,-0.000000,9696.697840
4134.596130,-842.705048,-666.185348,9992.780217
4134.596445,-919.314598,-814.226536,9918.759623
4134.596761,-383.047749,-740.205942,9548.656652
4134.597076,-612.876398,-0.000000,9178.553681
4134.597391,-766.095498,-222.061783,9252.574275
4134.597706,-766.095498,-0.000000,9474.636058
4134.598021,-383.047749,-0.000000,9326.594869
4134.598337,-229.828649,-0.000000,9474.636058
4134.598652,-153.219100,-296.082377,9992.780217
4134.598967,-919.314598,-518.144159,9400.615463
4134.599282,-536.266849,-814.226536,9844.739029
4134.599598,0.000000,-814.226536,9918.759623
4134.599913,306.438199,-666.185348,9252.574275
4134.600228,0.000000,-518.144159,10066.800811
4134.600543,0.000000,-0.000000,9770.718434
4134.600858,306.438199,370.102971,10066.800811
4134.601174,229.828649,-444.123565,9844.739029
4134.601489,229.828649,-518.144159,9548.656652
4134.601804,919.314598,-888.247130,9252.574275
4134.602119,1149.143247,-222.061783,8882.471304
4134.602434,689.485948,-74.020594,9326.594869
4134.602750,689.485948,-0.000000,9400.615463
4134.603065,919.314598,-74.020594,9770.718434
4134.603380,612.876398,-148.041188,9844.739029
4134.603695,153.219100,-444.123565,9622.677246
4134.604010,306.438199,-296.082377,9030.512492
4134.604326,383.047749,-888.247130,9474.636058
4134.604641,612.876398,-370.102971,9474.636058
4134.604956,153.219100,296.082377,9474.636058
4134.605271,76.609550,666.185348,9178.553681
4134.605586,383.047749,740.205942,9770.718434
4134.605902,459.657299,962.267725,10140.821405
4134.606217,459.657299,444.123565,9474.636058
4134.606532,306.438199,592.164754,9400.615463
4134.606847,229.828649,296.082377,9178.553681
4134.607163,229.828649,444.123565,8660.409521
4134.607478,229.828649,518.144159,9104.533087
4134.607793,0.000000,740.205942,9696.697840
4134.608108,0.000000,1036.288319,9696.697840
4134.608423,-383.047749,1406.391290,9844.739029
4134.608739,-459.657299,888.247130,9548.656652
4134.609054,-153.219100,666.185348,9622.677246
4134.609369,153.219100,148.041188,9548.656652
4134.609684,0.000000,814.226536,9252.574275
4134.609999,-612.876398,740.205942,9918.759623
4134.610315,-306.438199,518.144159,10140.821405
4134.610630,-383.047749,1184.329507,10140.821405
4134.610945,0.000000,1036.288319,10510.924376
4134.611260,-229.828649,666.185348,10288.862594
4134.611575,536.266849,-296.082377,10288.862594
4134.611891,229.828649,-0.000000,9474.636058
4134.612206,383.047749,370.102971,8882.471304
4134.612521,-153.219100,888.247130,9326.594869
4134.612836,383.047749,1184.329507,9326.594869
4134.613151,383.047749,1110.308913,9622.677246
4134.613467,-306.438199,666.185348,9992.780217
4134.613782,0.000000,666.185348,9622.677246
4134.614097,0.000000,-0.000000,9474.636058
4134.614412,0.000000,-74.020594,9844.739029
4134.614728,0.000000,-0.000000,9918.759623
4134.615043,0.000000,222.061783,10510.924376
4134.615358,0.000000,296.082377,10436.903782
4134.615673,-153.219100,666.185348,10436.903782
4134.615988,-306.438199,222.061783,10362.883188
4134.616304,459.657299,370.102971,9992.780217
4134.616619,1225.752797,814.226536,9622.677246
4134.616934,1149.143247,296.082377,8734.430116
4134.617249,766.095498,592.164754,8660.409521
4134.617564,842.705048,370.102971,8956.491898
4134.617880,1149.143247,-0.000000,9474.636058
4134.618195,306.438199,-74.020594,9992.780217
4134.618510,0.000000,-222.061783,9474.636058
4134.618825,0.000000,-518.144159,9696.697840
4134.619140,76.609550,-1406.391290,9696.697840
4134.619456,76.609550,-666.185348,9030.512492
4134.619771,-459.657299,-592.164754,9548.656652
4134.620086,-612.876398,-74.020594,9844.739029
4134.620401,0.000000,222.061783,10140.821405
4134.620716,229.828649,518.144159,10362.883188
4134.621032,0.000000,444.123565,9918.759623
4134.621347,383.047749,370.102971,9548.656652
4134.621662,1302.362347,-0.000000,8808.450710
4134.621977,1225.752797,296.082377,8956.491898
4134.622293,612.876398,592.164754,8956.491898
4134.622608,306.438199,-0.000000,9400.615463
4134.622923,689.485948,-222.061783,9326.594869
4134.623238,-306.438199,-444.123565,9622.677246
4134.623553,-842.705048,-592.164754,9992.780217
4134.623869,-919.314598,-1628.453072,9474.636058
4134.624184,-536.266849,-1776.494261,9696.697840
4134.624499,-383.047749,-1184.329507,9252.574275
4134.624814,-689.485948,-962.267725,9474.636058
4134.625129,0.000000,-444.123565,9696.697840
4134.625445,0.000000,-74.020594,10066.800811
4134.625760,306.438199,-0.000000,9844.739029
4134.626075,0.000000,-0.000000,9622.677246
4134.626390,459.657299,296.082377,9474.636058
4134.626705,842.705048,-74.020594,9178.553681
4134.627021,459.657299,-0.000000,9178.553681
4134.627336,153.219100,-0.000000,8956.491898
4134.627651,153.219100,-74.020594,9622.677246
4134.627966,76.609550,-222.061783,9918.759623
4134.628281,-689.485948,-222.061783,9918.759623
4134.628597,-1072.533697,-518.144159,9992.780217
4134.628912,-306.438199,-740.205942,9548.656652
4134.629227,-153.219100,-1406.391290,9104.533087
4134.629542,-612.876398,-888.247130,9104.533087
4134.629858,-689.485948,-0.000000,9474.636058
4134.630173,-612.876398,296.082377,9474.636058
4134.630488,0.000000,518.144159,9474.636058
4134.630803,383.047749,814.226536,10214.842000
4134.631118,0.000000,1184.329507,9474.636058
4134.631434,459.657299,444.123565,9030.512492
4134.631749,612.876398,592.164754,9326.594869
4134.632064,536.266849,1036.288319,9474.636058
