#time,accel_x,accel_y,accel_z
3824.585222,153.219100,-0.000000,9548.656652
3824.585537,306.438199,-0.000000,9400.615463
3824.585851,306.438199,-0.000000,9770.718434
3824.586166,306.438199,-0.000000,9474.636058
3824.586481,306.438199,-0.000000,9400.615463
3824.586795,153.219100,-74.020594,9326.594869
3824.587110,536.266849,-370.102971,9474.636058
3824.587425,459.657299,-0.000000,9548.656652
3824.587739,0.000000,-0.000000,9474.636058
3824.588054,153.219100,222.061783,9474.636058
3824.588369,0.000000,222.061783,9474.636058
3824.588683,459.657299,222.061783,9474.636058
3824.588998,76.609550,-0.000000,9622.677246
3824.589313,229.828649,222.061783,9548.656652
3824.589627,76.609550,-0.000000,9918.759623
3824.589942,383.047749,-0.000000,9696.697840
3824.590257,383.047749,-0.000000,9918.759623
3824.590571,0.000000,-0.000000,9918.759623
3824.590886,0.000000,592.164754,9696.697840
3824.591201,0.000000,296.082377,9770.718434
3824.591516,0.000000,222.061783,9548.656652
3824.591830,153.219100,296.082377,9474.636058
3824.592145,0.000000,222.061783,9474.636058
3824.592460,0.000000,370.102971,9474.636058
3824.592774,-229.828649,-0.000000,9548.656652
3824.593089,306.438199,148.041188,9992.780217
3824.593404,459.657299,-74.020594,9548.656652
3824.593718,-229.828649,148.041188,9918.759623
3824.594033,153.219100,444.123565,9622.677246
3824.594348,0.000000,-0.000000,9474.636058
3824.594662,76.609550,-0.000000,9474.636058
3824.594977,0.000000,-0.000000,9696.697840
3824.595292,153.219100,-0.000000,9474.636058
3824.595606,76.609550,222.061783,9696.697840
3824.595921,0.000000,-0.000000,9696.697840
3824.596236,-383.047749,148.041188,9622.677246
3824.596550,76.609550,148.041188,9474.636058
3824.596865,153.219100,148.041188,9474.636058
3824.597180,0.000000,222.061783,9622.677246
3824.597494,76.609550,-148.041188,9474.636058
3824.597809,-383.047749,-0.000000,9474.636058
3824.598124,0.000000,-0.000000,9474.636058
3824.598438,153.219100,222.061783,9770.718434
3824.598753,229.828649,-0.000000,9696.697840
3824.599068,229.828649,222.061783,9770.718434
3824.599382,153.219100,296.082377,9548.656652
3824.599697,153.219100,-0.000000,9474.636058
3824.600012,383.047749,-0.000000,9622.677246
3824.600326,153.219100,-0.000000,9844.739029
3824.600641,76.609550,148.041188,9696.697840
3824.600956,0.000000,-296.082377,9844.739029
3824.601270,76.609550,-0.000000,9622.677246
3824.601585,0.000000,370.102971,9696.697840
3824.601900,0.000000,-0.000000,9548.656652
3824.602214,76.609550,-0.000000,9548.656652
3824.602529,229.828649,222.061783,9400.615463
3824.602844,-76.609550,444.123565,9326.594869
3824.603159,306.438199,444.123565,9400.615463
3824.603473,-153.219100,296.082377,9474.636058
3824.603788,0.000000,-0.000000,9696.697840
3824.604103,-306.438199,-0.000000,9770.718434
3824.604417,0.000000,296.082377,9474.636058
3824.604732,0.000000,148.041188,9548.656652
3824.605047,0.000000,222.061783,9326.594869
3824.605361,-153.219100,222.061783,9400.615463
3824.605676,459.657299,-0.000000,9770.718434
3824.605991,0.000000,444.123565,9326.594869
3824.606305,76.609550,74.020594,9474.636058
3824.606620,76.609550,370.102971,9622.677246
3824.606935,306.438199,222.061783,9548.656652
3824.607249,229.828649,-148.041188,9400.615463
3824.607564,229.828649,-0.000000,9326.594869
3824.607879,153.219100,74.020594,9548.656652
3824.608193,0.000000,-0.000000,9474.636058
3824.608508,76.609550,-0.000000,9770.718434
3824.608823,-153.219100,-74.020594,9400.615463
3824.609137,0.000000,-74.020594,9696.697840
3824.609452,76.609550,148.041188,9696.697840
3824.609767,0.000000,296.082377,9770.718434
3824.610081,76.609550,-222.061783,9770.718434
3824.610396,76.609550,-0.000000,9548.656652
3824.610711,229.828649,296.082377,9696.697840
3824.611025,229.828649,-0.000000,9992.780217
3824.611340,153.219100,222.061783,9844.739029
3824.611655,0.000000,-222.061783,9992.780217
3824.611969,229.828649,-0.000000,9992.780217
3824.612284,76.609550,-0.000000,9992.780217
3824.612599,153.219100,148.041188,10066.800811
3824.612913,306.438199,666.185348,9400.615463
3824.613228,229.828649,444.123565,9474.636058
3824.613543,536.266849,740.205942,9030.512492
3824.613858,1072.533697,1036.288319,8660.409521
3824.614172,689.485948,666.185348,8882.471304
3824.614487,842.705048,518.144159,9178.553681
3824.614802,459.657299,370.102971,9326.594869
3824.615116,306.438199,222.061783,9622.677246
3824.615431,459.657299,-0.000000,10140.821405
3824.615746,383.047749,296.082377,9548.656652
3824.616060,0.000000,592.164754,9548.656652
3824.616375,536.266849,814.226536,9474.636058
3824.616690,842.705048,740.205942,9252.574275
3824.617004,1455.581446,1036.288319,9770.718434
3824.617319,1532.190996,666.185348,9696.697840
3824.617634,2145.067394,740.205942,9326.594869
3824.617948,2451.505594,1258.350101,9548.656652
3824.618263,2911.162892,1554.432478,9770.718434
3824.618578,2834.553343,1998.556043,9474.636058
3824.618892,2911.162892,2146.597232,9030.512492
3824.619207,3064.381992,2220.617826,8882.471304
3824.619522,3370.820191,2368.659014,8660.409521
3824.619836,3677.258390,2294.638420,8808.450710
3824.620151,3830.477490,1998.556043,8956.491898
3824.620466,3524.039291,2368.659014,9104.533087
3824.620780,3370.820191,2368.659014,9252.574275
3824.621095,3600.648841,2664.741391,9252.574275
3824.621410,3524.039291,2590.720797,9252.574275
3824.621724,3064.381992,2886.803174,9474.636058
3824.622039,3294.210641,3182.885551,9548.656652
3824.622354,3064.381992,3256.906145,9400.615463
3824.622668,2911.162892,3182.885551,9030.512492
3824.622983,2604.724693,3478.967927,9030.512492
3824.623298,3140.991542,3404.947333,9326.594869
3824.623612,2604.724693,3404.947333,9548.656652
3824.623927,2374.896044,3478.967927,9992.780217
3824.624242,2145.067394,3997.112087,10214.842000
3824.624556,1838.629195,3923.091493,10362.883188
3824.624871,1685.410096,3849.070898,10807.006753
3824.625186,1378.971896,3775.050304,10510.924376
3824.625501,1225.752797,3775.050304,11251.130318
3824.625815,1532.190996,3775.050304,10955.047942
3824.626130,1685.410096,3627.009116,11325.150913
3824.626445,2145.067394,3775.050304,10510.924376
3824.626759,2298.286494,3849.070898,9770.718434
3824.627074,2145.067394,4145.153275,9770.718434
3824.627389,2451.505594,3849.070898,9252.574275
3824.627703,2604.724693,3627.009116,9622.677246
3824.628018,2604.724693,3330.926739,9622.677246
3824.628333,2221.676944,3108.864956,9548.656652
3824.628647,2145.067394,3034.844362,9474.636058
3824.628962,1838.629195,2738.761985,9770.718434
3824.629277,1608.800546,2590.720797,10214.842000
3824.629591,1608.800546,2368.659014,9992.780217
3824.629906,1225.752797,2442.679609,10066.800811
3824.630221,1378.971896,2886.803174,9844.739029
3824.630535,1685.410096,2960.823768,9918.759623
3824.630850,1915.238745,3108.864956,9696.697840
3824.631165,1532.190996,2886.803174,9844.739029
3824.631479,2068.457845,2812.782580,9548.656652
3824.631794,1991.848295,2368.659014,9178.553681
3824.632109,1838.629195,1850.514855,9770.718434
3824.632423,1838.629195,1776.494261,10214.842000
3824.632738,1685.410096,1554.432478,10066.800811
3824.633053,1455.581446,1628.453072,10584.944971
3824.633367,1608.800546,1480.411884,9992.780217
3824.633682,2068.457845,1702.473667,9844.739029
3824.633997,1838.629195,1776.494261,9178.553681
3824.634311,2451.505594,2072.576638,8734.430116
3824.634626,2681.334243,1702.473667,8882.471304
3824.634941,2987.772442,1628.453072,8438.347739
3824.635255,3140.991542,1480.411884,8290.306550
3824.635570,2987.772442,1554.432478,8734.430116
3824.635885,2681.334243,1554.432478,8956.491898
3824.636199,2604.724693,1332.370696,9104.533087
3824.636514,2451.505594,1332.370696,9030.512492
3824.636829,2221.676944,1036.288319,9400.615463
3824.637144,1838.629195,1110.308913,9178.553681
3824.637458,1991.848295,518.144159,9252.574275
3824.637773,1838.629195,74.020594,9844.739029
3824.638088,1915.238745,296.082377,10288.862594
3824.638402,2145.067394,814.226536,10288.862594
3824.638717,2681.334243,1036.288319,9622.677246
3824.639032,3600.648841,2146.597232,9548.656652
3824.639346,3447.429741,2368.659014,8586.388927
3824.639661,3830.477490,2442.679609,8216.285956
3824.639976,3677.258390,2368.659014,8216.285956
3824.640290,2987.772442,1924.535449,8068.244768
3824.640605,3140.991542,1110.308913,8438.347739
3824.640920,2145.067394,666.185348,8290.306550
3824.641234,1378.971896,296.082377,9548.656652
3824.641549,689.485948,-0.000000,11177.109724
3824.641864,76.609550,-296.082377,11843.295072
3824.642178,0.000000,-592.164754,11917.315666
3824.642493,536.266849,962.267725,12139.377449
3824.642808,1072.533697,1702.473667,11695.253884
3824.643122,2374.896044,2738.761985,11103.089130
3824.643437,3217.601092,3775.050304,9474.636058
3824.643752,3753.867940,4515.256246,8290.306550
3824.644066,4366.744339,4737.318029,7624.121203
3824.644381,4903.011187,5107.421000,7105.977043
3824.644696,4749.792088,3701.029710,7772.162391
3824.645010,3907.087040,2590.720797,8734.430116
3824.645325,2145.067394,1702.473667,10510.924376
3824.645640,459.657299,518.144159,11473.192101
3824.645954,-612.876398,444.123565,12065.356855
3824.646269,-1149.143247,888.247130,12435.459826
3824.646584,-1225.752797,1776.494261,11843.295072
3824.646898,76.609550,2442.679609,10362.883188
3824.647213,1149.143247,3627.009116,8882.471304
3824.647528,2604.724693,4071.132681,7624.121203
3824.647843,3983.696590,4145.153275,7328.038826
3824.648157,3907.087040,4737.318029,7698.141797
3824.648472,4290.134789,4219.173869,8364.327145
3824.648787,3294.210641,4293.194464,9104.533087
3824.649101,2528.115143,3404.947333,10584.944971
3824.649416,1915.238745,2886.803174,11621.233289
3824.649731,1072.533697,2886.803174,11177.109724
3824.650045,459.657299,3330.926739,10288.862594
3824.650360,612.876398,2738.761985,10214.842000
3824.650675,1532.190996,2220.617826,9992.780217
3824.650989,1838.629195,2442.679609,9178.553681
3824.651304,2987.772442,2220.617826,8734.430116
3824.651619,2834.553343,2590.720797,8068.244768
3824.651933,3600.648841,2738.761985,8660.409521
3824.652248,3753.867940,3478.967927,8808.450710
3824.652563,3064.381992,3404.947333,8956.491898
3824.652877,2451.505594,3256.906145,9474.636058
3824.653192,1915.238745,2368.659014,9918.759623
3824.653507,1455.581446,1998.556043,11103.089130
3824.653821,1455.581446,1702.473667,11769.274478
3824.654136,1072.533697,2072.576638,11547.212695
3824.654451,1915.238745,2516.700203,11029.068536
3824.654765,2221.676944,3849.070898,9844.739029
3824.655080,3217.601092,3552.988522,8586.388927
3824.655395,3907.087040,3775.050304,7920.203579
3824.655709,4136.915689,3627.009116,7920.203579
3824.656024,4136.915689,2516.700203,8512.368333
3824.656339,3370.820191,1480.411884,9474.636058
3824.656653,2757.943793,814.226536,10288.862594
3824.656968,1991.848295,444.123565,11251.130318
3824.657283,995.924147,962.267725,10658.965565
3824.657597,1455.581446,1258.350101,10732.986159
3824.657912,1762.019645,2220.617826,9918.759623
3824.658227,1685.410096,2442.679609,9548.656652
3824.658541,2451.505594,2960.823768,9104.533087
3824.658856,2834.553343,3034.844362,7920.203579
3824.659171,3370.820191,2590.720797,8142.265362
3824.659486,2987.772442,2516.700203,8068.244768
3824.659800,3064.381992,1628.453072,8734.430116
3824.660115,2681.334243,888.247130,9992.780217
3824.660430,1685.410096,888.247130,11103.089130
3824.660744,612.876398,888.247130,11473.192101
3824.661059,459.657299,1110.308913,11325.150913
3824.661374,76.609550,1480.411884,10955.047942
3824.661689,459.657299,1554.432478,10362.883188
3824.662003,1915.238745,814.226536,9918.759623
3824.662318,2451.505594,1702.473667,9474.636058
3824.662633,2834.553343,1998.556043,9252.574275
3824.662948,3064.381992,2294.638420,8290.306550
3824.663263,3370.820191,3330.926739,7476.080014
3824.663577,3753.867940,2664.741391,7920.203579
3824.663892,3983.696590,1850.514855,8068.244768
3824.664207,3064.381992,1110.308913,8956.491898
3824.664522,1455.581446,740.205942,10066.800811
3824.664837,-306.438199,444.123565,10510.924376
3824.665152,-842.705048,814.226536,10732.986159
3824.665466,-459.657299,1110.308913,10732.986159
3824.665781,229.828649,888.247130,10510.924376
3824.666096,536.266849,814.226536,10436.903782
3824.666411,689.485948,1110.308913,10288.862594
3824.666726,766.095498,1628.453072,9918.759623
3824.667040,919.314598,2960.823768,9104.533087
3824.667355,2068.457845,2812.782580,8734.430116
3824.667670,3217.601092,2738.761985,9104.533087
3824.667985,2681.334243,1554.432478,9252.574275
3824.668300,1378.971896,1110.308913,9844.739029
3824.668614,919.314598,444.123565,10214.842000
3824.668929,-76.609550,1036.288319,10214.842000
3824.669244,-383.047749,666.185348,10140.821405
3824.669559,0.000000,518.144159,10658.965565
3824.669874,-459.657299,444.123565,10066.800811
3824.670188,-612.876398,370.102971,10362.883188
3824.670503,-689.485948,962.267725,9844.739029
3824.670818,0.000000,1110.308913,8364.327145
3824.671133,1608.800546,962.267725,9030.512492
3824.671448,2451.505594,1332.370696,8956.491898
3824.671762,1915.238745,1702.473667,8734.430116
3824.672077,1378.971896,370.102971,9696.697840
3824.672392,459.657299,1258.350101,9844.739029
3824.672707,-229.828649,2220.617826,9622.677246
3824.673022,306.438199,1110.308913,9918.759623
3824.673337,383.047749,814.226536,10066.800811
3824.673651,0.000000,-0.000000,9918.759623
3824.673966,-306.438199,-74.020594,10362.883188
3824.674281,-919.314598,222.061783,9474.636058
3824.674596,0.000000,-0.000000,9696.697840
3824.674911,842.705048,-0.000000,9178.553681
3824.675225,1149.143247,-0.000000,8956.491898
3824.675540,1072.533697,-370.102971,9400.615463
3824.675855,1302.362347,-0.000000,8956.491898
3824.676170,612.876398,962.267725,9030.512492
3824.676485,1608.800546,444.123565,9622.677246
3824.676799,1608.800546,888.247130,9918.759623
3824.677114,919.314598,1554.432478,9844.739029
3824.677429,995.924147,962.267725,9474.636058
3824.677744,383.047749,740.205942,9326.594869
3824.678059,689.485948,592.164754,9696.697840
3824.678373,1685.410096,-148.041188,9178.553681
3824.678688,1685.410096,-74.020594,9104.533087
3824.679003,612.876398,-0.000000,9696.697840
3824.679318,383.047749,-444.123565,9178.553681
3824.679633,306.438199,-296.082377,8660.409521
3824.679947,612.876398,-444.123565,10140.821405
3824.680262,383.047749,-370.102971,9918.759623
3824.680577,-995.924147,-148.041188,9770.718434
3824.680892,-995.924147,-296.082377,10066.800811
3824.681207,-1072.533697,-0.000000,9178.553681
3824.681521,-766.095498,444.123565,10140.821405
3824.681836,459.657299,-0.000000,9474.636058
3824.682151,306.438199,-0.000000,8734.430116
3824.682466,383.047749,370.102971,9400.615463
3824.682781,536.266849,222.061783,8364.327145
3824.683096,0.000000,-74.020594,8660.409521
3824.683410,-229.828649,148.041188,9474.636058
3824.683725,306.438199,-1924.535449,9770.718434
3824.684040,-1149.143247,-222.061783,10140.821405
3824.684355,-1762.019645,-1184.329507,11103.089130
3824.684670,-1532.190996,-1184.329507,10436.903782
3824.684984,-1685.410096,-592.164754,9992.780217
3824.685299,-689.485948,-518.144159,9992.780217
3824.685614,-229.828649,-0.000000,9918.759623
3824.685929,0.000000,-0.000000,9474.636058
3824.686244,842.705048,148.041188,9030.512492
3824.686558,306.438199,296.082377,8438.347739
3824.686873,1072.533697,-148.041188,9474.636058
3824.687188,1225.752797,-444.123565,9326.594869
3824.687503,306.438199,-518.144159,10214.842000
3824.687818,0.000000,-814.226536,10214.842000
3824.688132,-995.924147,-296.082377,9844.739029
3824.688447,-1378.971896,-296.082377,10140.821405
3824.688762,-689.485948,-888.247130,10807.006753
3824.689077,-919.314598,-814.226536,10584.944971
3824.689392,-1455.581446,-888.247130,10140.821405
3824.689706,-842.705048,-296.082377,9178.553681
3824.690021,-536.266849,-444.123565,9104.533087
3824.690336,536.266849,-296.082377,9622.677246
3824.690651,1455.581446,-0.000000,9474.636058
3824.690966,919.314598,-0.000000,8882.471304
3824.691281,995.924147,444.123565,9104.533087
3824.691595,612.876398,814.226536,8808.450710
3824.691910,459.657299,444.123565,9548.656652
3824.692225,612.876398,148.041188,9770.718434
3824.692540,0.000000,-74.020594,9844.739029
3824.692855,229.828649,-518.144159,10140.821405
3824.693169,-229.828649,296.082377,8734.430116
3824.693484,-612.876398,-370.102971,8956.491898
3824.693799,689.485948,-592.164754,10066.800811
3824.694114,1072.533697,-370.102971,9400.615463
3824.694429,766.095498,-0.000000,8364.327145
3824.694743,919.314598,-518.144159,9252.574275
3824.695058,536.266849,370.102971,8882.471304
3824.695373,919.314598,-0.000000,9474.636058
3824.695688,1225.752797,592.164754,8586.388927
3824.696003,306.438199,1258.350101,9178.553681
3824.696317,459.657299,1184.329507,9696.697840
3824.696632,153.219100,1332.370696,9252.574275
3824.696947,0.000000,1332.370696,8956.491898
3824.697262,153.219100,444.123565,11029.068536
3824.697577,383.047749,1110.308913,9770.718434
3824.697891,0.000000,888.247130,9992.780217
3824.698206,76.609550,592.164754,9918.759623
3824.698521,0.000000,814.226536,9548.656652
3824.698836,0.000000,666.185348,9104.533087
3824.699151,689.485948,-0.000000,9696.697840
3824.699465,-306.438199,814.226536,9992.780217
3824.699780,-229.828649,1036.288319,10066.800811
3824.700095,-842.705048,1184.329507,9992.780217
3824.700410,-1302.362347,1258.350101,10066.800811
3824.700725,0.000000,518.144159,10510.924376
3824.701040,0.000000,740.205942,9992.780217
3824.701354,-229.828649,1110.308913,10362.883188
3824.701669,-76.609550,1332.370696,9770.718434
3824.701984,0.000000,1110.308913,9252.574275
3824.702299,842.705048,962.267725,9918.759623
3824.702614,1378.971896,666.185348,9474.636058
3824.702928,0.000000,444.123565,9844.739029
3824.703243,-229.828649,296.082377,10362.883188
3824.703558,-1149.143247,888.247130,9844.739029
3824.703873,-1149.143247,444.123565,10584.944971
3824.704188,76.609550,-0.000000,10807.006753
3824.704502,-153.219100,-0.000000,10140.821405
3824.704817,-459.657299,-0.000000,9992.780217
3824.705132,153.219100,592.164754,9548.656652
3824.705447,383.047749,888.247130,8956.491898
3824.705762,1072.533697,296.082377,9178.553681
3824.706076,1532.190996,222.061783,8808.450710
3824.706391,1149.143247,-0.000000,8438.347739
3824.706706,766.095498,-962.267725,9474.636058
3824.707021,0.000000,444.123565,9622.677246
3824.707336,-459.657299,-0.000000,9474.636058
3824.707650,0.000000,-444.123565,10510.924376
3824.707965,-383.047749,-444.123565,10658.965565
3824.708280,-612.876398,-666.185348,9770.718434
3824.708595,-153.219100,-518.144159,9252.574275
3824.708910,-306.438199,-74.020594,8734.430116
3824.709225,766.095498,-444.123565,8808.450710
3824.709539,1838.629195,-148.041188,8438.347739
3824.709854,919.314598,-222.061783,7994.224174
3824.710169,766.095498,-222.061783,8956.491898
3824.710484,383.047749,-222.061783,9030.512492
3824.710799,-459.657299,-296.082377,9326.594869
3824.711113,0.000000,-888.247130,9844.739029
3824.711428,-383.047749,-296.082377,10658.965565
3824.711743,-842.705048,-1332.370696,10658.965565
3824.712058,0.000000,-888.247130,10066.800811
3824.712373,-919.314598,-0.000000,9326.594869
3824.712687,153.219100,-0.000000,8586.388927
3824.713002,919.314598,-0.000000,8882.471304
3824.713317,842.705048,444.123565,8438.347739
3824.713632,1072.533697,-74.020594,8438.347739
3824.713947,76.609550,-0.000000,8512.368333
3824.714261,-229.828649,-296.082377,9178.553681
3824.714576,536.266849,-1110.308913,10436.903782
3824.714891,-383.047749,-518.144159,10214.842000
3824.715206,-612.876398,-962.267725,10807.006753
3824.715521,-383.047749,-444.123565,10807.006753
3824.715835,-1149.143247,-0.000000,9474.636058
3824.716150,-306.438199,-0.000000,9474.636058
3824.716465,1225.752797,1110.308913,8734.430116
3824.716780,1072.533697,1110.308913,8512.368333
3824.717095,995.924147,444.123565,8364.327145
3824.717410,612.876398,370.102971,7920.203579
3824.717724,229.828649,-370.102971,9770.718434
3824.718039,536.266849,-518.144159,10510.924376
3824.718354,-612.876398,-444.123565,10658.965565
3824.718669,-1225.752797,-222.061783,11621.233289
3824.718984,-1608.800546,-74.020594,11103.089130
3824.719298,-1608.800546,888.247130,10436.903782
3824.719613,-383.047749,1184.329507,10066.800811
3824.719928,689.485948,1480.411884,9104.533087
3824.720243,459.657299,1480.411884,8956.491898
3824.720558,1608.800546,1258.350101,8734.430116
3824.720872,1149.143247,1702.473667,8512.368333
3824.721187,536.266849,1110.308913,9474.636058
3824.721502,919.314598,370.102971,11029.068536
3824.721817,-153.219100,740.205942,10807.006753
3824.722132,-842.705048,-222.061783,11325.150913
3824.722446,-1149.143247,148.041188,10732.986159
3824.722761,-1838.629195,518.144159,10807.006753
3824.723076,-612.876398,-0.000000,11251.130318
3824.723391,0.000000,296.082377,9622.677246
3824.723706,-306.438199,1036.288319,9474.636058
3824.724020,612.876398,666.185348,9030.512492
3824.724335,1072.533697,888.247130,8290.306550
3824.724650,1838.629195,592.164754,9178.553681
3824.724965,2451.505594,-0.000000,9326.594869
3824.725280,2145.067394,296.082377,9622.677246
3824.725594,0.000000,1036.288319,9104.533087
3824.725909,306.438199,-1258.350101,10584.944971
3824.726224,-383.047749,1258.350101,9622.677246
3824.726539,-536.266849,-222.061783,9770.718434
3824.726854,612.876398,-592.164754,9696.697840
3824.727169,0.000000,-0.000000,9252.574275
3824.727483,306.438199,-0.000000,9474.636058
3824.727798,76.609550,444.123565,8142.265362
3824.728113,153.219100,222.061783,8808.450710
3824.728428,1532.190996,-444.123565,10214.842000
3824.728743,766.095498,-296.082377,9326.594869
3824.729057,76.609550,-222.061783,10288.862594
3824.729372,0.000000,-0.000000,9474.636058
3824.729687,-842.705048,-0.000000,9030.512492
3824.730002,459.657299,370.102971,9474.636058
3824.730317,689.485948,444.123565,9474.636058
3824.730631,0.000000,-0.000000,8882.471304
3824.730946,153.219100,-0.000000,8660.409521
3824.731261,-153.219100,518.144159,8438.347739
3824.731576,-229.828649,148.041188,8586.388927
3824.731891,766.095498,-444.123565,9696.697840
3824.732205,76.609550,-74.020594,10214.842000
3824.732520,-229.828649,-148.041188,10214.842000
3824.732835,-766.095498,-148.041188,11103.089130
3824.733150,-1225.752797,-0.000000,9918.759623
3824.733465,0.000000,148.041188,10807.006753
3824.733779,459.657299,740.205942,10362.883188
3824.734094,76.609550,962.267725,9178.553681
3824.734409,0.000000,444.123565,9326.594869
3824.734724,-229.828649,1036.288319,8438.347739
3824.735039,153.219100,370.102971,8882.471304
3824.735354,842.705048,-0.000000,9696.697840
3824.735668,0.000000,-148.041188,9548.656652
3824.735983,-306.438199,-962.267725,10881.027347
3824.736298,-612.876398,-296.082377,10140.821405
3824.736613,-1072.533697,-296.082377,10436.903782
3824.736928,-536.266849,-518.144159,11399.171507
3824.737242,-383.047749,-0.000000,10362.883188
3824.737557,-306.438199,666.185348,9548.656652
3824.737872,306.438199,222.061783,9622.677246
3824.738187,0.000000,1036.288319,8586.388927
3824.738502,459.657299,814.226536,8882.471304
3824.738816,1149.143247,296.082377,8956.491898
3824.739131,153.219100,-0.000000,9992.780217
3824.739446,-306.438199,-296.082377,10584.944971
3824.739761,-842.705048,-518.144159,10436.903782
3824.740076,-842.705048,-444.123565,10732.986159
3824.740390,0.000000,-1258.350101,10881.027347
3824.740705,-306.438199,-74.020594,10066.800811
3824.741020,-306.438199,-222.061783,9622.677246
3824.741335,0.000000,-74.020594,9474.636058
3824.741650,0.000000,592.164754,8068.244768
3824.741964,76.609550,-296.082377,8364.327145
3824.742279,1455.581446,-74.020594,8882.471304
3824.742594,612.876398,-74.020594,9400.615463
3824.742909,459.657299,-444.123565,9474.636058
3824.743224,536.266849,-74.020594,8956.491898
3824.743538,-459.657299,-0.000000,9400.615463
3824.743853,612.876398,-962.267725,9844.739029
3824.744168,612.876398,-0.000000,9326.594869
3824.744483,689.485948,296.082377,9400.615463
3824.744798,0.000000,-0.000000,8586.388927
3824.745113,0.000000,592.164754,7920.203579
3824.745427,536.266849,-0.000000,8882.471304
3824.745742,1225.752797,-0.000000,8808.450710
3824.746057,536.266849,148.041188,9178.553681
3824.746372,306.438199,-444.123565,9770.718434
3824.746687,383.047749,-0.000000,9400.615463
3824.747001,0.000000,-0.000000,9474.636058
3824.747316,306.438199,-0.000000,9474.636058
3824.747631,229.828649,-0.000000,9918.759623
3824.747946,-383.047749,-0.000000,9696.697840
3824.748261,0.000000,740.205942,8882.471304
3824.748575,-76.609550,888.247130,8586.388927
3824.748890,0.000000,-0.000000,9474.636058
3824.749205,229.828649,222.061783,9326.594869
3824.749520,0.000000,444.123565,9770.718434
3824.749835,-153.219100,148.041188,10584.944971
3824.750149,-459.657299,666.185348,10214.842000
3824.750464,-383.047749,518.144159,10214.842000
3824.750779,383.047749,740.205942,10658.965565
3824.751094,0.000000,1258.350101,10362.883188
3824.751409,306.438199,1184.329507,10436.903782
3824.751723,76.609550,888.247130,9622.677246
3824.752038,0.000000,1332.370696,9030.512492
3824.752353,689.485948,1110.308913,9104.533087
3824.752668,995.924147,222.061783,9252.574275
3824.752983,76.609550,444.123565,9548.656652
3824.753298,-536.266849,444.123565,10066.800811
3824.753612,-1225.752797,444.123565,10362.883188
3824.753927,-1072.533697,296.082377,10658.965565
3824.754242,153.219100,-370.102971,11029.068536
3824.754557,-306.438199,-296.082377,10510.924376
3824.754872,-153.219100,222.061783,10214.842000
3824.755186,-306.438199,444.123565,10436.903782
3824.755501,-383.047749,1036.288319,9622.677246
3824.755816,689.485948,740.205942,9696.697840
3824.756131,1455.581446,888.247130,9104.533087
3824.756446,842.705048,666.185348,9326.594869
3824.756760,689.485948,444.123565,9992.780217
3824.757075,-229.828649,-0.000000,9770.718434
3824.757390,-536.266849,-962.267725,9844.739029
3824.757705,153.219100,-592.164754,10066.800811
3824.758020,-229.828649,-740.205942,9770.718434
3824.758334,-306.438199,-1036.288319,9474.636058
3824.758649,0.000000,-148.041188,9400.615463
3824.758964,-153.219100,148.041188,8512.368333
3824.759278,536.266849,-74.020594,9104.533087
3824.759593,1455.581446,222.061783,9030.512492
3824.759908,995.924147,-0.000000,8734.430116
3824.760222,995.924147,-74.020594,9178.553681
3824.760537,612.876398,-0.000000,8438.347739
3824.760851,229.828649,-222.061783,9178.553681
3824.761166,995.924147,-518.144159,9696.697840
3824.761481,153.219100,-740.205942,9622.677246
3824.761795,383.047749,-666.185348,9696.697840
3824.762110,0.000000,-296.082377,9400.615463
3824.762425,-689.485948,370.102971,8438.347739
3824.762739,306.438199,-1110.308913,9326.594869
3824.763054,459.657299,-740.205942,8956.491898
3824.763368,-229.828649,-444.123565,9326.594869
3824.763683,76.609550,-814.226536,8882.471304
3824.763998,-766.095498,-0.000000,8808.450710
3824.764312,-842.705048,-148.041188,9548.656652
3824.764627,76.609550,-518.144159,9696.697840
3824.764942,-306.438199,-0.000000,9918.759623
3824.765256,76.609550,-0.000000,9548.656652
3824.765571,-459.657299,222.061783,9474.636058
3824.765886,-459.657299,962.267725,8882.471304
3824.766200,0.000000,222.061783,8882.471304
3824.766515,536.266849,296.082377,9104.533087
3824.766829,76.609550,370.102971,9178.553681
3824.767144,0.000000,-222.061783,9252.574275
3824.767459,-1455.581446,-222.061783,9622.677246
3824.767773,-1225.752797,-740.205942,10140.821405
3824.768088,153.219100,-444.123565,10066.800811
3824.768403,-383.047749,-370.102971,9918.759623
3824.768717,-766.095498,-518.144159,10584.944971
3824.769032,-383.047749,-0.000000,10066.800811
3824.769346,-229.828649,666.185348,9622.677246
3824.769661,306.438199,1184.329507,9992.780217
3824.769976,689.485948,2072.576638,9770.718434
3824.770290,1149.143247,1924.535449,9400.615463
3824.770605,766.095498,1258.350101,9696.697840
3824.770920,612.876398,740.205942,9548.656652
3824.771234,689.485948,518.144159,9696.697840
3824.771549,766.095498,592.164754,10584.944971
3824.771863,153.219100,444.123565,10732.986159
3824.772178,0.000000,-74.020594,10288.862594
3824.772493,-153.219100,296.082377,9622.677246
3824.772807,-306.438199,296.082377,9696.697840
3824.773122,459.657299,-222.061783,10436.903782
3824.773437,995.924147,370.102971,9770.718434
3824.773751,459.657299,444.123565,9918.759623
3824.774066,536.266849,888.247130,9252.574275
3824.774380,306.438199,518.144159,8660.409521
3824.774695,689.485948,592.164754,9474.636058
3824.775010,1608.800546,814.226536,9918.759623
3824.775324,459.657299,888.247130,9474.636058
3824.775639,536.266849,-74.020594,9992.780217
3824.775954,76.609550,518.144159,9770.718434
3824.776268,153.219100,-0.000000,9400.615463
3824.776583,536.266849,-148.041188,10066.800811
3824.776898,229.828649,-370.102971,9918.759623
3824.777212,0.000000,518.144159,9844.739029
3824.777527,-229.828649,370.102971,9326.594869
3824.777841,-536.266849,-0.000000,9178.553681
3824.778156,459.657299,-148.041188,9252.574275
3824.778471,1225.752797,-296.082377,9030.512492
3824.778785,689.485948,-592.164754,8586.388927
3824.779100,689.485948,-296.082377,9622.677246
3824.779415,306.438199,-0.000000,9178.553681
3824.779729,0.000000,-74.020594,9104.533087
3824.780044,612.876398,-0.000000,9548.656652
3824.780358,1072.533697,222.061783,9104.533087
3824.780673,153.219100,296.082377,9326.594869
3824.780988,383.047749,740.205942,9548.656652
3824.781302,-153.219100,814.226536,8808.450710
3824.781617,-229.828649,-0.000000,9326.594869
3824.781932,153.219100,-222.061783,9844.739029
3824.782246,229.828649,-296.082377,9548.656652
3824.782561,0.000000,-148.041188,10140.821405
3824.782875,-766.095498,370.102971,9252.574275
3824.783190,-1149.143247,-148.041188,9548.656652
3824.783505,0.000000,-962.267725,10584.944971
3824.783819,76.609550,-222.061783,10214.842000
3824.784134,-919.314598,-0.000000,9770.718434
3824.784449,-612.876398,296.082377,9400.615463
3824.784763,-459.657299,740.205942,8660.409521
3824.785078,-459.657299,592.164754,8808.450710
3824.785393,383.047749,-0.000000,9326.594869
3824.785707,153.219100,-518.144159,9400.615463
3824.786022,-383.047749,-74.020594,9992.780217
3824.786336,-612.876398,-148.041188,9400.615463
3824.786651,-842.705048,-740.205942,10214.842000
3824.786966,0.000000,-740.205942,11029.068536
3824.787280,0.000000,-74.020594,10510.924376
3824.787595,-229.828649,-74.020594,10214.842000
3824.787910,76.609550,222.061783,9992.780217
3824.788224,-229.828649,518.144159,9178.553681
3824.788539,612.876398,370.102971,9252.574275
3824.788853,1378.971896,444.123565,9030.512492
3824.789168,1302.362347,222.061783,8438.347739
3824.789483,1149.143247,-370.102971,9696.697840
3824.789797,306.438199,-370.102971,9548.656652
3824.790112,229.828649,-222.061783,9770.718434
3824.790427,459.657299,-666.185348,10436.903782
3824.790741,229.828649,-296.082377,10362.883188
3824.791056,-383.047749,-592.164754,10288.862594
3824.791370,76.609550,592.164754,9918.759623
3824.791685,76.609550,1036.288319,9030.512492
3824.792000,536.266849,296.082377,9252.574275
3824.792314,1302.362347,518.144159,9104.533087
3824.792629,1072.533697,592.164754,9030.512492
3824.792944,842.705048,148.041188,9400.615463
3824.793258,459.657299,296.082377,10066.800811
3824.793573,153.219100,666.185348,9326.594869
3824.793887,536.266849,-148.041188,10066.800811
3824.794202,0.000000,-148.041188,10436.903782
3824.794517,-459.657299,-74.020594,10510.924376
3824.794831,-689.485948,-666.185348,9918.759623
3824.795146,-612.876398,-0.000000,9252.574275
3824.795461,153.219100,148.041188,9696.697840
3824.795775,766.095498,-148.041188,9104.533087
3824.796090,229.828649,666.185348,8882.471304
3824.796405,0.000000,666.185348,9474.636058
3824.796719,0.000000,-0.000000,8586.388927
3824.797034,0.000000,-592.164754,9030.512492
3824.797348,536.266849,-962.267725,9770.718434
3824.797663,229.828649,-0.000000,9844.739029
3824.797978,0.000000,296.082377,9918.759623
3824.798292,-229.828649,666.185348,9918.759623
3824.798607,-766.095498,1554.432478,8808.450710
3824.798922,383.047749,1184.329507,8882.471304
3824.799236,1149.143247,962.267725,9178.553681
3824.799551,-229.828649,444.123565,8808.450710
3824.799865,-459.657299,-0.000000,9252.574275
3824.800180,-1072.533697,-370.102971,9252.574275
3824.800495,-1149.143247,-222.061783,10140.821405
3824.800809,-689.485948,-962.267725,10881.027347
3824.801124,-1072.533697,-222.061783,10510.924376
3824.801439,-1302.362347,-0.000000,11251.130318
3824.801753,-995.924147,592.164754,10288.862594
3824.802068,-689.485948,962.267725,9178.553681
3824.802382,306.438199,962.267725,9622.677246
3824.802697,919.314598,1184.329507,9252.574275
3824.803012,689.485948,1184.329507,8734.430116
3824.803326,919.314598,962.267725,8512.368333
3824.803641,536.266849,814.226536,8734.430116
3824.803956,306.438199,444.123565,9622.677246
3824.804270,383.047749,-0.000000,10362.883188
3824.804585,0.000000,-0.000000,10807.006753
3824.804899,-612.876398,-444.123565,11251.130318
3824.805214,-1072.533697,-296.082377,11029.068536
3824.805529,-1915.238745,-0.000000,10510.924376
3824.805843,-612.876398,-0.000000,10362.883188
3824.806158,0.000000,962.267725,9770.718434
3824.806473,459.657299,888.247130,8882.471304
3824.806787,919.314598,740.205942,9326.594869
3824.807102,919.314598,1036.288319,8438.347739
3824.807417,1225.752797,296.082377,9474.636058
3824.807731,2145.067394,-222.061783,9918.759623
3824.808046,612.876398,222.061783,10362.883188
3824.808360,459.657299,-370.102971,10288.862594
3824.808675,0.000000,-518.144159,10066.800811
3824.808990,-383.047749,-74.020594,9918.759623
3824.809304,153.219100,-518.144159,9400.615463
3824.809619,995.924147,-74.020594,9030.512492
3824.809934,612.876398,-370.102971,8660.409521
3824.810248,536.266849,-518.144159,8882.471304
3824.810563,306.438199,-296.082377,8660.409521
3824.810877,383.047749,-1036.288319,9474.636058
3824.811192,842.705048,-1184.329507,10214.842000
3824.811507,536.266849,-518.144159,9992.780217
3824.811821,76.609550,-814.226536,9844.739029
3824.812136,919.314598,-74.020594,10140.821405
3824.812451,-229.828649,1258.350101,8808.450710
3824.812765,536.266849,444.123565,10362.883188
3824.813080,842.705048,666.185348,9696.697840
3824.813394,229.828649,740.205942,8142.265362
3824.813709,766.095498,-148.041188,9252.574275
3824.814024,689.485948,222.061783,7550.100608
3824.814338,766.095498,-222.061783,8660.409521
3824.814653,536.266849,-666.185348,10362.883188
3824.814968,-612.876398,-148.041188,9918.759623
3824.815282,0.000000,-740.205942,10732.986159
3824.815597,-919.314598,-296.082377,10214.842000
3824.815911,-1225.752797,296.082377,9696.697840
3824.816226,-153.219100,-0.000000,9918.759623
3824.816541,0.000000,740.205942,9400.615463
3824.816855,76.609550,1036.288319,9030.512492
3824.817170,536.266849,1184.329507,8290.306550
3824.817485,306.438199,1036.288319,8216.285956
3824.817799,306.438199,370.102971,8586.388927
3824.818114,459.657299,370.102971,9252.574275
3824.818429,-919.314598,444.123565,10288.862594
3824.818743,-1072.533697,-962.267725,11177.109724
3824.819058,-995.924147,-74.020594,10510.924376
3824.819372,-1762.019645,-518.144159,10362.883188
3824.819687,-689.485948,-0.000000,10214.842000
3824.820002,-766.095498,814.226536,9992.780217
3824.820316,-689.485948,1702.473667,9474.636058
3824.820631,153.219100,518.144159,9548.656652
3824.820946,-229.828649,1332.370696,8512.368333
3824.821260,689.485948,-0.000000,9252.574275
3824.821575,995.924147,666.185348,9474.636058
3824.821889,383.047749,518.144159,10288.862594
3824.822204,0.000000,296.082377,10955.047942
3824.822519,-612.876398,518.144159,10807.006753
3824.822833,-842.705048,1110.308913,11177.109724
3824.823148,459.657299,592.164754,10510.924376
3824.823463,153.219100,814.226536,9992.780217
3824.823777,306.438199,444.123565,9696.697840
3824.824092,689.485948,666.185348,9104.533087
3824.824406,536.266849,1036.288319,8882.471304
3824.824721,1072.533697,518.144159,8882.471304
3824.825036,1225.752797,-0.000000,9844.739029
3824.825350,612.876398,-74.020594,10584.944971
3824.825665,76.609550,-148.041188,10732.986159
3824.825980,0.000000,-370.102971,10658.965565
3824.826294,0.000000,-518.144159,10584.944971
3824.826609,459.657299,-592.164754,10658.965565
3824.826924,459.657299,444.123565,9770.718434
3824.827238,383.047749,-0.000000,9622.677246
3824.827553,1378.971896,666.185348,8660.409521
3824.827867,842.705048,814.226536,7846.182985
3824.828182,919.314598,666.185348,8364.327145
3824.828497,1302.362347,-0.000000,8956.491898
3824.828811,612.876398,-296.082377,9252.574275
3824.829126,536.266849,-1406.391290,10066.800811
3824.829441,-536.266849,-1036.288319,10066.800811
3824.829755,-842.705048,-1258.350101,9992.780217
3824.830070,229.828649,-1184.329507,10436.903782
3824.830384,229.828649,-0.000000,9474.636058
3824.830699,0.000000,-0.000000,8956.491898
3824.831014,459.657299,666.185348,8142.265362
3824.831328,306.438199,814.226536,7179.997637
3824.831643,919.314598,-148.041188,8142.265362
3824.831958,1149.143247,-222.061783,8512.368333
3824.832272,536.266849,-148.041188,8586.388927
3824.832587,536.266849,-444.123565,9770.718434
3824.832901,-153.219100,-0.000000,9548.656652
3824.833216,-1225.752797,-222.061783,9696.697840
3824.833531,-459.657299,-222.061783,10362.883188
3824.833845,-459.657299,-0.000000,10066.800811
3824.834160,-306.438199,-222.061783,9622.677246
3824.834475,-536.266849,888.247130,9252.574275
3824.834789,-766.095498,740.205942,8216.285956
3824.835104,76.609550,-148.041188,9548.656652
3824.835418,76.609550,-0.000000,9474.636058
3824.835733,-153.219100,296.082377,9770.718434
3824.836048,-536.266849,-0.000000,10510.924376
3824.836362,-1302.362347,888.247130,10214.842000
3824.836677,-766.095498,740.205942,10214.842000
3824.836992,76.609550,518.144159,10807.006753
3824.837306,306.438199,222.061783,10066.800811
3824.837621,-153.219100,444.123565,9992.780217
3824.837936,0.000000,1258.350101,9474.636058
3824.838250,-842.705048,1258.350101,8882.471304
3824.838565,153.219100,1036.288319,9104.533087
3824.838879,1072.533697,814.226536,9844.739029
3824.839194,0.000000,370.102971,9992.780217
3824.839509,76.609550,-0.000000,10955.047942
3824.839823,-766.095498,370.102971,9696.697840
3824.840138,-842.705048,-0.000000,10807.006753
3824.840453,0.000000,-222.061783,11547.212695
3824.840767,76.609550,444.123565,10288.862594
3824.841082,383.047749,296.082377,9696.697840
3824.841396,459.657299,592.164754,9770.718434
3824.841711,766.095498,1406.391290,8956.491898
3824.842026,1838.629195,518.144159,9178.553681
3824.842340,1762.019645,962.267725,9104.533087
3824.842655,689.485948,222.061783,8956.491898
3824.842970,306.438199,-592.164754,9474.636058
3824.843284,229.828649,-370.102971,9326.594869
3824.843599,0.000000,-1036.288319,10288.862594
3824.843913,-229.828649,-1480.411884,10510.924376
3824.844228,-306.438199,-592.164754,10288.862594
3824.844543,-229.828649,-740.205942,10288.862594
3824.844857,-459.657299,-296.082377,9696.697840
3824.845172,-153.219100,370.102971,8808.450710
3824.845487,1149.143247,-222.061783,9178.553681
3824.845801,1532.190996,-0.000000,9252.574275
3824.846116,1302.362347,814.226536,8660.409521
3824.846430,1685.410096,888.247130,7698.141797
3824.846745,995.924147,518.144159,8364.327145
3824.847060,1072.533697,222.061783,9104.533087
3824.847374,1302.362347,-444.123565,9844.739029
3824.847689,689.485948,-222.061783,9474.636058
3824.848004,76.609550,-962.267725,10140.821405
3824.848318,-536.266849,-444.123565,9696.697840
3824.848633,-459.657299,-148.041188,8882.471304
3824.848948,153.219100,-666.185348,9178.553681
3824.849262,76.609550,-814.226536,8882.471304
3824.849577,0.000000,-222.061783,8512.368333
3824.849891,153.219100,592.164754,8290.306550
3824.850206,-306.438199,592.164754,9178.553681
3824.850521,229.828649,592.164754,9252.574275
3824.850835,766.095498,370.102971,9474.636058
3824.851150,306.438199,222.061783,9844.739029
3824.851465,-306.438199,-296.082377,10214.842000
3824.851779,-842.705048,222.061783,9992.780217
3824.852094,-1225.752797,666.185348,9622.677246
3824.852408,-459.657299,740.205942,9400.615463
3824.852723,-229.828649,518.144159,9918.759623
3824.853038,-766.095498,-0.000000,9474.636058
3824.853352,-459.657299,370.102971,10066.800811
3824.853667,-1302.362347,444.123565,8734.430116
3824.853982,-612.876398,-296.082377,9696.697840
3824.854296,383.047749,-74.020594,10807.006753
3824.854611,-153.219100,518.144159,10288.862594
3824.854925,-153.219100,-0.000000,10066.800811
3824.855240,-306.438199,1036.288319,9992.780217
3824.855555,-766.095498,1554.432478,9474.636058
3824.855869,689.485948,1036.288319,10288.862594
3824.856184,919.314598,1702.473667,9992.780217
3824.856499,383.047749,1184.329507,10066.800811
3824.856813,229.828649,962.267725,9918.759623
3824.857128,-229.828649,814.226536,9548.656652
3824.857443,0.000000,-0.000000,10510.924376
3824.857757,306.438199,-148.041188,10584.944971
3824.858072,0.000000,-0.000000,10436.903782
3824.858386,-306.438199,-0.000000,10732.986159
3824.858701,-459.657299,592.164754,10288.862594
3824.859016,-842.705048,222.061783,9918.759623
3824.859330,459.657299,-0.000000,10066.800811
3824.859645,536.266849,444.123565,9474.636058
3824.859960,1072.533697,1110.308913,8956.491898
3824.860275,536.266849,592.164754,9104.533087
3824.860590,383.047749,814.226536,8882.471304
3824.860905,536.266849,444.123565,9252.574275
3824.861219,1072.533697,370.102971,9178.553681
3824.861534,995.924147,222.061783,9104.533087
3824.861849,306.438199,-740.205942,9918.759623
3824.862164,0.000000,-370.102971,9252.574275
3824.862479,-689.485948,-518.144159,9030.512492
3824.862793,-383.047749,-1110.308913,10066.800811
3824.863108,689.485948,-888.247130,9770.718434
3824.863423,76.609550,-370.102971,9178.553681
3824.863738,459.657299,296.082377,9400.615463
3824.864053,229.828649,370.102971,7772.162391
3824.864367,1072.533697,-148.041188,8290.306550
3824.864682,1915.238745,-296.082377,8438.347739
3824.864997,1149.143247,-370.102971,9326.594869
3824.865312,919.314598,-814.226536,9696.697840
3824.865627,459.657299,-740.205942,8882.471304
3824.865942,0.000000,-148.041188,8734.430116
3824.866256,689.485948,-518.144159,9918.759623
3824.866571,383.047749,74.020594,9400.615463
3824.866886,153.219100,-0.000000,9844.739029
3824.867201,0.000000,-0.000000,9474.636058
3824.867516,-306.438199,-0.000000,8734.430116
3824.867830,689.485948,-0.000000,8734.430116
3824.868145,1072.533697,-222.061783,10214.842000
3824.868460,0.000000,-0.000000,9844.739029
3824.868775,-536.266849,-0.000000,10214.842000
3824.869090,-919.314598,444.123565,10807.006753
3824.869404,-689.485948,222.061783,10214.842000
3824.869719,306.438199,222.061783,10584.944971
3824.870034,0.000000,518.144159,10066.800811
3824.870349,-689.485948,444.123565,9918.759623
3824.870664,-689.485948,-0.000000,9770.718434
3824.870979,-1149.143247,1110.308913,9252.574275
3824.871293,-459.657299,444.123565,9400.615463
3824.871608,306.438199,444.123565,9622.677246
3824.871923,-229.828649,-222.061783,9548.656652
3824.872238,0.000000,-888.247130,9844.739029
3824.872553,-919.314598,-666.185348,10436.903782
3824.872867,-1455.581446,-518.144159,10584.944971
3824.873182,-689.485948,-0.000000,10881.027347
3824.873497,-689.485948,296.082377,10510.924376
3824.873812,-229.828649,518.144159,11029.068536
3824.874127,-153.219100,1258.350101,9992.780217
3824.874441,-383.047749,1258.350101,8364.327145
3824.874756,459.657299,370.102971,9326.594869
3824.875071,1378.971896,962.267725,8512.368333
3824.875386,383.047749,444.123565,9104.533087
3824.875701,536.266849,-518.144159,9474.636058
3824.876016,0.000000,-0.000000,9622.677246
3824.876330,-536.266849,-148.041188,9030.512492
3824.876645,459.657299,-814.226536,10214.842000
3824.876960,153.219100,-148.041188,9918.759623
3824.877275,-229.828649,-148.041188,9770.718434
3824.877590,-306.438199,222.061783,8808.450710
3824.877904,-383.047749,-0.000000,9252.574275
3824.878219,383.047749,-518.144159,9326.594869
3824.878534,842.705048,-222.061783,9178.553681
3824.878849,459.657299,-0.000000,9178.553681
3824.879164,383.047749,-444.123565,9992.780217
3824.879478,76.609550,-0.000000,9770.718434
3824.879793,76.609550,-148.041188,9252.574275
3824.880108,1225.752797,-740.205942,9992.780217
3824.880423,689.485948,518.144159,10066.800811
3824.880738,383.047749,222.061783,10362.883188
3824.881053,689.485948,518.144159,9474.636058
3824.881367,0.000000,518.144159,9474.636058
3824.881682,1225.752797,148.041188,9030.512492
3824.881997,1532.190996,-148.041188,8808.450710
3824.882312,612.876398,-0.000000,8956.491898
3824.882627,306.438199,-296.082377,9178.553681
3824.882941,-536.266849,-74.020594,8290.306550
3824.883256,-383.047749,-962.267725,10066.800811
3824.883571,459.657299,-1036.288319,10362.883188
3824.883886,-383.047749,-666.185348,10066.800811
3824.884201,-153.219100,-518.144159,9918.759623
3824.884515,306.438199,444.123565,10214.842000
3824.884830,0.000000,1332.370696,9178.553681
3824.885145,919.314598,1480.411884,8882.471304
3824.885460,1838.629195,1924.535449,8438.347739
3824.885775,1378.971896,1554.432478,8956.491898
3824.886090,1149.143247,1110.308913,8808.450710
3824.886404,0.000000,888.247130,8808.450710
3824.886719,-536.266849,-0.000000,9770.718434
3824.887034,153.219100,-666.185348,10881.027347
3824.887349,-1072.533697,-888.247130,10140.821405
3824.887664,-766.095498,-1258.350101,11399.171507
3824.887978,-1072.533697,-0.000000,10955.047942
3824.888293,-1225.752797,592.164754,9474.636058
3824.888608,76.609550,1110.308913,9326.594869
3824.888923,766.095498,1776.494261,8660.409521
3824.889238,995.924147,1110.308913,8956.491898
3824.889553,1149.143247,1184.329507,9474.636058
3824.889867,842.705048,1924.535449,8290.306550
3824.890182,459.657299,592.164754,9918.759623
3824.890497,689.485948,370.102971,10881.027347
3824.890812,229.828649,370.102971,11547.212695
3824.891127,-536.266849,370.102971,11621.233289
3824.891441,-1072.533697,370.102971,11547.212695
3824.891756,-1378.971896,592.164754,10436.903782
3824.892071,-383.047749,370.102971,10066.800811
3824.892386,536.266849,370.102971,9474.636058
3824.892701,-153.219100,-0.000000,9696.697840
3824.893015,0.000000,222.061783,8808.450710
3824.893330,0.000000,-0.000000,8438.347739
3824.893645,229.828649,-74.020594,9326.594869
3824.893960,306.438199,-814.226536,10214.842000
3824.894275,536.266849,-296.082377,10288.862594
3824.894590,-536.266849,-444.123565,11473.192101
3824.894904,-536.266849,-222.061783,9622.677246
3824.895219,-995.924147,-0.000000,9400.615463
3824.895534,0.000000,592.164754,9178.553681
3824.895849,766.095498,-148.041188,8808.450710
3824.896164,689.485948,-740.205942,8438.347739
3824.896478,229.828649,-222.061783,9474.636058
3824.896793,0.000000,518.144159,8438.347739
3824.897108,0.000000,-962.267725,9400.615463
3824.897423,0.000000,-1110.308913,10140.821405
3824.897738,383.047749,-962.267725,10066.800811
3824.898052,459.657299,-1480.411884,9696.697840
3824.898367,-153.219100,-518.144159,9622.677246
3824.898682,-229.828649,-0.000000,9178.553681
3824.898997,383.047749,-222.061783,8882.471304
3824.899312,1225.752797,-148.041188,8290.306550
3824.899627,1225.752797,370.102971,7920.203579
3824.899941,1455.581446,592.164754,8290.306550
3824.900256,766.095498,-0.000000,7698.141797
3824.900571,459.657299,-444.123565,9178.553681
3824.900886,766.095498,-888.247130,10214.842000
3824.901201,0.000000,-222.061783,10288.862594
3824.901515,-306.438199,-740.205942,10436.903782
3824.901830,-536.266849,-74.020594,10658.965565
3824.902145,-383.047749,-0.000000,10214.842000
3824.902460,459.657299,-0.000000,9400.615463
3824.902775,383.047749,444.123565,9474.636058
3824.903089,536.266849,222.061783,9252.574275
3824.903404,459.657299,740.205942,8438.347739
3824.903719,459.657299,1110.308913,7772.162391
3824.904034,612.876398,-0.000000,8956.491898
3824.904349,459.657299,-222.061783,9400.615463
3824.904664,-383.047749,-148.041188,10066.800811
3824.904978,-1225.752797,-962.267725,10807.006753
3824.905293,-1378.971896,-592.164754,11177.109724
3824.905608,-1225.752797,-0.000000,10066.800811
3824.905923,-459.657299,222.061783,9844.739029
3824.906238,-383.047749,370.102971,9918.759623
3824.906552,-306.438199,962.267725,9400.615463
3824.906867,0.000000,962.267725,9326.594869
3824.907182,153.219100,1480.411884,8364.327145
3824.907497,919.314598,1110.308913,9844.739029
3824.907812,459.657299,666.185348,9992.780217
3824.908126,0.000000,-0.000000,10140.821405
3824.908441,-76.609550,222.061783,11103.089130
3824.908756,-536.266849,444.123565,10140.821405
3824.909071,0.000000,518.144159,10140.821405
3824.909386,459.657299,740.205942,10658.965565
3824.909701,306.438199,740.205942,9474.636058
3824.910015,0.000000,740.205942,9400.615463
3824.910330,306.438199,370.102971,9104.533087
3824.910645,-153.219100,1036.288319,8808.450710
3824.910960,306.438199,-0.000000,9326.594869
3824.911275,612.876398,-148.041188,9844.739029
3824.911589,153.219100,-0.000000,10362.883188
3824.911904,0.000000,-74.020594,10955.047942
3824.912219,-459.657299,148.041188,10955.047942
3824.912534,-536.266849,1110.308913,10214.842000
3824.912849,689.485948,444.123565,11103.089130
3824.913163,306.438199,888.247130,9400.615463
3824.913478,229.828649,518.144159,8808.450710
3824.913793,459.657299,222.061783,9030.512492
3824.914108,-306.438199,222.061783,8956.491898
3824.914423,536.266849,-0.000000,8660.409521
3824.914738,536.266849,-888.247130,9474.636058
3824.915052,229.828649,-518.144159,9622.677246
3824.915367,0.000000,-814.226536,10214.842000
3824.915682,-306.438199,-296.082377,9400.615463
3824.915997,-689.485948,-0.000000,9918.759623
3824.916312,766.095498,-148.041188,9844.739029
3824.916626,766.095498,148.041188,9104.533087
3824.916941,536.266849,148.041188,9104.533087
3824.917256,459.657299,592.164754,8586.388927
3824.917571,383.047749,1332.370696,7698.141797
3824.917886,1072.533697,-222.061783,8956.491898
3824.918200,1378.971896,-592.164754,9252.574275
3824.918515,766.095498,-0.000000,9104.533087
3824.918830,306.438199,-222.061783,10066.800811
3824.919145,-612.876398,-0.000000,10066.800811
3824.919460,-612.876398,-296.082377,9918.759623
3824.919775,383.047749,-740.205942,10066.800811
3824.920089,76.609550,-444.123565,9770.718434
3824.920404,0.000000,444.123565,9622.677246
3824.920719,383.047749,962.267725,8438.347739
3824.921034,0.000000,1036.288319,7772.162391
3824.921349,536.266849,-0.000000,9104.533087
3824.921663,766.095498,-0.000000,8956.491898
3824.921978,229.828649,-0.000000,9400.615463
3824.922293,-153.219100,-666.185348,10436.903782
3824.922608,-1149.143247,-444.123565,10510.924376
3824.922923,-1378.971896,-370.102971,9918.759623
3824.923237,-842.705048,-222.061783,11547.212695
3824.923552,-612.876398,370.102971,11029.068536
3824.923867,-919.314598,370.102971,10362.883188
3824.924182,153.219100,1406.391290,9252.574275
3824.924497,0.000000,962.267725,8808.450710
3824.924812,766.095498,592.164754,9548.656652
3824.925126,842.705048,592.164754,9918.759623
3824.925441,383.047749,518.144159,9474.636058
3824.925756,229.828649,-370.102971,10362.883188
3824.926071,-459.657299,-444.123565,10140.821405
3824.926386,-383.047749,-444.123565,10436.903782
3824.926700,229.828649,-148.041188,11251.130318
3824.927015,-153.219100,-0.000000,10362.883188
3824.927330,-689.485948,-0.000000,9474.636058
3824.927645,0.000000,222.061783,9474.636058
3824.927960,0.000000,296.082377,8660.409521
3824.928274,919.314598,-0.000000,9474.636058
3824.928589,919.314598,518.144159,9474.636058
3824.928904,76.609550,222.061783,9474.636058
3824.929219,76.609550,-0.000000,9770.718434
3824.929534,-536.266849,-0.000000,9474.636058
3824.929849,0.000000,-444.123565,9992.780217
3824.930163,536.266849,-888.247130,10362.883188
3824.930478,-229.828649,-0.000000,10584.944971
3824.930793,-229.828649,-518.144159,9992.780217
3824.931108,0.000000,444.123565,9104.533087
3824.931423,-229.828649,888.247130,8142.265362
3824.931737,1149.143247,-0.000000,8364.327145
3824.932052,1608.800546,-370.102971,9030.512492
3824.932367,995.924147,-148.041188,8512.368333
3824.932682,612.876398,-370.102971,9104.533087
3824.932997,0.000000,-0.000000,8586.388927
3824.933312,-229.828649,-814.226536,9400.615463
3824.933626,536.266849,-592.164754,9918.759623
3824.933941,229.828649,-74.020594,9770.718434
3824.934256,0.000000,-370.102971,10214.842000
3824.934571,0.000000,148.041188,9696.697840
3824.934886,-383.047749,962.267725,8512.368333
3824.935200,612.876398,814.226536,8956.491898
3824.935515,919.314598,814.226536,8956.491898
3824.935830,766.095498,222.061783,9326.594869
3824.936145,76.609550,518.144159,9474.636058
3824.936460,-689.485948,-0.000000,8364.327145
3824.936774,-383.047749,-444.123565,9474.636058
3824.937089,689.485948,370.102971,10362.883188
3824.937404,153.219100,444.123565,9696.697840
3824.937719,0.000000,-0.000000,10066.800811
3824.938034,-536.266849,518.144159,9474.636058
3824.938349,-76.609550,592.164754,9474.636058
3824.938663,383.047749,592.164754,9474.636058
3824.938978,459.657299,1258.350101,9400.615463
3824.939293,153.219100,814.226536,9622.677246
3824.939608,153.219100,592.164754,9474.636058
3824.939923,76.609550,518.144159,9474.636058
3824.940237,153.219100,518.144159,9918.759623
3824.940552,153.219100,148.041188,11177.109724
3824.940867,0.000000,666.185348,10288.862594
3824.941182,-229.828649,518.144159,10807.006753
3824.941497,-612.876398,1332.370696,9770.718434
3824.941811,-612.876398,296.082377,9992.780217
3824.942126,689.485948,-0.000000,10214.842000
3824.942441,612.876398,814.226536,9474.636058
3824.942756,459.657299,1184.329507,9696.697840
3824.943071,0.000000,-0.000000,9918.759623
3824.943386,-383.047749,962.267725,9252.574275
3824.943700,0.000000,-0.000000,9770.718434
3824.944015,612.876398,-296.082377,10214.842000
3824.944330,153.219100,-444.123565,10436.903782
3824.944645,-306.438199,-148.041188,10584.944971
3824.944960,-689.485948,370.102971,9918.759623
3824.945274,-689.485948,740.205942,9770.718434
3824.945589,153.219100,-0.000000,9770.718434
3824.945904,459.657299,370.102971,8808.450710
3824.946219,995.924147,-296.082377,9992.780217
3824.946534,536.266849,370.102971,9474.636058
3824.946848,-229.828649,-148.041188,8956.491898
3824.947163,76.609550,-518.144159,9400.615463
3824.947478,689.485948,-296.082377,9474.636058
3824.947793,76.609550,-888.247130,9252.574275
3824.948108,153.219100,-1406.391290,9474.636058
3824.948423,-383.047749,-962.267725,9326.594869
3824.948737,0.000000,-666.185348,8808.450710
3824.949052,536.266849,-740.205942,9400.615463
3824.949367,766.095498,-0.000000,9326.594869
3824.949682,459.657299,-296.082377,9030.512492
3824.949997,536.266849,-222.061783,8882.471304
3824.950311,76.609550,-0.000000,7772.162391
3824.950626,1072.533697,-0.000000,8364.327145
3824.950941,995.924147,-592.164754,9252.574275
3824.951256,459.657299,-814.226536,9104.533087
3824.951571,536.266849,-740.205942,9770.718434
3824.951885,-459.657299,-222.061783,8956.491898
3824.952200,-383.047749,-222.061783,9474.636058
3824.952515,306.438199,-296.082377,10584.944971
3824.952830,76.609550,518.144159,9548.656652
3824.953145,0.000000,814.226536,9104.533087
3824.953460,76.609550,666.185348,8956.491898
3824.953774,-383.047749,666.185348,7994.224174
3824.954089,689.485948,370.102971,8808.450710
3824.954404,995.924147,740.205942,8882.471304
3824.954719,689.485948,222.061783,9400.615463
3824.955034,383.047749,-0.000000,9400.615463
3824.955348,-229.828649,370.102971,9474.636058
3824.955663,-459.657299,518.144159,9622.677246
3824.955978,-459.657299,-74.020594,10955.047942
3824.956293,-536.266849,222.061783,10881.027347
3824.956608,-995.924147,148.041188,10140.821405
3824.956922,-153.219100,1184.329507,10066.800811
3824.957237,-766.095498,1110.308913,9548.656652
3824.957552,0.000000,444.123565,9918.759623
3824.957867,1149.143247,1480.411884,9548.656652
3824.958182,306.438199,1258.350101,9474.636058
3824.958497,153.219100,740.205942,9696.697840
3824.958811,-459.657299,1110.308913,9844.739029
3824.959126,0.000000,370.102971,10214.842000
3824.959441,383.047749,-0.000000,11325.150913
3824.959756,-459.657299,518.144159,10658.965565
3824.960059,-689.485948,148.041188,10362.883188
3824.960373,-995.924147,444.123565,10066.800811
3824.960688,-1149.143247,1110.308913,9918.759623
3824.961003,0.000000,148.041188,10066.800811
3824.961318,-766.095498,222.061783,9696.697840
3824.961633,0.000000,-0.000000,9178.553681
3824.961947,-229.828649,-740.205942,10288.862594
3824.962262,76.609550,222.061783,9844.739029
3824.962577,229.828649,740.205942,9844.739029
3824.962892,919.314598,518.144159,10362.883188
3824.963207,612.876398,962.267725,10510.924376
3824.963522,0.000000,592.164754,9918.759623
3824.963836,612.876398,370.102971,9474.636058
3824.964151,0.000000,1036.288319,8290.306550
3824.964466,995.924147,444.123565,7994.224174
3824.964781,1225.752797,370.102971,9104.533087
3824.965096,459.657299,-592.164754,8734.430116
3824.965410,536.266849,-1332.370696,9770.718434
3824.965725,-612.876398,-740.205942,8956.491898
3824.966040,0.000000,-1184.329507,9918.759623
3824.966355,842.705048,-1110.308913,9844.739029
3824.966670,536.266849,-814.226536,9400.615463
3824.966985,689.485948,-222.061783,9918.759623
3824.967299,612.876398,-74.020594,8956.491898
3824.967614,919.314598,592.164754,7994.224174
3824.967929,1225.752797,444.123565,8216.285956
3824.968244,2068.457845,-0.000000,8216.285956
3824.968559,1608.800546,370.102971,7476.080014
3824.968873,1225.752797,-148.041188,8956.491898
3824.969188,306.438199,-814.226536,9326.594869
3824.969503,0.000000,-1036.288319,9474.636058
3824.969818,383.047749,-1110.308913,10510.924376
3824.970133,0.000000,-592.164754,10288.862594
3824.970448,-842.705048,-592.164754,10584.944971
3824.970762,-766.095498,-370.102971,10214.842000
3824.971077,-842.705048,-0.000000,8734.430116
3824.971392,459.657299,-0.000000,9104.533087
3824.971707,766.095498,592.164754,9104.533087
3824.972022,383.047749,962.267725,8290.306550
3824.972336,536.266849,296.082377,9326.594869
3824.972651,0.000000,444.123565,9178.553681
3824.972966,153.219100,-370.102971,9252.574275
3824.973281,383.047749,-222.061783,9918.759623
3824.973596,-153.219100,-0.000000,10955.047942
3824.973911,-919.314598,-0.000000,11251.130318
3824.974225,-919.314598,666.185348,11325.150913
3824.974540,-1149.143247,1036.288319,9696.697840
3824.974855,-306.438199,444.123565,9992.780217
3824.975170,306.438199,962.267725,9622.677246
3824.975485,-306.438199,814.226536,9918.759623
3824.975799,-229.828649,888.247130,9696.697840
3824.976114,-766.095498,592.164754,9548.656652
3824.976429,-153.219100,370.102971,9474.636058
3824.976744,0.000000,-148.041188,10732.986159
3824.977059,-536.266849,518.144159,10584.944971
3824.977374,-612.876398,-0.000000,10881.027347
3824.977688,-919.314598,962.267725,10584.944971
3824.978003,-766.095498,1184.329507,9992.780217
3824.978318,153.219100,962.267725,9992.780217
3824.978633,-229.828649,1850.514855,9104.533087
3824.978948,-536.266849,592.164754,9104.533087
3824.979262,229.828649,-296.082377,9622.677246
3824.979577,-766.095498,666.185348,8956.491898
3824.979892,-536.266849,-148.041188,9326.594869
3824.980207,459.657299,-666.185348,11177.109724
3824.980522,-919.314598,370.102971,10584.944971
3824.980837,-689.485948,-518.144159,10732.986159
3824.981151,-766.095498,-518.144159,10288.862594
3824.981466,-536.266849,296.082377,9918.759623
3824.981781,612.876398,222.061783,9030.512492
3824.982096,1072.533697,814.226536,8660.409521
3824.982411,1072.533697,1406.391290,7550.100608
3824.982725,1149.143247,-0.000000,7402.059420
3824.983040,459.657299,-0.000000,8290.306550
3824.983355,919.314598,-666.185348,8734.430116
3824.983670,842.705048,-1480.411884,9622.677246
3824.983985,153.219100,-1776.494261,9474.636058
3824.984300,306.438199,-1110.308913,10584.944971
3824.984614,-153.219100,-222.061783,9844.739029
3824.984929,-536.266849,-0.000000,9326.594869
3824.985244,1149.143247,-0.000000,9548.656652
3824.985559,1608.800546,814.226536,8734.430116
3824.985874,1608.800546,1184.329507,7920.203579
3824.986188,1991.848295,1036.288319,7994.224174
3824.986503,1149.143247,1110.308913,8142.265362
3824.986818,1685.410096,-592.164754,9252.574275
3824.987133,1838.629195,-296.082377,9622.677246
3824.987448,689.485948,-592.164754,9474.636058
3824.987763,-153.219100,-666.185348,10436.903782
3824.988077,-536.266849,-222.061783,10214.842000
3824.988392,-612.876398,148.041188,9696.697840
3824.988707,229.828649,-222.061783,9104.533087
3824.989022,229.828649,518.144159,8734.430116
3824.989337,-229.828649,592.164754,8808.450710
3824.989651,0.000000,-0.000000,8882.471304
3824.989966,-383.047749,592.164754,8956.491898
3824.990281,229.828649,-222.061783,9400.615463
3824.990596,766.095498,370.102971,10214.842000
3824.990911,306.438199,962.267725,10510.924376
3824.991226,-383.047749,222.061783,10732.986159
3824.991540,-1225.752797,370.102971,10214.842000
3824.991855,-766.095498,1110.308913,10066.800811
3824.992170,-229.828649,444.123565,10732.986159
3824.992485,0.000000,222.061783,10140.821405
3824.992800,-153.219100,1036.288319,9844.739029
3824.993114,76.609550,1332.370696,8512.368333
3824.993429,76.609550,962.267725,8290.306550
3824.993744,306.438199,-0.000000,9696.697840
3824.994059,766.095498,-0.000000,10807.006753
3824.994374,-612.876398,222.061783,9548.656652
3824.994689,-766.095498,-518.144159,10807.006753
3824.995003,-1072.533697,-0.000000,10436.903782
3824.995318,-1149.143247,-148.041188,10732.986159
3824.995633,-536.266849,-444.123565,10955.047942
3824.995948,-383.047749,222.061783,9992.780217
3824.996263,-153.219100,518.144159,9474.636058
3824.996577,0.000000,740.205942,9622.677246
3824.996892,-306.438199,1332.370696,9030.512492
3824.997207,306.438199,296.082377,9178.553681
3824.997522,383.047749,-296.082377,9622.677246
3824.997837,306.438199,-666.185348,9474.636058
3824.998152,-306.438199,-1332.370696,10955.047942
3824.998466,-612.876398,-592.164754,10584.944971
3824.998781,-919.314598,-370.102971,10066.800811
3824.999096,-153.219100,-592.164754,10362.883188
3824.999411,153.219100,-74.020594,9474.636058
3824.999726,153.219100,148.041188,8660.409521
3825.000040,689.485948,-0.000000,8290.306550
3825.000355,153.219100,-0.000000,7254.018232
3825.000670,306.438199,-1036.288319,7920.203579
3825.000985,919.314598,-1406.391290,9178.553681
3825.001300,689.485948,-1554.432478,9400.615463
3825.001615,612.876398,-1036.288319,9992.780217
3825.001929,0.000000,-444.123565,9326.594869
3825.002244,229.828649,-888.247130,9548.656652
3825.002559,1225.752797,-444.123565,9548.656652
3825.002874,995.924147,666.185348,9104.533087
3825.003189,766.095498,296.082377,8660.409521
3825.003503,1378.971896,888.247130,7772.162391
3825.003818,689.485948,592.164754,7254.018232
3825.004133,1915.238745,-222.061783,7772.162391
3825.004448,1532.190996,-370.102971,8586.388927
3825.004763,842.705048,-370.102971,9104.533087
3825.005078,306.438199,-296.082377,10362.883188
3825.005392,-306.438199,370.102971,9918.759623
3825.005707,-612.876398,-0.000000,9770.718434
3825.006022,536.266849,-370.102971,10658.965565
3825.006337,766.095498,814.226536,9696.697840
3825.006652,76.609550,1480.411884,9030.512492
3825.006966,229.828649,1628.453072,8882.471304
3825.007281,383.047749,2368.659014,9104.533087
3825.007596,1072.533697,1554.432478,8956.491898
3825.007911,1532.190996,1702.473667,9548.656652
3825.008226,153.219100,1184.329507,10140.821405
3825.008541,0.000000,814.226536,11103.089130
3825.008855,-689.485948,592.164754,10955.047942
3825.009170,-995.924147,740.205942,10732.986159
3825.009485,-766.095498,-0.000000,12065.356855
3825.009800,-612.876398,962.267725,10510.924376
3825.010115,-689.485948,888.247130,10510.924376
3825.010429,-229.828649,1406.391290,9622.677246
3825.010744,-306.438199,1258.350101,9326.594869
3825.011059,612.876398,962.267725,9474.636058
3825.011374,459.657299,740.205942,9622.677246
3825.011689,-229.828649,740.205942,9770.718434
3825.012004,-383.047749,-74.020594,10881.027347
3825.012318,-1225.752797,592.164754,10584.944971
3825.012633,-766.095498,-0.000000,10881.027347
3825.012948,0.000000,-0.000000,10881.027347
3825.013263,-306.438199,370.102971,10288.862594
3825.013578,-229.828649,370.102971,9918.759623
3825.013892,0.000000,222.061783,9770.718434
3825.014207,76.609550,518.144159,8586.388927
3825.014522,536.266849,222.061783,9104.533087
3825.014837,766.095498,-0.000000,9252.574275
3825.015152,153.219100,-444.123565,8734.430116
3825.015467,-306.438199,-740.205942,9474.636058
3825.015781,-459.657299,-518.144159,9622.677246
3825.016096,-842.705048,-962.267725,9548.656652
3825.016411,153.219100,-1628.453072,10214.842000
3825.016726,0.000000,-518.144159,10214.842000
3825.017041,0.000000,-222.061783,9992.780217
3825.017355,0.000000,-148.041188,9030.512492
3825.017670,0.000000,296.082377,8512.368333
3825.017985,995.924147,740.205942,8734.430116
3825.018300,1302.362347,740.205942,8438.347739
3825.018615,842.705048,296.082377,8660.409521
3825.018930,459.657299,-74.020594,9030.512492
3825.019244,0.000000,-370.102971,8660.409521
3825.019559,0.000000,-1480.411884,9178.553681
3825.019874,229.828649,-1628.453072,10807.006753
3825.020189,0.000000,-962.267725,10288.862594
3825.020504,-153.219100,-888.247130,9474.636058
3825.020818,-153.219100,-148.041188,9030.512492
3825.021133,306.438199,-0.000000,8290.306550
3825.021448,1302.362347,-0.000000,8290.306550
3825.021763,1225.752797,-222.061783,8290.306550
3825.022078,995.924147,-148.041188,8808.450710
3825.022393,766.095498,222.061783,8512.368333
3825.022707,0.000000,-0.000000,8512.368333
3825.023022,459.657299,-666.185348,9770.718434
3825.023337,919.314598,-888.247130,11325.150913
3825.023652,0.000000,-370.102971,10288.862594
3825.023967,-459.657299,-74.020594,10288.862594
3825.024281,-842.705048,518.144159,10362.883188
3825.024596,-1072.533697,296.082377,9770.718434
3825.024911,0.000000,-222.061783,9844.739029
3825.025226,383.047749,-74.020594,9844.739029
3825.025541,306.438199,222.061783,9918.759623
3825.025856,0.000000,222.061783,9770.718434
3825.026170,-689.485948,666.185348,8808.450710
3825.026485,0.000000,-148.041188,10214.842000
3825.026800,536.266849,-0.000000,10584.944971
3825.027115,229.828649,370.102971,10140.821405
3825.027430,76.609550,444.123565,10436.903782
3825.027744,-229.828649,592.164754,10881.027347
3825.028059,-766.095498,1332.370696,9770.718434
3825.028374,536.266849,1110.308913,10362.883188
3825.028689,383.047749,1036.288319,10214.842000
3825.029004,0.000000,962.267725,9992.780217
3825.029319,76.609550,518.144159,10510.924376
3825.029633,-306.438199,592.164754,9622.677246
3825.029948,-306.438199,444.123565,10436.903782
3825.030263,383.047749,740.205942,10584.944971
3825.030578,76.609550,444.123565,10066.800811
3825.030893,-383.047749,222.061783,10362.883188
3825.031207,0.000000,814.226536,9474.636058
3825.031522,-459.657299,888.247130,8734.430116
3825.031837,612.876398,296.082377,9474.636058
3825.032152,229.828649,1036.288319,9474.636058
3825.032467,76.609550,1258.350101,8438.347739
3825.032782,0.000000,962.267725,9252.574275
3825.033096,-229.828649,518.144159,8586.388927
3825.033411,76.609550,-592.164754,8882.471304
3825.033726,842.705048,-370.102971,8956.491898
3825.034041,459.657299,-74.020594,9548.656652
3825.034356,-459.657299,-0.000000,9770.718434
3825.034670,-459.657299,-0.000000,8956.491898
3825.034985,-459.657299,148.041188,9474.636058
3825.035300,229.828649,-370.102971,9474.636058
3825.035615,306.438199,-74.020594,9770.718434
3825.035930,383.047749,296.082377,9104.533087
3825.036245,229.828649,-0.000000,8956.491898
3825.036559,0.000000,370.102971,8068.244768
3825.036874,842.705048,-666.185348,8808.450710
3825.037189,1072.533697,-888.247130,8956.491898
3825.037504,383.047749,-592.164754,9326.594869
3825.037819,383.047749,-1036.288319,9696.697840
3825.038133,-383.047749,-0.000000,9474.636058
3825.038448,0.000000,-814.226536,9992.780217
3825.038763,306.438199,-888.247130,10214.842000
3825.039078,-229.828649,-518.144159,10510.924376
3825.039393,-153.219100,-0.000000,9326.594869
3825.039708,-153.219100,222.061783,9844.739029
3825.040022,-536.266849,1036.288319,9474.636058
3825.040337,76.609550,666.185348,9474.636058
3825.040652,1072.533697,444.123565,9400.615463
3825.040967,459.657299,222.061783,9696.697840
3825.041282,229.828649,-74.020594,10214.842000
3825.041596,0.000000,-0.000000,10214.842000
3825.041911,0.000000,148.041188,9326.594869
3825.042226,0.000000,-0.000000,10658.965565
3825.042541,-153.219100,-222.061783,10288.862594
3825.042856,0.000000,296.082377,9844.739029
3825.043171,-459.657299,592.164754,9252.574275
3825.043485,-536.266849,-0.000000,8808.450710
3825.043800,536.266849,-74.020594,9030.512492
3825.044115,0.000000,148.041188,9252.574275
3825.044430,0.000000,-0.000000,9696.697840
3825.044745,0.000000,-222.061783,10658.965565
3825.045059,0.000000,-0.000000,9770.718434
3825.045374,76.609550,-0.000000,9992.780217
3825.045689,689.485948,-148.041188,10732.986159
3825.046004,766.095498,444.123565,10288.862594
3825.046319,0.000000,370.102971,10362.883188
3825.046634,153.219100,1480.411884,9696.697840
3825.046948,0.000000,814.226536,9178.553681
3825.047263,919.314598,-0.000000,9252.574275
3825.047578,1378.971896,-0.000000,9104.533087
3825.047893,153.219100,-592.164754,9030.512492
3825.048208,153.219100,-1184.329507,9844.739029
3825.048522,-383.047749,-666.185348,9770.718434
3825.048837,-383.047749,-814.226536,9992.780217
3825.049152,383.047749,-740.205942,10658.965565
3825.049467,612.876398,74.020594,9844.739029
3825.049782,383.047749,-296.082377,9474.636058
3825.050097,0.000000,370.102971,9104.533087
3825.050411,0.000000,814.226536,8438.347739
3825.050726,766.095498,592.164754,8882.471304
3825.051041,1225.752797,-0.000000,9104.533087
3825.051356,842.705048,-370.102971,9104.533087
3825.051671,689.485948,-296.082377,9178.553681
3825.051985,-306.438199,-0.000000,9030.512492
3825.052300,-689.485948,-518.144159,10140.821405
3825.052615,0.000000,-740.205942,10658.965565
3825.052930,-689.485948,444.123565,10881.027347
3825.053245,-842.705048,-0.000000,9622.677246
3825.053560,-306.438199,370.102971,9104.533087
3825.053874,-612.876398,740.205942,8660.409521
3825.054189,306.438199,518.144159,8512.368333
3825.054504,842.705048,814.226536,8142.265362
3825.054819,766.095498,666.185348,8364.327145
3825.055134,919.314598,444.123565,9252.574275
3825.055448,76.609550,962.267725,8734.430116
3825.055763,306.438199,296.082377,9030.512492
3825.056078,612.876398,666.185348,10955.047942
3825.056393,0.000000,740.205942,10288.862594
3825.056708,0.000000,370.102971,10510.924376
3825.057023,-536.266849,518.144159,10140.821405
3825.057337,-995.924147,1184.329507,9548.656652
3825.057652,0.000000,1184.329507,9400.615463
3825.057967,0.000000,740.205942,9474.636058
3825.058282,76.609550,814.226536,9844.739029
3825.058597,0.000000,814.226536,9770.718434
3825.058911,-536.266849,740.205942,9030.512492
3825.059226,-536.266849,-0.000000,9918.759623
3825.059541,306.438199,-444.123565,11399.171507
3825.059856,229.828649,296.082377,10584.944971
3825.060171,0.000000,592.164754,11399.171507
3825.060486,0.000000,1850.514855,10362.883188
3825.060800,-459.657299,1776.494261,9326.594869
3825.061115,919.314598,592.164754,9400.615463
3825.061430,1225.752797,592.164754,9844.739029
3825.061745,306.438199,370.102971,9474.636058
3825.062060,229.828649,-74.020594,9622.677246
3825.062374,-306.438199,370.102971,9400.615463
3825.062689,0.000000,-222.061783,10066.800811
3825.063004,229.828649,-1036.288319,10732.986159
3825.063319,153.219100,-518.144159,10881.027347
3825.063634,0.000000,-518.144159,11621.233289
3825.063949,-306.438199,-0.000000,10510.924376
3825.064263,-689.485948,814.226536,9474.636058
3825.064578,612.876398,740.205942,9104.533087
3825.064893,1378.971896,814.226536,9030.512492
3825.065208,1378.971896,814.226536,7994.224174
3825.065523,1072.533697,-0.000000,7846.182985
3825.065837,995.924147,-296.082377,8142.265362
3825.066152,536.266849,-814.226536,8586.388927
3825.066467,229.828649,-1258.350101,10066.800811
3825.066782,-842.705048,-1036.288319,10066.800811
3825.067097,-995.924147,-814.226536,10881.027347
3825.067412,-995.924147,-296.082377,9918.759623
3825.067726,-1455.581446,-740.205942,9622.677246
3825.068041,229.828649,-0.000000,9326.594869
3825.068356,459.657299,222.061783,8290.306550
3825.068671,689.485948,-0.000000,8290.306550
3825.068986,612.876398,148.041188,8808.450710
3825.069301,76.609550,370.102971,8068.244768
3825.069615,766.095498,-592.164754,9030.512492
3825.069930,766.095498,-962.267725,9844.739029
3825.070245,612.876398,-518.144159,9918.759623
3825.070560,153.219100,-740.205942,9696.697840
3825.070875,-766.095498,-444.123565,9844.739029
3825.071189,-612.876398,-370.102971,9178.553681
3825.071504,306.438199,-222.061783,9030.512492
3825.071819,689.485948,-148.041188,8956.491898
3825.072134,0.000000,-0.000000,8586.388927
3825.072449,-383.047749,222.061783,8290.306550
3825.072764,-229.828649,-296.082377,8882.471304
3825.073078,0.000000,-740.205942,9696.697840
3825.073393,536.266849,-370.102971,10436.903782
3825.073708,0.000000,-0.000000,10510.924376
3825.074023,-383.047749,222.061783,10732.986159
3825.074338,-612.876398,1184.329507,10955.047942
3825.074652,-842.705048,1184.329507,10288.862594
3825.074967,153.219100,888.247130,10140.821405
3825.075282,0.000000,666.185348,10214.842000
3825.075597,153.219100,1110.308913,9326.594869
3825.075912,0.000000,962.267725,9474.636058
3825.076227,-536.266849,962.267725,8956.491898
3825.076541,0.000000,-0.000000,9548.656652
3825.076856,229.828649,-222.061783,10807.006753
3825.077171,-383.047749,-222.061783,10362.883188
3825.077486,-689.485948,-148.041188,11251.130318
3825.077801,-306.438199,518.144159,9992.780217
3825.078115,76.609550,518.144159,9474.636058
3825.078430,536.266849,592.164754,9696.697840
3825.078745,1072.533697,1036.288319,9030.512492
3825.079060,766.095498,1110.308913,8660.409521
3825.079375,612.876398,814.226536,8586.388927
3825.079690,229.828649,814.226536,8660.409521
3825.080004,383.047749,518.144159,9770.718434
3825.080319,919.314598,296.082377,10362.883188
3825.080634,229.828649,296.082377,10066.800811
3825.080949,306.438199,-0.000000,11251.130318
3825.081264,0.000000,-0.000000,11029.068536
3825.081579,76.609550,296.082377,10955.047942
3825.081893,766.095498,666.185348,9992.780217
3825.082208,842.705048,740.205942,9252.574275
3825.082523,919.314598,740.205942,8438.347739
3825.082838,1302.362347,296.082377,8512.368333
3825.083153,536.266849,888.247130,7846.182985
3825.083467,919.314598,-148.041188,8660.409521
3825.083782,1072.533697,-518.144159,9178.553681
3825.084097,459.657299,-814.226536,9696.697840
3825.084412,0.000000,-814.226536,10362.883188
3825.084727,-459.657299,-370.102971,10288.862594
3825.085042,-919.314598,-518.144159,9770.718434
3825.085356,459.657299,-1184.329507,10214.842000
3825.085671,76.609550,-74.020594,9918.759623
3825.085986,153.219100,518.144159,9104.533087
3825.086301,306.438199,666.185348,9104.533087
3825.086616,0.000000,666.185348,8364.327145
3825.086930,766.095498,-222.061783,8956.491898
3825.087245,1072.533697,-296.082377,9474.636058
3825.087560,0.000000,-222.061783,10066.800811
3825.087875,-229.828649,-0.000000,10214.842000
3825.088190,-995.924147,-0.000000,9992.780217
3825.088505,-842.705048,-0.000000,10066.800811
3825.088819,383.047749,-0.000000,9474.636058
3825.089134,459.657299,-444.123565,9252.574275
3825.089449,459.657299,148.041188,8882.471304
3825.089764,0.000000,740.205942,8068.244768
3825.090079,-229.828649,1036.288319,8068.244768
3825.090393,306.438199,370.102971,8956.491898
3825.090708,383.047749,-0.000000,8660.409521
3825.091023,0.000000,-444.123565,9696.697840
3825.091338,-612.876398,-296.082377,10584.944971
3825.091653,-1532.190996,-0.000000,10288.862594
3825.091968,-1225.752797,370.102971,11029.068536
3825.092282,-306.438199,370.102971,10658.965565
3825.092597,0.000000,-74.020594,10436.903782
3825.092912,0.000000,1184.329507,9918.759623
3825.093227,0.000000,1258.350101,8956.491898
3825.093542,-306.438199,1628.453072,8142.265362
3825.093857,306.438199,444.123565,9326.594869
3825.094171,383.047749,-0.000000,9622.677246
3825.094486,-766.095498,-592.164754,9918.759623
3825.094801,-536.266849,-518.144159,10584.944971
3825.095116,-1378.971896,-74.020594,10658.965565
3825.095431,-1072.533697,-444.123565,10658.965565
3825.095745,-306.438199,-1036.288319,11103.089130
3825.096060,0.000000,-0.000000,10214.842000
3825.096375,459.657299,814.226536,9474.636058
3825.096690,536.266849,740.205942,8660.409521
3825.097005,995.924147,888.247130,8660.409521
3825.097320,1302.362347,-0.000000,8882.471304
3825.097634,1302.362347,-0.000000,9474.636058
3825.097949,766.095498,-0.000000,9548.656652
3825.098264,306.438199,-0.000000,10288.862594
3825.098579,-229.828649,-0.000000,9548.656652
3825.098894,-153.219100,-592.164754,9548.656652
3825.099208,536.266849,-296.082377,10288.862594
3825.099523,383.047749,-370.102971,9548.656652
3825.099838,383.047749,-222.061783,9252.574275
3825.100153,229.828649,-0.000000,9252.574275
3825.100468,459.657299,666.185348,8142.265362
3825.100783,842.705048,-148.041188,8216.285956
3825.101097,1225.752797,-370.102971,9104.533087
3825.101412,766.095498,-666.185348,9622.677246
3825.101727,612.876398,-296.082377,9474.636058
3825.102042,76.609550,-74.020594,9400.615463
3825.102357,536.266849,-0.000000,9622.677246
3825.102672,1072.533697,-370.102971,10066.800811
3825.102986,1072.533697,-222.061783,9622.677246
3825.103301,1149.143247,-0.000000,9474.636058
3825.103616,459.657299,296.082377,9178.553681
3825.103931,306.438199,592.164754,8882.471304
3825.104246,1302.362347,888.247130,9178.553681
3825.104560,1302.362347,740.205942,9104.533087
3825.104875,766.095498,-0.000000,9030.512492
3825.105190,306.438199,-592.164754,9992.780217
3825.105505,-536.266849,-0.000000,9696.697840
3825.105820,-689.485948,-518.144159,10436.903782
3825.106135,0.000000,-0.000000,10732.986159
3825.106449,-1072.533697,148.041188,10436.903782
3825.106764,-459.657299,-370.102971,10584.944971
3825.107079,-536.266849,518.144159,9474.636058
3825.107394,-612.876398,814.226536,9326.594869
3825.107709,229.828649,1184.329507,9918.759623
3825.108023,0.000000,1258.350101,9400.615463
3825.108338,153.219100,888.247130,9474.636058
3825.108653,-383.047749,740.205942,9622.677246
3825.108968,-1378.971896,-0.000000,9770.718434
3825.109283,-1072.533697,-592.164754,10140.821405
3825.109598,383.047749,-518.144159,10881.027347
3825.109912,-766.095498,-0.000000,10807.006753
3825.110227,-995.924147,370.102971,9696.697840
3825.110542,-919.314598,592.164754,9622.677246
3825.110857,-689.485948,814.226536,9104.533087
3825.111172,459.657299,518.144159,9104.533087
3825.111486,459.657299,370.102971,8734.430116
3825.111801,76.609550,370.102971,9474.636058
3825.112116,0.000000,444.123565,9474.636058
3825.112431,-766.095498,592.164754,8882.471304
3825.112746,-383.047749,-0.000000,9622.677246
3825.113061,153.219100,-74.020594,10436.903782
3825.113375,153.219100,-148.041188,10510.924376
3825.113690,-76.609550,518.144159,10066.800811
3825.114005,-689.485948,888.247130,9696.697840
3825.114320,-306.438199,1184.329507,8956.491898
3825.114635,459.657299,814.226536,9844.739029
3825.114950,1072.533697,444.123565,9770.718434
3825.115264,536.266849,518.144159,9252.574275
3825.115579,536.266849,592.164754,9326.594869
3825.115894,459.657299,888.247130,8586.388927
3825.116209,229.828649,222.061783,9474.636058
3825.116524,536.266849,-296.082377,10362.883188
3825.116838,383.047749,-1110.308913,10362.883188
3825.117153,0.000000,-370.102971,10140.821405
3825.117468,-536.266849,-518.144159,9548.656652
3825.117783,-459.657299,-148.041188,9400.615463
3825.118098,76.609550,-740.205942,9918.759623
3825.118413,306.438199,-0.000000,10140.821405
3825.118727,612.876398,-0.000000,9474.636058
3825.119042,1072.533697,296.082377,8956.491898
3825.119357,842.705048,148.041188,9030.512492
3825.119672,1072.533697,-0.000000,9252.574275
3825.119987,1302.362347,148.041188,9326.594869
3825.120301,919.314598,-518.144159,9844.739029
3825.120616,459.657299,-740.205942,10066.800811
3825.120931,76.609550,-592.164754,9918.759623
3825.121246,76.609550,-0.000000,9400.615463
3825.121561,459.657299,-444.123565,9622.677246
3825.121876,229.828649,-814.226536,9548.656652
3825.122190,306.438199,-592.164754,9326.594869
3825.122505,0.000000,-0.000000,8808.450710
3825.122820,-383.047749,296.082377,8882.471304
3825.123135,229.828649,-222.061783,9104.533087
3825.123450,842.705048,-444.123565,9474.636058
3825.123764,383.047749,-592.164754,9474.636058
3825.124079,612.876398,-444.123565,9918.759623
3825.124394,-229.828649,444.123565,9474.636058
3825.124709,-536.266849,148.041188,9548.656652
3825.125024,612.876398,666.185348,9474.636058
3825.125339,0.000000,148.041188,9844.739029
3825.125653,0.000000,740.205942,9326.594869
3825.125968,0.000000,-0.000000,9474.636058
3825.126283,-1225.752797,1110.308913,9400.615463
3825.126598,-766.095498,-370.102971,8956.491898
3825.126913,153.219100,-592.164754,9548.656652
3825.127228,-459.657299,-814.226536,10436.903782
3825.127542,-383.047749,-0.000000,9992.780217
3825.127857,-1149.143247,-74.020594,9844.739029
3825.128172,-766.095498,666.185348,9622.677246
3825.128487,0.000000,-0.000000,9992.780217
3825.128802,229.828649,444.123565,9548.656652
3825.129116,0.000000,666.185348,9622.677246
3825.129431,-229.828649,740.205942,9030.512492
3825.129746,-536.266849,1036.288319,8290.306550
3825.130061,76.609550,666.185348,8586.388927
3825.130376,689.485948,666.185348,9474.636058
3825.130691,306.438199,222.061783,9844.739029
3825.131005,-306.438199,-0.000000,9992.780217
3825.131320,-842.705048,-0.000000,9474.636058
3825.131635,-1149.143247,370.102971,9844.739029
3825.131950,153.219100,-222.061783,11177.109724
3825.132265,0.000000,592.164754,10140.821405
3825.132579,0.000000,666.185348,10510.924376
3825.132894,-229.828649,1110.308913,10066.800811
3825.133209,-766.095498,1702.473667,8660.409521
3825.133524,459.657299,814.226536,8660.409521
3825.133839,842.705048,518.144159,9474.636058
3825.134154,153.219100,296.082377,9326.594869
3825.134468,536.266849,-74.020594,9770.718434
3825.134783,-612.876398,296.082377,9326.594869
3825.135098,-383.047749,-296.082377,10288.862594
3825.135413,153.219100,-1036.288319,11399.171507
3825.135728,0.000000,-222.061783,10955.047942
3825.136043,76.609550,888.247130,10214.842000
3825.136357,306.438199,888.247130,9622.677246
3825.136672,612.876398,1406.391290,9252.574275
3825.136987,1455.581446,-0.000000,9474.636058
3825.137302,1915.238745,370.102971,8882.471304
3825.137617,1455.581446,-0.000000,8734.430116
3825.137931,1149.143247,148.041188,9844.739029
3825.138246,536.266849,-0.000000,9548.656652
3825.138561,383.047749,-222.061783,9030.512492
3825.138876,842.705048,-592.164754,10288.862594
3825.139191,383.047749,-592.164754,10214.842000
3825.139506,229.828649,-888.247130,10584.944971
3825.139820,0.000000,-296.082377,9844.739029
3825.140135,-536.266849,-0.000000,9104.533087
3825.140450,0.000000,-0.000000,8956.491898
3825.140765,995.924147,-296.082377,9104.533087
3825.141080,1072.533697,-0.000000,9030.512492
3825.141394,995.924147,-888.247130,9400.615463
3825.141709,76.609550,-222.061783,8734.430116
3825.142024,306.438199,-370.102971,9474.636058
3825.142339,1225.752797,-518.144159,10510.924376
3825.142654,459.657299,-222.061783,10066.800811
3825.142969,229.828649,-222.061783,9622.677246
3825.143283,-153.219100,-74.020594,9548.656652
3825.143598,-306.438199,-0.000000,9030.512492
3825.143913,153.219100,-0.000000,9104.533087
3825.144228,536.266849,-0.000000,8660.409521
3825.144543,76.609550,-592.164754,8660.409521
3825.144857,0.000000,-148.041188,8660.409521
3825.145172,-919.314598,-0.000000,8734.430116
3825.145487,-919.314598,-888.247130,9696.697840
3825.145802,-306.438199,-962.267725,10510.924376
3825.146117,-766.095498,-296.082377,10658.965565
3825.146432,-536.266849,-222.061783,10288.862594
3825.146746,-1072.533697,740.205942,9252.574275
3825.147061,-1838.629195,1110.308913,9474.636058
3825.147376,-229.828649,740.205942,9918.759623
3825.147691,-536.266849,888.247130,9178.553681
3825.148006,-383.047749,1184.329507,9326.594869
3825.148321,-536.266849,814.226536,9474.636058
3825.148635,-1378.971896,1036.288319,9400.615463
3825.148950,-842.705048,-0.000000,9844.739029
3825.149265,-842.705048,-444.123565,10807.006753
3825.149580,-1072.533697,-296.082377,11103.089130
3825.149895,-766.095498,-0.000000,11103.089130
3825.150209,-766.095498,1036.288319,10658.965565
3825.150524,-842.705048,2072.576638,9474.636058
3825.150839,153.219100,1406.391290,8512.368333
3825.151154,689.485948,1036.288319,9030.512492
3825.151469,689.485948,740.205942,8438.347739
3825.151784,383.047749,-74.020594,8734.430116
3825.152098,229.828649,-74.020594,8512.368333
3825.152413,-153.219100,-222.061783,9400.615463
3825.152728,-229.828649,-1184.329507,11177.109724
3825.153043,-612.876398,-666.185348,11029.068536
3825.153358,-612.876398,-1332.370696,11621.233289
3825.153672,-536.266849,-0.000000,10584.944971
3825.153987,-76.609550,518.144159,9770.718434
3825.154302,612.876398,888.247130,9548.656652
3825.154617,1608.800546,888.247130,9326.594869
3825.154932,1762.019645,1110.308913,8882.471304
3825.155247,1685.410096,-0.000000,8142.265362
3825.155561,1455.581446,740.205942,8142.265362
3825.155876,1608.800546,-74.020594,8882.471304
3825.156191,1991.848295,-666.185348,10288.862594
3825.156506,1072.533697,-222.061783,9844.739029
3825.156821,689.485948,-666.185348,10658.965565
3825.157135,0.000000,-296.082377,10732.986159
3825.157450,-153.219100,-518.144159,9474.636058
3825.157765,612.876398,-296.082377,9474.636058
3825.158080,1455.581446,148.041188,9622.677246
3825.158395,919.314598,592.164754,8660.409521
3825.158710,1378.971896,444.123565,8512.368333
3825.159024,1149.143247,814.226536,8364.327145
3825.159339,1685.410096,444.123565,8956.491898
3825.159654,1685.410096,-74.020594,9474.636058
3825.159969,1225.752797,592.164754,10362.883188
3825.160284,153.219100,888.247130,10510.924376
3825.160599,0.000000,518.144159,10288.862594
3825.160913,-383.047749,740.205942,9918.759623
3825.161228,306.438199,444.123565,9696.697840
3825.161543,689.485948,148.041188,9844.739029
3825.161858,306.438199,518.144159,8882.471304
3825.162172,0.000000,518.144159,8512.368333
3825.162487,-612.876398,296.082377,8216.285956
3825.162802,-459.657299,-888.247130,8882.471304
3825.163116,0.000000,-1332.370696,9918.759623
3825.163431,-536.266849,-666.185348,10066.800811
3825.163746,-536.266849,-666.185348,10214.842000
3825.164060,-1225.752797,222.061783,10807.006753
3825.164375,-1225.752797,962.267725,9918.759623
3825.164690,153.219100,370.102971,9918.759623
3825.165004,76.609550,592.164754,9770.718434
3825.165319,0.000000,962.267725,9178.553681
3825.165634,0.000000,444.123565,9252.574275
3825.165949,-1302.362347,666.185348,8364.327145
3825.166263,-1532.190996,-0.000000,9474.636058
3825.166578,-766.095498,-888.247130,10436.903782
3825.166893,-1608.800546,-1036.288319,10288.862594
3825.167207,-2068.457845,-888.247130,11103.089130
3825.167522,-1991.848295,-1184.329507,11029.068536
3825.167837,-1991.848295,-74.020594,9770.718434
3825.168151,-612.876398,-222.061783,10066.800811
3825.168466,0.000000,592.164754,9770.718434
3825.168781,229.828649,1036.288319,9030.512492
3825.169095,689.485948,666.185348,9326.594869
3825.169410,153.219100,888.247130,8512.368333
3825.169725,612.876398,296.082377,8808.450710
3825.170039,995.924147,-74.020594,9696.697840
3825.170354,0.000000,-0.000000,10288.862594
3825.170669,0.000000,-962.267725,11843.295072
3825.170984,-689.485948,-444.123565,10066.800811
3825.171298,-306.438199,-444.123565,10140.821405
3825.171613,536.266849,-444.123565,10510.924376
3825.171928,689.485948,-148.041188,9548.656652
3825.172242,842.705048,444.123565,8956.491898
3825.172557,766.095498,814.226536,8290.306550
3825.172872,1302.362347,888.247130,7920.203579
3825.173186,1915.238745,-0.000000,8734.430116
3825.173501,2068.457845,-0.000000,8882.471304
3825.173816,1378.971896,-518.144159,9326.594869
3825.174130,1149.143247,-444.123565,9770.718434
3825.174445,76.609550,-0.000000,9696.697840
3825.174760,459.657299,-222.061783,10214.842000
3825.175074,766.095498,-370.102971,10066.800811
3825.175389,612.876398,148.041188,9844.739029
3825.175704,919.314598,-0.000000,8956.491898
3825.176019,536.266849,592.164754,8216.285956
3825.176333,383.047749,592.164754,8438.347739
3825.176648,919.314598,-444.123565,9474.636058
3825.176963,459.657299,592.164754,8438.347739
3825.177277,995.924147,-1110.308913,9622.677246
3825.177592,919.314598,-0.000000,10510.924376
3825.177907,-153.219100,-0.000000,9770.718434
3825.178221,0.000000,148.041188,9844.739029
3825.178536,306.438199,518.144159,10510.924376
3825.178851,0.000000,518.144159,9622.677246
3825.179165,0.000000,740.205942,9252.574275
3825.179480,0.000000,666.185348,9104.533087
3825.179795,153.219100,740.205942,8956.491898
3825.180110,306.438199,592.164754,8882.471304
3825.180424,306.438199,-148.041188,9400.615463
3825.180739,0.000000,-0.000000,9548.656652
3825.181054,-306.438199,-666.185348,10807.006753
3825.181368,-1378.971896,-0.000000,10510.924376
3825.181683,-919.314598,-74.020594,10140.821405
3825.181998,0.000000,814.226536,10658.965565
3825.182312,0.000000,814.226536,10288.862594
3825.182627,-536.266849,962.267725,9918.759623
3825.182942,-459.657299,1036.288319,9030.512492
3825.183256,-306.438199,1332.370696,8882.471304
3825.183571,536.266849,962.267725,9326.594869
3825.183886,1149.143247,370.102971,9770.718434
3825.184200,229.828649,592.164754,9918.759623
3825.184515,-383.047749,444.123565,9622.677246
3825.184830,-1302.362347,444.123565,10140.821405
3825.185145,-766.095498,-0.000000,10510.924376
3825.185459,0.000000,-518.144159,11103.089130
3825.185774,-383.047749,-370.102971,10807.006753
3825.186089,-459.657299,-0.000000,10066.800811
3825.186403,-459.657299,296.082377,9178.553681
3825.186718,-229.828649,296.082377,9030.512492
3825.187033,536.266849,222.061783,9474.636058
3825.187347,689.485948,-148.041188,8660.409521
3825.187662,76.609550,148.041188,9104.533087
3825.187977,229.828649,-0.000000,10288.862594
3825.188291,-766.095498,-0.000000,9474.636058
3825.188606,0.000000,-888.247130,9918.759623
3825.188921,612.876398,-888.247130,11325.150913
3825.189236,536.266849,-296.082377,9770.718434
3825.189550,306.438199,-296.082377,10214.842000
3825.189865,383.047749,296.082377,8882.471304
3825.190180,842.705048,370.102971,8882.471304
3825.190494,1532.190996,444.123565,8364.327145
3825.190809,1455.581446,-0.000000,8216.285956
3825.191124,1072.533697,-0.000000,7920.203579
3825.191438,842.705048,-1110.308913,9474.636058
3825.191753,-459.657299,-518.144159,9252.574275
3825.192068,0.000000,-962.267725,9918.759623
3825.192382,306.438199,-1406.391290,10510.924376
3825.192697,76.609550,-1332.370696,9992.780217
3825.193012,383.047749,-1036.288319,9992.780217
3825.193326,-229.828649,-296.082377,9474.636058
3825.193641,0.000000,814.226536,8290.306550
3825.193956,612.876398,592.164754,8956.491898
3825.194271,1072.533697,592.164754,8290.306550
3825.194585,612.876398,296.082377,8660.409521
3825.194900,689.485948,-222.061783,8734.430116
3825.195215,-306.438199,296.082377,8512.368333
3825.195529,0.000000,-74.020594,9474.636058
3825.195844,229.828649,-666.185348,9992.780217
3825.196159,-229.828649,-518.144159,10732.986159
3825.196473,-919.314598,-296.082377,10584.944971
3825.196788,-995.924147,296.082377,9696.697840
3825.197103,-1149.143247,1036.288319,9104.533087
3825.197417,0.000000,296.082377,9104.533087
3825.197732,766.095498,-0.000000,9474.636058
3825.198047,306.438199,370.102971,9548.656652
3825.198362,0.000000,444.123565,9252.574275
3825.198676,-229.828649,1036.288319,8660.409521
3825.198991,0.000000,370.102971,9474.636058
3825.199306,0.000000,222.061783,10807.006753
3825.199620,-76.609550,518.144159,10214.842000
3825.199935,0.000000,296.082377,10510.924376
3825.200250,-612.876398,814.226536,10140.821405
3825.200564,-842.705048,1406.391290,9696.697840
3825.200879,0.000000,444.123565,10881.027347
3825.201194,0.000000,74.020594,10658.965565
3825.201508,-306.438199,296.082377,10436.903782
3825.201823,-229.828649,888.247130,9992.780217
3825.202138,-536.266849,1702.473667,9696.697840
3825.202452,76.609550,1480.411884,9918.759623
3825.202767,689.485948,296.082377,10881.027347
3825.203082,153.219100,148.041188,10510.924376
3825.203397,306.438199,444.123565,10584.944971
3825.203711,-536.266849,592.164754,10288.862594
3825.204026,-689.485948,1110.308913,9770.718434
3825.204341,229.828649,222.061783,10288.862594
3825.204655,76.609550,148.041188,9770.718434
3825.204970,153.219100,-222.061783,9622.677246
3825.205285,-229.828649,-148.041188,9622.677246
3825.205599,-842.705048,370.102971,9326.594869
3825.205914,76.609550,-74.020594,9400.615463
3825.206229,306.438199,-666.185348,9844.739029
3825.206543,-306.438199,-370.102971,9474.636058
3825.206858,383.047749,-962.267725,9992.780217
3825.207173,0.000000,-296.082377,9474.636058
3825.207487,76.609550,518.144159,9474.636058
3825.207802,1302.362347,444.123565,9474.636058
3825.208117,1225.752797,444.123565,8660.409521
3825.208432,995.924147,518.144159,9030.512492
3825.208746,1072.533697,222.061783,8438.347739
3825.209061,306.438199,296.082377,8142.265362
3825.209376,1072.533697,-0.000000,8586.388927
3825.209690,1072.533697,-592.164754,8660.409521
3825.210005,459.657299,-888.247130,9252.574275
3825.210320,229.828649,-1110.308913,9844.739029
3825.210634,-306.438199,-740.205942,9474.636058
3825.210949,-612.876398,-444.123565,9326.594869
3825.211264,536.266849,-148.041188,9696.697840
3825.211578,766.095498,-0.000000,9474.636058
3825.211893,153.219100,296.082377,9178.553681
3825.212208,766.095498,444.123565,8882.471304
3825.212523,153.219100,1554.432478,7920.203579
3825.212837,612.876398,1480.411884,8956.491898
3825.213152,919.314598,370.102971,9326.594869
3825.213467,536.266849,592.164754,9400.615463
3825.213781,306.438199,-370.102971,10214.842000
3825.214096,-689.485948,-74.020594,10140.821405
3825.214411,-842.705048,-222.061783,10732.986159
3825.214725,-995.924147,-814.226536,11103.089130
3825.215040,-842.705048,-518.144159,10881.027347
3825.215355,-842.705048,-0.000000,10732.986159
3825.215669,-919.314598,-0.000000,9770.718434
3825.215984,-842.705048,592.164754,8586.388927
3825.216299,0.000000,814.226536,9104.533087
3825.216613,612.876398,666.185348,9770.718434
3825.216928,689.485948,74.020594,9844.739029
3825.217243,766.095498,-0.000000,10288.862594
3825.217558,153.219100,-0.000000,10214.842000
3825.217872,0.000000,962.267725,9992.780217
3825.218187,459.657299,370.102971,10881.027347
3825.218502,229.828649,666.185348,10955.047942
3825.218816,383.047749,888.247130,10288.862594
3825.219131,-153.219100,1184.329507,9918.759623
3825.219446,-689.485948,1628.453072,8364.327145
3825.219760,153.219100,-370.102971,9622.677246
3825.220075,153.219100,-962.267725,9400.615463
3825.220390,-383.047749,-740.205942,9770.718434
3825.220704,0.000000,-962.267725,9992.780217
3825.221019,-1455.581446,296.082377,9400.615463
3825.221334,-612.876398,592.164754,9696.697840
3825.221649,0.000000,148.041188,9770.718434
3825.221963,-229.828649,592.164754,9104.533087
3825.222278,-306.438199,-0.000000,9474.636058
3825.222593,-995.924147,-222.061783,9770.718434
3825.222907,-1838.629195,-74.020594,8956.491898
3825.223222,-1302.362347,-0.000000,9252.574275
3825.223537,-1302.362347,-592.164754,10140.821405
3825.223851,-1532.190996,-370.102971,10066.800811
3825.224166,-1455.581446,-1258.350101,10955.047942
3825.224481,-2221.676944,-1258.350101,10214.842000
3825.224795,-2298.286494,-740.205942,9696.697840
3825.225110,-1608.800546,-1554.432478,10658.965565
3825.225425,-1072.533697,-1480.411884,9696.697840
3825.225739,-1302.362347,-1332.370696,9622.677246
3825.226054,-1225.752797,-1110.308913,9400.615463
3825.226369,-1532.190996,-1110.308913,8660.409521
3825.226684,-612.876398,-1110.308913,8438.347739
3825.226998,-612.876398,-1258.350101,8290.306550
3825.227313,-842.705048,-1480.411884,8290.306550
3825.227628,-1149.143247,-2220.617826,8882.471304
3825.227942,-1915.238745,-2294.638420,9326.594869
3825.228257,-2681.334243,-2368.659014,9178.553681
3825.228572,-2068.457845,-2368.659014,10214.842000
3825.228886,-1608.800546,-2294.638420,10214.842000
3825.229201,-2221.676944,-2220.617826,10140.821405
3825.229516,-2145.067394,-2220.617826,10362.883188
3825.229830,-2451.505594,-2368.659014,10436.903782
3825.230145,-2681.334243,-1628.453072,10140.821405
3825.230460,-1991.848295,-1406.391290,9622.677246
3825.230775,-1149.143247,-1110.308913,9178.553681
3825.231089,-766.095498,-1776.494261,9400.615463
3825.231404,-1149.143247,-2072.576638,9178.553681
3825.231719,-1838.629195,-2664.741391,9548.656652
3825.232033,-1685.410096,-2442.679609,9178.553681
3825.232348,-1225.752797,-2886.803174,9770.718434
3825.232663,-1149.143247,-2220.617826,9474.636058
3825.232977,-919.314598,-2738.761985,9474.636058
3825.233292,-1378.971896,-2146.597232,9548.656652
3825.233607,-1991.848295,-2516.700203,9104.533087
3825.233921,-2221.676944,-2072.576638,8364.327145
3825.234236,-1991.848295,-2294.638420,8660.409521
3825.234551,-995.924147,-1702.473667,8216.285956
3825.234865,-1225.752797,-1998.556043,8512.368333
3825.235180,-1378.971896,-2220.617826,9252.574275
3825.235495,-1915.238745,-2664.741391,9548.656652
3825.235810,-2834.553343,-2886.803174,10881.027347
3825.236124,-2604.724693,-2812.782580,11251.130318
3825.236439,-2451.505594,-1998.556043,10881.027347
3825.236754,-2221.676944,-1406.391290,10066.800811
3825.237068,-1685.410096,-1628.453072,9844.739029
3825.237383,-2145.067394,-2072.576638,10436.903782
3825.237698,-1991.848295,-2146.597232,9696.697840
3825.238012,-1991.848295,-1924.535449,9400.615463
3825.238327,-1915.238745,-1998.556043,8734.430116
3825.238642,-1225.752797,-1702.473667,8512.368333
3825.238956,-842.705048,-2368.659014,8068.244768
3825.239271,-1608.800546,-2590.720797,8216.285956
3825.239586,-1991.848295,-3182.885551,9474.636058
3825.239900,-2834.553343,-3182.885551,9918.759623
3825.240215,-2911.162892,-3182.885551,9696.697840
3825.240530,-2757.943793,-2886.803174,10214.842000
3825.240845,-3370.820191,-2590.720797,10362.883188
3825.241159,-3370.820191,-2368.659014,10140.821405
3825.241474,-2987.772442,-2220.617826,10140.821405
3825.241789,-3294.210641,-2072.576638,9918.759623
3825.242103,-2528.115143,-1924.535449,10214.842000
3825.242418,-1991.848295,-1628.453072,9548.656652
3825.242733,-1608.800546,-1628.453072,9474.636058
3825.243047,-1302.362347,-1998.556043,9992.780217
3825.243362,-1532.190996,-1924.535449,10214.842000
3825.243677,-1838.629195,-1776.494261,9844.739029
3825.243991,-1991.848295,-1702.473667,9474.636058
3825.244306,-2068.457845,-1702.473667,9326.594869
3825.244621,-1991.848295,-2368.659014,9252.574275
3825.244936,-1915.238745,-2664.741391,9696.697840
3825.245250,-2451.505594,-2738.761985,9622.677246
3825.245565,-2604.724693,-3182.885551,10732.986159
3825.245880,-2604.724693,-2664.741391,9918.759623
3825.246194,-1991.848295,-1702.473667,9030.512492
3825.246509,-1302.362347,-888.247130,8512.368333
3825.246824,-1149.143247,-370.102971,7994.224174
3825.247138,-766.095498,-1036.288319,8364.327145
3825.247453,-995.924147,-1480.411884,8734.430116
3825.247768,-1225.752797,-1480.411884,9326.594869
3825.248082,-1455.581446,-1554.432478,9844.739029
3825.248397,-1532.190996,-1258.350101,10807.006753
3825.248712,-2221.676944,-1406.391290,10881.027347
3825.249026,-2374.896044,-962.267725,10658.965565
3825.249341,-2834.553343,-814.226536,9918.759623
3825.249656,-2145.067394,-592.164754,9252.574275
3825.249971,-2068.457845,-1110.308913,9104.533087
3825.250285,-1838.629195,-1776.494261,8586.388927
3825.250600,-1378.971896,-2590.720797,9104.533087
3825.250915,-1608.800546,-3034.844362,9400.615463
3825.251229,-1455.581446,-3108.864956,10066.800811
3825.251544,-2068.457845,-2368.659014,10955.047942
3825.251859,-1685.410096,-1776.494261,10658.965565
3825.252173,-995.924147,-1110.308913,9844.739029
3825.252488,-689.485948,-148.041188,9178.553681
3825.252803,-689.485948,-0.000000,9030.512492
3825.253117,-766.095498,-296.082377,8364.327145
3825.253432,-1532.190996,-1110.308913,8216.285956
3825.253747,-1532.190996,-1998.556043,8660.409521
3825.254062,-1991.848295,-2812.782580,9252.574275
3825.254376,-2374.896044,-3627.009116,10362.883188
3825.254691,-2681.334243,-2960.823768,11399.171507
3825.255006,-3064.381992,-2516.700203,11843.295072
3825.255320,-2834.553343,-1924.535449,11769.274478
3825.255635,-2757.943793,-1332.370696,11325.150913
3825.255950,-2604.724693,-666.185348,10658.965565
3825.256264,-2298.286494,-740.205942,9622.677246
3825.256579,-1915.238745,-592.164754,8734.430116
3825.256894,-1378.971896,-1110.308913,7920.203579
3825.257208,-995.924147,-1110.308913,7698.141797
3825.257523,-1608.800546,-1258.350101,7994.224174
3825.257838,-1838.629195,-2072.576638,8660.409521
3825.258152,-2145.067394,-2738.761985,9770.718434
3825.258467,-2604.724693,-3034.844362,10732.986159
3825.258782,-3370.820191,-3108.864956,11251.130318
3825.259097,-3370.820191,-3034.844362,11843.295072
3825.259411,-3600.648841,-2812.782580,11621.233289
3825.259726,-3064.381992,-1628.453072,9992.780217
3825.260041,-2298.286494,-1036.288319,8734.430116
3825.260355,-1072.533697,-666.185348,7550.100608
3825.260670,-995.924147,-592.164754,7328.038826
3825.260985,-689.485948,-814.226536,7031.956449
3825.261299,-766.095498,-1776.494261,7031.956449
3825.261614,-1455.581446,-2368.659014,8660.409521
3825.261929,-1915.238745,-3034.844362,9844.739029
3825.262243,-2911.162892,-4071.132681,11177.109724
3825.262558,-3753.867940,-4219.173869,12287.418637
3825.262873,-3907.087040,-3701.029710,12361.439231
3825.263188,-3140.991542,-2960.823768,11547.212695
3825.263502,-2451.505594,-2442.679609,11029.068536
3825.263817,-2298.286494,-962.267725,9252.574275
3825.264132,-1455.581446,-1480.411884,7994.224174
3825.264447,0.000000,-962.267725,6735.874072
3825.264761,153.219100,-1702.473667,6661.853478
3825.265076,383.047749,-2146.597232,7550.100608
3825.265391,229.828649,-2368.659014,8142.265362
3825.265706,-536.266849,-2812.782580,9104.533087
3825.266020,-995.924147,-3034.844362,9770.718434
3825.266335,-1915.238745,-3256.906145,10732.986159
3825.266650,-2374.896044,-3404.947333,10807.006753
3825.266965,-3677.258390,-3552.988522,10584.944971
3825.267279,-3370.820191,-2368.659014,10584.944971
3825.267594,-3447.429741,-2368.659014,9474.636058
3825.267909,-2757.943793,-2072.576638,8882.471304
3825.268224,-2681.334243,-1998.556043,8882.471304
3825.268538,-1838.629195,-1850.514855,9178.553681
3825.268853,-1378.971896,-1924.535449,9400.615463
3825.269168,-689.485948,-1628.453072,9918.759623
3825.269483,-919.314598,-1554.432478,10362.883188
3825.269797,-306.438199,-1406.391290,10510.924376
3825.270112,-995.924147,-1776.494261,10510.924376
3825.270427,-1302.362347,-1332.370696,10214.842000
3825.270742,-1762.019645,-518.144159,8660.409521
3825.271056,-1838.629195,-814.226536,8290.306550
3825.271371,-1915.238745,-1036.288319,8216.285956
3825.271686,-2298.286494,-1998.556043,8068.244768
3825.272001,-2451.505594,-2294.638420,8364.327145
3825.272315,-2604.724693,-2886.803174,9030.512492
3825.272630,-2834.553343,-2960.823768,10288.862594
3825.272945,-2528.115143,-2960.823768,10881.027347
3825.273260,-2757.943793,-3034.844362,11177.109724
3825.273574,-2911.162892,-2072.576638,11547.212695
3825.273889,-2145.067394,-1184.329507,11103.089130
3825.274204,-1378.971896,-148.041188,10436.903782
3825.274519,-1072.533697,592.164754,9696.697840
3825.274833,-766.095498,1036.288319,8808.450710
3825.275148,-919.314598,888.247130,8438.347739
3825.275463,-536.266849,-74.020594,8068.244768
3825.275778,-459.657299,-1110.308913,9104.533087
3825.276092,-1225.752797,-1998.556043,9474.636058
3825.276407,-2145.067394,-2738.761985,10066.800811
3825.276722,-2528.115143,-3256.906145,10510.924376
3825.277037,-2528.115143,-3182.885551,11103.089130
3825.277351,-2374.896044,-3108.864956,10807.006753
3825.277666,-2911.162892,-2368.659014,10807.006753
3825.277981,-2834.553343,-1628.453072,10140.821405
3825.278296,-2604.724693,-740.205942,9326.594869
3825.278610,-1838.629195,-518.144159,8734.430116
3825.278925,-995.924147,-296.082377,9030.512492
3825.279240,-306.438199,-370.102971,8956.491898
3825.279554,76.609550,-518.144159,9474.636058
3825.279869,0.000000,-370.102971,9474.636058
3825.280184,76.609550,-518.144159,9918.759623
3825.280499,306.438199,-666.185348,10436.903782
3825.280813,0.000000,-1036.288319,9918.759623
3825.281128,-306.438199,-1184.329507,9770.718434
3825.281443,-689.485948,-1554.432478,9104.533087
3825.281758,-919.314598,-1480.411884,8882.471304
3825.282072,-842.705048,-1406.391290,8438.347739
3825.282387,-995.924147,-1258.350101,8068.244768
3825.282702,-1378.971896,-1406.391290,8142.265362
3825.283017,-1378.971896,-1998.556043,8216.285956
3825.283331,-995.924147,-1850.514855,8734.430116
3825.283646,-1378.971896,-2072.576638,9326.594869
3825.283961,-2068.457845,-2072.576638,9474.636058
3825.284276,-1915.238745,-1702.473667,9918.759623
3825.284590,-1991.848295,-1554.432478,10584.944971
3825.284905,-1991.848295,-1036.288319,10510.924376
3825.285220,-1762.019645,-666.185348,10955.047942
3825.285535,-2298.286494,-222.061783,10658.965565
3825.285849,-2528.115143,-0.000000,10288.862594
3825.286164,-2221.676944,-222.061783,9326.594869
3825.286479,-2451.505594,-962.267725,9548.656652
3825.286794,-2757.943793,-1628.453072,9918.759623
3825.287108,-2911.162892,-2294.638420,9548.656652
3825.287423,-3447.429741,-2590.720797,9844.739029
3825.287738,-3140.991542,-2886.803174,10066.800811
3825.288053,-3677.258390,-2664.741391,10140.821405
3825.288367,-4136.915689,-3034.844362,10214.842000
3825.288682,-4060.306139,-2886.803174,10732.986159
3825.288997,-3983.696590,-2886.803174,10658.965565
3825.289312,-4136.915689,-3552.988522,9696.697840
3825.289626,-3830.477490,-3182.885551,10066.800811
3825.289941,-3140.991542,-2886.803174,10140.821405
3825.290256,-2987.772442,-2368.659014,9992.780217
3825.290571,-2681.334243,-2368.659014,9770.718434
3825.290885,-2068.457845,-2146.597232,9474.636058
3825.291200,-1685.410096,-2294.638420,9622.677246
3825.291515,-1455.581446,-2442.679609,9474.636058
3825.291830,-1991.848295,-2590.720797,9622.677246
3825.292144,-2374.896044,-2664.741391,9622.677246
3825.292459,-2374.896044,-3182.885551,9918.759623
3825.292774,-2604.724693,-3552.988522,9770.718434
3825.293089,-2757.943793,-4219.173869,10140.821405
3825.293403,-2834.553343,-4145.153275,9770.718434
3825.293718,-3064.381992,-4663.297435,9252.574275
3825.294033,-3140.991542,-4145.153275,9326.594869
3825.294348,-2604.724693,-4071.132681,8956.491898
3825.294662,-1991.848295,-3997.112087,8586.388927
3825.294977,-1302.362347,-3552.988522,8142.265362
3825.295292,-766.095498,-3256.906145,7920.203579
3825.295607,-689.485948,-2960.823768,7328.038826
3825.295921,-306.438199,-2442.679609,7550.100608
3825.296236,-459.657299,-2146.597232,8068.244768
3825.296551,-919.314598,-2368.659014,8364.327145
3825.296865,-1378.971896,-2590.720797,9104.533087
3825.297180,-1455.581446,-3108.864956,9474.636058
3825.297495,-1838.629195,-3330.926739,10881.027347
3825.297810,-2145.067394,-3552.988522,10584.944971
3825.298124,-2374.896044,-3108.864956,10436.903782
3825.298439,-1455.581446,-2590.720797,10288.862594
3825.298754,-536.266849,-2442.679609,9622.677246
3825.299069,-229.828649,-1628.453072,8142.265362
3825.299383,76.609550,-814.226536,6809.894666
3825.299698,153.219100,-888.247130,6735.874072
3825.300013,459.657299,-1332.370696,6883.915261
3825.300328,0.000000,-1628.453072,7031.956449
3825.300642,-612.876398,-2072.576638,7402.059420
3825.300957,-1915.238745,-2368.659014,9104.533087
3825.301272,-2451.505594,-2590.720797,10436.903782
3825.301587,-2987.772442,-2368.659014,11325.150913
3825.301901,-3524.039291,-2664.741391,11843.295072
3825.302216,-3294.210641,-2220.617826,11843.295072
3825.302531,-3217.601092,-1480.411884,11325.150913
3825.302846,-2528.115143,-814.226536,10807.006753
3825.303160,-2145.067394,-296.082377,10214.842000
3825.303475,-1762.019645,296.082377,9326.594869
3825.303790,-1072.533697,1036.288319,8808.450710
3825.304105,-536.266849,962.267725,8586.388927
3825.304419,-689.485948,518.144159,8660.409521
3825.304734,-1532.190996,-74.020594,9770.718434
3825.305049,-2451.505594,-888.247130,10732.986159
3825.305364,-3524.039291,-1554.432478,11917.315666
3825.305678,-4136.915689,-1998.556043,12953.603985
3825.305993,-3983.696590,-1702.473667,13027.624579
3825.306308,-3677.258390,-1332.370696,12139.377449
3825.306623,-3140.991542,-666.185348,11547.212695
3825.306937,-2451.505594,666.185348,9992.780217
3825.307252,-1915.238745,1184.329507,8808.450710
3825.307567,-459.657299,962.267725,7254.018232
3825.307882,0.000000,518.144159,7179.997637
3825.308196,0.000000,-0.000000,8216.285956
3825.308511,-919.314598,-1332.370696,9326.594869
3825.308826,-1915.238745,-1998.556043,10807.006753
3825.309141,-3064.381992,-3330.926739,12583.501014
3825.309455,-2911.162892,-2294.638420,13471.748144
3825.309770,-3217.601092,-1332.370696,13841.851115
3825.310085,-3447.429741,-296.082377,12065.356855
3825.310400,-3140.991542,-0.000000,11029.068536
3825.310714,-1762.019645,-0.000000,8882.471304
3825.311029,-766.095498,-666.185348,7698.141797
3825.311344,0.000000,-814.226536,6661.853478
3825.311659,0.000000,-1258.350101,6217.729913
3825.311973,-306.438199,-2368.659014,6883.915261
3825.312288,-383.047749,-2960.823768,8586.388927
3825.312603,-1455.581446,-3478.967927,10214.842000
3825.312918,-2604.724693,-3256.906145,10955.047942
3825.313232,-3830.477490,-2886.803174,11251.130318
3825.313547,-3830.477490,-3034.844362,11769.274478
3825.313862,-3140.991542,-2516.700203,10214.842000
3825.314176,-3064.381992,-2220.617826,9326.594869
3825.314491,-2987.772442,-1998.556043,7698.141797
3825.314806,-1455.581446,-2590.720797,7328.038826
3825.315121,153.219100,-3034.844362,7105.977043
3825.315435,0.000000,-2516.700203,7772.162391
3825.315750,-689.485948,-1850.514855,8808.450710
3825.316065,-1149.143247,-2220.617826,8882.471304
3825.316380,-1225.752797,-2590.720797,10066.800811
3825.316694,-1685.410096,-2664.741391,10584.944971
3825.317009,-2451.505594,-3034.844362,10584.944971
3825.317324,-3064.381992,-4071.132681,10362.883188
3825.317639,-2681.334243,-4145.153275,10732.986159
3825.317953,-2451.505594,-3182.885551,9992.780217
3825.318268,-2604.724693,-2442.679609,8438.347739
3825.318583,-1991.848295,-1406.391290,6587.832884
3825.318898,-1225.752797,-1850.514855,6883.915261
3825.319212,-842.705048,-1924.535449,7254.018232
3825.319527,-689.485948,-2886.803174,7846.182985
3825.319842,-1378.971896,-3775.050304,9252.574275
3825.320157,-2221.676944,-4663.297435,10955.047942
3825.320471,-2834.553343,-3923.091493,11991.336260
3825.320786,-2757.943793,-3108.864956,12065.356855
3825.321101,-3064.381992,-2590.720797,10881.027347
3825.321416,-3217.601092,-1850.514855,10288.862594
3825.321730,-2757.943793,-1332.370696,9696.697840
3825.322045,-2451.505594,-1036.288319,8882.471304
3825.322360,-2068.457845,-1628.453072,8956.491898
3825.322675,-1991.848295,-2442.679609,8882.471304
3825.322989,-2068.457845,-2368.659014,8438.347739
3825.323304,-1532.190996,-3256.906145,9696.697840
3825.323619,-2068.457845,-3404.947333,10584.944971
3825.323934,-2145.067394,-2812.782580,10140.821405
3825.324248,-2068.457845,-2812.782580,10881.027347
3825.324563,-2374.896044,-2590.720797,10807.006753
3825.324878,-2834.553343,-1702.473667,10214.842000
3825.325193,-2911.162892,-1776.494261,9548.656652
3825.325507,-2145.067394,-1998.556043,8512.368333
3825.325822,-2528.115143,-1628.453072,7920.203579
3825.326137,-1915.238745,-1702.473667,8068.244768
3825.326452,-1762.019645,-2294.638420,8364.327145
3825.326766,-1991.848295,-2072.576638,8956.491898
3825.327081,-1915.238745,-1924.535449,9178.553681
3825.327396,-1608.800546,-2146.597232,9844.739029
3825.327711,-1378.971896,-1924.535449,10584.944971
3825.328025,-1685.410096,-2146.597232,11103.089130
3825.328340,-2068.457845,-2368.659014,11843.295072
3825.328655,-2451.505594,-1258.350101,11325.150913
3825.328970,-2374.896044,-0.000000,10288.862594
3825.329284,-1685.410096,888.247130,8882.471304
3825.329599,-536.266849,962.267725,7624.121203
3825.329914,0.000000,296.082377,7772.162391
3825.330229,459.657299,-888.247130,8142.265362
3825.330543,-306.438199,-1924.535449,8734.430116
3825.330858,-1378.971896,-1998.556043,9474.636058
3825.331173,-1532.190996,-2294.638420,10214.842000
3825.331487,-1302.362347,-2590.720797,10881.027347
3825.331802,-1302.362347,-2294.638420,11843.295072
3825.332117,-842.705048,-1702.473667,11399.171507
3825.332432,-1225.752797,-296.082377,10658.965565
3825.332746,-1302.362347,518.144159,10436.903782
3825.333061,229.828649,2072.576638,9474.636058
3825.333376,1225.752797,2516.700203,7328.038826
3825.333691,2145.067394,2072.576638,6439.791695
3825.334005,2451.505594,-0.000000,7698.141797
3825.334320,1608.800546,-0.000000,8586.388927
3825.334635,842.705048,-444.123565,8734.430116
3825.334950,-459.657299,-74.020594,9252.574275
3825.335264,-919.314598,-740.205942,10658.965565
3825.335579,-1378.971896,-1702.473667,11991.336260
3825.335894,-2298.286494,-2220.617826,11843.295072
3825.336209,-3140.991542,-1258.350101,12213.398043
3825.336523,-2987.772442,-444.123565,11177.109724
3825.336838,-1991.848295,1110.308913,9696.697840
3825.337153,-689.485948,1406.391290,9104.533087
3825.337468,995.924147,1036.288319,9030.512492
3825.337782,1455.581446,1258.350101,7550.100608
3825.338097,1532.190996,1332.370696,7994.224174
3825.338412,1838.629195,1258.350101,8364.327145
3825.338727,1608.800546,1110.308913,9252.574275
3825.339041,1149.143247,740.205942,10140.821405
3825.339356,766.095498,-74.020594,10732.986159
3825.339671,-919.314598,888.247130,10881.027347
3825.339986,-1915.238745,666.185348,10584.944971
3825.340300,-2068.457845,148.041188,10732.986159
3825.340615,-2068.457845,888.247130,10066.800811
3825.340930,-1072.533697,592.164754,9400.615463
3825.341245,-689.485948,-0.000000,9030.512492
3825.341559,-995.924147,-0.000000,8290.306550
3825.341874,-459.657299,-148.041188,9030.512492
3825.342189,0.000000,-814.226536,9400.615463
3825.342504,76.609550,-296.082377,9696.697840
3825.342818,229.828649,-444.123565,10955.047942
3825.343133,-306.438199,370.102971,10658.965565
3825.343448,-995.924147,370.102971,10584.944971
3825.343763,-1072.533697,296.082377,11473.192101
3825.344077,-1225.752797,962.267725,10584.944971
3825.344392,-383.047749,888.247130,9992.780217
3825.344707,229.828649,-0.000000,9400.615463
3825.345022,-153.219100,148.041188,9030.512492
3825.345336,383.047749,-666.185348,8438.347739
3825.345651,306.438199,-1258.350101,7698.141797
3825.345966,459.657299,-1924.535449,9178.553681
3825.346281,1455.581446,-1554.432478,10140.821405
3825.346595,612.876398,-1480.411884,9992.780217
3825.346910,0.000000,-370.102971,9696.697840
3825.347225,229.828649,-296.082377,9770.718434
3825.347540,459.657299,148.041188,9400.615463
3825.347854,766.095498,-518.144159,9474.636058
3825.348169,1072.533697,-0.000000,9400.615463
3825.348484,536.266849,1110.308913,7846.182985
3825.348798,1149.143247,814.226536,7624.121203
3825.349113,1915.238745,-0.000000,8290.306550
3825.349428,2145.067394,-666.185348,8956.491898
3825.349743,2145.067394,-962.267725,9548.656652
3825.350057,1225.752797,-74.020594,9622.677246
3825.350372,919.314598,222.061783,9252.574275
3825.350687,995.924147,-0.000000,9992.780217
3825.351002,459.657299,222.061783,9992.780217
3825.351316,306.438199,-296.082377,10584.944971
3825.351631,0.000000,740.205942,9770.718434
3825.351946,-612.876398,962.267725,8660.409521
3825.352261,306.438199,962.267725,8734.430116
3825.352575,76.609550,518.144159,8882.471304
3825.352890,842.705048,666.185348,8512.368333
3825.353205,766.095498,-666.185348,9622.677246
3825.353520,-229.828649,-888.247130,9992.780217
3825.353834,-459.657299,-148.041188,10658.965565
3825.354149,-229.828649,-0.000000,10510.924376
3825.354464,-995.924147,444.123565,10807.006753
3825.354779,-536.266849,444.123565,11399.171507
3825.355093,-383.047749,962.267725,10584.944971
3825.355408,-1225.752797,1258.350101,9696.697840
3825.355723,-536.266849,1850.514855,9474.636058
3825.356038,-459.657299,1702.473667,9474.636058
3825.356352,306.438199,518.144159,9178.553681
3825.356667,383.047749,-222.061783,10066.800811
3825.356982,-229.828649,-0.000000,9622.677246
3825.357297,-306.438199,-74.020594,9326.594869
3825.357611,-229.828649,-0.000000,9696.697840
3825.357926,-612.876398,-296.082377,10362.883188
3825.358241,153.219100,-148.041188,10881.027347
3825.358556,-383.047749,518.144159,10288.862594
3825.358870,-1149.143247,1702.473667,9474.636058
3825.359185,-919.314598,814.226536,9696.697840
3825.359500,-689.485948,1110.308913,9474.636058
3825.359815,229.828649,740.205942,8882.471304
3825.360129,995.924147,296.082377,9918.759623
3825.360444,536.266849,1110.308913,8956.491898
3825.360759,383.047749,814.226536,9178.553681
3825.361074,229.828649,740.205942,9400.615463
3825.361388,153.219100,-0.000000,9622.677246
3825.361703,536.266849,-592.164754,10807.006753
3825.362018,-306.438199,-0.000000,10732.986159
3825.362333,-919.314598,740.205942,10066.800811
3825.362647,-383.047749,296.082377,10214.842000
3825.362962,-612.876398,1184.329507,8882.471304
3825.363277,306.438199,370.102971,9770.718434
3825.363592,1225.752797,222.061783,10066.800811
3825.363906,536.266849,592.164754,8142.265362
3825.364221,1072.533697,370.102971,8290.306550
3825.364536,1225.752797,-0.000000,9474.636058
3825.364851,1608.800546,-444.123565,8734.430116
3825.365166,1838.629195,-74.020594,9252.574275
3825.365481,536.266849,-222.061783,9622.677246
3825.365795,229.828649,-148.041188,9400.615463
3825.366110,459.657299,-592.164754,9844.739029
3825.366425,306.438199,-222.061783,9844.739029
3825.366740,536.266849,-0.000000,10436.903782
3825.367055,536.266849,-74.020594,10288.862594
3825.367369,-306.438199,518.144159,8734.430116
3825.367684,383.047749,148.041188,9178.553681
3825.367999,919.314598,-592.164754,9252.574275
3825.368314,919.314598,-444.123565,8808.450710
3825.368629,1915.238745,-592.164754,9474.636058
3825.368943,766.095498,-0.000000,9252.574275
3825.369258,0.000000,-222.061783,9400.615463
3825.369573,153.219100,222.061783,9844.739029
3825.369888,-459.657299,222.061783,9474.636058
3825.370203,0.000000,-740.205942,10066.800811
3825.370517,-229.828649,-814.226536,10732.986159
3825.370832,-1378.971896,74.020594,9326.594869
3825.371147,-1378.971896,-296.082377,9992.780217
3825.371462,-1072.533697,-222.061783,9770.718434
3825.371777,-842.705048,-222.061783,9474.636058
3825.372091,0.000000,-1258.350101,10436.903782
3825.372406,-612.876398,-370.102971,9844.739029
3825.372721,-1302.362347,222.061783,9696.697840
3825.373036,-383.047749,-0.000000,10066.800811
3825.373351,-689.485948,518.144159,9548.656652
3825.373665,0.000000,592.164754,9622.677246
3825.373980,76.609550,296.082377,10214.842000
3825.374295,-766.095498,1332.370696,9326.594869
3825.374610,-689.485948,296.082377,9326.594869
3825.374925,-689.485948,370.102971,9252.574275
3825.375239,-689.485948,-0.000000,9400.615463
3825.375554,153.219100,-814.226536,9770.718434
3825.375869,-689.485948,-1036.288319,9918.759623
3825.376184,-1149.143247,-148.041188,9326.594869
3825.376499,-459.657299,-0.000000,9770.718434
3825.376813,-689.485948,-0.000000,9844.739029
3825.377128,153.219100,-0.000000,10288.862594
3825.377443,306.438199,74.020594,10436.903782
3825.377758,-306.438199,518.144159,8808.450710
3825.378073,-229.828649,740.205942,9326.594869
3825.378387,689.485948,888.247130,8808.450710
3825.378702,842.705048,-0.000000,8956.491898
3825.379017,1225.752797,-296.082377,10066.800811
3825.379332,536.266849,-0.000000,9770.718434
3825.379647,306.438199,-0.000000,9622.677246
3825.379961,459.657299,-370.102971,10436.903782
3825.380276,0.000000,-0.000000,10066.800811
3825.380591,1149.143247,-740.205942,10807.006753
3825.380906,612.876398,-222.061783,9696.697840
3825.381221,0.000000,148.041188,9474.636058
3825.381535,383.047749,222.061783,9104.533087
3825.381850,995.924147,148.041188,9104.533087
3825.382165,1608.800546,296.082377,8882.471304
3825.382480,2298.286494,-296.082377,9548.656652
3825.382795,1455.581446,222.061783,8956.491898
3825.383109,995.924147,222.061783,9178.553681
3825.383424,1302.362347,222.061783,10362.883188
3825.383739,1302.362347,444.123565,10288.862594
3825.384054,1072.533697,740.205942,9992.780217
3825.384369,1378.971896,740.205942,10066.800811
3825.384683,306.438199,888.247130,9548.656652
