#time,accel_x,accel_y,accel_z
3771.209475,76.609550,-0.000000,9622.677246
3771.209790,229.828649,-0.000000,9696.697840
3771.210105,-229.828649,-0.000000,10066.800811
3771.210420,0.000000,296.082377,9622.677246
3771.210734,306.438199,-0.000000,9696.697840
3771.211049,229.828649,-0.000000,9622.677246
3771.211364,153.219100,370.102971,9474.636058
3771.211679,153.219100,296.082377,9622.677246
3771.211993,0.000000,-148.041188,9622.677246
3771.212308,153.219100,-0.000000,9474.636058
3771.212623,0.000000,222.061783,9844.739029
3771.212938,0.000000,222.061783,9770.718434
3771.213252,153.219100,148.041188,9622.677246
3771.213567,0.000000,296.082377,9400.615463
3771.213882,229.828649,222.061783,9030.512492
3771.214197,76.609550,222.061783,9474.636058
3771.214511,0.000000,148.041188,9696.697840
3771.214826,-229.828649,444.123565,9622.677246
3771.215141,0.000000,296.082377,9622.677246
3771.215456,229.828649,296.082377,9474.636058
3771.215771,153.219100,222.061783,9770.718434
3771.216085,306.438199,222.061783,9622.677246
3771.216400,459.657299,-0.000000,9696.697840
3771.216715,0.000000,444.123565,9918.759623
3771.217030,76.609550,222.061783,9252.574275
3771.217344,76.609550,296.082377,9252.574275
3771.217659,76.609550,222.061783,9696.697840
3771.217974,76.609550,222.061783,9918.759623
3771.218289,0.000000,-0.000000,9696.697840
3771.218603,0.000000,74.020594,9548.656652
3771.218918,76.609550,-0.000000,9696.697840
3771.219233,76.609550,-0.000000,9622.677246
3771.219548,76.609550,-148.041188,9992.780217
3771.219862,0.000000,-148.041188,9548.656652
3771.220177,76.609550,-0.000000,9474.636058
3771.220492,76.609550,296.082377,9770.718434
3771.220807,919.314598,-0.000000,9622.677246
3771.221121,306.438199,296.082377,9548.656652
3771.221436,76.609550,-0.000000,9548.656652
3771.221751,229.828649,-0.000000,9622.677246
3771.222066,229.828649,222.061783,9622.677246
3771.222380,383.047749,-0.000000,9622.677246
3771.222695,0.000000,-148.041188,9474.636058
3771.223010,0.000000,-0.000000,9548.656652
3771.223325,0.000000,-0.000000,9622.677246
3771.223639,153.219100,296.082377,9622.677246
3771.223954,153.219100,-0.000000,9548.656652
3771.224269,76.609550,-0.000000,9770.718434
3771.224584,229.828649,-0.000000,9400.615463
3771.224898,0.000000,-0.000000,9252.574275
3771.225213,0.000000,-0.000000,9622.677246
3771.225528,0.000000,370.102971,10066.800811
3771.225843,0.000000,370.102971,9474.636058
3771.226157,-153.219100,74.020594,9474.636058
3771.226472,76.609550,222.061783,9548.656652
3771.226787,229.828649,222.061783,9770.718434
3771.227102,0.000000,-0.000000,9622.677246
3771.227416,153.219100,148.041188,9696.697840
3771.227731,-229.828649,74.020594,9548.656652
3771.228046,0.000000,148.041188,9474.636058
3771.228361,0.000000,222.061783,9474.636058
3771.228675,-153.219100,-0.000000,9474.636058
3771.228990,0.000000,-0.000000,9622.677246
3771.229305,153.219100,-0.000000,9400.615463
3771.229620,0.000000,-0.000000,9622.677246
3771.229934,153.219100,-0.000000,9696.697840
3771.230249,76.609550,222.061783,9548.656652
3771.230564,153.219100,-0.000000,9474.636058
3771.230879,153.219100,-0.000000,9474.636058
3771.231193,0.000000,-0.000000,9622.677246
3771.231508,383.047749,-0.000000,9696.697840
3771.231823,76.609550,-0.000000,9474.636058
3771.232138,0.000000,-0.000000,9622.677246
3771.232452,306.438199,-0.000000,9474.636058
3771.232767,459.657299,-0.000000,9992.780217
3771.233082,229.828649,-0.000000,9918.759623
3771.233397,306.438199,-0.000000,9548.656652
3771.233711,153.219100,148.041188,9622.677246
3771.234026,536.266849,592.164754,9770.718434
3771.234341,536.266849,518.144159,9400.615463
3771.234656,383.047749,740.205942,9326.594869
3771.234970,306.438199,888.247130,9030.512492
3771.235285,689.485948,518.144159,9474.636058
3771.235600,689.485948,444.123565,9252.574275
3771.235915,842.705048,-0.000000,9178.553681
3771.236229,1072.533697,-74.020594,9992.780217
3771.236544,612.876398,-0.000000,9844.739029
3771.236859,536.266849,592.164754,9918.759623
3771.237174,536.266849,962.267725,9474.636058
3771.237489,995.924147,1110.308913,9474.636058
3771.237803,1072.533697,1110.308913,9400.615463
3771.238118,1225.752797,962.267725,9474.636058
3771.238433,1991.848295,962.267725,10066.800811
3771.238748,2068.457845,1036.288319,9770.718434
3771.239062,2451.505594,1184.329507,9474.636058
3771.239377,2604.724693,1702.473667,9696.697840
3771.239692,2987.772442,1998.556043,9252.574275
3771.240007,3294.210641,2146.597232,9030.512492
3771.240321,3370.820191,2220.617826,8882.471304
3771.240636,3447.429741,2368.659014,8808.450710
3771.240951,3447.429741,1998.556043,9030.512492
3771.241266,3370.820191,2294.638420,8808.450710
3771.241580,3600.648841,2220.617826,8956.491898
3771.241895,3217.601092,2442.679609,9178.553681
3771.242210,3217.601092,2590.720797,9400.615463
3771.242525,3447.429741,2664.741391,9474.636058
3771.242839,3140.991542,2812.782580,9474.636058
3771.243154,3447.429741,3404.947333,8956.491898
3771.243469,3217.601092,3478.967927,9178.553681
3771.243784,3064.381992,3478.967927,9104.533087
3771.244098,2834.553343,3478.967927,9104.533087
3771.244413,2834.553343,3701.029710,9400.615463
3771.244728,2528.115143,3627.009116,9770.718434
3771.245043,2221.676944,3775.050304,9992.780217
3771.245357,1991.848295,3552.988522,10510.924376
3771.245672,1838.629195,3775.050304,10881.027347
3771.245987,1608.800546,3404.947333,11103.089130
3771.246302,1455.581446,3775.050304,11103.089130
3771.246616,1532.190996,3627.009116,10732.986159
3771.246931,1838.629195,3552.988522,11029.068536
3771.247246,2145.067394,3923.091493,10510.924376
3771.247561,2451.505594,3997.112087,10140.821405
3771.247875,2298.286494,4589.276840,9548.656652
3771.248190,2451.505594,4145.153275,9474.636058
3771.248505,2451.505594,3997.112087,9474.636058
3771.248820,2068.457845,3627.009116,9844.739029
3771.249134,1838.629195,3108.864956,9918.759623
3771.249449,1762.019645,2960.823768,9992.780217
3771.249764,2298.286494,2590.720797,10214.842000
3771.250079,1838.629195,2664.741391,10584.944971
3771.250393,1685.410096,2738.761985,10436.903782
3771.250708,1762.019645,2590.720797,10140.821405
3771.251023,1685.410096,2960.823768,9844.739029
3771.251338,1685.410096,2886.803174,9770.718434
3771.251652,1838.629195,3182.885551,9400.615463
3771.251967,1915.238745,3034.844362,9104.533087
3771.252282,1685.410096,2738.761985,9178.553681
3771.252597,1225.752797,2368.659014,9104.533087
3771.252911,1302.362347,1480.411884,9400.615463
3771.253226,1608.800546,1110.308913,10214.842000
3771.253541,1225.752797,814.226536,10362.883188
3771.253856,995.924147,1332.370696,9844.739029
3771.254170,1225.752797,1480.411884,9548.656652
3771.254485,1378.971896,1406.391290,10140.821405
3771.254800,1685.410096,1628.453072,9770.718434
3771.255115,1915.238745,2072.576638,8808.450710
3771.255429,2451.505594,1924.535449,8068.244768
3771.255744,2911.162892,1702.473667,8290.306550
3771.256059,2987.772442,1628.453072,8586.388927
3771.256374,3217.601092,1924.535449,8586.388927
3771.256688,2834.553343,1332.370696,8882.471304
3771.257003,2681.334243,1258.350101,9104.533087
3771.257318,2604.724693,1480.411884,9030.512492
3771.257633,1991.848295,1184.329507,9104.533087
3771.257947,1991.848295,814.226536,9178.553681
3771.258262,1608.800546,740.205942,9474.636058
3771.258577,1455.581446,592.164754,9770.718434
3771.258892,1838.629195,222.061783,10362.883188
3771.259207,2068.457845,222.061783,10732.986159
3771.259521,2528.115143,1332.370696,10362.883188
3771.259836,2757.943793,1776.494261,9696.697840
3771.260151,3524.039291,2220.617826,9178.553681
3771.260466,4060.306139,2516.700203,8956.491898
3771.260780,3983.696590,2368.659014,8216.285956
3771.261095,4136.915689,2516.700203,8290.306550
3771.261410,3447.429741,1850.514855,7772.162391
3771.261725,3064.381992,1480.411884,8290.306550
3771.262039,2298.286494,1184.329507,9104.533087
3771.262354,1225.752797,-148.041188,10362.883188
3771.262669,383.047749,-666.185348,11251.130318
3771.262984,76.609550,-370.102971,11769.274478
3771.263298,0.000000,74.020594,12435.459826
3771.263613,459.657299,740.205942,12065.356855
3771.263928,1608.800546,1776.494261,10881.027347
3771.264243,2987.772442,2812.782580,10066.800811
3771.264557,4060.306139,3997.112087,8882.471304
3771.264872,5209.449386,4663.297435,7254.018232
3771.265187,5286.058936,5107.421000,7254.018232
3771.265502,5056.230287,4293.194464,7476.080014
3771.265816,4673.182538,3034.844362,8216.285956
3771.266131,3677.258390,1850.514855,8882.471304
3771.266446,1838.629195,1184.329507,10288.862594
3771.266761,0.000000,740.205942,11843.295072
3771.267075,-919.314598,666.185348,12065.356855
3771.267390,-842.705048,814.226536,12065.356855
3771.267705,-612.876398,1628.453072,11177.109724
3771.268020,306.438199,2590.720797,9548.656652
3771.268334,1455.581446,3404.947333,8512.368333
3771.268649,2834.553343,4071.132681,8142.265362
3771.268964,4136.915689,4219.173869,7624.121203
3771.269279,4443.353888,4293.194464,7920.203579
3771.269593,3830.477490,4663.297435,8586.388927
3771.269908,3140.991542,4367.215058,9844.739029
3771.270223,2528.115143,3923.091493,10881.027347
3771.270538,1378.971896,3552.988522,11251.130318
3771.270852,383.047749,3256.906145,10881.027347
3771.271167,229.828649,2960.823768,10658.965565
3771.271482,842.705048,2368.659014,10214.842000
3771.271797,1455.581446,2294.638420,10288.862594
3771.272111,1532.190996,2294.638420,9474.636058
3771.272426,2068.457845,2590.720797,8660.409521
3771.272741,2528.115143,2886.803174,8364.327145
3771.273056,2911.162892,2738.761985,8364.327145
3771.273370,2834.553343,3330.926739,8438.347739
3771.273685,2451.505594,3108.864956,7920.203579
3771.274000,2221.676944,2368.659014,9474.636058
3771.274315,995.924147,1258.350101,10732.986159
3771.274629,229.828649,1332.370696,11695.253884
3771.274944,0.000000,1480.411884,11695.253884
3771.275259,383.047749,1628.453072,11917.315666
3771.275574,1072.533697,3034.844362,10807.006753
3771.275888,1149.143247,3256.906145,9474.636058
3771.276203,2068.457845,3478.967927,9030.512492
3771.276518,3140.991542,3034.844362,8364.327145
3771.276833,3294.210641,2220.617826,8216.285956
3771.277147,2911.162892,1850.514855,8808.450710
3771.277462,2068.457845,888.247130,10066.800811
3771.277777,1378.971896,370.102971,10288.862594
3771.278092,689.485948,222.061783,10510.924376
3771.278406,229.828649,888.247130,9992.780217
3771.278721,612.876398,888.247130,10362.883188
3771.279036,306.438199,1184.329507,9696.697840
3771.279350,383.047749,1406.391290,9622.677246
3771.279665,689.485948,1184.329507,9400.615463
3771.279979,995.924147,888.247130,9326.594869
3771.280294,1455.581446,1184.329507,9104.533087
3771.280608,1225.752797,814.226536,9696.697840
3771.280923,1378.971896,1332.370696,9474.636058
3771.281237,995.924147,592.164754,9696.697840
3771.281551,689.485948,-0.000000,10362.883188
3771.281866,0.000000,-296.082377,10658.965565
3771.282180,-766.095498,-444.123565,11103.089130
3771.282495,-842.705048,-518.144159,11103.089130
3771.282809,-995.924147,-444.123565,9844.739029
3771.283124,-612.876398,-370.102971,9474.636058
3771.283438,153.219100,-666.185348,8660.409521
3771.283753,919.314598,-148.041188,9326.594869
3771.284067,536.266849,-148.041188,9252.574275
3771.284381,1225.752797,-962.267725,8068.244768
3771.284696,1378.971896,-888.247130,9030.512492
3771.285010,766.095498,-740.205942,8512.368333
3771.285325,0.000000,-888.247130,8956.491898
3771.285639,76.609550,-1480.411884,9178.553681
3771.285954,-306.438199,-1998.556043,10140.821405
3771.286268,-1149.143247,-1332.370696,10362.883188
3771.286583,-995.924147,-1036.288319,9696.697840
3771.286897,-612.876398,-1332.370696,9844.739029
3771.287211,-689.485948,-148.041188,9770.718434
3771.287526,-612.876398,-0.000000,9326.594869
3771.287840,536.266849,-740.205942,9252.574275
3771.288155,766.095498,-1184.329507,9474.636058
3771.288469,766.095498,-1480.411884,9770.718434
3771.288784,612.876398,-888.247130,9104.533087
3771.289098,689.485948,-666.185348,9030.512492
3771.289412,536.266849,-222.061783,9696.697840
3771.289727,383.047749,-222.061783,9030.512492
3771.290041,459.657299,-814.226536,9474.636058
3771.290356,229.828649,-666.185348,9326.594869
3771.290670,153.219100,-888.247130,9104.533087
3771.290985,-459.657299,-592.164754,9178.553681
3771.291299,0.000000,-222.061783,9400.615463
3771.291614,153.219100,-222.061783,8290.306550
3771.291928,229.828649,-148.041188,8438.347739
3771.292242,689.485948,-444.123565,8734.430116
3771.292557,153.219100,-740.205942,9474.636058
3771.292871,-306.438199,-370.102971,10066.800811
3771.293186,-536.266849,-296.082377,10214.842000
3771.293500,-766.095498,-222.061783,10362.883188
3771.293815,-536.266849,666.185348,10510.924376
3771.294129,-842.705048,1406.391290,8956.491898
3771.294444,0.000000,888.247130,8808.450710
3771.294758,536.266849,1036.288319,9622.677246
3771.295072,306.438199,1036.288319,9030.512492
3771.295387,536.266849,1110.308913,8734.430116
3771.295701,612.876398,740.205942,9252.574275
3771.296016,153.219100,296.082377,9548.656652
3771.296330,0.000000,-0.000000,9548.656652
3771.296645,229.828649,-518.144159,9548.656652
3771.296959,0.000000,-814.226536,11029.068536
3771.297273,-383.047749,-148.041188,10807.006753
3771.297588,-689.485948,444.123565,10362.883188
3771.297902,-612.876398,888.247130,10955.047942
3771.298217,0.000000,1702.473667,9918.759623
3771.298531,306.438199,1628.453072,9400.615463
3771.298846,995.924147,1702.473667,9178.553681
3771.299160,1225.752797,1702.473667,9548.656652
3771.299475,995.924147,962.267725,9696.697840
3771.299789,1149.143247,888.247130,9696.697840
3771.300103,459.657299,962.267725,10436.903782
3771.300418,229.828649,1554.432478,10881.027347
3771.300732,0.000000,962.267725,10362.883188
3771.301047,0.000000,740.205942,10436.903782
3771.301361,-383.047749,296.082377,9918.759623
3771.301676,-689.485948,444.123565,10584.944971
3771.301990,-383.047749,592.164754,10584.944971
3771.302305,0.000000,888.247130,9918.759623
3771.302619,76.609550,1480.411884,8734.430116
3771.302933,229.828649,1480.411884,8512.368333
3771.303248,766.095498,814.226536,8808.450710
3771.303562,1149.143247,518.144159,9326.594869
3771.303877,76.609550,296.082377,9474.636058
3771.304191,-229.828649,296.082377,9770.718434
3771.304506,-766.095498,-518.144159,9770.718434
3771.304820,-383.047749,370.102971,9622.677246
3771.305134,-612.876398,814.226536,9326.594869
3771.305449,-306.438199,-74.020594,9770.718434
3771.305763,-229.828649,296.082377,9548.656652
3771.306078,-766.095498,222.061783,9030.512492
3771.306392,-459.657299,296.082377,9104.533087
3771.306707,229.828649,-0.000000,9622.677246
3771.307021,306.438199,-148.041188,9252.574275
3771.307336,383.047749,-148.041188,9178.553681
3771.307650,229.828649,-740.205942,9474.636058
3771.307964,689.485948,-592.164754,9770.718434
3771.308279,0.000000,-222.061783,9474.636058
3771.308593,-459.657299,-222.061783,9622.677246
3771.308908,-689.485948,-296.082377,9770.718434
3771.309222,-612.876398,-74.020594,9400.615463
3771.309537,76.609550,-0.000000,8734.430116
3771.309851,536.266849,-222.061783,8882.471304
3771.310166,689.485948,-592.164754,9104.533087
3771.310480,229.828649,-444.123565,9326.594869
3771.310794,0.000000,-1258.350101,9696.697840
3771.311109,153.219100,-962.267725,10066.800811
3771.311423,306.438199,-592.164754,10436.903782
3771.311738,306.438199,-0.000000,9622.677246
3771.312052,459.657299,-740.205942,9844.739029
3771.312367,306.438199,-592.164754,10436.903782
3771.312681,-536.266849,-444.123565,10214.842000
3771.312995,-306.438199,-592.164754,9992.780217
3771.313310,0.000000,-222.061783,9474.636058
3771.313624,306.438199,-0.000000,9326.594869
3771.313939,612.876398,222.061783,8586.388927
3771.314253,842.705048,-0.000000,9104.533087
3771.314568,995.924147,-666.185348,9252.574275
3771.314882,229.828649,-1036.288319,9770.718434
3771.315197,153.219100,-1110.308913,9918.759623
3771.315511,0.000000,-962.267725,10436.903782
3771.315825,-306.438199,-666.185348,10214.842000
3771.316140,-766.095498,-0.000000,9474.636058
3771.316454,-383.047749,-148.041188,9548.656652
3771.316769,-153.219100,-148.041188,9696.697840
3771.317083,0.000000,-0.000000,9474.636058
3771.317398,229.828649,-0.000000,9104.533087
3771.317712,153.219100,-74.020594,8882.471304
3771.318027,612.876398,-0.000000,8660.409521
3771.318341,689.485948,-0.000000,8586.388927
3771.318655,1072.533697,-296.082377,8808.450710
3771.318970,383.047749,-518.144159,9548.656652
3771.319284,0.000000,-222.061783,9770.718434
3771.319599,-153.219100,-74.020594,9548.656652
3771.319913,-459.657299,-0.000000,9622.677246
3771.320228,-919.314598,-0.000000,9474.636058
3771.320542,-536.266849,518.144159,9104.533087
3771.320856,-536.266849,888.247130,9104.533087
3771.321171,842.705048,-518.144159,9252.574275
3771.321485,306.438199,814.226536,9252.574275
3771.321800,459.657299,1110.308913,9104.533087
3771.322114,689.485948,814.226536,9770.718434
3771.322429,-229.828649,1332.370696,9844.739029
3771.322743,766.095498,1184.329507,9844.739029
3771.323058,766.095498,518.144159,9992.780217
3771.323372,459.657299,1258.350101,9474.636058
3771.323686,-153.219100,444.123565,10584.944971
3771.324001,-1149.143247,1332.370696,9918.759623
3771.324315,-536.266849,592.164754,11103.089130
3771.324630,0.000000,1332.370696,9696.697840
3771.324944,-229.828649,1480.411884,9326.594869
3771.325259,459.657299,1776.494261,8956.491898
3771.325573,536.266849,962.267725,9474.636058
3771.325888,153.219100,666.185348,9474.636058
3771.326202,153.219100,888.247130,9918.759623
3771.326516,459.657299,592.164754,10807.006753
3771.326831,306.438199,740.205942,10066.800811
3771.327145,383.047749,1406.391290,9844.739029
3771.327460,0.000000,1628.453072,9844.739029
3771.327774,229.828649,1776.494261,9622.677246
3771.328089,0.000000,1480.411884,10436.903782
3771.328403,459.657299,1332.370696,9770.718434
3771.328717,383.047749,888.247130,9030.512492
3771.329032,612.876398,740.205942,9178.553681
3771.329346,536.266849,740.205942,9104.533087
3771.329661,383.047749,296.082377,9474.636058
3771.329975,306.438199,-0.000000,9770.718434
3771.330290,-153.219100,-370.102971,9918.759623
3771.330604,-383.047749,-222.061783,10066.800811
3771.330919,0.000000,-0.000000,10362.883188
3771.331233,-306.438199,148.041188,10584.944971
3771.331547,-229.828649,592.164754,10214.842000
3771.331862,229.828649,-0.000000,9622.677246
3771.332176,842.705048,-0.000000,9400.615463
3771.332491,612.876398,370.102971,8956.491898
3771.332805,919.314598,148.041188,9178.553681
3771.333120,995.924147,370.102971,9030.512492
3771.333434,1149.143247,222.061783,8882.471304
3771.333749,459.657299,-0.000000,9252.574275
3771.334063,229.828649,-444.123565,9400.615463
3771.334377,-153.219100,-1332.370696,9770.718434
3771.334692,-612.876398,-1628.453072,10658.965565
3771.335006,-1225.752797,-1184.329507,10807.006753
3771.335321,-1149.143247,-1628.453072,10658.965565
3771.335635,-536.266849,-814.226536,10362.883188
3771.335950,-689.485948,-0.000000,9770.718434
3771.336264,153.219100,-0.000000,8808.450710
3771.336578,1225.752797,-148.041188,8512.368333
3771.336893,1378.971896,-0.000000,8512.368333
3771.337207,1532.190996,370.102971,9178.553681
3771.337522,995.924147,-148.041188,8734.430116
3771.337836,536.266849,-74.020594,8882.471304
3771.338151,0.000000,-74.020594,9104.533087
3771.338465,-383.047749,-296.082377,8882.471304
3771.338780,-536.266849,-1554.432478,10066.800811
3771.339094,-1149.143247,-1924.535449,10436.903782
3771.339408,-1149.143247,-1628.453072,10362.883188
3771.339723,-1302.362347,-962.267725,9548.656652
3771.340037,-842.705048,-592.164754,9918.759623
3771.340352,0.000000,740.205942,9104.533087
3771.340666,766.095498,444.123565,8364.327145
3771.340981,1378.971896,-0.000000,8512.368333
3771.341295,1225.752797,-148.041188,8586.388927
3771.341610,1302.362347,-0.000000,8808.450710
3771.341924,536.266849,-148.041188,9474.636058
3771.342238,229.828649,-74.020594,9918.759623
3771.342553,-459.657299,-0.000000,9474.636058
3771.342867,-842.705048,-148.041188,9696.697840
3771.343182,-995.924147,-1036.288319,10066.800811
3771.343496,-1378.971896,-1480.411884,10955.047942
3771.343811,-1608.800546,-592.164754,10881.027347
3771.344125,-1149.143247,-296.082377,10362.883188
3771.344439,-612.876398,-0.000000,9844.739029
3771.344754,0.000000,-0.000000,9844.739029
3771.345068,306.438199,592.164754,9030.512492
3771.345383,995.924147,518.144159,9326.594869
3771.345697,919.314598,518.144159,9474.636058
3771.346012,919.314598,1258.350101,9474.636058
3771.346326,919.314598,1554.432478,9992.780217
3771.346641,229.828649,888.247130,9622.677246
3771.346955,0.000000,888.247130,9474.636058
3771.347269,0.000000,740.205942,9548.656652
3771.347584,0.000000,148.041188,9400.615463
3771.347898,-306.438199,-444.123565,10288.862594
3771.348213,-229.828649,-0.000000,10214.842000
3771.348527,-459.657299,444.123565,9696.697840
3771.348842,-229.828649,444.123565,9696.697840
3771.349156,0.000000,814.226536,9696.697840
3771.349471,306.438199,962.267725,9474.636058
3771.349785,689.485948,1110.308913,9548.656652
3771.350099,612.876398,1184.329507,9696.697840
3771.350414,612.876398,1184.329507,9770.718434
3771.350728,766.095498,1480.411884,9474.636058
3771.351043,995.924147,1258.350101,9474.636058
3771.351357,919.314598,1702.473667,9030.512492
3771.351672,689.485948,1776.494261,8882.471304
3771.351986,1149.143247,1036.288319,8956.491898
3771.352300,689.485948,444.123565,9400.615463
3771.352615,76.609550,-0.000000,9844.739029
3771.352929,-306.438199,-444.123565,9622.677246
3771.353244,-383.047749,-592.164754,10140.821405
3771.353558,-766.095498,-592.164754,10288.862594
3771.353873,-229.828649,444.123565,10066.800811
3771.354187,0.000000,296.082377,10140.821405
3771.354502,0.000000,370.102971,10288.862594
3771.354816,383.047749,962.267725,10066.800811
3771.355130,-229.828649,1702.473667,9474.636058
3771.355445,995.924147,1702.473667,9178.553681
3771.355759,1149.143247,1702.473667,8956.491898
3771.356074,1302.362347,1480.411884,8660.409521
3771.356388,1149.143247,296.082377,8808.450710
3771.356703,689.485948,-370.102971,10214.842000
3771.357017,0.000000,-592.164754,10510.924376
3771.357332,-459.657299,-518.144159,10658.965565
3771.357646,-1149.143247,-962.267725,10955.047942
3771.357960,-1455.581446,-370.102971,10658.965565
3771.358275,-1302.362347,-370.102971,10066.800811
3771.358589,-612.876398,-592.164754,10214.842000
3771.358904,0.000000,-0.000000,9992.780217
3771.359218,0.000000,148.041188,9474.636058
3771.359533,612.876398,296.082377,8808.450710
3771.359847,1225.752797,1110.308913,9326.594869
3771.360161,1225.752797,1184.329507,8216.285956
3771.360476,1455.581446,592.164754,8364.327145
3771.360790,1225.752797,222.061783,8734.430116
3771.361105,689.485948,-0.000000,9030.512492
3771.361419,-153.219100,-740.205942,9770.718434
3771.361734,-766.095498,-1184.329507,10436.903782
3771.362048,-1149.143247,-1998.556043,11103.089130
3771.362363,-1532.190996,-1332.370696,10436.903782
3771.362677,-1302.362347,-740.205942,9918.759623
3771.362991,-383.047749,-666.185348,10807.006753
3771.363306,76.609550,-518.144159,10140.821405
3771.363620,0.000000,-222.061783,9252.574275
3771.363935,689.485948,-444.123565,8586.388927
3771.364249,1225.752797,-74.020594,8364.327145
3771.364564,1302.362347,518.144159,8734.430116
3771.364878,1225.752797,518.144159,7994.224174
3771.365193,1225.752797,-296.082377,8956.491898
3771.365507,153.219100,-518.144159,9622.677246
3771.365821,-689.485948,-1332.370696,9622.677246
3771.366136,-919.314598,-1036.288319,10214.842000
3771.366450,-689.485948,-962.267725,10658.965565
3771.366765,-1378.971896,-962.267725,10658.965565
3771.367079,-1225.752797,-518.144159,9918.759623
3771.367394,-383.047749,-1036.288319,9474.636058
3771.367708,76.609550,-740.205942,9770.718434
3771.368022,536.266849,-518.144159,9474.636058
3771.368337,229.828649,-74.020594,9474.636058
3771.368651,842.705048,666.185348,9178.553681
3771.368966,995.924147,1184.329507,8438.347739
3771.369280,612.876398,1480.411884,8512.368333
3771.369595,919.314598,370.102971,8734.430116
3771.369909,383.047749,-148.041188,9622.677246
3771.370224,-306.438199,370.102971,9474.636058
3771.370538,-536.266849,-148.041188,10214.842000
3771.370852,-1072.533697,-0.000000,10140.821405
3771.371167,-919.314598,222.061783,10140.821405
3771.371481,-383.047749,444.123565,9400.615463
3771.371796,153.219100,-0.000000,9844.739029
3771.372110,766.095498,740.205942,9474.636058
3771.372425,459.657299,1036.288319,9400.615463
3771.372739,612.876398,1406.391290,9178.553681
3771.373054,689.485948,1480.411884,9474.636058
3771.373368,766.095498,1406.391290,8882.471304
3771.373682,1149.143247,1924.535449,9474.636058
3771.373997,1225.752797,1110.308913,9696.697840
3771.374311,1225.752797,1480.411884,9474.636058
3771.374626,229.828649,962.267725,9918.759623
3771.374940,153.219100,962.267725,10066.800811
3771.375255,383.047749,666.185348,10732.986159
3771.375569,-536.266849,370.102971,9770.718434
3771.375883,0.000000,222.061783,10288.862594
3771.376198,0.000000,-74.020594,10214.842000
3771.376512,-383.047749,-444.123565,10436.903782
3771.376827,0.000000,444.123565,10881.027347
3771.377141,-229.828649,814.226536,10732.986159
3771.377456,383.047749,1110.308913,11029.068536
3771.377770,612.876398,1554.432478,9622.677246
3771.378085,689.485948,1924.535449,8734.430116
3771.378399,2145.067394,962.267725,9400.615463
3771.378713,1455.581446,962.267725,9104.533087
3771.379028,995.924147,-0.000000,9474.636058
3771.379342,229.828649,370.102971,9770.718434
3771.379657,153.219100,-0.000000,9622.677246
3771.379971,-306.438199,-74.020594,9696.697840
3771.380286,-383.047749,-592.164754,9992.780217
3771.380601,-766.095498,-814.226536,10214.842000
3771.380915,-612.876398,-592.164754,10214.842000
3771.381230,-995.924147,-74.020594,10140.821405
3771.381545,-612.876398,-444.123565,10140.821405
3771.381859,383.047749,148.041188,10510.924376
3771.382174,919.314598,1480.411884,8956.491898
3771.382489,766.095498,1776.494261,8808.450710
3771.382803,1225.752797,1036.288319,8512.368333
3771.383118,1378.971896,740.205942,8734.430116
3771.383433,689.485948,962.267725,9030.512492
3771.383747,229.828649,-0.000000,9918.759623
3771.384062,0.000000,-370.102971,9400.615463
3771.384377,0.000000,-814.226536,9474.636058
3771.384691,-842.705048,-444.123565,9918.759623
3771.385006,-995.924147,-1110.308913,9770.718434
3771.385321,-1072.533697,-1554.432478,9696.697840
3771.385635,-766.095498,-1184.329507,9622.677246
3771.385950,0.000000,-962.267725,9844.739029
3771.386265,153.219100,-518.144159,9548.656652
3771.386579,459.657299,-0.000000,9104.533087
3771.386894,842.705048,666.185348,7994.224174
3771.387209,2145.067394,222.061783,8068.244768
3771.387523,1991.848295,296.082377,9104.533087
3771.387838,1608.800546,-0.000000,9030.512492
3771.388152,842.705048,-74.020594,9474.636058
3771.388467,76.609550,-222.061783,9622.677246
3771.388782,-306.438199,-222.061783,9400.615463
3771.389096,-689.485948,-888.247130,9770.718434
3771.389411,-842.705048,-1110.308913,10510.924376
3771.389726,-919.314598,-1480.411884,10510.924376
3771.390040,-1378.971896,-1628.453072,10288.862594
3771.390355,-1072.533697,-740.205942,10140.821405
3771.390670,-306.438199,-148.041188,9622.677246
3771.390984,76.609550,370.102971,9548.656652
3771.391299,459.657299,666.185348,9326.594869
3771.391614,766.095498,370.102971,8660.409521
3771.391928,1149.143247,-0.000000,9548.656652
3771.392243,842.705048,518.144159,9548.656652
3771.392558,766.095498,222.061783,9474.636058
3771.392872,459.657299,444.123565,9992.780217
3771.393187,-153.219100,296.082377,10066.800811
3771.393502,0.000000,370.102971,9992.780217
3771.393816,-383.047749,296.082377,9622.677246
3771.394131,-536.266849,-74.020594,10214.842000
3771.394446,-766.095498,-444.123565,10288.862594
3771.394760,-383.047749,-74.020594,9918.759623
3771.395075,0.000000,-148.041188,10140.821405
3771.395390,306.438199,370.102971,9992.780217
3771.395704,612.876398,1406.391290,9474.636058
3771.396019,689.485948,1258.350101,9104.533087
3771.396334,1378.971896,1406.391290,9474.636058
3771.396648,459.657299,888.247130,9844.739029
3771.396963,153.219100,814.226536,9770.718434
3771.397278,0.000000,666.185348,9844.739029
3771.397592,-459.657299,518.144159,9548.656652
3771.397907,0.000000,370.102971,9918.759623
3771.398222,-306.438199,-0.000000,9770.718434
3771.398536,0.000000,-0.000000,10288.862594
3771.398851,-229.828649,222.061783,10214.842000
3771.399165,-153.219100,444.123565,10066.800811
3771.399480,-229.828649,518.144159,9844.739029
3771.399795,0.000000,740.205942,9474.636058
3771.400109,0.000000,1036.288319,8808.450710
3771.400424,536.266849,518.144159,9030.512492
3771.400739,995.924147,370.102971,9474.636058
3771.401053,612.876398,148.041188,9400.615463
3771.401368,536.266849,296.082377,9474.636058
3771.401683,536.266849,296.082377,9622.677246
3771.401997,153.219100,370.102971,9474.636058
3771.402312,0.000000,-0.000000,9548.656652
3771.402627,536.266849,148.041188,9326.594869
3771.402941,383.047749,-0.000000,9622.677246
3771.403256,536.266849,-148.041188,9918.759623
3771.403571,0.000000,-0.000000,9696.697840
3771.403885,153.219100,-222.061783,9844.739029
3771.404200,689.485948,740.205942,9918.759623
3771.404515,919.314598,1036.288319,9252.574275
3771.404829,842.705048,1184.329507,9104.533087
3771.405144,1149.143247,370.102971,9252.574275
3771.405459,536.266849,296.082377,9474.636058
3771.405773,536.266849,296.082377,9622.677246
3771.406088,459.657299,222.061783,9770.718434
3771.406403,536.266849,444.123565,9474.636058
3771.406717,76.609550,592.164754,9326.594869
3771.407032,383.047749,-0.000000,9104.533087
3771.407347,306.438199,-888.247130,9474.636058
3771.407661,0.000000,-74.020594,9548.656652
3771.407976,-612.876398,-370.102971,10140.821405
3771.408291,-229.828649,-0.000000,9474.636058
3771.408605,0.000000,-296.082377,10140.821405
3771.408920,-306.438199,296.082377,9548.656652
3771.409235,229.828649,-0.000000,9844.739029
3771.409549,383.047749,-0.000000,9770.718434
3771.409864,0.000000,-0.000000,10140.821405
3771.410178,0.000000,740.205942,10584.944971
3771.410493,0.000000,-0.000000,9474.636058
3771.410808,0.000000,370.102971,9548.656652
3771.411122,0.000000,666.185348,9400.615463
3771.411437,-536.266849,-222.061783,9104.533087
3771.411752,76.609550,-518.144159,9474.636058
3771.412066,-229.828649,-814.226536,9400.615463
3771.412381,-766.095498,-888.247130,9770.718434
3771.412696,-612.876398,-814.226536,9770.718434
3771.413010,-1072.533697,-592.164754,9474.636058
3771.413325,-766.095498,-0.000000,9326.594869
3771.413640,-459.657299,-370.102971,9178.553681
3771.413954,0.000000,-666.185348,9844.739029
3771.414269,0.000000,-444.123565,9696.697840
3771.414584,-459.657299,148.041188,9770.718434
3771.414898,-383.047749,370.102971,9030.512492
3771.415213,0.000000,666.185348,9400.615463
3771.415528,0.000000,1110.308913,9474.636058
3771.415842,153.219100,370.102971,8808.450710
3771.416157,0.000000,-0.000000,9474.636058
3771.416472,76.609550,-74.020594,9622.677246
3771.416786,-383.047749,-0.000000,9696.697840
3771.417101,-306.438199,-148.041188,9918.759623
3771.417416,-229.828649,-0.000000,9918.759623
3771.417730,-306.438199,222.061783,9696.697840
3771.418045,0.000000,222.061783,9326.594869
3771.418360,153.219100,-0.000000,9474.636058
3771.418674,229.828649,222.061783,9844.739029
3771.418989,383.047749,222.061783,9548.656652
3771.419304,1225.752797,-0.000000,9400.615463
3771.419618,459.657299,518.144159,9252.574275
3771.419933,689.485948,592.164754,9326.594869
3771.420248,995.924147,370.102971,9400.615463
3771.420562,995.924147,740.205942,9770.718434
3771.420877,383.047749,666.185348,9918.759623
3771.421191,0.000000,148.041188,9770.718434
3771.421506,0.000000,-148.041188,10510.924376
3771.421821,-306.438199,222.061783,10066.800811
3771.422135,76.609550,296.082377,9474.636058
3771.422450,-229.828649,-74.020594,10362.883188
3771.422765,459.657299,-0.000000,9770.718434
3771.423079,536.266849,-222.061783,9770.718434
3771.423394,459.657299,296.082377,9474.636058
3771.423709,383.047749,370.102971,9548.656652
3771.424023,383.047749,518.144159,9474.636058
3771.424338,306.438199,1332.370696,8290.306550
3771.424653,1378.971896,-296.082377,9400.615463
3771.424967,689.485948,296.082377,9474.636058
3771.425282,76.609550,-148.041188,9696.697840
3771.425597,229.828649,-74.020594,9918.759623
3771.425911,-306.438199,370.102971,9844.739029
3771.426226,0.000000,296.082377,10807.006753
3771.426541,0.000000,296.082377,9992.780217
3771.426855,76.609550,518.144159,9400.615463
3771.427170,306.438199,222.061783,9696.697840
3771.427485,0.000000,444.123565,9548.656652
3771.427799,76.609550,592.164754,10066.800811
3771.428114,229.828649,370.102971,9696.697840
3771.428429,383.047749,370.102971,10066.800811
3771.428743,153.219100,962.267725,9178.553681
3771.429058,229.828649,444.123565,9326.594869
3771.429373,383.047749,222.061783,9474.636058
3771.429687,0.000000,-0.000000,9918.759623
3771.430002,0.000000,222.061783,9844.739029
3771.430317,-383.047749,-0.000000,9474.636058
3771.430631,0.000000,370.102971,9326.594869
3771.430946,-536.266849,296.082377,9326.594869
3771.431261,0.000000,-0.000000,9178.553681
3771.431575,0.000000,-0.000000,9696.697840
3771.431890,0.000000,-370.102971,9400.615463
3771.432204,-536.266849,-148.041188,10140.821405
3771.432519,-229.828649,-296.082377,9622.677246
3771.432834,-536.266849,-74.020594,9844.739029
3771.433148,-459.657299,296.082377,10066.800811
3771.433463,-229.828649,296.082377,9474.636058
3771.433778,153.219100,296.082377,9474.636058
3771.434092,0.000000,444.123565,9474.636058
3771.434407,0.000000,222.061783,9030.512492
3771.434722,76.609550,-370.102971,9326.594869
3771.435036,612.876398,-0.000000,9474.636058
3771.435351,229.828649,-370.102971,9030.512492
3771.435666,0.000000,-592.164754,9178.553681
3771.435980,153.219100,-370.102971,9474.636058
3771.436295,-536.266849,-592.164754,9992.780217
3771.436610,-459.657299,-148.041188,9918.759623
3771.436924,-383.047749,-148.041188,10436.903782
3771.437239,-766.095498,-518.144159,10436.903782
3771.437554,0.000000,-0.000000,9844.739029
3771.437868,229.828649,-0.000000,9326.594869
3771.438183,919.314598,518.144159,9326.594869
3771.438498,919.314598,1036.288319,9400.615463
3771.438812,689.485948,1258.350101,8956.491898
3771.439127,689.485948,1258.350101,9030.512492
3771.439442,842.705048,518.144159,9252.574275
3771.439756,536.266849,814.226536,9252.574275
3771.440071,536.266849,370.102971,9252.574275
3771.440386,306.438199,-0.000000,10066.800811
3771.440700,-306.438199,-370.102971,10584.944971
3771.441015,-306.438199,-814.226536,10658.965565
3771.441330,0.000000,-518.144159,10510.924376
3771.441644,0.000000,-0.000000,10362.883188
3771.441959,0.000000,666.185348,9548.656652
3771.442274,76.609550,740.205942,9326.594869
3771.442588,1072.533697,370.102971,9326.594869
3771.442903,919.314598,-0.000000,9400.615463
3771.443217,995.924147,-0.000000,9326.594869
3771.443532,612.876398,-74.020594,9770.718434
3771.443847,842.705048,-148.041188,9326.594869
3771.444161,0.000000,518.144159,9696.697840
3771.444476,0.000000,-296.082377,9622.677246
3771.444791,0.000000,-444.123565,10288.862594
3771.445105,-306.438199,-444.123565,10066.800811
3771.445420,-842.705048,-666.185348,9696.697840
3771.445735,-842.705048,-962.267725,10362.883188
3771.446049,-536.266849,-666.185348,9622.677246
3771.446364,-612.876398,-74.020594,9252.574275
3771.446679,0.000000,-222.061783,9326.594869
3771.446993,689.485948,-444.123565,8956.491898
3771.447308,919.314598,-222.061783,9326.594869
3771.447623,536.266849,444.123565,8290.306550
3771.447937,536.266849,222.061783,9326.594869
3771.448252,459.657299,296.082377,9474.636058
3771.448567,0.000000,518.144159,8882.471304
3771.448881,306.438199,-0.000000,9178.553681
3771.449196,306.438199,-444.123565,9770.718434
3771.449511,-383.047749,-370.102971,9918.759623
3771.449825,-536.266849,-444.123565,9844.739029
3771.450140,-689.485948,-296.082377,9770.718434
3771.450455,-306.438199,148.041188,9992.780217
3771.450769,0.000000,740.205942,9548.656652
3771.451084,76.609550,740.205942,8882.471304
3771.451399,766.095498,740.205942,8956.491898
3771.451713,1072.533697,888.247130,9178.553681
3771.452028,766.095498,962.267725,8882.471304
3771.452343,536.266849,962.267725,9400.615463
3771.452657,842.705048,888.247130,9622.677246
3771.452972,76.609550,740.205942,9178.553681
3771.453287,76.609550,962.267725,8956.491898
3771.453601,0.000000,74.020594,9326.594869
3771.453916,-459.657299,-0.000000,10436.903782
3771.454230,-995.924147,-0.000000,10584.944971
3771.454545,-1225.752797,-0.000000,10362.883188
3771.454860,0.000000,-222.061783,10140.821405
3771.455174,0.000000,296.082377,9844.739029
3771.455489,459.657299,592.164754,9696.697840
3771.455804,842.705048,814.226536,9918.759623
3771.456118,459.657299,962.267725,9400.615463
3771.456433,459.657299,1480.411884,9622.677246
3771.456748,919.314598,962.267725,9400.615463
3771.457062,919.314598,1332.370696,9178.553681
3771.457377,612.876398,1258.350101,9252.574275
3771.457692,459.657299,814.226536,8734.430116
3771.458006,306.438199,222.061783,9770.718434
3771.458321,-306.438199,-222.061783,10066.800811
3771.458636,-842.705048,-888.247130,10436.903782
3771.458950,-995.924147,-666.185348,10955.047942
3771.459265,-1072.533697,-74.020594,10881.027347
3771.459580,-766.095498,592.164754,10510.924376
3771.459894,76.609550,1110.308913,10066.800811
3771.460209,306.438199,1258.350101,9770.718434
3771.460524,229.828649,1036.288319,9696.697840
3771.460838,766.095498,1036.288319,9474.636058
3771.461153,995.924147,1480.411884,9548.656652
3771.461468,1378.971896,1258.350101,9474.636058
3771.461782,842.705048,1258.350101,9474.636058
3771.462097,689.485948,666.185348,8956.491898
3771.462412,459.657299,444.123565,9474.636058
3771.462726,0.000000,-74.020594,10214.842000
3771.463041,-612.876398,-740.205942,10436.903782
3771.463356,-842.705048,-1184.329507,10658.965565
3771.463670,-766.095498,-1184.329507,10140.821405
3771.463985,-919.314598,-666.185348,10140.821405
3771.464300,-229.828649,-74.020594,9696.697840
3771.464614,383.047749,-148.041188,9400.615463
3771.464929,612.876398,222.061783,9326.594869
3771.465243,766.095498,518.144159,9030.512492
3771.465558,995.924147,592.164754,8586.388927
3771.465873,1072.533697,740.205942,8808.450710
3771.466187,995.924147,962.267725,8364.327145
3771.466502,689.485948,444.123565,8808.450710
3771.466817,842.705048,-592.164754,9030.512492
3771.467131,153.219100,-1184.329507,9474.636058
3771.467446,-995.924147,-1406.391290,9918.759623
3771.467761,-1149.143247,-1702.473667,10362.883188
3771.468075,-1225.752797,-1702.473667,10658.965565
3771.468390,-1225.752797,-1036.288319,10066.800811
3771.468705,-766.095498,-1184.329507,9474.636058
3771.469019,76.609550,-814.226536,9474.636058
3771.469334,229.828649,-370.102971,9548.656652
3771.469649,153.219100,-74.020594,8734.430116
3771.469963,919.314598,-0.000000,9104.533087
3771.470278,1225.752797,-0.000000,8512.368333
3771.470593,1378.971896,444.123565,8216.285956
3771.470907,1302.362347,370.102971,8068.244768
3771.471222,689.485948,-0.000000,8216.285956
3771.471537,153.219100,-888.247130,9474.636058
3771.471851,-536.266849,-1184.329507,9918.759623
3771.472166,-995.924147,-1258.350101,10140.821405
3771.472481,-995.924147,-1406.391290,10732.986159
3771.472795,-1072.533697,-666.185348,10214.842000
3771.473110,-689.485948,-370.102971,9992.780217
3771.473425,0.000000,-0.000000,9918.759623
3771.473739,459.657299,-0.000000,10140.821405
3771.474054,689.485948,888.247130,9474.636058
3771.474369,1149.143247,1406.391290,8956.491898
3771.474683,1532.190996,2072.576638,8660.409521
3771.474998,1378.971896,1776.494261,8438.347739
3771.475313,1149.143247,1480.411884,8364.327145
3771.475627,689.485948,666.185348,9030.512492
3771.475942,766.095498,-0.000000,9844.739029
3771.476256,-229.828649,-296.082377,10214.842000
3771.476571,-1149.143247,-370.102971,10140.821405
3771.476886,-1455.581446,-148.041188,10955.047942
3771.477200,-1532.190996,-148.041188,10955.047942
3771.477515,-995.924147,-148.041188,10436.903782
3771.477830,-689.485948,-0.000000,9770.718434
3771.478144,76.609550,592.164754,9770.718434
3771.478459,612.876398,962.267725,9844.739029
3771.478774,919.314598,1924.535449,9326.594869
3771.479088,1072.533697,2294.638420,9178.553681
3771.479403,1302.362347,2072.576638,9178.553681
3771.479718,1302.362347,1998.556043,8586.388927
3771.480032,1072.533697,1036.288319,9400.615463
3771.480347,229.828649,-0.000000,10066.800811
3771.480662,-306.438199,-666.185348,10510.924376
3771.480976,-1225.752797,-296.082377,10362.883188
3771.481291,-1455.581446,-666.185348,11103.089130
3771.481606,-1302.362347,296.082377,10436.903782
3771.481920,-1225.752797,-0.000000,10140.821405
3771.482235,0.000000,222.061783,9622.677246
3771.482549,383.047749,-148.041188,9696.697840
3771.482864,536.266849,1036.288319,9474.636058
3771.483179,459.657299,1036.288319,9474.636058
3771.483493,995.924147,1332.370696,9030.512492
3771.483808,1302.362347,1258.350101,8808.450710
3771.484123,1302.362347,1258.350101,8142.265362
3771.484437,766.095498,592.164754,8956.491898
3771.484752,153.219100,148.041188,9548.656652
3771.485066,0.000000,296.082377,9918.759623
3771.485381,-459.657299,222.061783,9770.718434
3771.485696,-612.876398,-0.000000,9622.677246
3771.486010,-689.485948,-74.020594,10066.800811
3771.486325,-766.095498,-444.123565,9992.780217
3771.486640,-383.047749,-518.144159,9696.697840
3771.486954,0.000000,-222.061783,10288.862594
3771.487269,459.657299,222.061783,9696.697840
3771.487583,842.705048,666.185348,9770.718434
3771.487898,1149.143247,666.185348,9178.553681
3771.488213,1302.362347,1110.308913,8660.409521
3771.488527,919.314598,1036.288319,8660.409521
3771.488842,995.924147,-74.020594,8882.471304
3771.489157,689.485948,-370.102971,9474.636058
3771.489471,459.657299,-74.020594,9400.615463
3771.489786,0.000000,-666.185348,9474.636058
3771.490101,-229.828649,-962.267725,9696.697840
3771.490415,-689.485948,-888.247130,9622.677246
3771.490730,-842.705048,-592.164754,9326.594869
3771.491044,-153.219100,-1332.370696,9844.739029
3771.491359,-153.219100,-1184.329507,9918.759623
3771.491674,-536.266849,-740.205942,9770.718434
3771.491988,0.000000,-0.000000,9918.759623
3771.492303,306.438199,-296.082377,9992.780217
3771.492618,383.047749,518.144159,9474.636058
3771.492932,1072.533697,666.185348,8882.471304
3771.493247,1225.752797,518.144159,9030.512492
3771.493561,842.705048,222.061783,9104.533087
3771.493876,76.609550,-0.000000,9400.615463
3771.494191,-306.438199,-592.164754,9918.759623
3771.494505,-689.485948,-1036.288319,10140.821405
3771.494820,-995.924147,-1184.329507,9918.759623
3771.495135,-995.924147,-592.164754,10140.821405
3771.495449,-689.485948,-888.247130,10140.821405
3771.495764,-536.266849,-814.226536,10214.842000
3771.496078,-383.047749,-74.020594,10362.883188
3771.496393,-536.266849,-74.020594,9770.718434
3771.496708,76.609550,518.144159,9918.759623
3771.497022,459.657299,962.267725,9252.574275
3771.497337,459.657299,1258.350101,8734.430116
3771.497652,842.705048,1036.288319,8660.409521
3771.497966,919.314598,814.226536,9030.512492
3771.498281,536.266849,740.205942,9696.697840
3771.498596,459.657299,370.102971,9252.574275
3771.498910,-306.438199,-0.000000,9474.636058
3771.499225,-459.657299,148.041188,9770.718434
3771.499539,-766.095498,296.082377,9474.636058
3771.499854,-612.876398,-0.000000,9992.780217
3771.500169,-383.047749,-518.144159,10214.842000
3771.500483,-306.438199,-148.041188,10140.821405
3771.500798,-229.828649,-0.000000,9992.780217
3771.501113,459.657299,444.123565,9844.739029
3771.501427,919.314598,740.205942,9474.636058
3771.501742,689.485948,1628.453072,8660.409521
3771.502056,1302.362347,1406.391290,8216.285956
3771.502371,1685.410096,888.247130,8512.368333
3771.502686,1455.581446,444.123565,9104.533087
3771.503000,612.876398,370.102971,9400.615463
3771.503315,76.609550,518.144159,9622.677246
3771.503630,-459.657299,-0.000000,10288.862594
3771.503944,-766.095498,-0.000000,10584.944971
3771.504259,0.000000,-296.082377,10362.883188
3771.504573,-766.095498,-444.123565,11177.109724
3771.504888,-995.924147,222.061783,10807.006753
3771.505203,-459.657299,370.102971,10288.862594
3771.505517,229.828649,518.144159,10066.800811
3771.505832,842.705048,1480.411884,9252.574275
3771.506147,1072.533697,1924.535449,8734.430116
3771.506461,1915.238745,1628.453072,8216.285956
3771.506776,1838.629195,1110.308913,9030.512492
3771.507090,1149.143247,666.185348,9400.615463
3771.507405,459.657299,518.144159,9252.574275
3771.507720,-153.219100,370.102971,9770.718434
3771.508034,-689.485948,370.102971,10140.821405
3771.508349,-1072.533697,-0.000000,9992.780217
3771.508664,-536.266849,-222.061783,10066.800811
3771.508978,-459.657299,-518.144159,10362.883188
3771.509293,-536.266849,-0.000000,10510.924376
3771.509608,-612.876398,222.061783,10362.883188
3771.509922,229.828649,222.061783,9844.739029
3771.510237,1149.143247,1036.288319,9474.636058
3771.510551,1302.362347,1406.391290,8512.368333
3771.510866,1685.410096,1480.411884,8438.347739
3771.511181,1762.019645,962.267725,8882.471304
3771.511495,1378.971896,444.123565,8956.491898
3771.511810,689.485948,-0.000000,9326.594869
3771.512125,-153.219100,-814.226536,10140.821405
3771.512439,-689.485948,-666.185348,9696.697840
3771.512754,-766.095498,-1036.288319,9696.697840
3771.513068,-842.705048,-1554.432478,9918.759623
3771.513383,-766.095498,-1702.473667,9548.656652
3771.513698,-76.609550,-814.226536,9770.718434
3771.514012,0.000000,-666.185348,9548.656652
3771.514327,153.219100,-370.102971,9548.656652
3771.514642,459.657299,296.082377,8956.491898
3771.514956,1608.800546,222.061783,8438.347739
3771.515271,1149.143247,592.164754,8586.388927
3771.515585,919.314598,-0.000000,9474.636058
3771.515900,383.047749,-444.123565,9992.780217
3771.516215,-229.828649,-74.020594,9844.739029
3771.516529,0.000000,-518.144159,10140.821405
3771.516844,-383.047749,-296.082377,10066.800811
3771.517159,-612.876398,-0.000000,9548.656652
3771.517473,-689.485948,-370.102971,9696.697840
3771.517788,-459.657299,-1258.350101,10140.821405
3771.518103,-459.657299,-888.247130,8956.491898
3771.518417,0.000000,-222.061783,9474.636058
3771.518732,-229.828649,-222.061783,9178.553681
3771.519046,306.438199,-0.000000,9548.656652
3771.519361,1149.143247,740.205942,9178.553681
3771.519676,1072.533697,222.061783,9030.512492
3771.519990,1149.143247,444.123565,9400.615463
3771.520305,459.657299,666.185348,9474.636058
3771.520620,306.438199,814.226536,9326.594869
3771.520934,153.219100,370.102971,9474.636058
3771.521249,0.000000,222.061783,9548.656652
3771.521563,153.219100,-0.000000,9030.512492
3771.521878,229.828649,-0.000000,9326.594869
3771.522193,0.000000,148.041188,9696.697840
3771.522507,-536.266849,-148.041188,9992.780217
3771.522822,-383.047749,-296.082377,9992.780217
3771.523137,-459.657299,-444.123565,10362.883188
3771.523451,76.609550,-74.020594,10214.842000
3771.523766,0.000000,962.267725,9104.533087
3771.524080,842.705048,666.185348,8734.430116
3771.524395,842.705048,888.247130,9400.615463
3771.524710,842.705048,962.267725,9474.636058
3771.525024,306.438199,740.205942,9622.677246
3771.525339,306.438199,962.267725,9474.636058
3771.525654,0.000000,814.226536,10140.821405
3771.525968,0.000000,962.267725,9548.656652
3771.526283,0.000000,592.164754,9770.718434
3771.526598,0.000000,-296.082377,9844.739029
3771.526912,-459.657299,-0.000000,10214.842000
3771.527227,-689.485948,-518.144159,10288.862594
3771.527541,-536.266849,-0.000000,10362.883188
3771.527856,-536.266849,1110.308913,10584.944971
3771.528171,-536.266849,1702.473667,9326.594869
3771.528485,0.000000,1036.288319,9252.574275
3771.528800,689.485948,-0.000000,10214.842000
3771.529115,229.828649,888.247130,9992.780217
3771.529429,229.828649,888.247130,9474.636058
3771.529744,306.438199,1036.288319,9770.718434
3771.530058,459.657299,1702.473667,9326.594869
3771.530373,459.657299,1332.370696,9326.594869
3771.530688,383.047749,666.185348,9548.656652
3771.531002,153.219100,296.082377,9548.656652
3771.531317,0.000000,148.041188,9992.780217
3771.531632,-689.485948,518.144159,10066.800811
3771.531946,-995.924147,-74.020594,9992.780217
3771.532261,-459.657299,-740.205942,10288.862594
3771.532575,229.828649,-74.020594,9918.759623
3771.532890,229.828649,592.164754,9474.636058
3771.533205,995.924147,370.102971,9474.636058
3771.533519,842.705048,518.144159,9326.594869
3771.533834,612.876398,740.205942,9252.574275
3771.534149,689.485948,370.102971,9326.594869
3771.534463,1225.752797,-0.000000,8956.491898
3771.534778,689.485948,-0.000000,9326.594869
3771.535092,536.266849,-0.000000,9030.512492
3771.535407,766.095498,-370.102971,9400.615463
3771.535722,76.609550,-592.164754,9548.656652
3771.536036,-306.438199,-888.247130,9474.636058
3771.536351,-383.047749,-1332.370696,10584.944971
3771.536666,0.000000,-740.205942,10140.821405
3771.536980,0.000000,-444.123565,9844.739029
3771.537295,76.609550,-222.061783,9326.594869
3771.537610,536.266849,-962.267725,9474.636058
3771.537924,229.828649,-296.082377,9474.636058
3771.538239,153.219100,-74.020594,9474.636058
3771.538553,536.266849,-74.020594,9696.697840
3771.538868,383.047749,-0.000000,9474.636058
3771.539183,306.438199,370.102971,9178.553681
3771.539497,306.438199,148.041188,8808.450710
3771.539812,229.828649,-740.205942,9474.636058
3771.540127,76.609550,-740.205942,9844.739029
3771.540441,-383.047749,-296.082377,9474.636058
3771.540756,-229.828649,-444.123565,9474.636058
3771.541070,0.000000,-222.061783,9252.574275
3771.541385,-459.657299,-0.000000,9030.512492
3771.541700,0.000000,-74.020594,8808.450710
3771.542014,76.609550,-592.164754,9252.574275
3771.542329,0.000000,-370.102971,9622.677246
3771.542644,-459.657299,-592.164754,9622.677246
3771.542958,0.000000,-148.041188,9918.759623
3771.543273,0.000000,370.102971,9844.739029
3771.543587,0.000000,740.205942,9474.636058
3771.543902,612.876398,148.041188,9104.533087
3771.544217,766.095498,740.205942,9326.594869
3771.544531,306.438199,370.102971,9252.574275
3771.544846,153.219100,444.123565,9400.615463
3771.545161,0.000000,-74.020594,9474.636058
3771.545475,0.000000,-74.020594,9770.718434
3771.545790,-612.876398,-0.000000,9696.697840
3771.546105,-612.876398,-222.061783,9474.636058
3771.546419,-842.705048,-888.247130,9696.697840
3771.546734,-1225.752797,-148.041188,9770.718434
3771.547048,-1072.533697,-518.144159,10362.883188
3771.547363,-612.876398,-222.061783,10362.883188
3771.547678,-229.828649,518.144159,9844.739029
3771.547992,0.000000,1036.288319,9696.697840
3771.548307,689.485948,1184.329507,9178.553681
3771.548622,1302.362347,740.205942,9474.636058
3771.548936,612.876398,1184.329507,9400.615463
3771.549251,689.485948,814.226536,9696.697840
3771.549565,689.485948,1184.329507,9474.636058
3771.549880,459.657299,592.164754,9474.636058
3771.550195,153.219100,-0.000000,9548.656652
3771.550509,-383.047749,296.082377,9844.739029
3771.550824,-536.266849,-74.020594,9992.780217
3771.551139,-689.485948,-370.102971,10140.821405
3771.551453,-612.876398,-74.020594,10436.903782
3771.551768,-229.828649,-0.000000,10214.842000
3771.552082,459.657299,74.020594,10436.903782
3771.552397,536.266849,1110.308913,9992.780217
3771.552712,919.314598,1554.432478,9104.533087
3771.553026,1378.971896,1406.391290,8882.471304
3771.553341,2221.676944,1332.370696,9030.512492
3771.553656,1838.629195,1258.350101,9104.533087
3771.553970,1608.800546,888.247130,9622.677246
3771.554285,1149.143247,1036.288319,9474.636058
3771.554599,689.485948,740.205942,9622.677246
3771.554914,689.485948,444.123565,9622.677246
3771.555229,0.000000,-666.185348,9474.636058
3771.555543,-536.266849,-666.185348,10510.924376
3771.555858,-842.705048,-666.185348,10288.862594
3771.556173,-689.485948,-814.226536,10584.944971
3771.556487,-306.438199,-592.164754,10510.924376
3771.556802,0.000000,518.144159,9622.677246
3771.557117,689.485948,666.185348,8882.471304
3771.557431,1455.581446,592.164754,8512.368333
3771.557746,1302.362347,370.102971,9104.533087
3771.558060,842.705048,296.082377,8512.368333
3771.558375,842.705048,222.061783,9178.553681
3771.558690,689.485948,-0.000000,9326.594869
3771.559004,0.000000,-0.000000,9474.636058
3771.559319,-229.828649,-0.000000,9474.636058
3771.559634,-383.047749,-1036.288319,9918.759623
3771.559948,-1149.143247,-1924.535449,10881.027347
3771.560263,-1378.971896,-1480.411884,10288.862594
3771.560577,-1532.190996,-814.226536,10510.924376
3771.560892,-842.705048,-666.185348,10140.821405
3771.561207,-383.047749,74.020594,9252.574275
3771.561521,-153.219100,370.102971,8586.388927
3771.561836,919.314598,592.164754,8290.306550
3771.562151,1072.533697,444.123565,8586.388927
3771.562465,842.705048,296.082377,8956.491898
3771.562780,306.438199,814.226536,8808.450710
3771.563094,229.828649,370.102971,9474.636058
3771.563409,0.000000,222.061783,9178.553681
3771.563724,-612.876398,-0.000000,9474.636058
3771.564038,-536.266849,-518.144159,9770.718434
3771.564353,-1302.362347,-888.247130,9844.739029
3771.564668,-1302.362347,-296.082377,10510.924376
3771.564982,-1455.581446,-148.041188,10362.883188
3771.565297,-1072.533697,-444.123565,10288.862594
3771.565612,-612.876398,-0.000000,10288.862594
3771.565926,76.609550,666.185348,9474.636058
3771.566241,689.485948,444.123565,9252.574275
3771.566555,1149.143247,888.247130,9030.512492
3771.566870,1455.581446,1332.370696,9252.574275
3771.567185,1149.143247,962.267725,9400.615463
3771.567499,995.924147,740.205942,9696.697840
3771.567814,766.095498,814.226536,9548.656652
3771.568129,459.657299,592.164754,9326.594869
3771.568443,229.828649,-222.061783,9474.636058
3771.568758,-229.828649,-296.082377,10214.842000
3771.569072,-612.876398,-740.205942,10658.965565
3771.569387,-689.485948,-962.267725,10807.006753
3771.569702,-459.657299,-296.082377,10510.924376
3771.570016,76.609550,-148.041188,10436.903782
3771.570331,383.047749,888.247130,9918.759623
3771.570646,842.705048,592.164754,9474.636058
3771.570960,1072.533697,962.267725,9918.759623
3771.571275,1149.143247,1110.308913,9770.718434
3771.571589,1072.533697,740.205942,9326.594869
3771.571904,1378.971896,814.226536,9770.718434
3771.572219,1302.362347,1702.473667,9252.574275
3771.572533,842.705048,1258.350101,8586.388927
3771.572848,766.095498,-0.000000,9030.512492
3771.573163,459.657299,-518.144159,9992.780217
3771.573477,-153.219100,-518.144159,10436.903782
3771.573792,-689.485948,-666.185348,9844.739029
3771.574107,-1072.533697,-740.205942,9992.780217
3771.574421,-459.657299,-370.102971,10658.965565
3771.574736,0.000000,222.061783,9548.656652
3771.575050,306.438199,296.082377,9622.677246
3771.575365,536.266849,370.102971,9992.780217
3771.575680,459.657299,592.164754,9400.615463
3771.575994,995.924147,962.267725,8586.388927
3771.576309,1225.752797,1110.308913,8734.430116
3771.576624,1149.143247,1110.308913,8734.430116
3771.576938,689.485948,1258.350101,7994.224174
3771.577253,383.047749,370.102971,8438.347739
3771.577567,0.000000,-222.061783,9474.636058
3771.577882,-536.266849,-296.082377,9696.697840
3771.578197,-766.095498,-592.164754,10066.800811
3771.578511,-1302.362347,-1406.391290,10807.006753
3771.578826,-1378.971896,-888.247130,10732.986159
3771.579141,-1378.971896,-740.205942,9770.718434
3771.579455,-383.047749,-370.102971,9548.656652
3771.579770,0.000000,-74.020594,9992.780217
3771.580084,0.000000,444.123565,9326.594869
3771.580399,383.047749,1184.329507,9030.512492
3771.580714,842.705048,814.226536,9326.594869
3771.581028,919.314598,592.164754,8808.450710
3771.581343,536.266849,814.226536,8364.327145
3771.581657,383.047749,-0.000000,8734.430116
3771.581972,0.000000,-592.164754,9326.594869
3771.582287,-1149.143247,-1036.288319,9918.759623
3771.582601,-1608.800546,-1036.288319,10214.842000
3771.582916,-1762.019645,-1184.329507,11325.150913
3771.583230,-1915.238745,-666.185348,11251.130318
3771.583545,-1225.752797,-740.205942,10436.903782
3771.583860,-459.657299,-370.102971,9770.718434
3771.584174,-306.438199,-296.082377,11029.068536
3771.584489,153.219100,296.082377,9252.574275
3771.584803,842.705048,1184.329507,8882.471304
3771.585118,1455.581446,1184.329507,9178.553681
3771.585432,1762.019645,1480.411884,8364.327145
3771.585747,1838.629195,1702.473667,8290.306550
3771.586062,2145.067394,148.041188,8660.409521
3771.586376,842.705048,-0.000000,9622.677246
3771.586691,76.609550,-296.082377,9770.718434
3771.587005,-306.438199,-962.267725,10288.862594
3771.587320,-919.314598,-962.267725,11325.150913
3771.587634,-842.705048,-962.267725,10584.944971
3771.587949,-536.266849,-592.164754,9770.718434
3771.588264,153.219100,-296.082377,9548.656652
3771.588578,383.047749,-222.061783,9474.636058
3771.588893,689.485948,592.164754,9178.553681
3771.589207,919.314598,666.185348,9104.533087
3771.589522,1685.410096,1332.370696,8660.409521
3771.589836,1608.800546,1110.308913,8512.368333
3771.590151,1532.190996,1554.432478,7920.203579
3771.590466,1608.800546,1036.288319,8808.450710
3771.590780,919.314598,222.061783,9918.759623
3771.591095,0.000000,222.061783,10140.821405
3771.591409,-766.095498,-296.082377,10288.862594
3771.591724,-1072.533697,-444.123565,10658.965565
3771.592038,-1302.362347,-666.185348,10955.047942
3771.592353,-1302.362347,-370.102971,10436.903782
3771.592668,-842.705048,-444.123565,10214.842000
3771.592982,-383.047749,-444.123565,9918.759623
3771.593297,0.000000,-0.000000,9326.594869
3771.593611,459.657299,518.144159,9178.553681
3771.593926,459.657299,296.082377,9474.636058
3771.594240,766.095498,814.226536,9104.533087
3771.594555,612.876398,1258.350101,9030.512492
3771.594870,766.095498,888.247130,8956.491898
3771.595184,766.095498,444.123565,9474.636058
3771.595499,383.047749,518.144159,9474.636058
3771.595813,0.000000,370.102971,9622.677246
3771.596128,-459.657299,148.041188,9844.739029
3771.596442,-842.705048,-222.061783,9770.718434
3771.596757,-919.314598,-222.061783,9918.759623
3771.597072,-536.266849,-222.061783,9992.780217
3771.597386,-459.657299,-370.102971,9918.759623
3771.597701,-536.266849,444.123565,9622.677246
3771.598015,-383.047749,518.144159,10288.862594
3771.598330,153.219100,370.102971,10288.862594
3771.598644,919.314598,1184.329507,9474.636058
3771.598959,1072.533697,1554.432478,8512.368333
3771.599274,1225.752797,1480.411884,8068.244768
3771.599588,766.095498,962.267725,9326.594869
3771.599903,766.095498,666.185348,9548.656652
3771.600217,229.828649,-0.000000,9548.656652
3771.600532,0.000000,-296.082377,9548.656652
3771.600846,-229.828649,-0.000000,10140.821405
3771.601161,-919.314598,-222.061783,9696.697840
3771.601476,-536.266849,-814.226536,9918.759623
3771.601790,-459.657299,-1110.308913,10362.883188
3771.602105,-766.095498,-740.205942,10584.944971
3771.602419,-383.047749,-74.020594,10214.842000
3771.602734,459.657299,-0.000000,10066.800811
3771.603048,536.266849,814.226536,9844.739029
3771.603363,1149.143247,1258.350101,8364.327145
3771.603678,1455.581446,1036.288319,8364.327145
3771.603992,1685.410096,592.164754,9178.553681
3771.604307,1532.190996,148.041188,9178.553681
3771.604621,612.876398,-444.123565,9622.677246
3771.604936,-306.438199,-444.123565,9622.677246
3771.605250,-383.047749,-740.205942,9918.759623
3771.605565,-536.266849,-740.205942,9918.759623
3771.605880,-612.876398,-1480.411884,10288.862594
3771.606194,-306.438199,-1406.391290,10436.903782
3771.606509,-536.266849,-740.205942,9696.697840
3771.606823,-306.438199,-444.123565,10066.800811
3771.607138,612.876398,-370.102971,9918.759623
3771.607453,766.095498,592.164754,9400.615463
3771.607767,1149.143247,1258.350101,8438.347739
3771.608082,1378.971896,1184.329507,8290.306550
3771.608396,1532.190996,740.205942,8438.347739
3771.608711,1149.143247,444.123565,9104.533087
3771.609025,383.047749,518.144159,9326.594869
3771.609340,0.000000,-0.000000,9770.718434
3771.609655,-306.438199,-222.061783,9918.759623
3771.609969,-689.485948,-814.226536,10066.800811
3771.610284,-766.095498,-592.164754,10066.800811
3771.610598,-842.705048,-740.205942,10510.924376
3771.610913,-689.485948,-370.102971,9918.759623
3771.611227,-612.876398,-0.000000,9252.574275
3771.611542,459.657299,148.041188,9474.636058
3771.611857,306.438199,518.144159,9326.594869
3771.612171,612.876398,1406.391290,8882.471304
3771.612486,995.924147,1110.308913,8364.327145
3771.612800,842.705048,666.185348,8364.327145
3771.613115,689.485948,148.041188,9252.574275
3771.613429,76.609550,222.061783,9770.718434
3771.613744,-459.657299,222.061783,10362.883188
3771.614059,-995.924147,444.123565,9844.739029
3771.614373,-1225.752797,-0.000000,9770.718434
3771.614688,-842.705048,-0.000000,9992.780217
3771.615002,-1225.752797,-370.102971,10510.924376
3771.615317,-766.095498,-370.102971,10658.965565
3771.615631,-459.657299,-0.000000,10436.903782
3771.615946,-612.876398,222.061783,10066.800811
3771.616261,0.000000,444.123565,9918.759623
3771.616575,612.876398,1258.350101,9252.574275
3771.616890,842.705048,1480.411884,8734.430116
3771.617204,995.924147,740.205942,8734.430116
3771.617519,689.485948,1036.288319,9252.574275
3771.617833,229.828649,962.267725,9844.739029
3771.618148,76.609550,592.164754,9770.718434
3771.618463,0.000000,-0.000000,10140.821405
3771.618777,-229.828649,370.102971,9770.718434
3771.619092,0.000000,-222.061783,10584.944971
3771.619406,0.000000,-592.164754,10362.883188
3771.619721,0.000000,-592.164754,10807.006753
3771.620035,76.609550,592.164754,9918.759623
3771.620350,383.047749,592.164754,9770.718434
3771.620665,1149.143247,444.123565,9178.553681
3771.620979,1149.143247,666.185348,8808.450710
3771.621294,1685.410096,1036.288319,8364.327145
3771.621608,1455.581446,-0.000000,8882.471304
3771.621923,995.924147,222.061783,9400.615463
3771.622237,536.266849,148.041188,9770.718434
3771.622552,459.657299,296.082377,10066.800811
3771.622867,0.000000,-0.000000,10214.842000
3771.623181,-153.219100,-0.000000,9844.739029
3771.623496,76.609550,-666.185348,9992.780217
3771.623810,0.000000,-370.102971,9770.718434
3771.624125,-229.828649,-222.061783,9548.656652
3771.624439,-306.438199,-370.102971,10140.821405
3771.624754,153.219100,-222.061783,9030.512492
3771.625069,612.876398,-296.082377,9178.553681
3771.625383,689.485948,-0.000000,8808.450710
3771.625698,919.314598,-148.041188,8586.388927
3771.626012,1149.143247,-222.061783,8956.491898
3771.626327,383.047749,-370.102971,9178.553681
3771.626641,76.609550,-370.102971,9178.553681
3771.626956,-766.095498,-814.226536,9326.594869
3771.627271,-306.438199,-814.226536,9474.636058
3771.627585,-919.314598,-370.102971,9400.615463
3771.627900,-842.705048,-592.164754,9474.636058
3771.628214,-306.438199,-888.247130,9548.656652
3771.628529,-306.438199,-518.144159,9696.697840
3771.628843,-306.438199,-0.000000,9474.636058
3771.629158,-229.828649,296.082377,9400.615463
3771.629473,0.000000,370.102971,9474.636058
3771.629787,383.047749,888.247130,9178.553681
3771.630102,536.266849,444.123565,8734.430116
3771.630416,612.876398,-74.020594,9252.574275
3771.630731,76.609550,-222.061783,9992.780217
3771.631046,0.000000,-0.000000,9918.759623
3771.631360,-383.047749,-0.000000,9992.780217
3771.631675,0.000000,444.123565,9992.780217
3771.631989,0.000000,370.102971,9474.636058
3771.632304,76.609550,-0.000000,9178.553681
3771.632618,76.609550,-370.102971,9474.636058
3771.632933,0.000000,-0.000000,9992.780217
3771.633248,0.000000,148.041188,9770.718434
3771.633562,-536.266849,666.185348,10066.800811
3771.633877,-229.828649,444.123565,10214.842000
3771.634191,-229.828649,962.267725,9992.780217
3771.634506,0.000000,1110.308913,9622.677246
3771.634820,229.828649,518.144159,10140.821405
3771.635135,383.047749,1036.288319,10807.006753
3771.635450,0.000000,962.267725,10288.862594
3771.635764,0.000000,592.164754,9992.780217
3771.636079,0.000000,296.082377,10066.800811
3771.636393,-689.485948,518.144159,9474.636058
3771.636708,0.000000,592.164754,9474.636058
3771.637022,0.000000,-0.000000,9696.697840
3771.637337,0.000000,-0.000000,9844.739029
3771.637652,0.000000,-0.000000,9474.636058
3771.637966,-229.828649,-148.041188,9548.656652
3771.638281,0.000000,-148.041188,10140.821405
3771.638595,-306.438199,222.061783,9770.718434
3771.638910,0.000000,370.102971,9474.636058
3771.639224,459.657299,518.144159,9400.615463
3771.639539,995.924147,-0.000000,9474.636058
3771.639854,919.314598,370.102971,9474.636058
3771.640168,612.876398,222.061783,9252.574275
3771.640483,689.485948,296.082377,9548.656652
3771.640797,689.485948,444.123565,9400.615463
3771.641112,689.485948,-0.000000,8882.471304
3771.641426,689.485948,-74.020594,9474.636058
3771.641741,153.219100,-444.123565,9548.656652
3771.642056,153.219100,-296.082377,10214.842000
3771.642370,153.219100,-222.061783,9992.780217
3771.642685,229.828649,-148.041188,9622.677246
3771.642999,229.828649,666.185348,9548.656652
3771.643314,229.828649,666.185348,9030.512492
3771.643628,919.314598,148.041188,9252.574275
3771.643943,612.876398,-0.000000,9548.656652
3771.644258,229.828649,-222.061783,9622.677246
3771.644572,153.219100,-0.000000,9400.615463
3771.644887,0.000000,222.061783,9474.636058
3771.645201,-229.828649,148.041188,9252.574275
3771.645516,0.000000,-74.020594,9474.636058
3771.645830,229.828649,-1110.308913,9696.697840
3771.646145,-689.485948,-814.226536,10214.842000
3771.646460,-919.314598,-518.144159,9548.656652
3771.646774,-995.924147,-296.082377,10066.800811
3771.647089,-689.485948,-0.000000,10066.800811
3771.647403,-383.047749,592.164754,9400.615463
3771.647718,-153.219100,222.061783,8882.471304
3771.648032,919.314598,-518.144159,8808.450710
3771.648347,383.047749,-148.041188,9326.594869
3771.648662,76.609550,-148.041188,9400.615463
3771.648976,383.047749,-0.000000,8808.450710
3771.649291,-459.657299,-222.061783,9992.780217
3771.649605,-306.438199,-0.000000,9326.594869
3771.649920,0.000000,-370.102971,9178.553681
3771.650234,536.266849,-814.226536,9400.615463
3771.650549,-229.828649,-444.123565,10140.821405
3771.650864,0.000000,-0.000000,9622.677246
3771.651178,76.609550,-0.000000,9770.718434
3771.651493,459.657299,592.164754,9622.677246
3771.651807,919.314598,814.226536,9178.553681
3771.652122,766.095498,518.144159,8882.471304
3771.652437,1072.533697,592.164754,9252.574275
3771.652751,995.924147,444.123565,9770.718434
3771.653066,536.266849,888.247130,9622.677246
3771.653380,76.609550,444.123565,10066.800811
3771.653695,459.657299,888.247130,9992.780217
3771.654009,153.219100,962.267725,9770.718434
3771.654324,536.266849,814.226536,9474.636058
3771.654639,766.095498,-0.000000,10140.821405
3771.654953,459.657299,444.123565,9918.759623
3771.655268,229.828649,518.144159,9770.718434
3771.655582,76.609550,370.102971,9622.677246
3771.655897,153.219100,370.102971,9548.656652
3771.656211,536.266849,666.185348,9326.594869
3771.656526,306.438199,-0.000000,9474.636058
3771.656841,536.266849,370.102971,9474.636058
3771.657155,306.438199,-0.000000,9622.677246
3771.657470,-76.609550,444.123565,9622.677246
3771.657784,0.000000,518.144159,10214.842000
3771.658099,-459.657299,370.102971,10288.862594
3771.658413,-306.438199,148.041188,9918.759623
3771.658728,-459.657299,592.164754,9474.636058
3771.659043,306.438199,222.061783,9474.636058
3771.659357,76.609550,814.226536,9548.656652
3771.659672,153.219100,518.144159,9326.594869
3771.659986,229.828649,296.082377,9400.615463
3771.660301,153.219100,-74.020594,9252.574275
3771.660615,459.657299,444.123565,9252.574275
3771.660930,459.657299,592.164754,8586.388927
3771.661245,0.000000,-0.000000,8882.471304
3771.661559,-229.828649,-592.164754,9844.739029
3771.661874,-766.095498,-592.164754,9992.780217
3771.662188,-689.485948,-148.041188,9992.780217
3771.662503,-842.705048,-0.000000,9770.718434
3771.662817,-536.266849,518.144159,9622.677246
3771.663132,0.000000,1036.288319,9326.594869
3771.663447,536.266849,592.164754,9400.615463
3771.663761,689.485948,518.144159,9326.594869
3771.664076,306.438199,814.226536,9252.574275
3771.664390,689.485948,444.123565,9474.636058
3771.664705,306.438199,370.102971,9474.636058
3771.665019,0.000000,666.185348,9178.553681
3771.665334,-459.657299,666.185348,8956.491898
3771.665649,-306.438199,-518.144159,10288.862594
3771.665963,-536.266849,-518.144159,10510.924376
3771.666278,-1072.533697,-444.123565,10584.944971
3771.666592,-766.095498,-148.041188,10584.944971
3771.666907,-766.095498,-74.020594,10881.027347
3771.667221,-306.438199,-0.000000,9992.780217
3771.667536,0.000000,148.041188,9548.656652
3771.667851,919.314598,444.123565,9474.636058
3771.668165,1149.143247,-0.000000,8956.491898
3771.668480,995.924147,444.123565,8882.471304
3771.668794,766.095498,296.082377,9400.615463
3771.669109,689.485948,-370.102971,9400.615463
3771.669423,76.609550,-0.000000,9178.553681
3771.669738,0.000000,-148.041188,9104.533087
3771.670053,229.828649,-1184.329507,9696.697840
3771.670367,0.000000,-1850.514855,9918.759623
3771.670682,-612.876398,-1554.432478,10140.821405
3771.670996,-766.095498,-1110.308913,10436.903782
3771.671311,-459.657299,-740.205942,10214.842000
3771.671625,0.000000,-296.082377,9918.759623
3771.671940,306.438199,-74.020594,8956.491898
3771.672255,1302.362347,-148.041188,8660.409521
3771.672569,1455.581446,-0.000000,8660.409521
3771.672884,1378.971896,444.123565,8956.491898
3771.673198,1149.143247,740.205942,8882.471304
3771.673513,1072.533697,444.123565,9030.512492
3771.673827,612.876398,74.020594,8438.347739
3771.674142,459.657299,-148.041188,9104.533087
3771.674457,306.438199,-296.082377,9474.636058
3771.674771,-153.219100,-592.164754,10288.862594
3771.675086,-383.047749,-370.102971,10436.903782
3771.675400,-612.876398,-370.102971,10584.944971
3771.675715,-383.047749,-296.082377,9770.718434
3771.676030,-229.828649,-222.061783,9622.677246
3771.676344,459.657299,814.226536,9474.636058
3771.676659,459.657299,740.205942,8808.450710
3771.676973,919.314598,962.267725,9252.574275
3771.677288,383.047749,1110.308913,9326.594869
3771.677602,612.876398,1110.308913,9030.512492
3771.677917,536.266849,666.185348,9252.574275
3771.678232,0.000000,666.185348,9548.656652
3771.678546,0.000000,740.205942,9474.636058
3771.678861,-459.657299,-0.000000,9474.636058
3771.679175,-689.485948,-0.000000,10066.800811
3771.679490,-459.657299,148.041188,10214.842000
3771.679804,-1532.190996,-0.000000,10288.862594
3771.680119,-1072.533697,-370.102971,10288.862594
3771.680434,-1149.143247,-0.000000,10140.821405
3771.680748,-766.095498,1036.288319,9992.780217
3771.681063,-766.095498,-0.000000,9992.780217
3771.681377,0.000000,740.205942,9918.759623
3771.681692,153.219100,962.267725,9474.636058
3771.682007,383.047749,962.267725,9474.636058
3771.682321,919.314598,888.247130,9992.780217
3771.682636,383.047749,1332.370696,9326.594869
3771.682951,383.047749,1850.514855,8290.306550
3771.683265,306.438199,814.226536,8290.306550
3771.683580,0.000000,444.123565,9474.636058
3771.683895,-459.657299,-592.164754,10955.047942
3771.684209,-919.314598,-222.061783,9992.780217
3771.684524,-1532.190996,-518.144159,10584.944971
3771.684839,-1225.752797,-222.061783,10881.027347
3771.685153,-536.266849,518.144159,10510.924376
3771.685468,0.000000,444.123565,10584.944971
3771.685783,689.485948,296.082377,10214.842000
3771.686097,1302.362347,888.247130,10140.821405
3771.686412,1532.190996,1406.391290,9104.533087
3771.686727,1762.019645,1480.411884,8956.491898
3771.687041,1915.238745,1332.370696,8882.471304
3771.687356,1302.362347,1480.411884,8512.368333
3771.687671,1532.190996,296.082377,9030.512492
3771.687986,842.705048,-592.164754,9992.780217
3771.688300,76.609550,-1332.370696,10510.924376
3771.688615,-689.485948,-1406.391290,10362.883188
3771.688930,-1149.143247,-1110.308913,10955.047942
3771.689244,-1149.143247,-740.205942,10362.883188
3771.689559,-842.705048,-444.123565,9770.718434
3771.689874,0.000000,-666.185348,9770.718434
3771.690188,842.705048,-962.267725,9474.636058
3771.690503,766.095498,-148.041188,9474.636058
3771.690818,1149.143247,666.185348,8660.409521
3771.691132,1149.143247,148.041188,8068.244768
3771.691447,1685.410096,-370.102971,8586.388927
3771.691762,1225.752797,222.061783,7624.121203
3771.692076,612.876398,-740.205942,8216.285956
3771.692391,0.000000,-1480.411884,9400.615463
3771.692706,-1149.143247,-1776.494261,9844.739029
3771.693020,-1838.629195,-1924.535449,10362.883188
3771.693335,-1762.019645,-2442.679609,10510.924376
3771.693650,-1991.848295,-2146.597232,10584.944971
3771.693965,-1455.581446,-1924.535449,10510.924376
3771.694279,-612.876398,-1184.329507,9548.656652
3771.694594,383.047749,-592.164754,10510.924376
3771.694909,306.438199,370.102971,9474.636058
3771.695223,1149.143247,888.247130,8364.327145
3771.695538,1455.581446,444.123565,8142.265362
3771.695853,1762.019645,814.226536,8068.244768
3771.696167,1915.238745,888.247130,7920.203579
3771.696482,919.314598,74.020594,7994.224174
3771.696797,306.438199,-592.164754,9326.594869
3771.697111,-536.266849,-518.144159,9474.636058
3771.697426,-1225.752797,-740.205942,10140.821405
3771.697741,-995.924147,-1184.329507,10658.965565
3771.698055,-1838.629195,-518.144159,10732.986159
3771.698370,-1532.190996,222.061783,10066.800811
3771.698685,-1072.533697,518.144159,9474.636058
3771.699000,-229.828649,740.205942,9400.615463
3771.699314,153.219100,1332.370696,9696.697840
3771.699629,995.924147,1554.432478,9474.636058
3771.699944,1455.581446,1924.535449,9104.533087
3771.700258,1838.629195,2294.638420,9178.553681
3771.700573,1685.410096,2886.803174,8660.409521
3771.700888,1149.143247,1850.514855,9030.512492
3771.701202,459.657299,1110.308913,9918.759623
3771.701517,-766.095498,-0.000000,10658.965565
3771.701832,-1149.143247,-370.102971,10881.027347
3771.702146,-1532.190996,-740.205942,11177.109724
3771.702461,-1608.800546,-148.041188,11103.089130
3771.702776,-1225.752797,-74.020594,10362.883188
3771.703090,-536.266849,-222.061783,9918.759623
3771.703405,0.000000,-0.000000,10140.821405
3771.703720,459.657299,666.185348,9992.780217
3771.704034,1685.410096,1036.288319,9844.739029
3771.704349,1532.190996,1554.432478,9400.615463
3771.704664,1838.629195,2294.638420,9326.594869
3771.704979,1608.800546,2220.617826,8512.368333
3771.705293,1608.800546,1036.288319,9474.636058
3771.705608,842.705048,-222.061783,10288.862594
3771.705923,536.266849,222.061783,10658.965565
3771.706237,-306.438199,296.082377,10288.862594
3771.706552,-842.705048,-444.123565,10584.944971
3771.706867,-459.657299,-370.102971,10881.027347
3771.707181,-383.047749,-518.144159,10510.924376
3771.707496,76.609550,-370.102971,9474.636058
3771.707811,459.657299,-222.061783,9770.718434
3771.708125,689.485948,814.226536,9400.615463
3771.708440,995.924147,1554.432478,9104.533087
3771.708755,1072.533697,1406.391290,9030.512492
3771.709069,1685.410096,1110.308913,9326.594869
3771.709384,1455.581446,1406.391290,8290.306550
3771.709699,919.314598,1110.308913,8586.388927
3771.710013,766.095498,444.123565,9104.533087
3771.710328,76.609550,-0.000000,9918.759623
3771.710643,-383.047749,-0.000000,9622.677246
3771.710958,-766.095498,-518.144159,9474.636058
3771.711272,-689.485948,-962.267725,9548.656652
3771.711587,-1072.533697,-666.185348,9770.718434
3771.711902,-1302.362347,-740.205942,9474.636058
3771.712216,-842.705048,-740.205942,9622.677246
3771.712531,-612.876398,-74.020594,9474.636058
3771.712846,-459.657299,-0.000000,9252.574275
3771.713160,-153.219100,-296.082377,9474.636058
3771.713475,306.438199,-148.041188,8882.471304
3771.713790,612.876398,-74.020594,8364.327145
3771.714104,919.314598,296.082377,7846.182985
3771.714419,536.266849,-370.102971,8586.388927
3771.714734,689.485948,-296.082377,8956.491898
3771.715048,-383.047749,-518.144159,9474.636058
3771.715363,-459.657299,-740.205942,9326.594869
3771.715678,-689.485948,-962.267725,9992.780217
3771.715992,-1225.752797,-814.226536,9622.677246
3771.716307,-383.047749,-1258.350101,10140.821405
3771.716622,-766.095498,-1332.370696,10584.944971
3771.716937,-995.924147,-592.164754,10066.800811
3771.717251,0.000000,-222.061783,10288.862594
3771.717566,229.828649,-0.000000,10214.842000
3771.717881,1149.143247,962.267725,9992.780217
3771.718195,842.705048,1332.370696,9178.553681
3771.718510,1302.362347,1184.329507,8586.388927
3771.718825,1302.362347,1036.288319,9178.553681
3771.719139,1072.533697,296.082377,9030.512492
3771.719454,459.657299,148.041188,9548.656652
3771.719769,383.047749,-370.102971,9918.759623
3771.720083,-306.438199,-74.020594,10362.883188
3771.720398,-1072.533697,148.041188,10066.800811
3771.720713,-766.095498,-148.041188,10510.924376
3771.721027,-229.828649,-444.123565,10955.047942
3771.721342,-229.828649,-444.123565,10510.924376
3771.721657,0.000000,518.144159,10140.821405
3771.721972,383.047749,296.082377,10436.903782
3771.722286,383.047749,888.247130,10288.862594
3771.722601,842.705048,1998.556043,9252.574275
3771.722916,1455.581446,1628.453072,8142.265362
3771.723230,1608.800546,1184.329507,8956.491898
3771.723545,995.924147,518.144159,9104.533087
3771.723860,689.485948,518.144159,9474.636058
3771.724174,-306.438199,222.061783,10288.862594
3771.724489,-995.924147,-592.164754,9844.739029
3771.724804,-1149.143247,-666.185348,10140.821405
3771.725118,-919.314598,-1258.350101,10214.842000
3771.725433,-536.266849,-1184.329507,10807.006753
3771.725748,-536.266849,-370.102971,10140.821405
3771.726062,-229.828649,-0.000000,9844.739029
3771.726377,229.828649,444.123565,9474.636058
3771.726692,842.705048,592.164754,9178.553681
3771.727006,766.095498,1036.288319,8438.347739
3771.727321,1762.019645,962.267725,8068.244768
3771.727636,1915.238745,296.082377,8364.327145
3771.727951,1608.800546,-0.000000,9326.594869
3771.728265,536.266849,222.061783,9474.636058
3771.728580,0.000000,-444.123565,9326.594869
3771.728895,-306.438199,-518.144159,9992.780217
3771.729209,-536.266849,-370.102971,9622.677246
3771.729524,-689.485948,-222.061783,9696.697840
3771.729839,-689.485948,-888.247130,10140.821405
3771.730153,-612.876398,-296.082377,10288.862594
3771.730468,-612.876398,-148.041188,9844.739029
3771.730783,0.000000,444.123565,9992.780217
3771.731097,919.314598,962.267725,9992.780217
3771.731412,1072.533697,1628.453072,8808.450710
3771.731727,1072.533697,1554.432478,8290.306550
3771.732041,995.924147,1258.350101,8438.347739
3771.732356,766.095498,666.185348,9104.533087
3771.732671,229.828649,666.185348,9474.636058
3771.732985,-229.828649,592.164754,9548.656652
3771.733300,-383.047749,370.102971,9622.677246
3771.733615,-1072.533697,518.144159,9696.697840
3771.733930,-842.705048,-0.000000,9622.677246
3771.734244,-229.828649,-74.020594,9622.677246
3771.734559,-689.485948,222.061783,10140.821405
3771.734874,-842.705048,666.185348,10288.862594
3771.735188,-383.047749,814.226536,9548.656652
3771.735503,0.000000,740.205942,9622.677246
3771.735818,76.609550,888.247130,9252.574275
3771.736132,459.657299,888.247130,9252.574275
3771.736447,689.485948,370.102971,9844.739029
3771.736762,229.828649,518.144159,9696.697840
3771.737076,153.219100,814.226536,10362.883188
3771.737391,-306.438199,-0.000000,9770.718434
3771.737706,-383.047749,-74.020594,10140.821405
3771.738020,-383.047749,-0.000000,10436.903782
3771.738335,-459.657299,-222.061783,9918.759623
3771.738650,0.000000,-518.144159,9696.697840
3771.738964,-459.657299,-592.164754,9918.759623
3771.739279,0.000000,-222.061783,10140.821405
3771.739594,229.828649,-74.020594,10066.800811
3771.739909,459.657299,444.123565,9992.780217
3771.740223,612.876398,296.082377,9992.780217
3771.740538,842.705048,1184.329507,10510.924376
3771.740853,1072.533697,370.102971,9622.677246
3771.741167,612.876398,-0.000000,10140.821405
3771.741482,612.876398,-222.061783,9918.759623
3771.741797,459.657299,-0.000000,9770.718434
3771.742111,229.828649,-0.000000,10140.821405
3771.742426,229.828649,-0.000000,9696.697840
3771.742741,306.438199,222.061783,9178.553681
3771.743055,383.047749,-592.164754,8882.471304
3771.743370,153.219100,-444.123565,9326.594869
3771.743685,76.609550,-444.123565,9622.677246
3771.743999,0.000000,-518.144159,9622.677246
3771.744314,0.000000,-740.205942,8956.491898
3771.744629,0.000000,-0.000000,9326.594869
3771.744944,0.000000,592.164754,8660.409521
3771.745258,306.438199,-0.000000,8586.388927
3771.745573,-153.219100,222.061783,9474.636058
3771.745888,-153.219100,-222.061783,9400.615463
3771.746202,-153.219100,-0.000000,9178.553681
3771.746517,-306.438199,-0.000000,9474.636058
3771.746832,-536.266849,-0.000000,9400.615463
3771.747146,-229.828649,666.185348,8882.471304
3771.747461,0.000000,-74.020594,9030.512492
3771.747776,-229.828649,-1110.308913,10066.800811
3771.748090,-306.438199,-814.226536,9548.656652
3771.748405,-689.485948,-962.267725,9400.615463
3771.748720,-306.438199,-518.144159,9696.697840
3771.749034,-306.438199,-0.000000,9178.553681
3771.749349,0.000000,666.185348,9178.553681
3771.749664,689.485948,-148.041188,9252.574275
3771.749978,459.657299,-222.061783,9474.636058
3771.750293,306.438199,-0.000000,9548.656652
3771.750608,76.609550,370.102971,9104.533087
3771.750923,153.219100,518.144159,9548.656652
3771.751237,153.219100,518.144159,9696.697840
3771.751552,76.609550,296.082377,9844.739029
3771.751867,383.047749,-0.000000,9992.780217
3771.752181,76.609550,-444.123565,10955.047942
3771.752496,-306.438199,222.061783,10658.965565
3771.752811,-383.047749,-0.000000,10436.903782
3771.753125,-153.219100,444.123565,10732.986159
3771.753440,-383.047749,370.102971,9992.780217
3771.753755,229.828649,1110.308913,9696.697840
3771.754069,842.705048,518.144159,9326.594869
3771.754384,919.314598,592.164754,9622.677246
3771.754699,612.876398,592.164754,9474.636058
3771.755013,459.657299,666.185348,9400.615463
3771.755328,536.266849,370.102971,9474.636058
3771.755643,229.828649,666.185348,9474.636058
3771.755957,76.609550,444.123565,9178.553681
3771.756272,229.828649,-0.000000,9326.594869
3771.756587,0.000000,-666.185348,9844.739029
3771.756902,-459.657299,370.102971,10066.800811
3771.757216,-536.266849,-0.000000,9844.739029
3771.757531,-229.828649,-0.000000,9622.677246
3771.757846,153.219100,-0.000000,9844.739029
3771.758160,766.095498,666.185348,8586.388927
3771.758475,919.314598,370.102971,8438.347739
3771.758790,919.314598,222.061783,9030.512492
3771.759104,612.876398,296.082377,8956.491898
3771.759419,459.657299,370.102971,8734.430116
3771.759734,842.705048,74.020594,9326.594869
3771.760048,229.828649,444.123565,9474.636058
3771.760363,0.000000,518.144159,9104.533087
3771.760678,153.219100,-296.082377,9400.615463
3771.760992,-536.266849,-296.082377,9696.697840
3771.761307,-766.095498,-296.082377,9770.718434
3771.761622,-306.438199,-296.082377,9918.759623
3771.761937,0.000000,-222.061783,10140.821405
3771.762251,229.828649,370.102971,9844.739029
3771.762566,0.000000,-0.000000,8882.471304
3771.762881,306.438199,222.061783,9400.615463
3771.763195,229.828649,-0.000000,10140.821405
3771.763510,0.000000,222.061783,10362.883188
3771.763825,0.000000,-0.000000,9696.697840
3771.764139,0.000000,-0.000000,10214.842000
3771.764454,-229.828649,666.185348,9844.739029
3771.764769,0.000000,740.205942,9252.574275
3771.765083,0.000000,-0.000000,9548.656652
3771.765398,-306.438199,-518.144159,9918.759623
3771.765713,-689.485948,-0.000000,10066.800811
3771.766027,-766.095498,-0.000000,9400.615463
3771.766342,0.000000,-0.000000,9844.739029
3771.766657,0.000000,-0.000000,9548.656652
3771.766971,-536.266849,222.061783,8882.471304
3771.767286,-383.047749,-296.082377,9548.656652
3771.767601,-153.219100,-444.123565,10288.862594
3771.767916,-536.266849,-0.000000,10140.821405
3771.768230,-306.438199,-0.000000,10214.842000
3771.768545,0.000000,740.205942,9844.739029
3771.768860,383.047749,296.082377,9696.697840
3771.769174,76.609550,1184.329507,8586.388927
3771.769489,842.705048,296.082377,9474.636058
3771.769804,383.047749,518.144159,9474.636058
3771.770118,229.828649,-222.061783,9326.594869
3771.770433,306.438199,-0.000000,8956.491898
3771.770748,0.000000,-296.082377,9178.553681
3771.771062,76.609550,-0.000000,9400.615463
3771.771377,229.828649,-148.041188,9548.656652
3771.771692,0.000000,-148.041188,9474.636058
3771.772006,-153.219100,-518.144159,10288.862594
3771.772321,-76.609550,-0.000000,9918.759623
3771.772636,0.000000,-296.082377,10214.842000
3771.772950,153.219100,-0.000000,10436.903782
3771.773265,459.657299,222.061783,9770.718434
3771.773580,689.485948,518.144159,9104.533087
3771.773895,995.924147,444.123565,9252.574275
3771.774209,1378.971896,592.164754,9918.759623
3771.774524,995.924147,296.082377,9400.615463
3771.774839,842.705048,592.164754,9252.574275
3771.775153,153.219100,-222.061783,9474.636058
3771.775468,306.438199,-148.041188,9326.594869
3771.775783,0.000000,-148.041188,9474.636058
3771.776097,0.000000,-740.205942,9548.656652
3771.776412,-459.657299,-1258.350101,10436.903782
3771.776727,-459.657299,-740.205942,10066.800811
3771.777041,0.000000,-296.082377,10140.821405
3771.777356,-229.828649,-222.061783,10362.883188
3771.777671,153.219100,-0.000000,9474.636058
3771.777985,459.657299,962.267725,8882.471304
3771.778300,1149.143247,1184.329507,9030.512492
3771.778615,1455.581446,1036.288319,8512.368333
3771.778929,766.095498,962.267725,8882.471304
3771.779244,536.266849,444.123565,8808.450710
3771.779559,995.924147,-0.000000,8956.491898
3771.779874,76.609550,-0.000000,9326.594869
3771.780188,-536.266849,-0.000000,9400.615463
3771.780503,-689.485948,-148.041188,9918.759623
3771.780818,-1378.971896,-962.267725,10214.842000
3771.781132,-1378.971896,-962.267725,10510.924376
3771.781447,-1455.581446,-888.247130,10584.944971
3771.781762,-612.876398,-148.041188,10140.821405
3771.782076,-229.828649,814.226536,9622.677246
3771.782391,229.828649,1406.391290,9104.533087
3771.782706,1762.019645,962.267725,8734.430116
3771.783020,842.705048,1036.288319,8660.409521
3771.783335,536.266849,1110.308913,9178.553681
3771.783650,612.876398,962.267725,9548.656652
3771.783964,306.438199,518.144159,9696.697840
3771.784279,0.000000,518.144159,9696.697840
3771.784594,-919.314598,-0.000000,10140.821405
3771.784909,-995.924147,-74.020594,10732.986159
3771.785223,-1072.533697,-888.247130,10955.047942
3771.785538,-1225.752797,-222.061783,10881.027347
3771.785853,-766.095498,-0.000000,10658.965565
3771.786167,-229.828649,-0.000000,9918.759623
3771.786482,306.438199,592.164754,9770.718434
3771.786797,383.047749,1480.411884,8882.471304
3771.787111,1149.143247,592.164754,8734.430116
3771.787426,1608.800546,592.164754,8882.471304
3771.787741,1302.362347,888.247130,9622.677246
3771.788055,1225.752797,962.267725,9030.512492
3771.788370,919.314598,444.123565,9548.656652
3771.788685,153.219100,148.041188,9252.574275
3771.789000,229.828649,-0.000000,9622.677246
3771.789314,-612.876398,-592.164754,9400.615463
3771.789629,-229.828649,-1036.288319,9844.739029
3771.789944,-689.485948,-1184.329507,10214.842000
3771.790258,-689.485948,-296.082377,9918.759623
3771.790573,-536.266849,-0.000000,9622.677246
3771.790887,0.000000,222.061783,9696.697840
3771.791202,0.000000,962.267725,9030.512492
3771.791517,1072.533697,592.164754,8808.450710
3771.791831,1532.190996,148.041188,8586.388927
3771.792146,995.924147,-0.000000,9104.533087
3771.792460,1378.971896,592.164754,9326.594869
3771.792775,842.705048,666.185348,9030.512492
3771.793090,153.219100,888.247130,9252.574275
3771.793404,-153.219100,370.102971,9326.594869
3771.793719,-612.876398,-74.020594,8956.491898
3771.794033,-229.828649,-962.267725,9622.677246
3771.794348,-612.876398,-1184.329507,10658.965565
3771.794663,-1302.362347,-814.226536,10807.006753
3771.794977,-1225.752797,-962.267725,10510.924376
3771.795292,-766.095498,-518.144159,9992.780217
3771.795606,0.000000,296.082377,10066.800811
3771.795921,919.314598,592.164754,9622.677246
3771.796236,1149.143247,888.247130,9400.615463
3771.796550,842.705048,666.185348,9326.594869
3771.796865,1072.533697,962.267725,9474.636058
3771.797180,1149.143247,962.267725,9622.677246
3771.797494,842.705048,1036.288319,9178.553681
3771.797809,153.219100,444.123565,9326.594869
3771.798123,153.219100,-370.102971,8956.491898
3771.798438,306.438199,-962.267725,9918.759623
3771.798753,-766.095498,-740.205942,10140.821405
3771.799067,-1302.362347,-888.247130,10658.965565
3771.799382,-1225.752797,-1110.308913,10436.903782
3771.799696,-919.314598,-1184.329507,10288.862594
3771.800011,-536.266849,-74.020594,9474.636058
3771.800326,0.000000,-370.102971,9770.718434
3771.800640,766.095498,-0.000000,9178.553681
3771.800955,536.266849,222.061783,9474.636058
3771.801269,689.485948,1332.370696,8808.450710
3771.801584,1378.971896,814.226536,8882.471304
3771.801899,1762.019645,962.267725,8734.430116
3771.802213,1149.143247,888.247130,8068.244768
3771.802528,689.485948,-0.000000,8364.327145
3771.802842,76.609550,-740.205942,9252.574275
3771.803157,-689.485948,-1036.288319,10436.903782
3771.803472,-1302.362347,-1110.308913,10584.944971
3771.803786,-766.095498,-1258.350101,10140.821405
3771.804101,-612.876398,-666.185348,10510.924376
3771.804416,-919.314598,-74.020594,9844.739029
3771.804730,153.219100,74.020594,9178.553681
3771.805045,842.705048,370.102971,9474.636058
3771.805359,919.314598,888.247130,9030.512492
3771.805674,1225.752797,1036.288319,8660.409521
3771.805989,1608.800546,1480.411884,8290.306550
3771.806303,1838.629195,1332.370696,8660.409521
3771.806618,1378.971896,1702.473667,8586.388927
3771.806932,612.876398,1036.288319,8882.471304
3771.807247,306.438199,-74.020594,9844.739029
3771.807562,-306.438199,-592.164754,10732.986159
3771.807876,-919.314598,-370.102971,11251.130318
3771.808191,-1455.581446,-444.123565,10881.027347
3771.808505,-1532.190996,-296.082377,10881.027347
3771.808820,-1455.581446,-0.000000,10584.944971
3771.809135,-536.266849,296.082377,9696.697840
3771.809449,306.438199,296.082377,9252.574275
3771.809764,459.657299,444.123565,9548.656652
3771.810078,1149.143247,1184.329507,8586.388927
3771.810393,1072.533697,1480.411884,8808.450710
3771.810708,1378.971896,1554.432478,8956.491898
3771.811022,766.095498,1480.411884,8808.450710
3771.811337,842.705048,888.247130,8882.471304
3771.811651,153.219100,-222.061783,9548.656652
3771.811966,-919.314598,-296.082377,10288.862594
3771.812281,-1762.019645,-370.102971,10584.944971
3771.812595,-1915.238745,-592.164754,11177.109724
3771.812910,-1455.581446,-74.020594,10881.027347
3771.813225,-995.924147,592.164754,10658.965565
3771.813539,-306.438199,296.082377,9696.697840
3771.813854,536.266849,222.061783,9474.636058
3771.814168,919.314598,814.226536,9770.718434
3771.814483,1378.971896,1702.473667,9400.615463
3771.814798,1532.190996,2072.576638,9104.533087
3771.815112,2145.067394,1776.494261,9474.636058
3771.815427,1072.533697,1480.411884,9252.574275
3771.815741,1072.533697,1036.288319,9030.512492
3771.816056,919.314598,-148.041188,9770.718434
3771.816371,0.000000,-148.041188,10510.924376
3771.816685,-842.705048,-296.082377,10658.965565
3771.817000,-919.314598,-666.185348,10436.903782
3771.817314,-1532.190996,-814.226536,10658.965565
3771.817629,-1378.971896,-148.041188,10288.862594
3771.817944,153.219100,-222.061783,9770.718434
3771.818258,0.000000,-222.061783,9622.677246
3771.818573,459.657299,222.061783,9992.780217
3771.818887,612.876398,666.185348,9474.636058
3771.819202,995.924147,888.247130,9474.636058
3771.819517,1532.190996,962.267725,9474.636058
3771.819831,995.924147,814.226536,9104.533087
3771.820146,1225.752797,-0.000000,8586.388927
3771.820461,919.314598,-296.082377,9104.533087
3771.820775,306.438199,-444.123565,9474.636058
3771.821090,-689.485948,-1036.288319,9474.636058
3771.821404,-1072.533697,-1332.370696,9474.636058
3771.821719,-919.314598,-1850.514855,9474.636058
3771.822034,-1072.533697,-1628.453072,9622.677246
3771.822348,-689.485948,-1776.494261,9104.533087
3771.822663,-383.047749,-1776.494261,9474.636058
3771.822977,0.000000,-1036.288319,9474.636058
3771.823292,229.828649,-0.000000,9548.656652
3771.823607,766.095498,592.164754,9474.636058
3771.823921,842.705048,888.247130,9548.656652
3771.824236,1378.971896,1258.350101,8068.244768
3771.824550,1532.190996,962.267725,8142.265362
3771.824865,1685.410096,666.185348,8290.306550
3771.825180,1302.362347,-148.041188,9178.553681
3771.825494,153.219100,-814.226536,8808.450710
3771.825809,-306.438199,-888.247130,9326.594869
3771.826123,-459.657299,-666.185348,9622.677246
3771.826438,-1072.533697,-740.205942,9252.574275
3771.826753,-536.266849,-1110.308913,9696.697840
3771.827067,-919.314598,-1258.350101,10066.800811
3771.827382,-1225.752797,-1184.329507,9918.759623
3771.827696,-766.095498,-296.082377,9992.780217
3771.828011,-229.828649,592.164754,9770.718434
3771.828326,306.438199,1702.473667,10066.800811
3771.828640,995.924147,2368.659014,8512.368333
3771.828955,1225.752797,1924.535449,8808.450710
3771.829270,1302.362347,1480.411884,9030.512492
3771.829584,919.314598,1110.308913,9622.677246
3771.829899,459.657299,592.164754,9474.636058
3771.830213,-306.438199,370.102971,9992.780217
3771.830528,-689.485948,-0.000000,10807.006753
3771.830843,-1302.362347,-148.041188,10362.883188
3771.831157,-1302.362347,-74.020594,10807.006753
3771.831472,-1302.362347,-592.164754,10658.965565
3771.831786,-842.705048,-666.185348,10955.047942
3771.832101,-612.876398,370.102971,10288.862594
3771.832416,0.000000,1036.288319,9844.739029
3771.832730,842.705048,1628.453072,9474.636058
3771.833045,1455.581446,1628.453072,8660.409521
3771.833359,1915.238745,1776.494261,7772.162391
3771.833674,1838.629195,1184.329507,9030.512492
3771.833989,1685.410096,888.247130,9252.574275
3771.834303,689.485948,592.164754,9918.759623
3771.834618,76.609550,666.185348,10214.842000
3771.834932,-689.485948,444.123565,10436.903782
3771.835247,-689.485948,-0.000000,10288.862594
3771.835562,-536.266849,-0.000000,10732.986159
3771.835876,-306.438199,-74.020594,10658.965565
3771.836191,-919.314598,-592.164754,10362.883188
3771.836506,-842.705048,222.061783,10140.821405
3771.836820,0.000000,888.247130,10288.862594
3771.837135,536.266849,1110.308913,9622.677246
3771.837449,1302.362347,1628.453072,8734.430116
3771.837764,1685.410096,1036.288319,8068.244768
3771.838079,1455.581446,592.164754,8438.347739
3771.838393,1455.581446,518.144159,9030.512492
3771.838708,383.047749,-0.000000,9622.677246
3771.839022,0.000000,222.061783,9622.677246
3771.839337,0.000000,-74.020594,10510.924376
3771.839652,-459.657299,-148.041188,9696.697840
3771.839966,-306.438199,-74.020594,9918.759623
3771.840281,0.000000,-444.123565,9844.739029
3771.840595,0.000000,-370.102971,10214.842000
3771.840910,229.828649,-0.000000,9326.594869
3771.841225,383.047749,370.102971,9178.553681
3771.841539,1225.752797,296.082377,9030.512492
3771.841854,1378.971896,888.247130,8808.450710
3771.842168,1378.971896,1110.308913,8512.368333
3771.842483,1378.971896,296.082377,8586.388927
3771.842798,842.705048,-0.000000,9474.636058
3771.843112,0.000000,-0.000000,9474.636058
3771.843427,0.000000,-666.185348,9770.718434
3771.843741,0.000000,-592.164754,9992.780217
3771.844056,-1302.362347,-1036.288319,9770.718434
3771.844371,-1225.752797,-888.247130,9844.739029
3771.844685,-995.924147,-1036.288319,9400.615463
3771.845000,-842.705048,-888.247130,10140.821405
3771.845315,-536.266849,-1036.288319,10214.842000
3771.845629,0.000000,-518.144159,9104.533087
3771.845944,153.219100,-148.041188,9548.656652
3771.846258,229.828649,444.123565,9400.615463
3771.846573,306.438199,370.102971,8808.450710
3771.846888,0.000000,-148.041188,9104.533087
3771.847202,0.000000,-296.082377,9770.718434
3771.847517,-229.828649,-518.144159,9844.739029
3771.847831,-459.657299,-888.247130,10288.862594
3771.848146,-612.876398,-0.000000,10066.800811
3771.848461,-612.876398,-0.000000,9992.780217
3771.848775,-612.876398,74.020594,9844.739029
3771.849090,-153.219100,-222.061783,9622.677246
3771.849404,0.000000,-740.205942,10140.821405
3771.849719,0.000000,-740.205942,10288.862594
3771.850034,-459.657299,-0.000000,9918.759623
3771.850348,0.000000,370.102971,9770.718434
3771.850663,0.000000,1036.288319,9548.656652
3771.850977,76.609550,962.267725,9400.615463
3771.851292,459.657299,444.123565,9400.615463
3771.851607,153.219100,-518.144159,9770.718434
3771.851921,536.266849,-74.020594,9548.656652
3771.852236,76.609550,-0.000000,9548.656652
3771.852551,306.438199,-0.000000,9770.718434
3771.852865,0.000000,444.123565,9474.636058
3771.853180,76.609550,370.102971,9178.553681
3771.853494,383.047749,-222.061783,9104.533087
3771.853809,919.314598,-74.020594,9622.677246
3771.854124,306.438199,296.082377,9400.615463
3771.854438,0.000000,592.164754,9622.677246
3771.854753,76.609550,444.123565,9918.759623
3771.855067,76.609550,296.082377,10140.821405
3771.855382,76.609550,222.061783,9178.553681
3771.855697,612.876398,-296.082377,9252.574275
3771.856011,459.657299,-0.000000,10288.862594
3771.856326,0.000000,148.041188,9548.656652
3771.856640,612.876398,814.226536,9696.697840
3771.856955,459.657299,814.226536,9474.636058
3771.857270,919.314598,740.205942,9474.636058
3771.857584,995.924147,888.247130,8882.471304
3771.857899,919.314598,148.041188,8956.491898
3771.858213,612.876398,-0.000000,9548.656652
3771.858528,306.438199,148.041188,9918.759623
3771.858843,76.609550,592.164754,9696.697840
3771.859157,76.609550,148.041188,9548.656652
3771.859472,229.828649,296.082377,9252.574275
3771.859786,-229.828649,592.164754,9474.636058
3771.860101,0.000000,74.020594,9696.697840
3771.860416,76.609550,370.102971,9844.739029
3771.860730,76.609550,518.144159,10584.944971
3771.861045,0.000000,962.267725,9474.636058
3771.861360,229.828649,296.082377,9770.718434
3771.861674,612.876398,888.247130,9696.697840
3771.861989,459.657299,1110.308913,9178.553681
3771.862303,536.266849,740.205942,9474.636058
3771.862618,383.047749,962.267725,9474.636058
3771.862933,229.828649,1036.288319,9548.656652
3771.863247,-153.219100,518.144159,9622.677246
3771.863562,-536.266849,-0.000000,9992.780217
3771.863876,-153.219100,-0.000000,9178.553681
3771.864191,-459.657299,-0.000000,9252.574275
3771.864506,-383.047749,-0.000000,9326.594869
3771.864820,-536.266849,-444.123565,10436.903782
3771.865135,0.000000,-74.020594,10140.821405
3771.865449,-153.219100,-148.041188,10214.842000
3771.865764,0.000000,296.082377,9622.677246
3771.866079,-153.219100,148.041188,9844.739029
3771.866393,153.219100,666.185348,8586.388927
3771.866708,383.047749,-296.082377,9548.656652
3771.867022,0.000000,-444.123565,9548.656652
3771.867337,0.000000,-740.205942,9992.780217
3771.867652,0.000000,-444.123565,9770.718434
3771.867966,306.438199,-740.205942,10140.821405
3771.868281,0.000000,-0.000000,9770.718434
3771.868596,0.000000,-0.000000,9030.512492
3771.868910,229.828649,-222.061783,9104.533087
3771.869225,306.438199,-1110.308913,9844.739029
3771.869539,76.609550,-814.226536,9770.718434
3771.869854,0.000000,-814.226536,9770.718434
3771.870169,0.000000,-888.247130,9770.718434
3771.870483,76.609550,-666.185348,9696.697840
3771.870798,229.828649,-0.000000,9548.656652
3771.871112,612.876398,-148.041188,9474.636058
3771.871427,306.438199,-444.123565,9770.718434
3771.871742,383.047749,-0.000000,9400.615463
3771.872056,536.266849,-74.020594,9252.574275
3771.872371,459.657299,-74.020594,9326.594869
3771.872685,306.438199,-370.102971,9474.636058
3771.873000,76.609550,-0.000000,8734.430116
3771.873315,383.047749,-222.061783,8808.450710
3771.873629,306.438199,-740.205942,9474.636058
3771.873944,-229.828649,-518.144159,10066.800811
3771.874258,0.000000,-222.061783,9770.718434
3771.874573,-383.047749,-222.061783,10140.821405
3771.874888,-306.438199,370.102971,10066.800811
3771.875202,76.609550,444.123565,8956.491898
3771.875517,536.266849,-148.041188,9252.574275
3771.875832,689.485948,-370.102971,9474.636058
3771.876146,1149.143247,-0.000000,9104.533087
3771.876461,459.657299,296.082377,8956.491898
3771.876775,689.485948,592.164754,9178.553681
3771.877090,536.266849,592.164754,9104.533087
3771.877405,153.219100,-148.041188,8956.491898
3771.877719,153.219100,444.123565,8956.491898
3771.878034,76.609550,-666.185348,9770.718434
3771.878348,-306.438199,-74.020594,9992.780217
3771.878663,-689.485948,-0.000000,10288.862594
3771.878978,-459.657299,444.123565,10288.862594
3771.879292,-306.438199,518.144159,10214.842000
3771.879607,153.219100,1110.308913,9400.615463
3771.879921,766.095498,1036.288319,9548.656652
3771.880236,919.314598,1480.411884,9326.594869
3771.880551,612.876398,740.205942,9770.718434
3771.880865,229.828649,1332.370696,9474.636058
3771.881180,536.266849,814.226536,9548.656652
3771.881494,76.609550,1036.288319,9770.718434
3771.881809,0.000000,1036.288319,9844.739029
3771.882124,0.000000,592.164754,9696.697840
3771.882438,-229.828649,222.061783,10066.800811
3771.882753,-689.485948,444.123565,10584.944971
3771.883067,-689.485948,444.123565,10658.965565
3771.883382,-919.314598,592.164754,10881.027347
3771.883697,-459.657299,888.247130,10584.944971
3771.884011,-383.047749,1332.370696,9474.636058
3771.884326,229.828649,1110.308913,9326.594869
3771.884641,1149.143247,1110.308913,9770.718434
3771.884955,612.876398,962.267725,9474.636058
3771.885270,766.095498,1628.453072,9178.553681
3771.885585,766.095498,1258.350101,9474.636058
3771.885899,153.219100,1628.453072,9400.615463
3771.886214,306.438199,222.061783,9918.759623
3771.886528,229.828649,-0.000000,10066.800811
3771.886843,-153.219100,-518.144159,10584.944971
3771.887158,-536.266849,-1036.288319,10658.965565
3771.887472,-689.485948,-444.123565,10732.986159
3771.887787,-383.047749,-74.020594,10214.842000
3771.888102,766.095498,-148.041188,9844.739029
3771.888416,306.438199,444.123565,8882.471304
3771.888731,995.924147,-0.000000,8290.306550
3771.889046,1762.019645,-0.000000,9030.512492
3771.889360,1225.752797,296.082377,8586.388927
3771.889675,766.095498,296.082377,8660.409521
3771.889989,766.095498,-444.123565,8734.430116
3771.890304,536.266849,-518.144159,9474.636058
3771.890619,153.219100,-296.082377,9104.533087
3771.890933,153.219100,-666.185348,9770.718434
3771.891248,0.000000,-666.185348,9844.739029
3771.891563,-689.485948,-1258.350101,10436.903782
3771.891877,-919.314598,-1036.288319,10066.800811
3771.892192,-459.657299,-1110.308913,10214.842000
3771.892506,0.000000,-1110.308913,9992.780217
3771.892821,0.000000,-148.041188,9326.594869
3771.893136,306.438199,-74.020594,9030.512492
3771.893450,612.876398,-296.082377,9030.512492
3771.893765,766.095498,222.061783,8882.471304
3771.894080,612.876398,222.061783,8364.327145
3771.894394,612.876398,-666.185348,8956.491898
3771.894709,536.266849,-222.061783,9400.615463
3771.895024,0.000000,-148.041188,8808.450710
3771.895338,-153.219100,-296.082377,9326.594869
3771.895653,0.000000,-814.226536,9696.697840
3771.895967,-306.438199,-814.226536,10066.800811
3771.896282,-842.705048,-814.226536,9992.780217
3771.896597,-995.924147,-592.164754,9992.780217
3771.896911,-612.876398,-296.082377,9844.739029
3771.897226,-306.438199,-148.041188,8882.471304
3771.897541,383.047749,-0.000000,8734.430116
3771.897855,766.095498,-0.000000,8882.471304
3771.898170,459.657299,296.082377,9326.594869
3771.898485,689.485948,814.226536,9400.615463
3771.898799,-229.828649,740.205942,8882.471304
3771.899114,612.876398,814.226536,8956.491898
3771.899428,306.438199,666.185348,8956.491898
3771.899743,76.609550,370.102971,8734.430116
3771.900058,153.219100,-592.164754,9844.739029
3771.900372,-612.876398,-296.082377,10584.944971
3771.900687,-1149.143247,-148.041188,10658.965565
3771.901002,-995.924147,-0.000000,9770.718434
3771.901316,-842.705048,148.041188,10510.924376
3771.901631,-459.657299,666.185348,10288.862594
3771.901945,-153.219100,518.144159,9918.759623
3771.902260,383.047749,444.123565,10510.924376
3771.902575,0.000000,666.185348,9918.759623
3771.902889,153.219100,1184.329507,9770.718434
3771.903204,766.095498,666.185348,9770.718434
3771.903519,842.705048,1110.308913,9474.636058
3771.903833,459.657299,1332.370696,9400.615463
3771.904148,842.705048,1184.329507,8882.471304
3771.904463,536.266849,444.123565,9178.553681
3771.904777,0.000000,-0.000000,9992.780217
3771.905092,-612.876398,148.041188,10066.800811
3771.905406,-536.266849,-370.102971,10214.842000
3771.905721,-459.657299,-0.000000,10807.006753
3771.906036,-536.266849,370.102971,10807.006753
3771.906350,0.000000,592.164754,10214.842000
3771.906665,306.438199,666.185348,9992.780217
3771.906980,612.876398,962.267725,9992.780217
3771.907294,1149.143247,1924.535449,9400.615463
3771.907609,1608.800546,1480.411884,9178.553681
3771.907924,1608.800546,1480.411884,8882.471304
3771.908238,1608.800546,1258.350101,8364.327145
3771.908553,1455.581446,962.267725,8216.285956
3771.908867,1149.143247,370.102971,8660.409521
3771.909182,842.705048,-0.000000,9696.697840
3771.909497,0.000000,-518.144159,9548.656652
3771.909811,-766.095498,-444.123565,9770.718434
3771.910126,-1149.143247,-1184.329507,9992.780217
3771.910441,-1149.143247,-518.144159,10436.903782
3771.910755,-459.657299,-296.082377,10214.842000
3771.911070,0.000000,-666.185348,10214.842000
3771.911385,153.219100,-0.000000,9696.697840
3771.911699,306.438199,518.144159,9178.553681
3771.912014,995.924147,888.247130,8734.430116
3771.912328,1455.581446,962.267725,9252.574275
3771.912643,919.314598,1332.370696,8734.430116
3771.912958,1072.533697,814.226536,7994.224174
3771.913272,536.266849,-370.102971,8586.388927
3771.913587,-306.438199,-962.267725,9770.718434
3771.913902,-766.095498,-1776.494261,10510.924376
3771.914216,-1608.800546,-1258.350101,10584.944971
3771.914531,-1991.848295,-1036.288319,11103.089130
3771.914845,-1608.800546,-592.164754,10510.924376
3771.915160,-995.924147,-518.144159,9696.697840
3771.915475,0.000000,-296.082377,10066.800811
3771.915789,842.705048,-814.226536,9474.636058
3771.916104,919.314598,-74.020594,8882.471304
3771.916419,1302.362347,666.185348,8586.388927
3771.916733,1378.971896,518.144159,9030.512492
3771.917048,1378.971896,962.267725,8068.244768
3771.917363,995.924147,370.102971,7994.224174
3771.917677,1149.143247,-74.020594,9104.533087
3771.917992,0.000000,-74.020594,9770.718434
3771.918306,-842.705048,-518.144159,10066.800811
3771.918621,-995.924147,-814.226536,10362.883188
3771.918936,-1149.143247,-814.226536,10584.944971
3771.919250,-995.924147,-222.061783,10658.965565
3771.919565,-842.705048,-222.061783,9918.759623
3771.919880,-153.219100,-518.144159,9770.718434
3771.920194,0.000000,-296.082377,9474.636058
3771.920509,153.219100,740.205942,9030.512492
3771.920824,919.314598,962.267725,8438.347739
3771.921138,1378.971896,814.226536,8438.347739
3771.921453,1455.581446,1184.329507,8290.306550
3771.921767,612.876398,518.144159,8438.347739
3771.922082,842.705048,-74.020594,9252.574275
3771.922397,76.609550,-518.144159,9844.739029
3771.922711,-229.828649,-444.123565,10436.903782
3771.923026,-919.314598,-592.164754,10436.903782
3771.923341,-1149.143247,-518.144159,10807.006753
3771.923655,-919.314598,74.020594,10658.965565
3771.923970,-842.705048,-148.041188,9992.780217
3771.924284,0.000000,-222.061783,9696.697840
3771.924599,76.609550,-0.000000,9918.759623
3771.924914,536.266849,518.144159,9548.656652
3771.925228,766.095498,814.226536,9696.697840
3771.925543,1072.533697,1258.350101,9622.677246
3771.925858,1072.533697,1332.370696,9400.615463
3771.926172,995.924147,1258.350101,9104.533087
3771.926487,842.705048,1110.308913,9252.574275
3771.926802,306.438199,296.082377,9770.718434
3771.927116,-229.828649,-148.041188,10214.842000
3771.927431,-536.266849,-518.144159,10214.842000
3771.927745,-766.095498,-0.000000,10732.986159
3771.928060,-919.314598,-0.000000,10066.800811
3771.928375,-612.876398,-148.041188,9548.656652
3771.928689,0.000000,-0.000000,9622.677246
3771.929004,229.828649,-0.000000,10066.800811
3771.929319,459.657299,814.226536,10140.821405
3771.929633,1072.533697,1628.453072,8734.430116
3771.929948,1149.143247,1406.391290,9326.594869
3771.930263,919.314598,1702.473667,8882.471304
3771.930577,1072.533697,962.267725,8882.471304
3771.930892,842.705048,296.082377,9622.677246
3771.931206,383.047749,-148.041188,10214.842000
3771.931521,0.000000,-0.000000,9474.636058
3771.931836,-612.876398,-0.000000,9770.718434
3771.932150,-689.485948,-592.164754,10140.821405
3771.932465,-459.657299,-370.102971,9992.780217
3771.932780,-229.828649,-74.020594,9104.533087
3771.933094,-153.219100,-74.020594,9030.512492
3771.933409,0.000000,-296.082377,9474.636058
3771.933723,0.000000,296.082377,9696.697840
3771.934038,383.047749,444.123565,9844.739029
3771.934353,766.095498,518.144159,9104.533087
3771.934667,919.314598,740.205942,8956.491898
3771.934982,1072.533697,666.185348,8660.409521
3771.935297,1302.362347,444.123565,8808.450710
3771.935611,766.095498,74.020594,9400.615463
3771.935926,-306.438199,222.061783,9178.553681
3771.936241,-612.876398,-444.123565,10140.821405
3771.936555,-689.485948,-962.267725,10362.883188
3771.936870,-1149.143247,-666.185348,10214.842000
3771.937184,-842.705048,-888.247130,10140.821405
3771.937499,-689.485948,-518.144159,10288.862594
3771.937814,-766.095498,-592.164754,10510.924376
3771.938128,0.000000,-0.000000,10288.862594
3771.938443,459.657299,296.082377,10362.883188
3771.938758,919.314598,1406.391290,9400.615463
3771.939072,995.924147,1628.453072,8734.430116
3771.939387,1302.362347,1480.411884,8290.306550
3771.939702,1072.533697,592.164754,8956.491898
3771.940016,612.876398,-74.020594,9474.636058
3771.940331,306.438199,-444.123565,9474.636058
3771.940645,-229.828649,-0.000000,9326.594869
3771.940960,-459.657299,-296.082377,10066.800811
3771.941275,-612.876398,-0.000000,9622.677246
3771.941589,-612.876398,-592.164754,9696.697840
3771.941904,-842.705048,-814.226536,9622.677246
3771.942219,-536.266849,-444.123565,9918.759623
3771.942533,-459.657299,-222.061783,9770.718434
3771.942848,0.000000,-74.020594,10362.883188
3771.943162,229.828649,444.123565,9992.780217
3771.943477,306.438199,740.205942,9770.718434
3771.943792,995.924147,1406.391290,7772.162391
3771.944106,995.924147,592.164754,8660.409521
3771.944421,919.314598,296.082377,8956.491898
3771.944736,612.876398,-148.041188,9548.656652
3771.945050,383.047749,-444.123565,9622.677246
3771.945365,-766.095498,-814.226536,10066.800811
3771.945680,-1072.533697,-370.102971,10510.924376
3771.945994,-919.314598,-740.205942,9770.718434
3771.946309,-612.876398,-814.226536,10288.862594
3771.946623,-766.095498,-1184.329507,10362.883188
3771.946938,-612.876398,-814.226536,10066.800811
3771.947253,-153.219100,-222.061783,9992.780217
3771.947567,76.609550,148.041188,9918.759623
3771.947882,612.876398,1110.308913,9178.553681
3771.948197,1072.533697,962.267725,8290.306550
3771.948511,1838.629195,370.102971,8290.306550
3771.948826,1455.581446,-0.000000,8956.491898
3771.949141,995.924147,148.041188,9030.512492
3771.949455,383.047749,592.164754,9252.574275
3771.949770,0.000000,-0.000000,10214.842000
3771.950084,-766.095498,-0.000000,10066.800811
3771.950399,-459.657299,-0.000000,9696.697840
3771.950714,-459.657299,-444.123565,10140.821405
3771.951028,-536.266849,-740.205942,10658.965565
3771.951343,-383.047749,-74.020594,9770.718434
3771.951658,0.000000,666.185348,9770.718434
3771.951972,842.705048,1406.391290,9844.739029
3771.952287,842.705048,1776.494261,9326.594869
3771.952601,1532.190996,1628.453072,8512.368333
3771.952916,1915.238745,814.226536,8956.491898
3771.953231,1838.629195,666.185348,9326.594869
3771.953545,919.314598,444.123565,9400.615463
3771.953860,306.438199,592.164754,9474.636058
3771.954175,153.219100,-0.000000,10066.800811
3771.954489,-306.438199,370.102971,9918.759623
3771.954804,0.000000,444.123565,9474.636058
3771.955119,0.000000,-370.102971,9770.718434
3771.955433,-229.828649,-814.226536,10584.944971
3771.955748,-842.705048,-370.102971,10510.924376
3771.956062,-612.876398,222.061783,9474.636058
3771.956377,-153.219100,370.102971,9918.759623
3771.956692,153.219100,740.205942,9696.697840
3771.957006,459.657299,370.102971,9548.656652
3771.957321,1225.752797,444.123565,9104.533087
3771.957636,842.705048,-0.000000,9770.718434
3771.957950,0.000000,814.226536,10066.800811
3771.958265,-229.828649,740.205942,9992.780217
3771.958580,-306.438199,222.061783,10214.842000
3771.958894,-459.657299,-0.000000,10066.800811
3771.959209,-306.438199,-0.000000,9400.615463
3771.959523,0.000000,-740.205942,9400.615463
3771.959838,-229.828649,-962.267725,9992.780217
3771.960153,-612.876398,-370.102971,10362.883188
3771.960467,-766.095498,-0.000000,9696.697840
3771.960782,-383.047749,518.144159,9770.718434
3771.961097,153.219100,666.185348,9474.636058
3771.961411,383.047749,444.123565,9326.594869
3771.961726,995.924147,518.144159,8956.491898
3771.962041,919.314598,666.185348,9474.636058
3771.962355,76.609550,1110.308913,9400.615463
3771.962670,0.000000,666.185348,9326.594869
3771.962984,383.047749,444.123565,9474.636058
3771.963299,0.000000,666.185348,9326.594869
3771.963614,229.828649,592.164754,8364.327145
3771.963928,-76.609550,222.061783,9548.656652
3771.964243,0.000000,-74.020594,9548.656652
3771.964558,-536.266849,-148.041188,9622.677246
3771.964872,-766.095498,-370.102971,9178.553681
3771.965187,-229.828649,-740.205942,9474.636058
3771.965501,0.000000,148.041188,9844.739029
3771.965816,0.000000,296.082377,8882.471304
3771.966131,0.000000,222.061783,9326.594869
3771.966445,383.047749,-0.000000,9844.739029
3771.966760,153.219100,-0.000000,9326.594869
3771.967075,689.485948,-0.000000,9474.636058
3771.967389,842.705048,-0.000000,9844.739029
3771.967704,306.438199,-0.000000,9622.677246
3771.968019,383.047749,666.185348,8734.430116
3771.968333,76.609550,-0.000000,9474.636058
3771.968648,0.000000,-296.082377,9992.780217
3771.968962,0.000000,-666.185348,10140.821405
3771.969277,-306.438199,-666.185348,10214.842000
3771.969592,-306.438199,-962.267725,10214.842000
3771.969906,-612.876398,-296.082377,9992.780217
3771.970221,229.828649,-74.020594,9474.636058
3771.970536,459.657299,-296.082377,9548.656652
3771.970850,306.438199,-74.020594,10288.862594
3771.971165,459.657299,-0.000000,9548.656652
3771.971480,612.876398,-0.000000,9252.574275
3771.971794,536.266849,148.041188,9696.697840
3771.972109,459.657299,518.144159,9548.656652
3771.972423,612.876398,1036.288319,8882.471304
3771.972738,842.705048,518.144159,8808.450710
3771.973053,612.876398,-222.061783,9992.780217
3771.973367,-76.609550,-666.185348,9844.739029
3771.973682,-229.828649,-0.000000,10436.903782
3771.973997,-536.266849,-0.000000,10584.944971
3771.974311,-229.828649,-0.000000,10214.842000
3771.974626,-536.266849,444.123565,9696.697840
3771.974940,229.828649,296.082377,9252.574275
3771.975255,612.876398,-222.061783,9918.759623
3771.975570,229.828649,-0.000000,9030.512492
3771.975884,383.047749,444.123565,8882.471304
3771.976199,459.657299,518.144159,9474.636058
3771.976514,153.219100,962.267725,9178.553681
3771.976828,153.219100,814.226536,9178.553681
3771.977143,306.438199,-0.000000,9252.574275
3771.977458,612.876398,-370.102971,9474.636058
3771.977772,-536.266849,-296.082377,9844.739029
3771.978087,-919.314598,-0.000000,9844.739029
3771.978401,-766.095498,-222.061783,10436.903782
3771.978716,-612.876398,-296.082377,9696.697840
3771.979031,-306.438199,-518.144159,9178.553681
3771.979345,0.000000,-148.041188,9104.533087
3771.979660,536.266849,-222.061783,9696.697840
3771.979975,459.657299,-0.000000,9326.594869
3771.980289,153.219100,-0.000000,9178.553681
3771.980604,229.828649,-0.000000,9474.636058
3771.980919,229.828649,148.041188,9474.636058
3771.981233,306.438199,222.061783,9326.594869
3771.981548,536.266849,-148.041188,9326.594869
3771.981862,306.438199,-962.267725,9844.739029
3771.982177,-383.047749,-0.000000,9696.697840
3771.982492,-229.828649,444.123565,9474.636058
3771.982806,0.000000,-0.000000,9844.739029
3771.983121,-229.828649,370.102971,9770.718434
3771.983436,-76.609550,444.123565,9326.594869
3771.983750,383.047749,666.185348,9104.533087
3771.984065,229.828649,148.041188,9400.615463
3771.984379,153.219100,222.061783,9622.677246
3771.984694,0.000000,888.247130,9992.780217
3771.985009,229.828649,740.205942,9918.759623
3771.985323,153.219100,1184.329507,9992.780217
3771.985638,0.000000,1480.411884,9474.636058
3771.985953,689.485948,1480.411884,9474.636058
3771.986267,689.485948,666.185348,9030.512492
3771.986582,383.047749,962.267725,9030.512492
3771.986897,76.609550,1110.308913,9770.718434
3771.987211,383.047749,592.164754,9696.697840
3771.987526,383.047749,814.226536,9474.636058
3771.987841,0.000000,740.205942,9178.553681
3771.988155,229.828649,-0.000000,9400.615463
3771.988470,0.000000,-296.082377,9992.780217
3771.988784,-689.485948,-0.000000,10658.965565
3771.989099,-536.266849,222.061783,10955.047942
3771.989414,76.609550,296.082377,10584.944971
3771.989728,383.047749,296.082377,10140.821405
3771.990043,536.266849,1036.288319,9918.759623
3771.990358,842.705048,814.226536,9548.656652
3771.990672,1149.143247,518.144159,9918.759623
3771.990987,459.657299,74.020594,9548.656652
3771.991302,612.876398,370.102971,9178.553681
3771.991616,306.438199,-222.061783,9252.574275
3771.991931,76.609550,-666.185348,9918.759623
3771.992245,0.000000,-370.102971,9622.677246
3771.992560,-842.705048,-444.123565,9622.677246
3771.992875,-383.047749,-814.226536,10066.800811
3771.993189,-842.705048,-1258.350101,10584.944971
3771.993504,-536.266849,-888.247130,10214.842000
3771.993819,-229.828649,-444.123565,9548.656652
3771.994133,0.000000,-0.000000,9252.574275
3771.994448,536.266849,518.144159,9178.553681
3771.994763,689.485948,518.144159,8290.306550
3771.995077,1072.533697,-0.000000,8956.491898
3771.995392,612.876398,296.082377,9104.533087
3771.995707,536.266849,888.247130,8956.491898
3771.996021,306.438199,296.082377,8660.409521
3771.996336,0.000000,-0.000000,9474.636058
3771.996650,-459.657299,-0.000000,9474.636058
3771.996965,-612.876398,-518.144159,9400.615463
3771.997280,-1149.143247,-740.205942,9696.697840
3771.997594,-1149.143247,-1036.288319,10658.965565
3771.997909,-1302.362347,-592.164754,10584.944971
3771.998224,-536.266849,-592.164754,9992.780217
3771.998538,0.000000,-0.000000,9696.697840
3771.998853,459.657299,888.247130,8660.409521
3771.999168,1378.971896,1184.329507,8216.285956
3771.999482,2068.457845,592.164754,8216.285956
3771.999797,1455.581446,296.082377,8660.409521
3772.000111,766.095498,444.123565,8586.388927
3772.000426,612.876398,-0.000000,8808.450710
3772.000741,153.219100,-518.144159,9474.636058
3772.001055,-536.266849,-370.102971,9474.636058
3772.001370,-842.705048,-444.123565,9918.759623
3772.001685,-919.314598,-1702.473667,10288.862594
3772.001999,-1532.190996,-1406.391290,10658.965565
3772.002314,-1532.190996,-888.247130,10807.006753
3772.002629,-1072.533697,-1036.288319,10732.986159
3772.002943,-536.266849,-222.061783,10732.986159
3772.003258,0.000000,518.144159,9622.677246
3772.003573,995.924147,666.185348,8882.471304
3772.003887,1991.848295,518.144159,9474.636058
3772.004202,1762.019645,888.247130,9548.656652
3772.004516,1378.971896,962.267725,9030.512492
3772.004831,1149.143247,740.205942,8956.491898
3772.005146,842.705048,666.185348,10288.862594
3772.005460,306.438199,370.102971,9474.636058
3772.005775,0.000000,-296.082377,9252.574275
3772.006090,-459.657299,-1184.329507,10510.924376
3772.006404,-1072.533697,-1184.329507,10510.924376
3772.006719,-842.705048,-222.061783,10658.965565
3772.007034,-229.828649,-0.000000,10362.883188
3772.007348,459.657299,666.185348,10214.842000
3772.007663,842.705048,1850.514855,9474.636058
3772.007977,1685.410096,2220.617826,8216.285956
3772.008292,2145.067394,1184.329507,9252.574275
3772.008607,1915.238745,1702.473667,8882.471304
3772.008921,1455.581446,1924.535449,8586.388927
3772.009236,1455.581446,1406.391290,9326.594869
3772.009551,766.095498,1554.432478,8882.471304
3772.009865,-306.438199,1332.370696,9178.553681
3772.010180,0.000000,222.061783,9548.656652
3772.010495,-306.438199,-444.123565,10140.821405
3772.010809,-919.314598,-444.123565,10214.842000
3772.011124,-842.705048,-222.061783,10140.821405
3772.011438,-1149.143247,-592.164754,10214.842000
3772.011753,-1072.533697,-444.123565,10807.006753
3772.012068,-459.657299,444.123565,9844.739029
3772.012382,0.000000,1110.308913,9030.512492
3772.012697,842.705048,666.185348,9474.636058
3772.013012,919.314598,1184.329507,9178.553681
3772.013326,995.924147,1850.514855,8438.347739
3772.013641,689.485948,1332.370696,8956.491898
3772.013956,229.828649,296.082377,9178.553681
3772.014270,-306.438199,222.061783,8808.450710
3772.014585,-1225.752797,-74.020594,8660.409521
3772.014900,-1685.410096,-1554.432478,9770.718434
