#time,accel_x,accel_y,accel_z
3757.871879,229.828649,-0.000000,9474.636058
3757.872193,0.000000,-0.000000,9474.636058
3757.872508,76.609550,-0.000000,9696.697840
3757.872822,536.266849,-0.000000,9400.615463
3757.873137,0.000000,-74.020594,9770.718434
3757.873451,536.266849,-0.000000,9474.636058
3757.873766,153.219100,148.041188,9844.739029
3757.874081,0.000000,148.041188,9474.636058
3757.874395,0.000000,222.061783,9104.533087
3757.874710,383.047749,-0.000000,9918.759623
3757.875024,76.609550,148.041188,9622.677246
3757.875339,229.828649,296.082377,9548.656652
3757.875653,229.828649,222.061783,9474.636058
3757.875968,0.000000,222.061783,9696.697840
3757.876282,306.438199,222.061783,9992.780217
3757.876597,0.000000,148.041188,9548.656652
3757.876911,0.000000,-0.000000,10066.800811
3757.877226,0.000000,148.041188,9474.636058
3757.877540,536.266849,-0.000000,9548.656652
3757.877855,0.000000,-0.000000,9696.697840
3757.878169,76.609550,222.061783,9474.636058
3757.878484,0.000000,222.061783,9696.697840
3757.878798,0.000000,-0.000000,9548.656652
3757.879113,76.609550,-0.000000,9474.636058
3757.879427,0.000000,74.020594,9474.636058
3757.879742,0.000000,-0.000000,9548.656652
3757.880056,0.000000,-0.000000,9622.677246
3757.880371,76.609550,222.061783,9400.615463
3757.880685,153.219100,148.041188,9474.636058
3757.881000,229.828649,-0.000000,9622.677246
3757.881314,0.000000,-0.000000,9474.636058
3757.881629,0.000000,-0.000000,9548.656652
3757.881943,153.219100,-0.000000,9770.718434
3757.882258,229.828649,-222.061783,9400.615463
3757.882572,229.828649,-0.000000,9326.594869
3757.882887,0.000000,-0.000000,9696.697840
3757.883201,229.828649,-0.000000,9474.636058
3757.883516,153.219100,-0.000000,9696.697840
3757.883830,153.219100,-0.000000,9696.697840
3757.884145,76.609550,296.082377,9548.656652
3757.884459,153.219100,222.061783,9474.636058
3757.884774,76.609550,-0.000000,9474.636058
3757.885088,0.000000,370.102971,9474.636058
3757.885403,0.000000,-0.000000,9622.677246
3757.885717,153.219100,-0.000000,10066.800811
3757.886032,76.609550,222.061783,9770.718434
3757.886346,306.438199,370.102971,9844.739029
3757.886661,689.485948,-0.000000,9474.636058
3757.886975,0.000000,370.102971,9770.718434
3757.887290,229.828649,444.123565,9770.718434
3757.887604,76.609550,-0.000000,10066.800811
3757.887919,0.000000,296.082377,9770.718434
3757.888233,153.219100,-0.000000,9474.636058
3757.888548,229.828649,-0.000000,9474.636058
3757.888862,-153.219100,370.102971,9548.656652
3757.889177,-306.438199,-74.020594,9844.739029
3757.889491,0.000000,148.041188,9696.697840
3757.889806,153.219100,-0.000000,9622.677246
3757.890120,0.000000,296.082377,9548.656652
3757.890435,76.609550,222.061783,9696.697840
3757.890749,76.609550,-0.000000,9548.656652
3757.891064,76.609550,-0.000000,9548.656652
3757.891378,229.828649,-0.000000,9474.636058
3757.891693,229.828649,296.082377,9474.636058
3757.892007,383.047749,-0.000000,9548.656652
3757.892322,0.000000,296.082377,9548.656652
3757.892636,229.828649,-0.000000,9770.718434
3757.892951,306.438199,-0.000000,9548.656652
3757.893265,306.438199,444.123565,9548.656652
3757.893580,229.828649,-0.000000,9696.697840
3757.893894,0.000000,-0.000000,9474.636058
3757.894209,0.000000,-0.000000,9474.636058
3757.894523,76.609550,-0.000000,9548.656652
3757.894838,76.609550,-74.020594,9474.636058
3757.895152,0.000000,-0.000000,9696.697840
3757.895467,229.828649,296.082377,9474.636058
3757.895781,306.438199,370.102971,9548.656652
3757.896096,76.609550,-0.000000,9622.677246
3757.896410,612.876398,222.061783,10140.821405
3757.896725,383.047749,-0.000000,10214.842000
3757.897039,229.828649,296.082377,9696.697840
3757.897354,459.657299,518.144159,9770.718434
3757.897668,536.266849,666.185348,9696.697840
3757.897983,842.705048,814.226536,9474.636058
3757.898297,766.095498,666.185348,9326.594869
3757.898612,689.485948,592.164754,8882.471304
3757.898926,919.314598,518.144159,9474.636058
3757.899241,612.876398,370.102971,9030.512492
3757.899555,383.047749,-0.000000,9622.677246
3757.899870,536.266849,370.102971,9770.718434
3757.900184,229.828649,370.102971,9770.718434
3757.900499,383.047749,592.164754,9696.697840
3757.900813,919.314598,1110.308913,9548.656652
3757.901128,995.924147,740.205942,9474.636058
3757.901442,1378.971896,888.247130,9548.656652
3757.901757,1685.410096,740.205942,9548.656652
3757.902071,1608.800546,962.267725,9992.780217
3757.902386,2145.067394,1184.329507,9622.677246
3757.902700,2604.724693,1184.329507,9918.759623
3757.903015,2681.334243,2146.597232,9622.677246
3757.903329,2987.772442,2442.679609,9104.533087
3757.903644,3217.601092,2220.617826,8660.409521
3757.903959,3907.087040,2220.617826,8586.388927
3757.904273,3447.429741,2072.576638,9104.533087
3757.904588,3294.210641,1998.556043,8586.388927
3757.904902,3447.429741,1924.535449,8660.409521
3757.905217,3753.867940,2294.638420,9030.512492
3757.905531,3524.039291,2368.659014,9178.553681
3757.905846,3370.820191,2812.782580,9474.636058
3757.906160,2911.162892,2886.803174,9326.594869
3757.906475,3140.991542,3182.885551,9548.656652
3757.906789,3064.381992,3330.926739,9400.615463
3757.907104,2911.162892,3182.885551,9030.512492
3757.907418,2911.162892,3552.988522,9696.697840
3757.907733,2757.943793,3330.926739,9474.636058
3757.908047,2451.505594,3627.009116,10288.862594
3757.908362,2374.896044,3552.988522,10362.883188
3757.908676,2298.286494,3627.009116,10881.027347
3757.908991,1915.238745,3997.112087,10510.924376
3757.909305,2145.067394,3849.070898,10584.944971
3757.909620,1838.629195,3849.070898,10658.965565
3757.909934,2145.067394,3478.967927,10658.965565
3757.910249,1225.752797,3404.947333,10955.047942
3757.910563,1225.752797,3478.967927,10436.903782
3757.910878,1838.629195,3627.009116,10140.821405
3757.911192,2298.286494,3627.009116,9918.759623
3757.911507,2068.457845,3552.988522,9622.677246
3757.911821,2221.676944,3478.967927,9770.718434
3757.912136,2145.067394,3404.947333,9770.718434
3757.912450,1915.238745,2886.803174,9918.759623
3757.912765,1915.238745,2886.803174,10140.821405
3757.913079,2068.457845,2738.761985,9918.759623
3757.913394,1915.238745,2812.782580,9696.697840
3757.913708,2068.457845,2738.761985,9770.718434
3757.914023,1991.848295,3034.844362,10066.800811
3757.914337,2145.067394,2886.803174,9696.697840
3757.914652,1685.410096,2812.782580,9474.636058
3757.914966,1915.238745,3108.864956,9770.718434
3757.915281,1915.238745,3034.844362,9252.574275
3757.915595,1991.848295,2664.741391,9178.553681
3757.915910,1608.800546,1924.535449,8660.409521
3757.916224,1378.971896,1998.556043,9252.574275
3757.916539,1378.971896,1702.473667,9992.780217
3757.916853,1302.362347,1406.391290,10362.883188
3757.917168,1302.362347,962.267725,10584.944971
3757.917482,1149.143247,1554.432478,9992.780217
3757.917797,1149.143247,1776.494261,9770.718434
3757.918111,1915.238745,2294.638420,10362.883188
3757.918426,2221.676944,2220.617826,9548.656652
3757.918740,2451.505594,2220.617826,8808.450710
3757.919055,2987.772442,2072.576638,8068.244768
3757.919369,3983.696590,2442.679609,8660.409521
3757.919684,3983.696590,2368.659014,8290.306550
3757.919998,3600.648841,1998.556043,8364.327145
3757.920313,3140.991542,1998.556043,8734.430116
3757.920627,2834.553343,1110.308913,8734.430116
3757.920942,2604.724693,1406.391290,8956.491898
3757.921256,2221.676944,962.267725,9030.512492
3757.921571,2068.457845,592.164754,9252.574275
3757.921885,1455.581446,370.102971,9474.636058
3757.922200,1455.581446,-0.000000,9992.780217
3757.922514,1685.410096,222.061783,10658.965565
3757.922829,1991.848295,962.267725,10658.965565
3757.923143,2374.896044,1406.391290,10214.842000
3757.923458,2987.772442,2146.597232,9770.718434
3757.923772,3447.429741,2220.617826,9326.594869
3757.924087,4213.525239,2886.803174,8808.450710
3757.924401,4213.525239,2664.741391,7698.141797
3757.924716,4136.915689,2664.741391,7920.203579
3757.925030,3524.039291,2072.576638,7846.182985
3757.925345,2528.115143,1110.308913,8216.285956
3757.925659,1378.971896,370.102971,9622.677246
3757.925974,536.266849,-370.102971,10807.006753
3757.926288,0.000000,-740.205942,11843.295072
3757.926603,-612.876398,-518.144159,12361.439231
3757.926917,-153.219100,-74.020594,12361.439231
3757.927232,536.266849,1406.391290,11843.295072
3757.927546,2068.457845,2368.659014,11177.109724
3757.927861,3294.210641,3330.926739,9918.759623
3757.928175,4366.744339,4367.215058,8364.327145
3757.928490,4903.011187,5181.441594,6809.894666
3757.928804,4903.011187,4959.379811,6661.853478
3757.929119,4903.011187,4145.153275,7476.080014
3757.929433,3907.087040,3108.864956,8586.388927
3757.929748,2834.553343,1480.411884,9252.574275
3757.930062,919.314598,518.144159,10658.965565
3757.930377,-842.705048,370.102971,12139.377449
3757.930691,-1532.190996,370.102971,12435.459826
3757.931006,-1072.533697,888.247130,12213.398043
3757.931320,-1149.143247,1776.494261,10881.027347
3757.931635,612.876398,2886.803174,9474.636058
3757.931949,1838.629195,4071.132681,8438.347739
3757.932264,3217.601092,3997.112087,7698.141797
3757.932578,4290.134789,4293.194464,7772.162391
3757.932893,4596.572988,3775.050304,7846.182985
3757.933207,4136.915689,3849.070898,8586.388927
3757.933522,3294.210641,3701.029710,9918.759623
3757.933836,2298.286494,3034.844362,11103.089130
3757.934151,842.705048,2812.782580,11399.171507
3757.934466,229.828649,2886.803174,10436.903782
3757.934780,-153.219100,2738.761985,10288.862594
3757.935095,383.047749,1702.473667,9770.718434
3757.935409,1302.362347,1702.473667,9252.574275
3757.935724,1608.800546,1924.535449,8290.306550
3757.936038,1991.848295,2146.597232,7920.203579
3757.936353,2145.067394,2146.597232,8734.430116
3757.936667,2221.676944,2516.700203,9252.574275
3757.936982,2145.067394,2960.823768,9104.533087
3757.937296,1532.190996,2886.803174,9326.594869
3757.937611,1302.362347,2072.576638,10214.842000
3757.937925,766.095498,1850.514855,11473.192101
3757.938240,153.219100,1554.432478,11843.295072
3757.938554,0.000000,1258.350101,11695.253884
3757.938869,0.000000,1850.514855,11029.068536
3757.939183,689.485948,2220.617826,10584.944971
3757.939498,1455.581446,3034.844362,9252.574275
3757.939812,1302.362347,2664.741391,8660.409521
3757.940127,1762.019645,2220.617826,8216.285956
3757.940441,1838.629195,962.267725,8660.409521
3757.940756,1685.410096,-0.000000,9770.718434
3757.941070,536.266849,-1110.308913,10510.924376
3757.941385,0.000000,-1480.411884,11251.130318
3757.941699,-383.047749,-888.247130,11769.274478
3757.942014,-995.924147,222.061783,11103.089130
3757.942328,0.000000,888.247130,10288.862594
3757.942643,153.219100,1406.391290,9622.677246
3757.942957,1225.752797,1258.350101,9178.553681
3757.943272,1838.629195,1554.432478,8512.368333
3757.943586,2451.505594,814.226536,8290.306550
3757.943901,2298.286494,-0.000000,8068.244768
3757.944216,1991.848295,-148.041188,8808.450710
3757.944530,995.924147,-0.000000,9622.677246
3757.944845,306.438199,-296.082377,9252.574275
3757.945160,-383.047749,-962.267725,9918.759623
3757.945475,-919.314598,-2072.576638,10732.986159
3757.945790,-1149.143247,-1554.432478,10807.006753
3757.946104,-1685.410096,-1998.556043,10732.986159
3757.946419,-1685.410096,-1998.556043,10658.965565
3757.946734,-766.095498,-1776.494261,10362.883188
3757.947049,153.219100,-148.041188,9030.512492
3757.947363,995.924147,-0.000000,8142.265362
3757.947678,1455.581446,296.082377,7994.224174
3757.947993,1915.238745,-0.000000,8142.265362
3757.948308,2221.676944,-296.082377,8216.285956
3757.948622,2221.676944,-1110.308913,9326.594869
3757.948937,1455.581446,-1406.391290,9548.656652
3757.949252,0.000000,-1332.370696,9400.615463
3757.949567,-1149.143247,-592.164754,8734.430116
3757.949882,-1149.143247,-1406.391290,9326.594869
3757.950196,-995.924147,-1184.329507,9400.615463
3757.950511,-1838.629195,-1776.494261,9178.553681
3757.950826,-1762.019645,-1998.556043,9104.533087
3757.951141,-1455.581446,-2072.576638,9474.636058
3757.951455,-995.924147,-1702.473667,9622.677246
3757.951770,-689.485948,-1480.411884,9474.636058
3757.952085,-689.485948,-1110.308913,9844.739029
3757.952400,0.000000,-518.144159,10362.883188
3757.952714,229.828649,-222.061783,9918.759623
3757.953029,306.438199,-74.020594,10214.842000
3757.953344,689.485948,592.164754,9622.677246
3757.953659,383.047749,370.102971,9622.677246
3757.953974,0.000000,814.226536,9178.553681
3757.954288,-459.657299,444.123565,8586.388927
3757.954603,0.000000,-148.041188,8142.265362
3757.954918,-153.219100,-370.102971,8512.368333
3757.955233,-306.438199,-1036.288319,9104.533087
3757.955547,-536.266849,-1554.432478,8734.430116
3757.955862,-536.266849,-1850.514855,9474.636058
3757.956177,-612.876398,-1776.494261,10066.800811
3757.956492,-1149.143247,-962.267725,10510.924376
3757.956806,-1608.800546,148.041188,10140.821405
3757.957121,-995.924147,814.226536,9918.759623
3757.957436,76.609550,1036.288319,10140.821405
3757.957751,919.314598,1554.432478,9400.615463
3757.958066,1378.971896,1998.556043,9178.553681
3757.958380,1991.848295,2072.576638,9622.677246
3757.958695,1915.238745,1850.514855,8808.450710
3757.959010,1838.629195,1776.494261,9030.512492
3757.959325,1762.019645,1406.391290,9030.512492
3757.959639,1608.800546,888.247130,9622.677246
3757.959954,306.438199,-0.000000,9918.759623
3757.960269,-229.828649,-296.082377,10066.800811
3757.960584,-766.095498,-592.164754,11029.068536
3757.960898,-689.485948,-222.061783,11029.068536
3757.961213,-1072.533697,148.041188,10732.986159
3757.961528,-612.876398,740.205942,9918.759623
3757.961843,153.219100,1184.329507,9696.697840
3757.962158,689.485948,1554.432478,9474.636058
3757.962472,1532.190996,1776.494261,9474.636058
3757.962787,2068.457845,1702.473667,9104.533087
3757.963102,2298.286494,2072.576638,9104.533087
3757.963417,1991.848295,1924.535449,9252.574275
3757.963731,1302.362347,1554.432478,9770.718434
3757.964046,306.438199,1628.453072,9770.718434
3757.964361,76.609550,740.205942,10214.842000
3757.964676,-919.314598,296.082377,10955.047942
3757.964990,-1608.800546,296.082377,11103.089130
3757.965305,-1378.971896,-0.000000,10732.986159
3757.965620,-919.314598,-74.020594,10436.903782
3757.965935,-766.095498,518.144159,10584.944971
3757.966250,-612.876398,888.247130,9474.636058
3757.966564,536.266849,1110.308913,9030.512492
3757.966879,1072.533697,1258.350101,8290.306550
3757.967194,1455.581446,740.205942,8882.471304
3757.967509,1072.533697,1258.350101,8586.388927
3757.967823,995.924147,666.185348,9030.512492
3757.968138,536.266849,-0.000000,9622.677246
3757.968453,-229.828649,518.144159,9548.656652
3757.968768,-995.924147,814.226536,9326.594869
3757.969082,-1072.533697,222.061783,9474.636058
3757.969397,-1225.752797,-74.020594,10140.821405
3757.969712,-842.705048,-518.144159,9992.780217
3757.970027,-1072.533697,-1036.288319,10140.821405
3757.970341,-383.047749,-888.247130,9696.697840
3757.970656,76.609550,-0.000000,9400.615463
3757.970971,0.000000,444.123565,8956.491898
3757.971286,459.657299,518.144159,8512.368333
3757.971601,459.657299,518.144159,9030.512492
3757.971915,842.705048,444.123565,9326.594869
3757.972230,0.000000,370.102971,9252.574275
3757.972545,0.000000,-0.000000,9252.574275
3757.972860,0.000000,-74.020594,9696.697840
3757.973174,-689.485948,-444.123565,10066.800811
3757.973489,-612.876398,-666.185348,10066.800811
3757.973804,-766.095498,-1110.308913,9400.615463
3757.974119,-612.876398,-1110.308913,9326.594869
3757.974433,-383.047749,-962.267725,9696.697840
3757.974748,-536.266849,-592.164754,9770.718434
3757.975063,-306.438199,-962.267725,9992.780217
3757.975378,-306.438199,-1036.288319,9918.759623
3757.975693,0.000000,-518.144159,9696.697840
3757.976007,0.000000,222.061783,9252.574275
3757.976322,0.000000,222.061783,9104.533087
3757.976637,229.828649,-370.102971,10140.821405
3757.976952,0.000000,-592.164754,10214.842000
3757.977266,306.438199,-962.267725,9918.759623
3757.977581,76.609550,-814.226536,10288.862594
3757.977896,536.266849,-740.205942,10066.800811
3757.978211,383.047749,-222.061783,9474.636058
3757.978525,536.266849,-296.082377,8808.450710
3757.978840,842.705048,-370.102971,9326.594869
3757.979155,689.485948,-592.164754,9622.677246
3757.979470,459.657299,-740.205942,9696.697840
3757.979785,612.876398,-962.267725,9400.615463
3757.980099,612.876398,-592.164754,9992.780217
3757.980414,306.438199,-444.123565,10436.903782
3757.980729,0.000000,296.082377,9326.594869
3757.981044,229.828649,296.082377,9326.594869
3757.981358,689.485948,-0.000000,9400.615463
3757.981673,919.314598,-0.000000,9474.636058
3757.981988,919.314598,-296.082377,9252.574275
3757.982303,995.924147,-74.020594,9474.636058
3757.982617,842.705048,296.082377,9474.636058
3757.982932,459.657299,740.205942,9104.533087
3757.983247,306.438199,222.061783,8882.471304
3757.983562,0.000000,444.123565,9252.574275
3757.983877,-229.828649,296.082377,9400.615463
3757.984191,-536.266849,-148.041188,9326.594869
3757.984506,-229.828649,-74.020594,10214.842000
3757.984821,-153.219100,222.061783,10288.862594
3757.985136,-612.876398,888.247130,9770.718434
3757.985450,-383.047749,1258.350101,9474.636058
3757.985765,76.609550,1110.308913,9474.636058
3757.986080,766.095498,1110.308913,8956.491898
3757.986395,1302.362347,1110.308913,9326.594869
3757.986709,306.438199,1036.288319,9326.594869
3757.987024,306.438199,666.185348,9918.759623
3757.987339,-383.047749,1480.411884,9252.574275
3757.987654,0.000000,296.082377,10584.944971
3757.987969,-536.266849,1554.432478,9992.780217
3757.988283,-1149.143247,740.205942,9622.677246
3757.988598,-459.657299,-0.000000,10288.862594
3757.988913,-459.657299,370.102971,10955.047942
3757.989228,-383.047749,518.144159,9992.780217
3757.989542,536.266849,-0.000000,10066.800811
3757.989857,229.828649,1480.411884,10140.821405
3757.990172,306.438199,1776.494261,9622.677246
3757.990487,689.485948,1850.514855,9622.677246
3757.990801,995.924147,1554.432478,9178.553681
3757.991116,919.314598,1258.350101,9400.615463
3757.991431,766.095498,1036.288319,9696.697840
3757.991746,689.485948,666.185348,9474.636058
3757.992061,766.095498,370.102971,10288.862594
3757.992375,76.609550,222.061783,10066.800811
3757.992690,-536.266849,740.205942,9918.759623
3757.993005,-153.219100,444.123565,9696.697840
3757.993320,-153.219100,444.123565,10436.903782
3757.993634,-383.047749,222.061783,10362.883188
3757.993949,-383.047749,-0.000000,9474.636058
3757.994264,0.000000,-0.000000,9918.759623
3757.994579,536.266849,-74.020594,10214.842000
3757.994893,383.047749,444.123565,9770.718434
3757.995208,459.657299,888.247130,9252.574275
3757.995523,612.876398,1332.370696,9474.636058
3757.995838,689.485948,814.226536,8808.450710
3757.996153,919.314598,444.123565,9104.533087
3757.996467,995.924147,-0.000000,9400.615463
3757.996782,612.876398,-222.061783,9400.615463
3757.997097,0.000000,-370.102971,9400.615463
3757.997412,-306.438199,-0.000000,8808.450710
3757.997726,0.000000,-222.061783,9104.533087
3757.998041,0.000000,-1036.288319,9548.656652
3757.998356,-306.438199,-1628.453072,9844.739029
3757.998671,-383.047749,-1628.453072,10066.800811
3757.998985,-536.266849,-814.226536,9770.718434
3757.999300,-383.047749,-592.164754,10140.821405
3757.999615,229.828649,-222.061783,9992.780217
3757.999930,459.657299,148.041188,9030.512492
3758.000245,766.095498,-0.000000,8808.450710
3758.000559,995.924147,-0.000000,9104.533087
3758.000874,919.314598,-296.082377,9400.615463
3758.001189,689.485948,-222.061783,8956.491898
3758.001504,689.485948,-592.164754,8882.471304
3758.001818,0.000000,-0.000000,9252.574275
3758.002133,0.000000,-1110.308913,9178.553681
3758.002448,-306.438199,-1258.350101,9030.512492
3758.002763,-1072.533697,-1850.514855,9918.759623
3758.003077,-1149.143247,-1776.494261,10510.924376
3758.003392,-1225.752797,-1184.329507,10288.862594
3758.003707,-766.095498,-1110.308913,10214.842000
3758.004022,-383.047749,-1036.288319,10807.006753
3758.004337,0.000000,-148.041188,10288.862594
3758.004651,306.438199,666.185348,9178.553681
3758.004966,689.485948,888.247130,8660.409521
3758.005281,1072.533697,962.267725,9104.533087
3758.005596,1225.752797,666.185348,8956.491898
3758.005910,995.924147,222.061783,8586.388927
3758.006225,306.438199,-666.185348,9622.677246
3758.006540,76.609550,-740.205942,9548.656652
3758.006855,-612.876398,-740.205942,9770.718434
3758.007169,-1072.533697,-296.082377,9548.656652
3758.007484,-919.314598,-1258.350101,9992.780217
3758.007799,-1149.143247,-740.205942,9992.780217
3758.008114,-1149.143247,-888.247130,9844.739029
3758.008428,-383.047749,-888.247130,10214.842000
3758.008743,0.000000,-296.082377,9770.718434
3758.009058,383.047749,222.061783,9104.533087
3758.009373,689.485948,1036.288319,8660.409521
3758.009688,995.924147,1628.453072,8660.409521
3758.010002,1532.190996,1332.370696,8734.430116
3758.010317,1225.752797,1258.350101,8882.471304
3758.010632,1149.143247,666.185348,9252.574275
3758.010947,842.705048,444.123565,9252.574275
3758.011261,536.266849,370.102971,9548.656652
3758.011576,0.000000,-0.000000,9696.697840
3758.011891,-689.485948,444.123565,9548.656652
3758.012206,-766.095498,-148.041188,9548.656652
3758.012520,-766.095498,-74.020594,10066.800811
3758.012835,-459.657299,-0.000000,10288.862594
3758.013150,-153.219100,-0.000000,10362.883188
3758.013465,689.485948,-0.000000,10362.883188
3758.013780,766.095498,296.082377,10288.862594
3758.014094,842.705048,1480.411884,9474.636058
3758.014409,766.095498,2294.638420,8660.409521
3758.014724,1685.410096,2294.638420,9104.533087
3758.015039,1302.362347,1924.535449,9474.636058
3758.015353,1149.143247,1554.432478,9474.636058
3758.015668,612.876398,1332.370696,9474.636058
3758.015983,459.657299,740.205942,9992.780217
3758.016298,0.000000,592.164754,10362.883188
3758.016612,-612.876398,296.082377,9474.636058
3758.016927,-459.657299,296.082377,9770.718434
3758.017242,-229.828649,-222.061783,9918.759623
3758.017557,-459.657299,-74.020594,10214.842000
3758.017872,-842.705048,-0.000000,10362.883188
3758.018186,-766.095498,-0.000000,10140.821405
3758.018501,229.828649,814.226536,10066.800811
3758.018816,0.000000,1258.350101,9844.739029
3758.019131,76.609550,1554.432478,9326.594869
3758.019445,153.219100,1332.370696,9474.636058
3758.019760,766.095498,1480.411884,8956.491898
3758.020075,536.266849,962.267725,9252.574275
3758.020390,229.828649,888.247130,9548.656652
3758.020704,459.657299,814.226536,9474.636058
3758.021019,0.000000,370.102971,9104.533087
3758.021334,-459.657299,444.123565,9252.574275
3758.021649,-919.314598,-0.000000,9474.636058
3758.021964,-689.485948,-296.082377,9770.718434
3758.022278,-766.095498,-518.144159,10066.800811
3758.022593,-1302.362347,-1036.288319,9992.780217
3758.022908,-459.657299,-666.185348,10140.821405
3758.023223,0.000000,-518.144159,10214.842000
3758.023537,153.219100,222.061783,10140.821405
3758.023852,459.657299,962.267725,9474.636058
3758.024167,995.924147,1406.391290,9104.533087
3758.024482,1455.581446,666.185348,8808.450710
3758.024796,1378.971896,592.164754,9252.574275
3758.025111,1149.143247,370.102971,9178.553681
3758.025426,1225.752797,-222.061783,9030.512492
3758.025741,995.924147,-370.102971,9622.677246
3758.026056,76.609550,-222.061783,9696.697840
3758.026370,-383.047749,-444.123565,9474.636058
3758.026685,-536.266849,-814.226536,9474.636058
3758.027000,-612.876398,-1998.556043,10214.842000
3758.027315,-766.095498,-1702.473667,10288.862594
3758.027629,-1072.533697,-1850.514855,10214.842000
3758.027944,-689.485948,-1998.556043,10288.862594
3758.028259,-229.828649,-740.205942,10362.883188
3758.028574,-459.657299,-0.000000,9696.697840
3758.028888,612.876398,-0.000000,9400.615463
3758.029203,1225.752797,-0.000000,9548.656652
3758.029518,1225.752797,-0.000000,9474.636058
3758.029833,766.095498,296.082377,9030.512492
3758.030148,1149.143247,74.020594,8808.450710
3758.030462,612.876398,-74.020594,9400.615463
3758.030777,76.609550,-444.123565,9104.533087
3758.031092,0.000000,-444.123565,8808.450710
3758.031407,-536.266849,-1406.391290,8882.471304
3758.031721,-383.047749,-1628.453072,9548.656652
3758.032036,-842.705048,-1258.350101,9918.759623
3758.032351,-1225.752797,-1110.308913,9844.739029
3758.032666,-1072.533697,-1406.391290,9696.697840
3758.032980,-612.876398,-1110.308913,9918.759623
3758.033295,-153.219100,-444.123565,9770.718434
3758.033610,0.000000,222.061783,9474.636058
3758.033925,536.266849,592.164754,8956.491898
3758.034240,1149.143247,962.267725,9326.594869
3758.034554,1072.533697,1258.350101,9030.512492
3758.034869,1455.581446,1258.350101,8956.491898
3758.035184,1302.362347,518.144159,9252.574275
3758.035499,612.876398,592.164754,9030.512492
3758.035813,76.609550,592.164754,9326.594869
3758.036128,0.000000,296.082377,9104.533087
3758.036443,-229.828649,-296.082377,9696.697840
3758.036758,-919.314598,-888.247130,10362.883188
3758.037072,-1225.752797,-740.205942,10288.862594
3758.037387,-1072.533697,-444.123565,10436.903782
3758.037702,-842.705048,-296.082377,11103.089130
3758.038017,-612.876398,592.164754,11029.068536
3758.038332,0.000000,1406.391290,9548.656652
3758.038646,612.876398,1702.473667,8882.471304
3758.038961,1455.581446,1850.514855,9400.615463
3758.039276,1225.752797,1702.473667,9104.533087
3758.039591,1302.362347,1776.494261,9400.615463
3758.039905,1302.362347,1628.453072,9400.615463
3758.040220,612.876398,1036.288319,9104.533087
3758.040535,153.219100,888.247130,9400.615463
3758.040850,-459.657299,740.205942,9326.594869
3758.041164,-842.705048,-518.144159,10214.842000
3758.041479,-1608.800546,-592.164754,10362.883188
3758.041794,-1991.848295,-592.164754,11029.068536
3758.042109,-1532.190996,-0.000000,10658.965565
3758.042424,-1302.362347,-0.000000,10807.006753
3758.042738,-536.266849,666.185348,10584.944971
3758.043053,383.047749,1406.391290,9918.759623
3758.043368,1072.533697,1776.494261,8882.471304
3758.043683,1685.410096,1924.535449,9178.553681
3758.043997,1762.019645,2220.617826,8808.450710
3758.044312,1685.410096,2146.597232,8882.471304
3758.044627,1838.629195,1554.432478,9104.533087
3758.044941,1838.629195,1406.391290,9474.636058
3758.045256,766.095498,1406.391290,9104.533087
3758.045571,76.609550,1036.288319,9548.656652
3758.045885,-306.438199,-296.082377,9548.656652
3758.046200,-919.314598,-592.164754,9844.739029
3758.046515,-1072.533697,-1036.288319,10807.006753
3758.046829,-919.314598,-814.226536,10732.986159
3758.047144,-612.876398,-518.144159,10881.027347
3758.047458,0.000000,-148.041188,10288.862594
3758.047773,0.000000,666.185348,9548.656652
3758.048088,766.095498,1258.350101,9326.594869
3758.048402,1532.190996,666.185348,9104.533087
3758.048717,1455.581446,1332.370696,9622.677246
3758.049032,1455.581446,1110.308913,9474.636058
3758.049346,1532.190996,740.205942,9030.512492
3758.049661,1378.971896,-0.000000,9326.594869
3758.049975,306.438199,370.102971,9474.636058
3758.050290,-306.438199,296.082377,9474.636058
3758.050605,-383.047749,-888.247130,9178.553681
3758.050919,-229.828649,-1332.370696,9622.677246
3758.051234,-1225.752797,-1628.453072,9918.759623
3758.051549,-1149.143247,-2146.597232,9918.759623
3758.051863,-1072.533697,-2220.617826,10066.800811
3758.052178,-1072.533697,-1924.535449,9844.739029
3758.052492,-536.266849,-962.267725,9474.636058
3758.052807,0.000000,-296.082377,9030.512492
3758.053122,842.705048,-0.000000,9030.512492
3758.053436,919.314598,222.061783,8882.471304
3758.053751,1302.362347,444.123565,8882.471304
3758.054066,1608.800546,444.123565,9548.656652
3758.054380,536.266849,-0.000000,9474.636058
3758.054695,306.438199,222.061783,9178.553681
3758.055009,153.219100,-0.000000,9326.594869
3758.055324,76.609550,-296.082377,9104.533087
3758.055639,-383.047749,-1036.288319,9844.739029
3758.055953,-459.657299,-1480.411884,9992.780217
3758.056268,-1532.190996,-1924.535449,10288.862594
3758.056583,-1378.971896,-1998.556043,9918.759623
3758.056897,-842.705048,-1332.370696,9844.739029
3758.057212,-842.705048,-740.205942,9474.636058
3758.057526,-459.657299,370.102971,9326.594869
3758.057841,229.828649,592.164754,8734.430116
3758.058156,766.095498,444.123565,8808.450710
3758.058470,919.314598,740.205942,8956.491898
3758.058785,1302.362347,444.123565,8882.471304
3758.059100,995.924147,518.144159,9400.615463
3758.059414,153.219100,296.082377,9696.697840
3758.059729,76.609550,1036.288319,9400.615463
3758.060043,0.000000,370.102971,9326.594869
3758.060358,-306.438199,-148.041188,10214.842000
3758.060673,-919.314598,-666.185348,10362.883188
3758.060987,-1072.533697,-518.144159,10510.924376
3758.061302,-995.924147,-740.205942,10140.821405
3758.061617,-536.266849,-518.144159,10288.862594
3758.061931,-153.219100,-0.000000,9918.759623
3758.062246,-229.828649,518.144159,9474.636058
3758.062561,689.485948,518.144159,9178.553681
3758.062875,1149.143247,740.205942,9400.615463
3758.063190,842.705048,888.247130,8956.491898
3758.063504,1072.533697,1480.411884,9178.553681
3758.063819,919.314598,1332.370696,9770.718434
3758.064134,766.095498,1036.288319,9844.739029
3758.064448,306.438199,814.226536,9474.636058
3758.064763,306.438199,592.164754,9992.780217
3758.065078,-229.828649,518.144159,9844.739029
3758.065392,-459.657299,-74.020594,9844.739029
3758.065707,-766.095498,370.102971,10436.903782
3758.066021,-612.876398,222.061783,9918.759623
3758.066336,0.000000,-0.000000,10214.842000
3758.066651,0.000000,740.205942,9918.759623
3758.066965,0.000000,1036.288319,9622.677246
3758.067280,0.000000,1480.411884,9918.759623
3758.067595,995.924147,1480.411884,9844.739029
3758.067909,689.485948,1554.432478,9622.677246
3758.068224,1149.143247,1480.411884,9622.677246
3758.068538,1225.752797,1036.288319,10214.842000
3758.068853,842.705048,1110.308913,9696.697840
3758.069168,306.438199,1110.308913,9622.677246
3758.069482,229.828649,1184.329507,9474.636058
3758.069797,383.047749,814.226536,9474.636058
3758.070112,459.657299,-0.000000,9400.615463
3758.070426,-383.047749,-74.020594,9844.739029
3758.070741,-612.876398,-222.061783,10214.842000
3758.071055,-306.438199,-592.164754,10214.842000
3758.071370,0.000000,-0.000000,10362.883188
3758.071685,0.000000,444.123565,10066.800811
3758.071999,229.828649,1110.308913,9400.615463
3758.072314,766.095498,962.267725,9030.512492
3758.072629,1072.533697,740.205942,9400.615463
3758.072943,1072.533697,592.164754,9474.636058
3758.073258,1532.190996,148.041188,9400.615463
3758.073572,612.876398,-0.000000,9252.574275
3758.073887,153.219100,444.123565,9104.533087
3758.074202,76.609550,296.082377,8290.306550
3758.074516,76.609550,-518.144159,9030.512492
3758.074831,-229.828649,-814.226536,9326.594869
3758.075146,-689.485948,-1258.350101,9770.718434
3758.075460,-1072.533697,-1702.473667,9992.780217
3758.075775,-919.314598,-1554.432478,9992.780217
3758.076089,-766.095498,-962.267725,10140.821405
3758.076404,-612.876398,-518.144159,9548.656652
3758.076719,0.000000,-222.061783,8956.491898
3758.077033,536.266849,-74.020594,8660.409521
3758.077348,766.095498,-0.000000,8808.450710
3758.077663,919.314598,518.144159,9178.553681
3758.077977,766.095498,370.102971,8882.471304
3758.078292,689.485948,-74.020594,9178.553681
3758.078607,383.047749,-296.082377,9548.656652
3758.078921,0.000000,-666.185348,9252.574275
3758.079236,-229.828649,-814.226536,9548.656652
3758.079550,-306.438199,-666.185348,9622.677246
3758.079865,-766.095498,-518.144159,9992.780217
3758.080180,-689.485948,-814.226536,10066.800811
3758.080494,-459.657299,-1258.350101,10436.903782
3758.080809,-536.266849,-1258.350101,9400.615463
3758.081124,-153.219100,-740.205942,9770.718434
3758.081438,-76.609550,222.061783,9178.553681
3758.081753,383.047749,592.164754,9030.512492
3758.082067,995.924147,888.247130,9104.533087
3758.082382,995.924147,518.144159,9178.553681
3758.082697,536.266849,666.185348,9474.636058
3758.083011,689.485948,296.082377,9326.594869
3758.083326,153.219100,148.041188,9770.718434
3758.083641,-459.657299,-0.000000,10140.821405
3758.083955,-1149.143247,-0.000000,9326.594869
3758.084270,-612.876398,-666.185348,10066.800811
3758.084584,-612.876398,-444.123565,10584.944971
3758.084899,-689.485948,-444.123565,10288.862594
3758.085214,-536.266849,-222.061783,10066.800811
3758.085528,0.000000,-222.061783,9770.718434
3758.085843,153.219100,148.041188,9770.718434
3758.086158,383.047749,814.226536,8512.368333
3758.086472,1225.752797,1110.308913,8808.450710
3758.086787,1225.752797,592.164754,9178.553681
3758.087101,766.095498,962.267725,8882.471304
3758.087416,689.485948,814.226536,9326.594869
3758.087731,536.266849,518.144159,9252.574275
3758.088045,383.047749,296.082377,10066.800811
3758.088360,306.438199,444.123565,9622.677246
3758.088675,-383.047749,518.144159,9844.739029
3758.088989,-383.047749,370.102971,9918.759623
3758.089304,-383.047749,-0.000000,10066.800811
3758.089618,-459.657299,296.082377,9992.780217
3758.089933,0.000000,296.082377,10288.862594
3758.090248,153.219100,370.102971,10288.862594
3758.090562,383.047749,814.226536,9844.739029
3758.090877,459.657299,1332.370696,9030.512492
3758.091192,536.266849,1850.514855,9104.533087
3758.091506,766.095498,1332.370696,9252.574275
3758.091821,153.219100,1184.329507,9474.636058
3758.092135,229.828649,962.267725,9622.677246
3758.092450,536.266849,296.082377,9696.697840
3758.092765,306.438199,296.082377,10214.842000
3758.093079,0.000000,370.102971,9918.759623
3758.093394,-612.876398,592.164754,9918.759623
3758.093709,-842.705048,444.123565,9400.615463
3758.094023,0.000000,-0.000000,10066.800811
3758.094338,76.609550,-0.000000,10288.862594
3758.094653,0.000000,296.082377,9622.677246
3758.094967,229.828649,-0.000000,9400.615463
3758.095282,306.438199,222.061783,10140.821405
3758.095596,153.219100,518.144159,9622.677246
3758.095911,306.438199,148.041188,9252.574275
3758.096226,766.095498,962.267725,9474.636058
3758.096540,689.485948,740.205942,9400.615463
3758.096855,689.485948,370.102971,9252.574275
3758.097170,306.438199,222.061783,9474.636058
3758.097484,153.219100,-444.123565,9918.759623
3758.097799,0.000000,-740.205942,9844.739029
3758.098113,-383.047749,-370.102971,9548.656652
3758.098428,-229.828649,-666.185348,9400.615463
3758.098743,229.828649,-444.123565,9548.656652
3758.099057,0.000000,-592.164754,9696.697840
3758.099372,229.828649,-296.082377,9474.636058
3758.099687,306.438199,-370.102971,9548.656652
3758.100001,612.876398,-296.082377,9326.594869
3758.100316,306.438199,-0.000000,8956.491898
3758.100630,689.485948,-0.000000,8956.491898
3758.100945,459.657299,-0.000000,9178.553681
3758.101260,229.828649,-0.000000,9326.594869
3758.101574,229.828649,-0.000000,9326.594869
3758.101889,612.876398,-740.205942,9918.759623
3758.102204,-766.095498,-444.123565,9770.718434
3758.102518,-306.438199,-370.102971,10066.800811
3758.102833,-306.438199,-370.102971,9844.739029
3758.103147,-919.314598,-0.000000,9474.636058
3758.103462,0.000000,-444.123565,9622.677246
3758.103777,-383.047749,-444.123565,10140.821405
3758.104091,-306.438199,-296.082377,9918.759623
3758.104406,153.219100,-592.164754,9696.697840
3758.104721,76.609550,-370.102971,9622.677246
3758.105035,-383.047749,-666.185348,10510.924376
3758.105350,306.438199,296.082377,9178.553681
3758.105664,153.219100,444.123565,8660.409521
3758.105979,536.266849,-0.000000,9400.615463
3758.106294,536.266849,-0.000000,9474.636058
3758.106608,153.219100,-222.061783,9252.574275
3758.106923,229.828649,-518.144159,9770.718434
3758.107238,383.047749,-370.102971,9918.759623
3758.107552,0.000000,-0.000000,9400.615463
3758.107867,153.219100,-0.000000,9326.594869
3758.108181,306.438199,-0.000000,9474.636058
3758.108496,-153.219100,-814.226536,9918.759623
3758.108811,-229.828649,-444.123565,9770.718434
3758.109125,-689.485948,-444.123565,9622.677246
3758.109440,0.000000,-296.082377,10362.883188
3758.109755,229.828649,370.102971,9696.697840
3758.110069,76.609550,1110.308913,9326.594869
3758.110384,76.609550,666.185348,9104.533087
3758.110699,383.047749,888.247130,9326.594869
3758.111013,689.485948,814.226536,9474.636058
3758.111328,689.485948,518.144159,9400.615463
3758.111642,536.266849,814.226536,9770.718434
3758.111957,766.095498,592.164754,9622.677246
3758.112272,536.266849,1184.329507,9030.512492
3758.112586,-76.609550,1184.329507,9326.594869
3758.112901,0.000000,666.185348,9400.615463
3758.113216,-306.438199,592.164754,9622.677246
3758.113530,-689.485948,222.061783,10140.821405
3758.113845,-612.876398,222.061783,10436.903782
3758.114159,-536.266849,-74.020594,10362.883188
3758.114474,-536.266849,-0.000000,10436.903782
3758.114789,-383.047749,1036.288319,10584.944971
3758.115103,0.000000,1480.411884,9696.697840
3758.115418,536.266849,1554.432478,9178.553681
3758.115733,1072.533697,1480.411884,9178.553681
3758.116047,919.314598,1258.350101,9400.615463
3758.116362,919.314598,592.164754,9252.574275
3758.116676,459.657299,296.082377,8956.491898
3758.116991,0.000000,1036.288319,9548.656652
3758.117306,-383.047749,592.164754,9400.615463
3758.117620,-689.485948,-0.000000,9474.636058
3758.117935,-536.266849,-370.102971,10214.842000
3758.118250,-536.266849,-296.082377,10510.924376
3758.118564,-766.095498,-666.185348,10288.862594
3758.118879,-612.876398,-370.102971,11029.068536
3758.119193,-383.047749,-0.000000,10362.883188
3758.119508,0.000000,666.185348,10140.821405
3758.119823,459.657299,1258.350101,9252.574275
3758.120137,1302.362347,962.267725,8734.430116
3758.120452,1608.800546,1184.329507,9030.512492
3758.120767,1608.800546,1110.308913,9400.615463
3758.121081,1225.752797,814.226536,8956.491898
3758.121396,995.924147,222.061783,8882.471304
3758.121710,766.095498,370.102971,9252.574275
3758.122025,0.000000,-148.041188,9030.512492
3758.122340,-306.438199,-518.144159,9622.677246
3758.122654,-612.876398,-1258.350101,9474.636058
3758.122969,-842.705048,-1332.370696,10066.800811
3758.123284,-689.485948,-1184.329507,10436.903782
3758.123598,-536.266849,-888.247130,10510.924376
3758.123913,76.609550,-592.164754,10288.862594
3758.124227,383.047749,222.061783,9474.636058
3758.124542,1072.533697,518.144159,9104.533087
3758.124857,1225.752797,1036.288319,9030.512492
3758.125171,1302.362347,1110.308913,8586.388927
3758.125486,1608.800546,740.205942,8882.471304
3758.125801,1072.533697,444.123565,8808.450710
3758.126115,1302.362347,-444.123565,9104.533087
3758.126430,76.609550,-518.144159,9326.594869
3758.126745,-459.657299,-888.247130,9622.677246
3758.127059,-919.314598,-666.185348,9770.718434
3758.127374,-1149.143247,-962.267725,9696.697840
3758.127688,-1225.752797,-1110.308913,9622.677246
3758.128003,-1532.190996,-1110.308913,10288.862594
3758.128318,-995.924147,-1332.370696,9844.739029
3758.128632,0.000000,-1184.329507,10066.800811
3758.128947,536.266849,-0.000000,9770.718434
3758.129262,689.485948,1036.288319,9104.533087
3758.129576,1149.143247,1332.370696,8808.450710
3758.129891,1532.190996,888.247130,8660.409521
3758.130205,1225.752797,888.247130,8882.471304
3758.130520,1225.752797,518.144159,9104.533087
3758.130835,1225.752797,-148.041188,9178.553681
3758.131149,459.657299,-370.102971,9918.759623
3758.131464,-153.219100,-296.082377,10140.821405
3758.131779,-995.924147,-518.144159,9992.780217
3758.132093,-1149.143247,-296.082377,9770.718434
3758.132408,-1149.143247,-592.164754,10732.986159
3758.132722,-1225.752797,-370.102971,10584.944971
3758.133037,-766.095498,-666.185348,10362.883188
3758.133352,-229.828649,222.061783,10584.944971
3758.133666,76.609550,-0.000000,10362.883188
3758.133981,383.047749,814.226536,9548.656652
3758.134296,536.266849,1406.391290,9474.636058
3758.134610,919.314598,1776.494261,9400.615463
3758.134925,995.924147,1554.432478,9030.512492
3758.135239,995.924147,1110.308913,9252.574275
3758.135554,536.266849,444.123565,9622.677246
3758.135869,76.609550,666.185348,9474.636058
3758.136183,-383.047749,222.061783,9548.656652
3758.136498,-1149.143247,296.082377,9474.636058
3758.136813,-1302.362347,-222.061783,9622.677246
3758.137127,-1455.581446,-592.164754,9622.677246
3758.137442,-919.314598,-444.123565,10214.842000
3758.137756,-612.876398,222.061783,10288.862594
3758.138071,-536.266849,-74.020594,9918.759623
3758.138386,76.609550,592.164754,9622.677246
3758.138700,306.438199,1332.370696,9548.656652
3758.139015,612.876398,1702.473667,9252.574275
3758.139330,995.924147,1628.453072,9252.574275
3758.139644,1149.143247,1480.411884,9326.594869
3758.139959,689.485948,888.247130,9770.718434
3758.140273,995.924147,518.144159,9474.636058
3758.140588,612.876398,-222.061783,9548.656652
3758.140903,0.000000,-148.041188,9770.718434
3758.141217,-229.828649,-74.020594,9474.636058
3758.141532,-459.657299,-0.000000,9400.615463
3758.141847,-689.485948,-518.144159,9696.697840
3758.142161,-306.438199,-740.205942,10066.800811
3758.142476,-919.314598,-518.144159,9770.718434
3758.142791,-229.828649,-740.205942,9622.677246
3758.143105,0.000000,-518.144159,10436.903782
3758.143420,383.047749,370.102971,9844.739029
3758.143734,612.876398,1036.288319,9400.615463
3758.144049,1072.533697,1036.288319,9252.574275
3758.144364,1455.581446,592.164754,9474.636058
3758.144678,1072.533697,592.164754,9548.656652
3758.144993,1225.752797,592.164754,9474.636058
3758.145307,919.314598,-0.000000,9992.780217
3758.145622,995.924147,-370.102971,9696.697840
3758.145937,0.000000,-0.000000,9178.553681
3758.146251,0.000000,222.061783,9178.553681
3758.146566,-76.609550,-444.123565,9474.636058
3758.146880,-229.828649,-1258.350101,9844.739029
3758.147195,-536.266849,-592.164754,10288.862594
3758.147509,-689.485948,-1036.288319,9474.636058
3758.147824,-766.095498,-592.164754,9548.656652
3758.148139,0.000000,-0.000000,9770.718434
3758.148453,0.000000,-0.000000,9548.656652
3758.148768,229.828649,370.102971,9178.553681
3758.149082,842.705048,592.164754,9030.512492
3758.149397,1072.533697,814.226536,9178.553681
3758.149711,612.876398,444.123565,9030.512492
3758.150026,459.657299,-0.000000,9326.594869
3758.150341,306.438199,-296.082377,9178.553681
3758.150655,0.000000,-370.102971,9104.533087
3758.150970,-536.266849,-444.123565,9104.533087
3758.151284,-766.095498,-888.247130,9252.574275
3758.151599,-995.924147,-1258.350101,9696.697840
3758.151913,-1455.581446,-1036.288319,9918.759623
3758.152228,-1225.752797,-1184.329507,10510.924376
3758.152543,-459.657299,-1110.308913,10362.883188
3758.152857,0.000000,-666.185348,10436.903782
3758.153172,229.828649,222.061783,9844.739029
3758.153486,306.438199,1036.288319,8882.471304
3758.153801,1302.362347,962.267725,8882.471304
3758.154115,1149.143247,1184.329507,9326.594869
3758.154430,995.924147,1554.432478,9252.574275
3758.154745,995.924147,592.164754,9548.656652
3758.155059,1072.533697,-0.000000,9400.615463
3758.155374,153.219100,296.082377,9770.718434
3758.155688,-229.828649,370.102971,9548.656652
3758.156003,-612.876398,-74.020594,9770.718434
3758.156317,-995.924147,-814.226536,10362.883188
3758.156632,-1455.581446,-666.185348,10584.944971
3758.156947,-1302.362347,-740.205942,10510.924376
3758.157261,-995.924147,-444.123565,10436.903782
3758.157576,-612.876398,-444.123565,10955.047942
3758.157890,-612.876398,740.205942,9844.739029
3758.158205,229.828649,1258.350101,9252.574275
3758.158519,766.095498,1480.411884,8956.491898
3758.158834,1302.362347,1332.370696,9252.574275
3758.159149,1225.752797,1554.432478,9104.533087
3758.159463,919.314598,1110.308913,9252.574275
3758.159778,1072.533697,814.226536,9030.512492
3758.160092,536.266849,1036.288319,9252.574275
3758.160407,229.828649,1110.308913,9030.512492
3758.160721,-536.266849,296.082377,9400.615463
3758.161036,-689.485948,-518.144159,9622.677246
3758.161351,-919.314598,-814.226536,9918.759623
3758.161665,-995.924147,-370.102971,9844.739029
3758.161980,-1149.143247,-518.144159,10140.821405
3758.162294,-612.876398,-592.164754,10288.862594
3758.162609,-229.828649,592.164754,9918.759623
3758.162923,229.828649,1406.391290,9030.512492
3758.163238,1149.143247,1554.432478,9400.615463
3758.163553,1762.019645,1480.411884,9400.615463
3758.163867,1685.410096,1628.453072,9104.533087
3758.164182,1378.971896,1332.370696,8882.471304
3758.164496,919.314598,1036.288319,9178.553681
3758.164811,536.266849,666.185348,9770.718434
3758.165125,229.828649,518.144159,9844.739029
3758.165440,-919.314598,-74.020594,9474.636058
3758.165755,-459.657299,-518.144159,9770.718434
3758.166069,-536.266849,-962.267725,10362.883188
3758.166384,-995.924147,-666.185348,10436.903782
3758.166698,-919.314598,-888.247130,10140.821405
3758.167013,-383.047749,-370.102971,10288.862594
3758.167327,76.609550,296.082377,9992.780217
3758.167642,153.219100,1110.308913,9474.636058
3758.167957,612.876398,888.247130,9548.656652
3758.168271,1532.190996,740.205942,9474.636058
3758.168586,1072.533697,1110.308913,10066.800811
3758.168900,1149.143247,1110.308913,9474.636058
3758.169215,1302.362347,370.102971,9622.677246
3758.169529,842.705048,296.082377,10066.800811
3758.169844,306.438199,222.061783,9696.697840
3758.170159,0.000000,-0.000000,9400.615463
3758.170473,-306.438199,-444.123565,9326.594869
3758.170788,0.000000,-666.185348,9696.697840
3758.171102,-536.266849,-888.247130,9548.656652
3758.171417,-536.266849,-1332.370696,9474.636058
3758.171731,-229.828649,-1406.391290,9918.759623
3758.172046,0.000000,-1036.288319,9622.677246
3758.172361,-153.219100,-296.082377,9104.533087
3758.172675,153.219100,296.082377,8956.491898
3758.172990,536.266849,444.123565,9104.533087
3758.173304,689.485948,-0.000000,9178.553681
3758.173619,766.095498,296.082377,9104.533087
3758.173933,842.705048,-222.061783,8882.471304
3758.174248,766.095498,-592.164754,9696.697840
3758.174563,306.438199,222.061783,9474.636058
3758.174877,0.000000,518.144159,8956.491898
3758.175192,0.000000,-148.041188,8808.450710
3758.175506,-229.828649,-740.205942,9474.636058
3758.175821,-383.047749,-740.205942,10214.842000
3758.176135,-689.485948,-1332.370696,9918.759623
3758.176450,-842.705048,-1258.350101,9918.759623
3758.176765,-689.485948,-1036.288319,10140.821405
3758.177079,-383.047749,-370.102971,9992.780217
3758.177394,-536.266849,-0.000000,9400.615463
3758.177708,153.219100,444.123565,9474.636058
3758.178023,766.095498,444.123565,9326.594869
3758.178337,1149.143247,296.082377,9030.512492
3758.178652,1225.752797,444.123565,9548.656652
3758.178967,919.314598,444.123565,9548.656652
3758.179281,459.657299,888.247130,9178.553681
3758.179596,229.828649,1110.308913,9104.533087
3758.179910,0.000000,888.247130,9474.636058
3758.180225,306.438199,-74.020594,9696.697840
3758.180539,-153.219100,-296.082377,9844.739029
3758.180854,-536.266849,-296.082377,10066.800811
3758.181169,-612.876398,-814.226536,10362.883188
3758.181483,-766.095498,-370.102971,10066.800811
3758.181798,0.000000,-0.000000,10288.862594
3758.182112,-229.828649,370.102971,9252.574275
3758.182427,0.000000,444.123565,9178.553681
3758.182741,306.438199,1036.288319,9474.636058
3758.183056,842.705048,888.247130,9474.636058
3758.183371,612.876398,962.267725,9400.615463
3758.183685,919.314598,814.226536,9030.512492
3758.184000,919.314598,962.267725,9474.636058
3758.184314,919.314598,1258.350101,9326.594869
3758.184629,383.047749,1258.350101,9178.553681
3758.184943,536.266849,592.164754,8660.409521
3758.185258,0.000000,592.164754,9696.697840
3758.185573,-612.876398,-74.020594,10066.800811
3758.185887,-766.095498,-222.061783,9622.677246
3758.186202,-536.266849,-296.082377,9844.739029
3758.186516,-919.314598,-74.020594,10436.903782
3758.186831,-612.876398,518.144159,10140.821405
3758.187145,-766.095498,592.164754,10066.800811
3758.187460,0.000000,962.267725,9844.739029
3758.187775,229.828649,1036.288319,10066.800811
3758.188089,995.924147,1184.329507,9474.636058
3758.188404,1378.971896,1332.370696,8956.491898
3758.188718,1302.362347,1406.391290,9474.636058
3758.189033,842.705048,1258.350101,9104.533087
3758.189347,612.876398,1110.308913,8808.450710
3758.189662,459.657299,444.123565,8956.491898
3758.189977,153.219100,-74.020594,9696.697840
3758.190291,-536.266849,-444.123565,9918.759623
3758.190606,-919.314598,-1184.329507,10214.842000
3758.190920,-612.876398,-1110.308913,10732.986159
3758.191235,-1149.143247,-814.226536,10436.903782
3758.191549,-842.705048,-370.102971,10288.862594
3758.191864,-612.876398,222.061783,9696.697840
3758.192179,383.047749,666.185348,9696.697840
3758.192493,536.266849,370.102971,9696.697840
3758.192808,995.924147,814.226536,9252.574275
3758.193122,1378.971896,592.164754,9326.594869
3758.193437,1608.800546,888.247130,8660.409521
3758.193751,1378.971896,666.185348,9178.553681
3758.194066,766.095498,740.205942,9104.533087
3758.194381,76.609550,-0.000000,8512.368333
3758.194695,-76.609550,-814.226536,9474.636058
3758.195010,-919.314598,-1258.350101,9770.718434
3758.195324,-1149.143247,-1776.494261,9992.780217
3758.195639,-842.705048,-1628.453072,10436.903782
3758.195953,-1225.752797,-1184.329507,10214.842000
3758.196268,-1302.362347,-666.185348,9770.718434
3758.196583,-612.876398,-370.102971,9252.574275
3758.196897,306.438199,-0.000000,8882.471304
3758.197212,766.095498,148.041188,9696.697840
3758.197526,1072.533697,444.123565,8882.471304
3758.197841,1455.581446,370.102971,8586.388927
3758.198155,1532.190996,592.164754,8882.471304
3758.198470,995.924147,444.123565,8956.491898
3758.198785,842.705048,-0.000000,8734.430116
3758.199099,0.000000,-370.102971,9474.636058
3758.199414,-229.828649,-888.247130,9918.759623
3758.199728,-842.705048,-1406.391290,10066.800811
3758.200043,-1378.971896,-1332.370696,10288.862594
3758.200357,-689.485948,-1480.411884,10214.842000
3758.200672,-766.095498,-1406.391290,10584.944971
3758.200987,-536.266849,-666.185348,9918.759623
3758.201301,-306.438199,-0.000000,9474.636058
3758.201616,536.266849,222.061783,9400.615463
3758.201930,1532.190996,888.247130,9104.533087
3758.202245,1302.362347,888.247130,9030.512492
3758.202559,1378.971896,962.267725,9104.533087
3758.202874,1532.190996,814.226536,9178.553681
3758.203189,995.924147,962.267725,9474.636058
3758.203503,153.219100,814.226536,8660.409521
3758.203818,0.000000,370.102971,9696.697840
3758.204132,-766.095498,-0.000000,9770.718434
3758.204447,-919.314598,-740.205942,9992.780217
3758.204761,-1225.752797,-666.185348,10732.986159
3758.205076,-1532.190996,-1554.432478,10881.027347
3758.205391,-612.876398,-666.185348,10214.842000
3758.205705,-153.219100,444.123565,9918.759623
3758.206020,76.609550,1184.329507,9104.533087
3758.206334,919.314598,1036.288319,9104.533087
3758.206649,842.705048,1776.494261,9104.533087
3758.206963,1072.533697,1110.308913,9030.512492
3758.207278,1072.533697,1332.370696,9178.553681
3758.207593,1378.971896,1258.350101,9252.574275
3758.207907,842.705048,962.267725,9474.636058
3758.208222,153.219100,814.226536,9770.718434
3758.208536,-383.047749,370.102971,9548.656652
3758.208851,-612.876398,-0.000000,9770.718434
3758.209165,-766.095498,-296.082377,10214.842000
3758.209480,-842.705048,-74.020594,10807.006753
3758.209795,-766.095498,-0.000000,10510.924376
3758.210109,-536.266849,-74.020594,10436.903782
3758.210424,0.000000,666.185348,10214.842000
3758.210738,0.000000,1332.370696,9400.615463
3758.211053,842.705048,1184.329507,9400.615463
3758.211367,995.924147,1184.329507,9104.533087
3758.211682,842.705048,1406.391290,9104.533087
3758.211997,689.485948,1184.329507,9400.615463
3758.212311,536.266849,740.205942,9770.718434
3758.212626,76.609550,296.082377,9918.759623
3758.212940,-153.219100,222.061783,10214.842000
3758.213255,-612.876398,-0.000000,10066.800811
3758.213569,-919.314598,-0.000000,9844.739029
3758.213884,-766.095498,-370.102971,9696.697840
3758.214199,-689.485948,-814.226536,9918.759623
3758.214513,-306.438199,-148.041188,10066.800811
3758.214828,76.609550,222.061783,9474.636058
3758.215142,459.657299,296.082377,9474.636058
3758.215457,919.314598,592.164754,9252.574275
3758.215771,1455.581446,1036.288319,9326.594869
3758.216086,1072.533697,962.267725,9178.553681
3758.216401,842.705048,888.247130,9030.512492
3758.216715,766.095498,222.061783,9548.656652
3758.217030,536.266849,-74.020594,9622.677246
3758.217344,689.485948,-370.102971,10140.821405
3758.217659,0.000000,-0.000000,9696.697840
3758.217973,-383.047749,222.061783,9474.636058
3758.218288,-306.438199,-0.000000,9326.594869
3758.218603,0.000000,-888.247130,9326.594869
3758.218917,-153.219100,-888.247130,10140.821405
3758.219232,229.828649,-1184.329507,9474.636058
3758.219546,0.000000,-814.226536,9400.615463
3758.219861,536.266849,-0.000000,9104.533087
3758.220175,1302.362347,444.123565,9326.594869
3758.220490,153.219100,666.185348,8734.430116
3758.220805,536.266849,222.061783,8734.430116
3758.221119,459.657299,-370.102971,8808.450710
3758.221434,459.657299,-296.082377,9474.636058
3758.221748,76.609550,-148.041188,9400.615463
3758.222063,-229.828649,-592.164754,9696.697840
3758.222377,-995.924147,-814.226536,9696.697840
3758.222692,-612.876398,-740.205942,9918.759623
3758.223007,-536.266849,-740.205942,9696.697840
3758.223321,-383.047749,-814.226536,10362.883188
3758.223636,-459.657299,-370.102971,10066.800811
3758.223950,-536.266849,-370.102971,9474.636058
3758.224265,0.000000,-814.226536,9844.739029
3758.224579,306.438199,-740.205942,9918.759623
3758.224894,0.000000,-518.144159,9696.697840
3758.225209,153.219100,-0.000000,9178.553681
3758.225523,306.438199,592.164754,8956.491898
3758.225838,612.876398,296.082377,9178.553681
3758.226152,689.485948,-0.000000,9474.636058
3758.226467,0.000000,-666.185348,9474.636058
3758.226781,-383.047749,-444.123565,10066.800811
3758.227096,-306.438199,-518.144159,9474.636058
3758.227411,-306.438199,296.082377,9548.656652
3758.227725,-536.266849,222.061783,9992.780217
3758.228040,-229.828649,444.123565,9844.739029
3758.228354,-229.828649,-0.000000,9918.759623
3758.228669,-306.438199,222.061783,9548.656652
3758.228983,-306.438199,370.102971,10066.800811
3758.229298,153.219100,666.185348,9770.718434
3758.229613,229.828649,1554.432478,9844.739029
3758.229927,76.609550,1258.350101,9030.512492
3758.230242,842.705048,1184.329507,8512.368333
3758.230556,919.314598,444.123565,8660.409521
3758.230871,995.924147,592.164754,9326.594869
3758.231185,842.705048,370.102971,9252.574275
3758.231500,383.047749,-0.000000,9326.594869
3758.231815,0.000000,-0.000000,9474.636058
3758.232129,0.000000,-0.000000,9548.656652
3758.232444,0.000000,296.082377,9474.636058
3758.232758,-306.438199,-0.000000,9326.594869
3758.233073,-153.219100,-0.000000,9918.759623
3758.233387,0.000000,370.102971,9548.656652
3758.233702,-383.047749,-0.000000,9770.718434
3758.234017,689.485948,-0.000000,10510.924376
3758.234331,306.438199,962.267725,10658.965565
3758.234646,536.266849,1554.432478,9622.677246
3758.234960,689.485948,1554.432478,9030.512492
3758.235275,1762.019645,1480.411884,8734.430116
3758.235589,1532.190996,1332.370696,9326.594869
3758.235904,612.876398,666.185348,9474.636058
3758.236219,459.657299,148.041188,9622.677246
3758.236533,459.657299,-0.000000,10214.842000
3758.236848,0.000000,222.061783,9770.718434
3758.237162,-459.657299,518.144159,9326.594869
3758.237477,-459.657299,148.041188,9844.739029
3758.237791,-229.828649,296.082377,10066.800811
3758.238106,76.609550,-0.000000,10362.883188
3758.238421,229.828649,-0.000000,10362.883188
3758.238735,306.438199,-74.020594,10362.883188
3758.239050,383.047749,740.205942,9992.780217
3758.239364,612.876398,1406.391290,9252.574275
3758.239679,919.314598,1776.494261,9252.574275
3758.239993,1378.971896,1406.391290,8808.450710
3758.240308,919.314598,1332.370696,9326.594869
3758.240623,612.876398,888.247130,9104.533087
3758.240937,0.000000,-0.000000,9326.594869
3758.241252,0.000000,-444.123565,9622.677246
3758.241566,-306.438199,-666.185348,9696.697840
3758.241881,-1378.971896,-740.205942,10510.924376
3758.242195,-1608.800546,-740.205942,9548.656652
3758.242510,-1302.362347,-888.247130,9696.697840
3758.242825,-1225.752797,-1036.288319,10214.842000
3758.243139,-1225.752797,-592.164754,9992.780217
3758.243454,-459.657299,-592.164754,9252.574275
3758.243768,0.000000,-296.082377,9918.759623
3758.244083,306.438199,222.061783,9696.697840
3758.244397,229.828649,740.205942,8512.368333
3758.244712,919.314598,1184.329507,9030.512492
3758.245027,842.705048,148.041188,9252.574275
3758.245341,536.266849,296.082377,9326.594869
3758.245656,383.047749,-148.041188,9252.574275
3758.245970,0.000000,-740.205942,9474.636058
3758.246285,-459.657299,-1184.329507,9918.759623
3758.246599,-995.924147,-370.102971,10066.800811
3758.246914,-1225.752797,-518.144159,9548.656652
3758.247229,-1225.752797,-1406.391290,10362.883188
3758.247543,-995.924147,-1406.391290,10288.862594
3758.247858,-612.876398,-1184.329507,9844.739029
3758.248172,-229.828649,-1110.308913,10510.924376
3758.248487,459.657299,-666.185348,9770.718434
3758.248801,995.924147,-0.000000,9474.636058
3758.249116,1225.752797,962.267725,8734.430116
3758.249431,1838.629195,1480.411884,8512.368333
3758.249745,1685.410096,1036.288319,8956.491898
3758.250060,1762.019645,666.185348,8882.471304
3758.250374,1378.971896,-296.082377,9178.553681
3758.250689,842.705048,-296.082377,9400.615463
3758.251003,229.828649,-962.267725,10066.800811
3758.251318,-153.219100,-740.205942,10214.842000
3758.251633,-612.876398,-296.082377,10066.800811
3758.251947,-1072.533697,-222.061783,9770.718434
3758.252262,-536.266849,-444.123565,10510.924376
3758.252576,0.000000,-814.226536,10288.862594
3758.252891,229.828649,-222.061783,9844.739029
3758.253206,766.095498,-0.000000,9548.656652
3758.253520,919.314598,370.102971,9696.697840
3758.253835,842.705048,1628.453072,9178.553681
3758.254149,612.876398,1702.473667,8808.450710
3758.254464,1149.143247,962.267725,8660.409521
3758.254778,1225.752797,962.267725,8882.471304
3758.255093,766.095498,814.226536,9030.512492
3758.255408,459.657299,444.123565,9252.574275
3758.255722,-383.047749,-222.061783,10584.944971
3758.256037,-459.657299,-148.041188,9992.780217
3758.256351,-766.095498,-148.041188,9844.739029
3758.256666,-689.485948,-74.020594,9474.636058
3758.256980,-153.219100,-222.061783,9844.739029
3758.257295,-842.705048,-0.000000,9992.780217
3758.257610,-612.876398,296.082377,9770.718434
3758.257924,0.000000,296.082377,10140.821405
3758.258239,229.828649,888.247130,9918.759623
3758.258553,383.047749,1258.350101,9474.636058
3758.258868,536.266849,1406.391290,9178.553681
3758.259183,536.266849,1258.350101,9252.574275
3758.259497,689.485948,1628.453072,9326.594869
3758.259812,383.047749,1628.453072,9548.656652
3758.260126,459.657299,888.247130,9992.780217
3758.260441,842.705048,740.205942,9844.739029
3758.260755,0.000000,962.267725,9770.718434
3758.261070,-459.657299,888.247130,9696.697840
3758.261385,-766.095498,370.102971,9696.697840
3758.261699,-459.657299,-0.000000,10436.903782
3758.262014,-766.095498,-0.000000,10732.986159
3758.262328,-612.876398,-0.000000,10140.821405
3758.262643,-383.047749,-0.000000,10214.842000
3758.262957,0.000000,592.164754,10214.842000
3758.263272,153.219100,1184.329507,10140.821405
3758.263587,766.095498,2072.576638,9474.636058
3758.263901,766.095498,1406.391290,9104.533087
3758.264216,1072.533697,1332.370696,9252.574275
3758.264530,766.095498,666.185348,9326.594869
3758.264845,842.705048,444.123565,9474.636058
3758.265159,766.095498,-370.102971,9474.636058
3758.265474,229.828649,-444.123565,9474.636058
3758.265789,-229.828649,-148.041188,9474.636058
3758.266103,-612.876398,-74.020594,9104.533087
3758.266418,-766.095498,-666.185348,9474.636058
3758.266732,-229.828649,-1332.370696,10140.821405
3758.267047,-459.657299,-1036.288319,9770.718434
3758.267362,-766.095498,-1184.329507,9992.780217
3758.267676,0.000000,-740.205942,10658.965565
3758.267991,459.657299,-74.020594,10288.862594
3758.268305,536.266849,888.247130,9178.553681
3758.268620,1149.143247,444.123565,8882.471304
3758.268934,1685.410096,296.082377,8882.471304
3758.269249,1455.581446,-0.000000,9326.594869
3758.269564,1608.800546,296.082377,8660.409521
3758.269878,1149.143247,-296.082377,9030.512492
3758.270193,383.047749,-666.185348,9178.553681
3758.270507,229.828649,-1036.288319,9474.636058
3758.270822,-306.438199,-962.267725,9474.636058
3758.271136,0.000000,-1258.350101,9252.574275
3758.271451,-383.047749,-1184.329507,9696.697840
3758.271766,-766.095498,-1184.329507,9474.636058
3758.272080,-842.705048,-1036.288319,9844.739029
3758.272395,-153.219100,-1258.350101,10584.944971
3758.272709,0.000000,-1184.329507,9992.780217
3758.273024,153.219100,148.041188,9400.615463
3758.273339,383.047749,740.205942,9252.574275
3758.273653,1302.362347,296.082377,9178.553681
3758.273968,1608.800546,370.102971,9178.553681
3758.274282,1532.190996,592.164754,9548.656652
3758.274597,1149.143247,592.164754,8956.491898
3758.274911,689.485948,518.144159,8734.430116
3758.275226,306.438199,370.102971,8808.450710
3758.275541,-459.657299,-0.000000,8660.409521
3758.275855,-766.095498,-518.144159,9178.553681
3758.276170,-995.924147,-1184.329507,9400.615463
3758.276484,-1455.581446,-1332.370696,10140.821405
3758.276799,-1762.019645,-962.267725,10881.027347
3758.277113,-1378.971896,-1184.329507,10584.944971
3758.277428,-1149.143247,-518.144159,10288.862594
3758.277743,-536.266849,518.144159,10214.842000
3758.278057,-229.828649,1406.391290,9252.574275
3758.278372,995.924147,1332.370696,9548.656652
3758.278686,1455.581446,1554.432478,9178.553681
3758.279001,1532.190996,1110.308913,8882.471304
3758.279316,1149.143247,1332.370696,8734.430116
3758.279630,1455.581446,962.267725,9104.533087
3758.279945,689.485948,592.164754,9326.594869
3758.280259,-306.438199,666.185348,9104.533087
3758.280574,-689.485948,-0.000000,9178.553681
3758.280888,-1455.581446,-370.102971,9770.718434
3758.281203,-1455.581446,-962.267725,10436.903782
3758.281518,-1762.019645,-740.205942,10955.047942
3758.281832,-1915.238745,-444.123565,11103.089130
3758.282147,-1302.362347,-0.000000,10881.027347
3758.282461,-229.828649,1036.288319,10066.800811
3758.282776,459.657299,2072.576638,9918.759623
3758.283090,1302.362347,2368.659014,9918.759623
3758.283405,1532.190996,2590.720797,9474.636058
3758.283720,1991.848295,2738.761985,9178.553681
3758.284034,1838.629195,1924.535449,9474.636058
3758.284349,1532.190996,1554.432478,9770.718434
3758.284663,612.876398,962.267725,9548.656652
3758.284978,76.609550,740.205942,9696.697840
3758.285293,-383.047749,-0.000000,9992.780217
3758.285607,-689.485948,-740.205942,10214.842000
3758.285922,-842.705048,-666.185348,10436.903782
3758.286236,-919.314598,-1332.370696,10140.821405
3758.286551,-842.705048,-1258.350101,10510.924376
3758.286865,0.000000,-222.061783,10140.821405
3758.287180,306.438199,740.205942,9696.697840
3758.287495,919.314598,1258.350101,9548.656652
3758.287809,1608.800546,1406.391290,8734.430116
3758.288124,2604.724693,1332.370696,8364.327145
3758.288438,2221.676944,1554.432478,9178.553681
3758.288753,1762.019645,1036.288319,9030.512492
3758.289067,1915.238745,814.226536,9252.574275
3758.289382,919.314598,-0.000000,9474.636058
3758.289697,229.828649,-0.000000,9474.636058
3758.290011,-383.047749,-296.082377,9326.594869
3758.290326,-689.485948,-1110.308913,9474.636058
3758.290640,-919.314598,-1702.473667,9992.780217
3758.290955,-995.924147,-1332.370696,9918.759623
3758.291270,-536.266849,-1554.432478,9696.697840
3758.291584,0.000000,-1258.350101,9400.615463
3758.291899,-306.438199,-814.226536,9696.697840
3758.292213,229.828649,-0.000000,9622.677246
3758.292528,842.705048,222.061783,9400.615463
3758.292842,1378.971896,962.267725,8956.491898
3758.293157,1149.143247,740.205942,8808.450710
3758.293472,766.095498,814.226536,8586.388927
3758.293786,612.876398,-0.000000,9770.718434
3758.294101,842.705048,-740.205942,9918.759623
3758.294415,0.000000,-740.205942,9548.656652
3758.294730,-612.876398,-666.185348,9696.697840
3758.295044,-995.924147,-962.267725,9844.739029
3758.295359,-1149.143247,-1184.329507,10288.862594
3758.295674,-1302.362347,-888.247130,10066.800811
3758.295988,-1378.971896,-1110.308913,10066.800811
3758.296303,-689.485948,-888.247130,10066.800811
3758.296617,0.000000,-518.144159,9474.636058
3758.296932,-536.266849,-0.000000,9252.574275
3758.297247,0.000000,370.102971,9474.636058
3758.297561,689.485948,740.205942,9104.533087
3758.297876,766.095498,592.164754,9326.594869
3758.298190,536.266849,370.102971,9474.636058
3758.298505,842.705048,-0.000000,9104.533087
3758.298819,536.266849,-0.000000,9326.594869
3758.299134,-153.219100,296.082377,9770.718434
3758.299449,-536.266849,296.082377,9400.615463
3758.299763,-766.095498,-148.041188,9548.656652
3758.300078,-919.314598,-666.185348,9844.739029
3758.300392,-612.876398,-740.205942,9918.759623
3758.300707,-842.705048,-814.226536,9696.697840
3758.301021,-536.266849,-592.164754,10436.903782
3758.301336,76.609550,-296.082377,9844.739029
3758.301651,0.000000,370.102971,9622.677246
3758.301965,536.266849,814.226536,8586.388927
3758.302280,842.705048,962.267725,9104.533087
3758.302594,1302.362347,1184.329507,9326.594869
3758.302909,1072.533697,962.267725,9548.656652
3758.303224,995.924147,740.205942,9622.677246
3758.303538,536.266849,-0.000000,10362.883188
3758.303853,229.828649,148.041188,9696.697840
3758.304167,0.000000,666.185348,9474.636058
3758.304482,0.000000,962.267725,9474.636058
3758.304796,153.219100,296.082377,9622.677246
3758.305111,-153.219100,444.123565,10140.821405
3758.305426,-306.438199,148.041188,9696.697840
3758.305740,0.000000,-222.061783,10362.883188
3758.306055,306.438199,222.061783,10436.903782
3758.306369,842.705048,888.247130,10362.883188
3758.306684,229.828649,1332.370696,9992.780217
3758.306998,459.657299,1258.350101,9622.677246
3758.307313,1072.533697,1258.350101,9548.656652
3758.307628,995.924147,1258.350101,9696.697840
3758.307942,842.705048,1406.391290,9474.636058
3758.308257,842.705048,666.185348,9178.553681
3758.308571,766.095498,370.102971,9474.636058
3758.308886,229.828649,518.144159,9548.656652
3758.309201,153.219100,518.144159,9104.533087
3758.309515,76.609550,222.061783,9252.574275
3758.309830,-306.438199,-0.000000,9696.697840
3758.310144,-153.219100,222.061783,9622.677246
3758.310459,-229.828649,-74.020594,9696.697840
3758.310773,0.000000,222.061783,9992.780217
3758.311088,153.219100,-0.000000,10214.842000
3758.311403,0.000000,370.102971,9474.636058
3758.311717,76.609550,296.082377,9252.574275
3758.312032,536.266849,296.082377,9474.636058
3758.312346,306.438199,814.226536,9770.718434
3758.312661,612.876398,888.247130,9326.594869
3758.312975,766.095498,222.061783,9104.533087
3758.313290,919.314598,592.164754,9400.615463
3758.313605,459.657299,-0.000000,9474.636058
3758.313919,153.219100,-0.000000,8808.450710
3758.314234,0.000000,-592.164754,9400.615463
3758.314548,-612.876398,-296.082377,9770.718434
3758.314863,-612.876398,-444.123565,10066.800811
3758.315178,-459.657299,-1036.288319,10288.862594
3758.315492,-612.876398,-1258.350101,10436.903782
3758.315807,-536.266849,-592.164754,10066.800811
3758.316121,-383.047749,-0.000000,9326.594869
3758.316436,0.000000,370.102971,9400.615463
3758.316750,383.047749,740.205942,8956.491898
3758.317065,153.219100,296.082377,9474.636058
3758.317380,536.266849,148.041188,8882.471304
3758.317694,689.485948,-222.061783,9178.553681
3758.318009,459.657299,-666.185348,9770.718434
3758.318323,0.000000,-222.061783,10066.800811
3758.318638,-536.266849,-148.041188,9622.677246
3758.318952,-766.095498,-222.061783,9548.656652
3758.319267,-459.657299,-814.226536,9770.718434
3758.319582,-536.266849,-814.226536,9844.739029
3758.319896,-459.657299,-888.247130,9992.780217
3758.320211,-229.828649,-888.247130,9918.759623
3758.320525,-536.266849,-518.144159,9770.718434
3758.320840,-306.438199,296.082377,9252.574275
3758.321155,383.047749,444.123565,8734.430116
3758.321469,459.657299,370.102971,8660.409521
3758.321784,1149.143247,-148.041188,9178.553681
3758.322098,612.876398,-0.000000,9326.594869
3758.322413,0.000000,-0.000000,9696.697840
3758.322727,153.219100,-444.123565,9844.739029
3758.323042,-229.828649,-592.164754,9992.780217
3758.323357,-153.219100,-0.000000,9770.718434
3758.323671,153.219100,370.102971,9548.656652
3758.323986,0.000000,-444.123565,10362.883188
3758.324300,-459.657299,-148.041188,10584.944971
3758.324615,-383.047749,-0.000000,9992.780217
3758.324929,-153.219100,-222.061783,10066.800811
3758.325244,229.828649,-0.000000,9844.739029
3758.325559,536.266849,444.123565,10214.842000
3758.325873,689.485948,814.226536,9178.553681
3758.326188,919.314598,666.185348,9104.533087
3758.326502,842.705048,666.185348,9400.615463
3758.326817,919.314598,814.226536,9030.512492
3758.327132,919.314598,814.226536,9104.533087
3758.327446,689.485948,592.164754,9474.636058
3758.327761,459.657299,-0.000000,10066.800811
3758.328075,-229.828649,666.185348,9548.656652
3758.328390,-229.828649,666.185348,9474.636058
3758.328704,-229.828649,592.164754,10140.821405
3758.329019,-383.047749,518.144159,10214.842000
3758.329334,-153.219100,296.082377,10288.862594
3758.329648,-306.438199,370.102971,9992.780217
3758.329963,0.000000,148.041188,10140.821405
3758.330277,383.047749,444.123565,9622.677246
3758.330592,536.266849,1628.453072,9030.512492
3758.330906,153.219100,1554.432478,9030.512492
3758.331221,612.876398,740.205942,9178.553681
3758.331536,689.485948,888.247130,9326.594869
3758.331850,459.657299,518.144159,9104.533087
3758.332165,0.000000,-0.000000,9992.780217
3758.332479,-229.828649,-74.020594,9992.780217
3758.332794,-383.047749,-0.000000,9844.739029
3758.333109,-612.876398,-296.082377,9770.718434
3758.333423,-306.438199,74.020594,9400.615463
3758.333738,0.000000,-74.020594,9844.739029
3758.334052,0.000000,-0.000000,9918.759623
3758.334367,-383.047749,-296.082377,9622.677246
3758.334681,0.000000,518.144159,9474.636058
3758.334996,0.000000,518.144159,9770.718434
3758.335311,153.219100,592.164754,9474.636058
3758.335625,153.219100,444.123565,9326.594869
3758.335940,229.828649,666.185348,9030.512492
3758.336254,-306.438199,-0.000000,10214.842000
3758.336569,-459.657299,296.082377,10140.821405
3758.336883,0.000000,-74.020594,10214.842000
3758.337198,-153.219100,-74.020594,10066.800811
3758.337513,-306.438199,-0.000000,9622.677246
3758.337827,-383.047749,518.144159,9104.533087
3758.338142,0.000000,222.061783,9030.512492
3758.338456,229.828649,-370.102971,9770.718434
3758.338771,-153.219100,-814.226536,9918.759623
3758.339086,0.000000,-296.082377,9548.656652
3758.339400,229.828649,-222.061783,9844.739029
3758.339715,229.828649,-0.000000,9918.759623
3758.340029,0.000000,296.082377,9622.677246
3758.340344,153.219100,222.061783,9030.512492
3758.340658,383.047749,-0.000000,9030.512492
3758.340973,689.485948,-444.123565,9474.636058
3758.341288,383.047749,-444.123565,9474.636058
3758.341602,229.828649,-444.123565,9252.574275
3758.341917,459.657299,-222.061783,9474.636058
3758.342231,306.438199,-222.061783,9622.677246
3758.342546,0.000000,370.102971,9400.615463
3758.342860,76.609550,-0.000000,8882.471304
3758.343175,306.438199,-518.144159,9030.512492
3758.343490,459.657299,-740.205942,9770.718434
3758.343804,536.266849,-740.205942,10510.924376
3758.344119,383.047749,-666.185348,9770.718434
3758.344433,153.219100,-666.185348,9770.718434
3758.344748,153.219100,-0.000000,9918.759623
3758.345063,383.047749,-148.041188,9104.533087
3758.345377,612.876398,518.144159,8956.491898
3758.345692,1302.362347,-0.000000,9474.636058
3758.346006,1072.533697,370.102971,9474.636058
3758.346321,766.095498,-0.000000,9252.574275
3758.346635,536.266849,-148.041188,9326.594869
3758.346950,536.266849,-222.061783,9918.759623
3758.347265,306.438199,370.102971,9992.780217
3758.347579,306.438199,518.144159,9474.636058
3758.347894,153.219100,-0.000000,9400.615463
3758.348208,-536.266849,-74.020594,9992.780217
3758.348523,-842.705048,-296.082377,9918.759623
3758.348837,-689.485948,-518.144159,9622.677246
3758.349152,-612.876398,-1036.288319,10288.862594
3758.349467,-459.657299,-74.020594,10066.800811
3758.349781,-383.047749,592.164754,9104.533087
3758.350096,-229.828649,814.226536,8808.450710
3758.350410,383.047749,1332.370696,9104.533087
3758.350725,153.219100,1184.329507,9474.636058
3758.351040,306.438199,1036.288319,9030.512492
3758.351354,0.000000,740.205942,9104.533087
3758.351669,76.609550,296.082377,9548.656652
3758.351983,0.000000,814.226536,9178.553681
3758.352298,-1149.143247,814.226536,9548.656652
3758.352612,-1149.143247,370.102971,9474.636058
3758.352927,-919.314598,370.102971,9844.739029
3758.353242,-1149.143247,370.102971,10140.821405
3758.353556,-1072.533697,-0.000000,10362.883188
3758.353871,-842.705048,296.082377,10066.800811
3758.354185,-536.266849,444.123565,10066.800811
3758.354500,76.609550,518.144159,9844.739029
3758.354815,0.000000,1184.329507,9252.574275
3758.355129,995.924147,1184.329507,9030.512492
3758.355444,995.924147,962.267725,8512.368333
3758.355758,766.095498,1258.350101,8882.471304
3758.356073,1378.971896,592.164754,9474.636058
3758.356387,1072.533697,592.164754,9400.615463
3758.356702,153.219100,888.247130,9918.759623
3758.357017,-383.047749,222.061783,9770.718434
3758.357331,-306.438199,-148.041188,9696.697840
3758.357646,-459.657299,-296.082377,9992.780217
3758.357960,-689.485948,-370.102971,10955.047942
3758.358275,-459.657299,-0.000000,10807.006753
3758.358590,0.000000,-0.000000,10732.986159
3758.358904,383.047749,518.144159,10807.006753
3758.359219,919.314598,962.267725,10288.862594
3758.359533,1302.362347,1406.391290,9474.636058
3758.359848,1532.190996,1332.370696,9400.615463
3758.360162,1685.410096,888.247130,9326.594869
3758.360477,1838.629195,444.123565,9474.636058
3758.360792,1685.410096,444.123565,9030.512492
3758.361106,1072.533697,-0.000000,9622.677246
3758.361421,459.657299,-74.020594,9474.636058
3758.361735,-153.219100,-148.041188,9326.594869
3758.362050,-306.438199,-814.226536,9326.594869
3758.362365,-842.705048,-1110.308913,10362.883188
3758.362679,-1149.143247,-1480.411884,10658.965565
3758.362994,-766.095498,-1332.370696,10140.821405
3758.363308,-383.047749,-1036.288319,10510.924376
3758.363623,229.828649,-592.164754,9918.759623
3758.363937,306.438199,296.082377,9696.697840
3758.364252,689.485948,1036.288319,8882.471304
3758.364567,1225.752797,814.226536,8660.409521
3758.364881,1532.190996,888.247130,8808.450710
3758.365196,919.314598,-0.000000,8734.430116
3758.365510,1149.143247,-0.000000,8586.388927
3758.365825,459.657299,-444.123565,9030.512492
3758.366140,153.219100,-962.267725,9030.512492
3758.366454,-612.876398,-1480.411884,9326.594869
3758.366769,-1608.800546,-1554.432478,9400.615463
3758.367083,-1455.581446,-2368.659014,9548.656652
3758.367398,-1302.362347,-1776.494261,9548.656652
3758.367712,-1072.533697,-1480.411884,10214.842000
3758.368027,-919.314598,-1332.370696,10214.842000
3758.368342,-459.657299,-1184.329507,9696.697840
3758.368656,76.609550,-444.123565,9770.718434
3758.368971,229.828649,962.267725,9178.553681
3758.369285,995.924147,1036.288319,8512.368333
3758.369600,1608.800546,1036.288319,8808.450710
3758.369915,1608.800546,740.205942,8956.491898
3758.370229,612.876398,592.164754,9474.636058
3758.370544,536.266849,370.102971,9474.636058
3758.370858,0.000000,-222.061783,10140.821405
3758.371173,-766.095498,-148.041188,9844.739029
3758.371487,-1149.143247,-740.205942,9548.656652
3758.371802,-1455.581446,-592.164754,9770.718434
3758.372117,-1532.190996,-814.226536,10658.965565
3758.372431,-1072.533697,-296.082377,10510.924376
3758.372746,-766.095498,-74.020594,10140.821405
3758.373060,-153.219100,74.020594,10288.862594
3758.373375,0.000000,518.144159,9992.780217
3758.373690,995.924147,1480.411884,8734.430116
3758.374004,1225.752797,2220.617826,8364.327145
3758.374319,1532.190996,1702.473667,8660.409521
3758.374633,1378.971896,1702.473667,8956.491898
3758.374948,689.485948,1554.432478,9252.574275
3758.375262,459.657299,962.267725,9474.636058
3758.375577,459.657299,296.082377,9918.759623
3758.375892,-459.657299,296.082377,9770.718434
3758.376206,-766.095498,-296.082377,9770.718434
3758.376521,-1225.752797,222.061783,10362.883188
3758.376835,-1378.971896,-296.082377,9548.656652
3758.377150,-919.314598,-370.102971,10510.924376
3758.377465,-383.047749,-0.000000,9918.759623
3758.377779,76.609550,370.102971,10140.821405
3758.378094,536.266849,1258.350101,10140.821405
3758.378408,995.924147,1480.411884,9918.759623
3758.378723,1378.971896,1628.453072,9548.656652
3758.379037,1455.581446,1776.494261,9104.533087
3758.379352,1455.581446,1702.473667,9178.553681
3758.379667,1149.143247,1184.329507,10140.821405
3758.379981,995.924147,740.205942,10140.821405
3758.380296,689.485948,222.061783,9918.759623
3758.380610,0.000000,-0.000000,9992.780217
3758.380925,-306.438199,148.041188,9474.636058
3758.381240,-306.438199,-222.061783,10140.821405
3758.381554,-459.657299,-296.082377,10066.800811
3758.381869,-536.266849,-444.123565,10436.903782
3758.382183,-689.485948,-222.061783,9696.697840
3758.382498,0.000000,-148.041188,10140.821405
3758.382812,153.219100,518.144159,9992.780217
3758.383127,459.657299,962.267725,9770.718434
3758.383442,229.828649,1332.370696,8956.491898
3758.383756,919.314598,1332.370696,8808.450710
3758.384071,1608.800546,962.267725,9770.718434
3758.384385,995.924147,1258.350101,8660.409521
3758.384700,689.485948,814.226536,9178.553681
3758.385015,153.219100,-74.020594,9400.615463
3758.385329,-306.438199,-296.082377,9326.594869
3758.385644,-1225.752797,-666.185348,9178.553681
3758.385958,-1072.533697,-888.247130,9030.512492
3758.386273,-612.876398,-1628.453072,9548.656652
3758.386587,-919.314598,-1332.370696,9548.656652
3758.386902,-842.705048,-1332.370696,9400.615463
3758.387217,-919.314598,-1110.308913,10214.842000
3758.387531,-536.266849,-1184.329507,10214.842000
3758.387846,0.000000,-740.205942,9548.656652
3758.388160,153.219100,222.061783,9030.512492
3758.388475,612.876398,370.102971,8586.388927
3758.388790,1225.752797,-0.000000,8882.471304
3758.389104,919.314598,370.102971,8734.430116
3758.389419,842.705048,-296.082377,9400.615463
3758.389733,766.095498,-592.164754,8956.491898
3758.390048,153.219100,-666.185348,9326.594869
3758.390362,0.000000,-666.185348,9696.697840
3758.390677,-459.657299,-666.185348,9548.656652
3758.390992,-689.485948,-1406.391290,9252.574275
3758.391306,-842.705048,-1406.391290,9844.739029
3758.391621,-1225.752797,-962.267725,10288.862594
3758.391935,-1455.581446,-1258.350101,9918.759623
3758.392250,-766.095498,-1480.411884,10584.944971
3758.392565,-229.828649,-444.123565,10214.842000
3758.392879,153.219100,296.082377,9474.636058
3758.393194,766.095498,1036.288319,9252.574275
3758.393508,1225.752797,1110.308913,9400.615463
3758.393823,1532.190996,1332.370696,9474.636058
3758.394137,1302.362347,1110.308913,8808.450710
3758.394452,1225.752797,962.267725,8808.450710
3758.394767,1455.581446,370.102971,9992.780217
3758.395081,919.314598,296.082377,9474.636058
3758.395396,306.438199,444.123565,8586.388927
3758.395710,-459.657299,-222.061783,9400.615463
3758.396025,-536.266849,-518.144159,9918.759623
3758.396340,-766.095498,-814.226536,10362.883188
3758.396654,-612.876398,-518.144159,10288.862594
3758.396969,-306.438199,-444.123565,10288.862594
3758.397283,229.828649,-444.123565,9696.697840
3758.397598,842.705048,1184.329507,9400.615463
3758.397912,842.705048,1776.494261,9326.594869
3758.398227,1685.410096,1776.494261,9178.553681
3758.398542,1838.629195,2072.576638,8586.388927
3758.398856,1915.238745,1776.494261,8586.388927
3758.399171,1685.410096,1480.411884,9104.533087
3758.399485,1455.581446,1110.308913,9474.636058
3758.399800,76.609550,740.205942,9844.739029
3758.400115,-612.876398,518.144159,9770.718434
3758.400429,-1762.019645,-666.185348,9918.759623
3758.400744,-1072.533697,-592.164754,10436.903782
3758.401058,-1225.752797,-666.185348,10807.006753
3758.401373,-1225.752797,-74.020594,10807.006753
3758.401687,-1149.143247,148.041188,10732.986159
3758.402002,-995.924147,444.123565,10140.821405
3758.402317,-229.828649,814.226536,9696.697840
3758.402631,76.609550,1702.473667,9252.574275
3758.402946,919.314598,1406.391290,9104.533087
3758.403260,1149.143247,1776.494261,9252.574275
3758.403575,689.485948,1776.494261,9474.636058
3758.403890,612.876398,814.226536,9326.594869
3758.404204,153.219100,-0.000000,9918.759623
3758.404519,-689.485948,370.102971,10214.842000
3758.404833,-995.924147,-0.000000,9844.739029
3758.405148,-689.485948,-444.123565,9696.697840
3758.405462,-1149.143247,-666.185348,10436.903782
3758.405777,-1378.971896,-518.144159,10436.903782
3758.406092,-1149.143247,-74.020594,9918.759623
3758.406406,-612.876398,-74.020594,9474.636058
3758.406721,383.047749,-0.000000,9918.759623
3758.407035,536.266849,518.144159,9474.636058
3758.407350,1225.752797,1406.391290,8438.347739
3758.407665,1225.752797,1332.370696,8364.327145
3758.407979,842.705048,962.267725,8734.430116
3758.408294,612.876398,814.226536,9326.594869
3758.408608,536.266849,370.102971,9104.533087
3758.408923,76.609550,-666.185348,9918.759623
3758.409237,-153.219100,-370.102971,9474.636058
3758.409552,-612.876398,-444.123565,9400.615463
3758.409867,-919.314598,-518.144159,9030.512492
3758.410181,-536.266849,-1110.308913,10066.800811
3758.410496,-306.438199,-1258.350101,9622.677246
3758.410810,-612.876398,-666.185348,9474.636058
3758.411125,-229.828649,-592.164754,9474.636058
3758.411440,536.266849,-222.061783,9548.656652
3758.411754,842.705048,-0.000000,9252.574275
3758.412069,919.314598,148.041188,9104.533087
3758.412383,766.095498,444.123565,9030.512492
3758.412698,766.095498,-0.000000,9104.533087
3758.413012,689.485948,-148.041188,9696.697840
3758.413327,536.266849,-74.020594,9696.697840
3758.413642,229.828649,-592.164754,10362.883188
3758.413956,-229.828649,-962.267725,9918.759623
3758.414271,0.000000,-1036.288319,10584.944971
3758.414585,-459.657299,-666.185348,9696.697840
3758.414900,-383.047749,-1110.308913,9844.739029
3758.415215,76.609550,-814.226536,9844.739029
3758.415529,0.000000,-814.226536,10140.821405
3758.415844,383.047749,-444.123565,9178.553681
3758.416158,76.609550,-962.267725,9696.697840
3758.416473,689.485948,-740.205942,9770.718434
3758.416787,383.047749,-444.123565,9770.718434
3758.417102,383.047749,296.082377,8734.430116
3758.417417,689.485948,518.144159,9400.615463
3758.417731,612.876398,592.164754,9474.636058
3758.418046,76.609550,370.102971,9326.594869
3758.418360,229.828649,-222.061783,9918.759623
3758.418675,383.047749,-370.102971,10140.821405
3758.418990,-306.438199,-296.082377,9918.759623
3758.419304,0.000000,666.185348,9104.533087
3758.419619,-229.828649,222.061783,9326.594869
3758.419933,0.000000,370.102971,9770.718434
3758.420248,0.000000,370.102971,9326.594869
3758.420562,0.000000,592.164754,9252.574275
3758.420877,383.047749,-0.000000,9474.636058
3758.421192,689.485948,296.082377,9474.636058
3758.421506,229.828649,1036.288319,8808.450710
3758.421821,0.000000,1110.308913,8660.409521
3758.422135,612.876398,814.226536,8956.491898
3758.422450,153.219100,962.267725,9400.615463
3758.422765,76.609550,740.205942,9696.697840
3758.423079,0.000000,296.082377,9696.697840
3758.423394,0.000000,370.102971,9844.739029
3758.423708,0.000000,592.164754,10066.800811
3758.424023,-229.828649,1406.391290,10066.800811
3758.424337,0.000000,1258.350101,10066.800811
3758.424652,76.609550,592.164754,9696.697840
3758.424967,153.219100,740.205942,9548.656652
3758.425281,383.047749,444.123565,9622.677246
3758.425596,0.000000,592.164754,9918.759623
3758.425910,0.000000,370.102971,10436.903782
3758.426225,0.000000,666.185348,10288.862594
3758.426540,-459.657299,592.164754,9696.697840
3758.426854,-306.438199,296.082377,9548.656652
3758.427169,0.000000,296.082377,9992.780217
3758.427483,0.000000,962.267725,10732.986159
3758.427798,383.047749,1036.288319,10288.862594
3758.428112,459.657299,740.205942,9918.759623
3758.428427,689.485948,666.185348,9992.780217
3758.428742,536.266849,888.247130,9474.636058
3758.429056,689.485948,888.247130,8956.491898
3758.429371,612.876398,740.205942,9548.656652
3758.429685,919.314598,666.185348,9770.718434
3758.430000,229.828649,962.267725,9770.718434
3758.430315,0.000000,518.144159,9696.697840
3758.430629,153.219100,-148.041188,10214.842000
3758.430944,0.000000,-222.061783,10288.862594
3758.431258,0.000000,592.164754,9474.636058
3758.431573,0.000000,592.164754,9400.615463
3758.431887,306.438199,-0.000000,9992.780217
3758.432202,459.657299,-0.000000,9474.636058
3758.432517,459.657299,-0.000000,9104.533087
3758.432831,995.924147,592.164754,9178.553681
3758.433146,766.095498,518.144159,9104.533087
3758.433460,1149.143247,592.164754,8882.471304
3758.433775,612.876398,518.144159,9104.533087
3758.434090,842.705048,370.102971,8956.491898
3758.434404,459.657299,-518.144159,8956.491898
3758.434719,0.000000,-1184.329507,9992.780217
3758.435033,-689.485948,-814.226536,10362.883188
3758.435348,-689.485948,-1036.288319,9918.759623
3758.435662,-459.657299,-814.226536,9992.780217
3758.435977,-383.047749,-518.144159,9548.656652
3758.436292,-383.047749,-592.164754,9400.615463
3758.436606,76.609550,-740.205942,9326.594869
3758.436921,766.095498,-296.082377,9474.636058
3758.437235,766.095498,-222.061783,8808.450710
3758.437550,842.705048,-222.061783,8660.409521
3758.437865,1378.971896,-740.205942,9030.512492
3758.438179,612.876398,-148.041188,9622.677246
3758.438494,306.438199,-370.102971,9178.553681
3758.438808,0.000000,-370.102971,9326.594869
3758.439123,-306.438199,-814.226536,9992.780217
3758.439437,-459.657299,-962.267725,10362.883188
3758.439752,-689.485948,-888.247130,10214.842000
3758.440067,-995.924147,-1184.329507,10362.883188
3758.440381,-689.485948,-1406.391290,10881.027347
3758.440696,-229.828649,-296.082377,10140.821405
3758.441010,-459.657299,-0.000000,9992.780217
3758.441325,0.000000,592.164754,9400.615463
3758.441640,306.438199,592.164754,9474.636058
3758.441954,766.095498,296.082377,8956.491898
3758.442269,383.047749,370.102971,9326.594869
3758.442583,459.657299,222.061783,9696.697840
3758.442898,229.828649,-74.020594,9104.533087
3758.443212,-459.657299,518.144159,9252.574275
3758.443527,-383.047749,444.123565,9696.697840
3758.443842,-612.876398,222.061783,9770.718434
3758.444156,-383.047749,-148.041188,10066.800811
3758.444471,-766.095498,-296.082377,9696.697840
3758.444785,-383.047749,-370.102971,9474.636058
3758.445100,0.000000,-0.000000,9844.739029
3758.445414,0.000000,518.144159,9696.697840
3758.445729,383.047749,962.267725,9474.636058
3758.446044,306.438199,1036.288319,8586.388927
3758.446358,689.485948,1036.288319,8956.491898
3758.446673,842.705048,1332.370696,8808.450710
3758.446987,536.266849,888.247130,9400.615463
3758.447302,229.828649,592.164754,9622.677246
3758.447617,-383.047749,296.082377,9918.759623
3758.447931,-766.095498,370.102971,9770.718434
3758.448246,-919.314598,222.061783,9918.759623
3758.448560,-612.876398,-148.041188,9992.780217
3758.448875,-459.657299,-592.164754,10510.924376
3758.449189,-383.047749,148.041188,9548.656652
3758.449504,-229.828649,-0.000000,9918.759623
3758.449819,0.000000,444.123565,10214.842000
3758.450133,459.657299,592.164754,9992.780217
3758.450448,1072.533697,962.267725,9548.656652
3758.450763,689.485948,740.205942,9252.574275
3758.451077,919.314598,444.123565,9548.656652
3758.451392,842.705048,592.164754,9696.697840
3758.451707,689.485948,370.102971,9770.718434
3758.452021,153.219100,-0.000000,9844.739029
3758.452336,153.219100,-0.000000,10362.883188
3758.452651,0.000000,370.102971,9696.697840
3758.452965,76.609550,296.082377,9622.677246
3758.453280,229.828649,222.061783,9992.780217
3758.453594,153.219100,296.082377,10066.800811
3758.453909,76.609550,518.144159,9918.759623
3758.454224,383.047749,592.164754,9918.759623
3758.454538,612.876398,-0.000000,10140.821405
3758.454853,1149.143247,592.164754,9992.780217
3758.455168,1378.971896,1702.473667,9474.636058
3758.455482,1225.752797,1406.391290,8882.471304
3758.455797,1302.362347,1036.288319,9178.553681
3758.456112,1072.533697,518.144159,9400.615463
3758.456426,1225.752797,-296.082377,9252.574275
3758.456741,536.266849,-74.020594,9474.636058
3758.457056,383.047749,-0.000000,9474.636058
3758.457370,-306.438199,-0.000000,8808.450710
3758.457685,-229.828649,222.061783,9178.553681
3758.458000,0.000000,-222.061783,9474.636058
3758.458314,-536.266849,-740.205942,9474.636058
3758.458629,-459.657299,-814.226536,9770.718434
3758.458944,-306.438199,-592.164754,9622.677246
3758.459258,0.000000,-222.061783,9918.759623
3758.459573,-153.219100,-0.000000,9622.677246
3758.459888,-153.219100,-0.000000,9252.574275
3758.460202,153.219100,-0.000000,9030.512492
3758.460517,76.609550,-0.000000,9326.594869
3758.460832,229.828649,-370.102971,9178.553681
3758.461146,76.609550,-518.144159,9622.677246
3758.461461,-306.438199,-296.082377,9474.636058
3758.461776,-536.266849,-666.185348,9696.697840
3758.462090,-919.314598,-888.247130,9992.780217
3758.462405,-842.705048,-370.102971,9992.780217
3758.462720,-842.705048,-814.226536,9400.615463
3758.463034,-689.485948,-962.267725,9474.636058
3758.463349,-689.485948,-666.185348,9918.759623
3758.463664,-536.266849,-370.102971,10066.800811
3758.463978,-459.657299,-888.247130,10436.903782
3758.464293,0.000000,-518.144159,10510.924376
3758.464607,306.438199,-0.000000,9844.739029
3758.464922,0.000000,814.226536,9104.533087
3758.465237,612.876398,962.267725,9030.512492
3758.465551,919.314598,814.226536,9474.636058
3758.465866,612.876398,592.164754,9400.615463
3758.466181,459.657299,518.144159,8956.491898
3758.466495,76.609550,-222.061783,9400.615463
3758.466810,0.000000,-518.144159,9548.656652
3758.467125,-689.485948,-222.061783,9400.615463
3758.467439,-766.095498,-0.000000,9178.553681
3758.467754,-766.095498,-74.020594,10066.800811
3758.468069,-689.485948,-0.000000,10214.842000
3758.468383,-766.095498,-222.061783,10140.821405
3758.468698,-459.657299,-74.020594,9918.759623
3758.469013,76.609550,-148.041188,9918.759623
3758.469327,919.314598,370.102971,9696.697840
3758.469642,536.266849,1628.453072,8956.491898
3758.469957,1378.971896,1554.432478,8660.409521
3758.470271,1532.190996,1110.308913,8956.491898
3758.470586,1302.362347,814.226536,8734.430116
3758.470901,1225.752797,518.144159,9104.533087
3758.471215,995.924147,-74.020594,8734.430116
3758.471530,383.047749,-740.205942,9918.759623
3758.471845,76.609550,-518.144159,9844.739029
3758.472159,-536.266849,-444.123565,9696.697840
3758.472474,-612.876398,-1184.329507,9770.718434
3758.472789,-306.438199,-592.164754,10436.903782
3758.473103,-229.828649,-0.000000,9992.780217
3758.473418,0.000000,-0.000000,9696.697840
3758.473733,536.266849,296.082377,10214.842000
3758.474047,842.705048,518.144159,10362.883188
3758.474362,1149.143247,1628.453072,8956.491898
3758.474677,1072.533697,1628.453072,9474.636058
3758.474991,1532.190996,1702.473667,9252.574275
3758.475306,1532.190996,1036.288319,9474.636058
3758.475621,1302.362347,1258.350101,9474.636058
3758.475935,383.047749,888.247130,9030.512492
3758.476250,76.609550,-0.000000,9918.759623
3758.476564,-612.876398,-0.000000,10066.800811
3758.476879,-1225.752797,148.041188,9548.656652
3758.477194,-1149.143247,-0.000000,9918.759623
3758.477508,-1608.800546,-666.185348,10436.903782
3758.477823,-1378.971896,-444.123565,10807.006753
3758.478138,-1302.362347,222.061783,10214.842000
3758.478452,-383.047749,222.061783,10510.924376
3758.478767,306.438199,370.102971,10214.842000
3758.479082,995.924147,1850.514855,9252.574275
3758.479396,1378.971896,2516.700203,8586.388927
3758.479711,1532.190996,2146.597232,8438.347739
3758.480026,1762.019645,1998.556043,8734.430116
3758.480340,766.095498,962.267725,8586.388927
3758.480655,536.266849,370.102971,9474.636058
3758.480970,76.609550,-666.185348,9696.697840
3758.481284,-1072.533697,-962.267725,9770.718434
3758.481599,-1608.800546,-592.164754,9696.697840
3758.481914,-1762.019645,-888.247130,9770.718434
3758.482228,-1378.971896,-1184.329507,10436.903782
3758.482543,-995.924147,-1332.370696,10214.842000
3758.482858,-612.876398,-296.082377,9770.718434
3758.483172,-229.828649,-444.123565,9474.636058
3758.483487,536.266849,-222.061783,9474.636058
3758.483802,919.314598,666.185348,9252.574275
3758.484116,919.314598,1480.411884,8956.491898
3758.484431,1149.143247,962.267725,8734.430116
3758.484746,995.924147,518.144159,9326.594869
3758.485060,612.876398,296.082377,9474.636058
3758.485375,306.438199,-592.164754,9400.615463
3758.485690,-229.828649,-1258.350101,10066.800811
3758.486004,-612.876398,-1776.494261,10362.883188
3758.486319,-919.314598,-1332.370696,10066.800811
3758.486634,-1608.800546,-1332.370696,9844.739029
3758.486948,-1072.533697,-1036.288319,9992.780217
3758.487263,-1149.143247,-1406.391290,10362.883188
3758.487578,-689.485948,-740.205942,10288.862594
3758.487892,229.828649,-222.061783,9844.739029
3758.488207,919.314598,-0.000000,9548.656652
3758.488521,1149.143247,814.226536,9474.636058
3758.488836,1225.752797,1184.329507,8586.388927
3758.489151,1302.362347,888.247130,8438.347739
3758.489465,1838.629195,666.185348,8512.368333
3758.489780,1302.362347,888.247130,9104.533087
3758.490095,766.095498,-0.000000,9104.533087
3758.490409,76.609550,-518.144159,9622.677246
3758.490724,0.000000,-740.205942,9696.697840
3758.491039,-919.314598,-592.164754,9844.739029
3758.491353,-1302.362347,-888.247130,9548.656652
3758.491668,-766.095498,-814.226536,9622.677246
3758.491983,-459.657299,-592.164754,9696.697840
3758.492297,-229.828649,-148.041188,9252.574275
3758.492612,459.657299,-0.000000,9474.636058
3758.492927,766.095498,666.185348,9104.533087
3758.493241,1072.533697,592.164754,9474.636058
3758.493556,1302.362347,1554.432478,8882.471304
3758.493871,1608.800546,1480.411884,7920.203579
3758.494185,1455.581446,1258.350101,8512.368333
3758.494500,1149.143247,740.205942,9770.718434
3758.494815,306.438199,148.041188,9918.759623
3758.495129,0.000000,-370.102971,10214.842000
3758.495444,-612.876398,-592.164754,10288.862594
3758.495759,-383.047749,-518.144159,10066.800811
3758.496073,-536.266849,222.061783,9992.780217
3758.496388,-689.485948,-148.041188,9844.739029
3758.496703,-459.657299,-370.102971,9696.697840
3758.497017,0.000000,-0.000000,10584.944971
3758.497332,229.828649,296.082377,9770.718434
3758.497647,689.485948,148.041188,9770.718434
3758.497961,842.705048,814.226536,10140.821405
3758.498276,383.047749,1258.350101,9474.636058
3758.498591,459.657299,1776.494261,9252.574275
3758.498905,689.485948,1702.473667,9696.697840
3758.499220,536.266849,1480.411884,10214.842000
3758.499534,229.828649,962.267725,10214.842000
3758.499849,383.047749,-0.000000,9844.739029
3758.500164,0.000000,222.061783,9770.718434
3758.500478,-536.266849,518.144159,10288.862594
3758.500793,-919.314598,592.164754,9844.739029
3758.501108,-459.657299,370.102971,9622.677246
3758.501422,-766.095498,-222.061783,9622.677246
3758.501737,-229.828649,-74.020594,9326.594869
3758.502052,-612.876398,-0.000000,9474.636058
3758.502366,-536.266849,-0.000000,9918.759623
3758.502681,0.000000,222.061783,9622.677246
3758.502996,-229.828649,740.205942,9252.574275
3758.503310,153.219100,1332.370696,9326.594869
3758.503625,383.047749,1110.308913,9622.677246
3758.503940,612.876398,1036.288319,9178.553681
3758.504254,1149.143247,1258.350101,9474.636058
3758.504569,229.828649,740.205942,8734.430116
3758.504884,459.657299,-0.000000,9548.656652
3758.505198,536.266849,-148.041188,9622.677246
3758.505513,0.000000,-222.061783,9548.656652
3758.505828,76.609550,-74.020594,9104.533087
3758.506142,-383.047749,-592.164754,9178.553681
3758.506457,-383.047749,-296.082377,9474.636058
3758.506772,-306.438199,-666.185348,9622.677246
3758.507086,-306.438199,-1110.308913,9918.759623
3758.507401,76.609550,-1628.453072,9770.718434
3758.507716,229.828649,-592.164754,9548.656652
3758.508030,0.000000,370.102971,9622.677246
3758.508345,536.266849,-0.000000,9474.636058
3758.508660,1149.143247,444.123565,9918.759623
3758.508974,1302.362347,-0.000000,9400.615463
3758.509289,1072.533697,148.041188,9104.533087
3758.509604,1149.143247,-0.000000,9252.574275
3758.509918,919.314598,-296.082377,9474.636058
3758.510233,306.438199,-222.061783,9770.718434
3758.510548,229.828649,-222.061783,9252.574275
3758.510862,-306.438199,-666.185348,9252.574275
3758.511177,-383.047749,-962.267725,9992.780217
3758.511491,-612.876398,-1332.370696,9844.739029
3758.511806,-306.438199,-1480.411884,9770.718434
3758.512121,-229.828649,-1406.391290,9992.780217
3758.512435,-612.876398,-592.164754,10362.883188
3758.512750,-153.219100,-0.000000,9548.656652
3758.513065,383.047749,740.205942,8882.471304
3758.513379,1072.533697,888.247130,8956.491898
3758.513694,1149.143247,814.226536,8882.471304
3758.514009,1149.143247,1110.308913,8808.450710
3758.514323,1302.362347,666.185348,8734.430116
3758.514638,995.924147,296.082377,9104.533087
3758.514953,153.219100,370.102971,9474.636058
3758.515267,-766.095498,-0.000000,9548.656652
3758.515582,-536.266849,-0.000000,9474.636058
3758.515897,-919.314598,-444.123565,9696.697840
3758.516211,-1149.143247,-814.226536,10436.903782
3758.516526,-1455.581446,-740.205942,10288.862594
3758.516841,-612.876398,-666.185348,10288.862594
3758.517155,0.000000,-0.000000,10140.821405
3758.517470,153.219100,740.205942,9474.636058
3758.517785,689.485948,1480.411884,9326.594869
3758.518099,1072.533697,1184.329507,9178.553681
3758.518414,919.314598,1406.391290,8956.491898
3758.518729,1455.581446,1628.453072,9178.553681
3758.519043,919.314598,962.267725,9178.553681
3758.519358,536.266849,370.102971,9474.636058
3758.519673,0.000000,-0.000000,9622.677246
3758.519987,-1072.533697,-0.000000,9548.656652
3758.520302,-1149.143247,-222.061783,10140.821405
3758.520617,-1378.971896,-444.123565,11029.068536
3758.520931,-1608.800546,-740.205942,11473.192101
3758.521246,-1838.629195,-74.020594,10807.006753
3758.521561,-1072.533697,-148.041188,11103.089130
3758.521875,-689.485948,-0.000000,10658.965565
3758.522190,0.000000,888.247130,10066.800811
3758.522504,459.657299,1554.432478,9252.574275
3758.522819,766.095498,962.267725,9178.553681
3758.523134,1225.752797,1628.453072,8808.450710
3758.523448,1532.190996,1332.370696,8586.388927
3758.523763,1455.581446,1184.329507,9178.553681
3758.524078,1072.533697,518.144159,9844.739029
3758.524392,766.095498,-0.000000,9178.553681
3758.524707,-459.657299,222.061783,9326.594869
3758.525022,-459.657299,-296.082377,9400.615463
3758.525336,-383.047749,-740.205942,9548.656652
3758.525651,-536.266849,-518.144159,9696.697840
3758.525966,-995.924147,-814.226536,9844.739029
3758.526280,-306.438199,-740.205942,10436.903782
3758.526595,153.219100,-222.061783,9844.739029
3758.526910,842.705048,518.144159,9474.636058
3758.527224,1685.410096,1776.494261,9696.697840
3758.527539,1378.971896,1554.432478,8512.368333
3758.527854,1685.410096,1332.370696,9252.574275
3758.528168,1302.362347,1332.370696,8956.491898
3758.528483,1072.533697,814.226536,9326.594869
3758.528798,1225.752797,-0.000000,9252.574275
3758.529112,229.828649,-148.041188,9104.533087
3758.529427,0.000000,-592.164754,9696.697840
3758.529742,-766.095498,-814.226536,9474.636058
3758.530056,-1378.971896,-962.267725,9696.697840
3758.530371,-919.314598,-1480.411884,10140.821405
3758.530686,-1149.143247,-1184.329507,9992.780217
3758.531000,-459.657299,-666.185348,9696.697840
3758.531315,0.000000,-814.226536,10584.944971
3758.531630,0.000000,-296.082377,10066.800811
3758.531944,459.657299,296.082377,9326.594869
3758.532259,919.314598,1184.329507,9178.553681
3758.532574,1225.752797,1036.288319,9326.594869
3758.532888,1378.971896,1036.288319,9252.574275
3758.533203,1532.190996,444.123565,9474.636058
3758.533518,1838.629195,-0.000000,9474.636058
3758.533832,689.485948,-888.247130,9548.656652
3758.534147,0.000000,-222.061783,9104.533087
3758.534461,-383.047749,-444.123565,9326.594869
3758.534776,-766.095498,-814.226536,9992.780217
3758.535091,-1072.533697,-1850.514855,10214.842000
3758.535405,-1302.362347,-1184.329507,9548.656652
3758.535720,-1302.362347,-814.226536,10214.842000
3758.536035,-766.095498,-518.144159,9844.739029
3758.536349,-306.438199,-148.041188,9548.656652
3758.536664,0.000000,666.185348,8808.450710
3758.536979,76.609550,888.247130,9030.512492
3758.537293,995.924147,666.185348,8882.471304
3758.537608,995.924147,1110.308913,8808.450710
3758.537923,536.266849,1036.288319,9474.636058
3758.538237,76.609550,592.164754,9474.636058
3758.538552,0.000000,518.144159,9696.697840
3758.538867,-383.047749,370.102971,9992.780217
3758.539181,-1149.143247,444.123565,10140.821405
3758.539496,-842.705048,-222.061783,9474.636058
3758.539811,-1072.533697,-592.164754,9844.739029
3758.540125,-842.705048,-518.144159,10288.862594
3758.540440,-995.924147,-444.123565,10362.883188
3758.540755,-153.219100,-74.020594,9844.739029
3758.541069,0.000000,-0.000000,9844.739029
3758.541384,383.047749,962.267725,9474.636058
3758.541699,919.314598,814.226536,8734.430116
3758.542013,1302.362347,1036.288319,9178.553681
3758.542328,1455.581446,814.226536,9548.656652
3758.542643,766.095498,962.267725,9252.574275
3758.542957,766.095498,888.247130,9474.636058
3758.543272,536.266849,222.061783,10066.800811
3758.543587,153.219100,-0.000000,10140.821405
3758.543901,0.000000,518.144159,9474.636058
3758.544216,76.609550,148.041188,9622.677246
3758.544531,153.219100,-74.020594,9696.697840
3758.544845,-153.219100,-148.041188,9696.697840
3758.545160,0.000000,-0.000000,9770.718434
3758.545475,153.219100,-518.144159,9696.697840
3758.545789,459.657299,-0.000000,9992.780217
3758.546104,306.438199,592.164754,9622.677246
3758.546418,383.047749,814.226536,8956.491898
3758.546733,536.266849,888.247130,9326.594869
3758.547048,842.705048,148.041188,9696.697840
3758.547362,766.095498,666.185348,9474.636058
3758.547677,459.657299,740.205942,9474.636058
3758.547992,536.266849,592.164754,9696.697840
3758.548306,0.000000,666.185348,9474.636058
3758.548621,0.000000,592.164754,9326.594869
3758.548936,0.000000,518.144159,9326.594869
3758.549250,0.000000,-74.020594,9548.656652
3758.549565,0.000000,-0.000000,9696.697840
3758.549880,-459.657299,-222.061783,10732.986159
3758.550194,0.000000,222.061783,10066.800811
3758.550509,153.219100,-0.000000,9918.759623
3758.550823,153.219100,444.123565,9548.656652
3758.551138,76.609550,592.164754,9400.615463
3758.551453,536.266849,1036.288319,9104.533087
3758.551767,1072.533697,296.082377,9030.512492
3758.552082,1225.752797,666.185348,9030.512492
3758.552397,919.314598,666.185348,9474.636058
3758.552711,536.266849,296.082377,9474.636058
3758.553026,0.000000,-74.020594,9696.697840
3758.553341,-76.609550,370.102971,9474.636058
3758.553655,0.000000,444.123565,9474.636058
3758.553970,-306.438199,-296.082377,9326.594869
3758.554284,-612.876398,-888.247130,10214.842000
3758.554599,-766.095498,-740.205942,10288.862594
3758.554914,-842.705048,-666.185348,10288.862594
3758.555228,-612.876398,-592.164754,10362.883188
3758.555543,-229.828649,-370.102971,10362.883188
3758.555858,-306.438199,222.061783,9770.718434
3758.556172,612.876398,-0.000000,9030.512492
3758.556487,459.657299,74.020594,9178.553681
3758.556802,459.657299,-148.041188,9474.636058
3758.557116,306.438199,-0.000000,9252.574275
3758.557431,229.828649,-296.082377,9400.615463
3758.557745,0.000000,-814.226536,9918.759623
3758.558060,-383.047749,-666.185348,9548.656652
3758.558375,-383.047749,-518.144159,9622.677246
3758.558689,-459.657299,-518.144159,9474.636058
3758.559004,-229.828649,-1332.370696,9474.636058
3758.559319,-306.438199,-518.144159,9548.656652
3758.559633,0.000000,-740.205942,10066.800811
3758.559948,0.000000,-296.082377,9696.697840
3758.560263,612.876398,-0.000000,9474.636058
3758.560577,995.924147,740.205942,8956.491898
3758.560892,842.705048,962.267725,9030.512492
3758.561206,842.705048,740.205942,9252.574275
3758.561521,919.314598,296.082377,9178.553681
3758.561836,459.657299,222.061783,9400.615463
3758.562150,383.047749,-370.102971,9770.718434
3758.562465,383.047749,-444.123565,9918.759623
3758.562780,-153.219100,-222.061783,9770.718434
3758.563094,-306.438199,-0.000000,9326.594869
3758.563409,-383.047749,222.061783,8660.409521
3758.563724,-536.266849,-370.102971,9326.594869
3758.564038,0.000000,-148.041188,9918.759623
3758.564353,76.609550,-148.041188,9474.636058
3758.564667,229.828649,-0.000000,9622.677246
3758.564982,459.657299,-0.000000,9548.656652
3758.565297,995.924147,518.144159,9696.697840
3758.565611,229.828649,1406.391290,8882.471304
3758.565926,153.219100,1110.308913,8660.409521
3758.566241,383.047749,370.102971,9178.553681
3758.566555,306.438199,370.102971,9770.718434
3758.566870,0.000000,370.102971,9474.636058
3758.567185,0.000000,-74.020594,9696.697840
3758.567499,-612.876398,-0.000000,10510.924376
3758.567814,-689.485948,-0.000000,9918.759623
3758.568128,-306.438199,-0.000000,9770.718434
3758.568443,0.000000,-0.000000,10140.821405
3758.568758,0.000000,-0.000000,9918.759623
3758.569072,0.000000,296.082377,9696.697840
3758.569387,0.000000,444.123565,9696.697840
3758.569702,383.047749,666.185348,9992.780217
3758.570016,689.485948,740.205942,9548.656652
3758.570331,766.095498,1036.288319,9252.574275
3758.570646,766.095498,962.267725,8808.450710
3758.570960,842.705048,888.247130,9400.615463
3758.571275,536.266849,444.123565,9622.677246
3758.571589,0.000000,666.185348,9918.759623
3758.571904,0.000000,-222.061783,9992.780217
3758.572219,0.000000,-148.041188,10214.842000
3758.572533,-229.828649,814.226536,9992.780217
3758.572848,-383.047749,814.226536,10436.903782
3758.573163,-229.828649,814.226536,10066.800811
3758.573477,0.000000,222.061783,9992.780217
3758.573792,0.000000,814.226536,9992.780217
3758.574107,0.000000,666.185348,10214.842000
3758.574421,459.657299,296.082377,9844.739029
3758.574736,536.266849,666.185348,9992.780217
3758.575050,306.438199,1554.432478,9030.512492
3758.575365,229.828649,1036.288319,8956.491898
3758.575680,536.266849,296.082377,8882.471304
3758.575994,153.219100,-222.061783,9548.656652
3758.576309,0.000000,-0.000000,9474.636058
3758.576624,-229.828649,-444.123565,9918.759623
3758.576938,-459.657299,-222.061783,10066.800811
3758.577253,-536.266849,-296.082377,10066.800811
3758.577568,0.000000,-370.102971,9178.553681
3758.577882,0.000000,-148.041188,8734.430116
3758.578197,0.000000,-370.102971,9178.553681
3758.578511,0.000000,-0.000000,9474.636058
3758.578826,306.438199,-74.020594,9326.594869
3758.579141,153.219100,-444.123565,9696.697840
3758.579455,842.705048,-518.144159,9696.697840
3758.579770,612.876398,-74.020594,8956.491898
3758.580085,536.266849,-0.000000,8882.471304
3758.580399,689.485948,-222.061783,9326.594869
3758.580714,306.438199,-592.164754,9474.636058
3758.581029,306.438199,-518.144159,9178.553681
3758.581343,306.438199,-444.123565,9400.615463
3758.581658,612.876398,-1332.370696,9918.759623
3758.581972,306.438199,-814.226536,9548.656652
3758.582287,76.609550,-592.164754,9104.533087
3758.582602,689.485948,-444.123565,9104.533087
3758.582916,306.438199,-814.226536,9326.594869
3758.583231,76.609550,-370.102971,9622.677246
3758.583546,0.000000,-666.185348,9844.739029
3758.583860,-229.828649,-370.102971,9548.656652
3758.584175,0.000000,-518.144159,9548.656652
3758.584490,0.000000,-0.000000,9474.636058
3758.584804,0.000000,-0.000000,9252.574275
3758.585119,76.609550,444.123565,9622.677246
3758.585433,0.000000,370.102971,9696.697840
3758.585748,153.219100,-222.061783,9770.718434
3758.586063,0.000000,-0.000000,9844.739029
3758.586377,0.000000,-0.000000,9918.759623
3758.586692,0.000000,-0.000000,9770.718434
3758.587007,-306.438199,444.123565,9400.615463
3758.587321,-612.876398,-0.000000,9400.615463
3758.587636,-153.219100,-0.000000,9400.615463
3758.587951,0.000000,222.061783,9400.615463
3758.588265,-229.828649,-0.000000,9770.718434
3758.588580,0.000000,-0.000000,9474.636058
3758.588894,0.000000,296.082377,9770.718434
3758.589209,229.828649,444.123565,9770.718434
3758.589524,306.438199,1110.308913,9178.553681
3758.589838,306.438199,888.247130,9104.533087
3758.590153,919.314598,740.205942,9400.615463
3758.590468,229.828649,888.247130,9474.636058
3758.590782,306.438199,666.185348,9400.615463
3758.591097,76.609550,296.082377,9918.759623
3758.591411,0.000000,222.061783,9992.780217
3758.591726,-153.219100,370.102971,9992.780217
3758.592041,153.219100,296.082377,9622.677246
3758.592355,0.000000,444.123565,9696.697840
3758.592670,76.609550,444.123565,10362.883188
3758.592985,-383.047749,148.041188,10436.903782
3758.593299,-306.438199,-0.000000,10140.821405
3758.593614,383.047749,296.082377,10288.862594
3758.593929,229.828649,888.247130,10214.842000
3758.594243,612.876398,1480.411884,9474.636058
3758.594558,306.438199,1702.473667,9252.574275
3758.594872,536.266849,592.164754,9548.656652
3758.595187,612.876398,592.164754,9918.759623
3758.595502,383.047749,962.267725,9400.615463
3758.595816,306.438199,518.144159,10214.842000
3758.596131,0.000000,592.164754,10066.800811
3758.596446,-383.047749,148.041188,9696.697840
3758.596760,0.000000,296.082377,9992.780217
3758.597075,0.000000,-74.020594,10436.903782
3758.597390,-229.828649,-444.123565,10288.862594
3758.597704,-306.438199,-0.000000,10362.883188
3758.598019,76.609550,296.082377,10288.862594
3758.598333,76.609550,148.041188,10510.924376
3758.598648,1072.533697,592.164754,9918.759623
3758.598963,995.924147,1184.329507,9178.553681
3758.599277,1149.143247,1554.432478,8734.430116
3758.599592,1991.848295,814.226536,7920.203579
3758.599907,1455.581446,1110.308913,8290.306550
3758.600221,1149.143247,814.226536,8142.265362
3758.600536,1225.752797,-370.102971,8956.491898
3758.600851,383.047749,-370.102971,9400.615463
3758.601165,0.000000,-592.164754,9474.636058
3758.601480,-612.876398,-444.123565,9474.636058
3758.601794,-689.485948,-296.082377,9178.553681
3758.602109,-536.266849,-740.205942,9770.718434
3758.602424,-919.314598,-1036.288319,10214.842000
3758.602738,-1225.752797,-962.267725,10066.800811
3758.603053,-383.047749,-444.123565,10510.924376
3758.603368,0.000000,-148.041188,9770.718434
3758.603682,0.000000,444.123565,10066.800811
3758.603997,306.438199,518.144159,9178.553681
3758.604312,919.314598,370.102971,8808.450710
3758.604626,1225.752797,-0.000000,9622.677246
3758.604941,766.095498,-0.000000,9030.512492
3758.605255,459.657299,-0.000000,9326.594869
3758.605570,383.047749,-1110.308913,9548.656652
3758.605885,-612.876398,-1628.453072,9548.656652
3758.606199,-1302.362347,-1332.370696,9696.697840
3758.606514,-1608.800546,-1406.391290,9548.656652
3758.606829,-1608.800546,-2220.617826,10584.944971
3758.607143,-1455.581446,-1850.514855,10584.944971
3758.607458,-1302.362347,-1480.411884,9918.759623
3758.607773,-842.705048,-888.247130,10214.842000
3758.608087,0.000000,-370.102971,10510.924376
3758.608402,536.266849,370.102971,9696.697840
3758.608716,919.314598,1036.288319,8882.471304
3758.609031,1762.019645,1406.391290,8438.347739
3758.609346,1838.629195,1332.370696,8512.368333
3758.609660,1378.971896,1110.308913,8586.388927
3758.609975,689.485948,888.247130,8956.491898
3758.610290,536.266849,-296.082377,9474.636058
3758.610604,0.000000,-222.061783,9252.574275
3758.610919,-612.876398,-666.185348,9474.636058
3758.611234,-1149.143247,-296.082377,9252.574275
3758.611548,-995.924147,-1036.288319,9548.656652
3758.611863,-1072.533697,-888.247130,9844.739029
3758.612177,-919.314598,-814.226536,9474.636058
3758.612492,-459.657299,-740.205942,9548.656652
3758.612807,229.828649,222.061783,9474.636058
3758.613121,612.876398,740.205942,9400.615463
3758.613436,1072.533697,1850.514855,7994.224174
3758.613751,1455.581446,1998.556043,8882.471304
3758.614065,1838.629195,2072.576638,9104.533087
3758.614380,1532.190996,1628.453072,9400.615463
3758.614695,1455.581446,1332.370696,9474.636058
3758.615009,612.876398,740.205942,9252.574275
3758.615324,0.000000,370.102971,10881.027347
3758.615638,0.000000,444.123565,10510.924376
3758.615953,-459.657299,444.123565,10066.800811
3758.616268,0.000000,296.082377,10510.924376
3758.616582,-229.828649,-296.082377,10510.924376
3758.616897,-459.657299,-0.000000,10732.986159
3758.617212,-153.219100,222.061783,10140.821405
3758.617526,383.047749,-296.082377,10881.027347
3758.617841,459.657299,-0.000000,10066.800811
3758.618156,842.705048,1406.391290,9400.615463
3758.618470,1608.800546,1998.556043,9474.636058
3758.618785,1455.581446,1258.350101,9252.574275
3758.619099,1378.971896,1702.473667,9622.677246
3758.619414,1072.533697,1480.411884,9400.615463
3758.619729,995.924147,1036.288319,9474.636058
3758.620043,459.657299,518.144159,10214.842000
3758.620358,-306.438199,-0.000000,10362.883188
3758.620673,-919.314598,222.061783,10066.800811
3758.620987,-1302.362347,-0.000000,9770.718434
3758.621302,-842.705048,-74.020594,10214.842000
3758.621617,-612.876398,518.144159,10436.903782
3758.621931,-995.924147,222.061783,10140.821405
3758.622246,-612.876398,-0.000000,9992.780217
3758.622560,-536.266849,444.123565,9918.759623
3758.622875,76.609550,1110.308913,9252.574275
3758.623190,766.095498,1332.370696,8364.327145
3758.623504,689.485948,1258.350101,8364.327145
3758.623819,919.314598,1258.350101,8808.450710
3758.624134,689.485948,962.267725,8290.306550
3758.624448,536.266849,666.185348,8882.471304
3758.624763,306.438199,148.041188,9326.594869
3758.625078,0.000000,-148.041188,9474.636058
3758.625392,-689.485948,296.082377,9400.615463
3758.625707,-536.266849,-222.061783,8808.450710
3758.626021,-612.876398,-962.267725,9474.636058
3758.626336,-995.924147,-1332.370696,10436.903782
3758.626651,-995.924147,-1406.391290,10140.821405
3758.626965,-689.485948,-1258.350101,9844.739029
3758.627280,0.000000,-1036.288319,9918.759623
3758.627595,306.438199,-296.082377,9918.759623
3758.627909,153.219100,444.123565,9326.594869
3758.628224,536.266849,444.123565,9770.718434
3758.628539,1455.581446,-370.102971,9696.697840
3758.628853,1072.533697,-0.000000,9400.615463
3758.629168,1149.143247,-148.041188,9474.636058
3758.629482,536.266849,-222.061783,9474.636058
3758.629797,153.219100,-888.247130,9696.697840
3758.630112,-536.266849,-444.123565,9474.636058
3758.630426,-383.047749,-1110.308913,8882.471304
3758.630741,-919.314598,-1850.514855,9474.636058
3758.631056,-1149.143247,-1924.535449,10140.821405
3758.631370,-1149.143247,-1924.535449,9918.759623
3758.631685,-1149.143247,-2220.617826,10140.821405
3758.632000,-459.657299,-1406.391290,10510.924376
3758.632314,0.000000,-814.226536,10362.883188
3758.632629,383.047749,-0.000000,9696.697840
3758.632943,1608.800546,518.144159,9326.594869
3758.633258,1685.410096,1036.288319,9178.553681
3758.633573,1838.629195,888.247130,9178.553681
3758.633887,1608.800546,1332.370696,8438.347739
3758.634202,1532.190996,962.267725,8364.327145
3758.634517,842.705048,370.102971,8660.409521
3758.634831,459.657299,-0.000000,9030.512492
3758.635146,229.828649,518.144159,8956.491898
3758.635461,-383.047749,-592.164754,9252.574275
3758.635775,-536.266849,-740.205942,10066.800811
3758.636090,-383.047749,-666.185348,10732.986159
3758.636404,-995.924147,-740.205942,10288.862594
3758.636719,-766.095498,-740.205942,9992.780217
3758.637034,0.000000,-0.000000,10214.842000
3758.637348,0.000000,1036.288319,9696.697840
3758.637663,689.485948,1554.432478,8364.327145
3758.637978,1455.581446,1850.514855,8734.430116
3758.638292,1762.019645,1924.535449,8808.450710
3758.638607,1608.800546,1554.432478,9030.512492
3758.638922,1072.533697,1110.308913,9474.636058
3758.639236,689.485948,370.102971,9770.718434
3758.639551,0.000000,370.102971,9770.718434
3758.639865,-766.095498,222.061783,9548.656652
3758.640180,-1225.752797,-74.020594,9622.677246
3758.640495,-1455.581446,-814.226536,10510.924376
3758.640809,-1762.019645,-592.164754,10510.924376
3758.641124,-1685.410096,-814.226536,10807.006753
3758.641439,-1378.971896,-666.185348,10881.027347
3758.641753,-995.924147,-74.020594,10658.965565
3758.642068,-306.438199,1110.308913,10066.800811
3758.642383,383.047749,1628.453072,9400.615463
3758.642697,919.314598,1628.453072,9178.553681
3758.643012,1532.190996,1998.556043,9252.574275
3758.643326,1455.581446,2072.576638,9400.615463
3758.643641,1455.581446,1554.432478,8882.471304
3758.643956,1149.143247,814.226536,9474.636058
3758.644270,0.000000,814.226536,9474.636058
3758.644585,-229.828649,888.247130,9252.574275
3758.644900,-689.485948,148.041188,9696.697840
3758.645214,-536.266849,-740.205942,10066.800811
3758.645529,-1378.971896,-814.226536,10510.924376
3758.645844,-1532.190996,-296.082377,9918.759623
3758.646158,-1149.143247,-0.000000,9918.759623
3758.646473,0.000000,-0.000000,9992.780217
3758.646787,536.266849,888.247130,9918.759623
3758.647102,1072.533697,2072.576638,9178.553681
3758.647417,1378.971896,1554.432478,8216.285956
3758.647731,1685.410096,1776.494261,8586.388927
3758.648046,1685.410096,1628.453072,8956.491898
3758.648361,1378.971896,962.267725,8956.491898
3758.648675,1302.362347,444.123565,9622.677246
3758.648990,306.438199,148.041188,9474.636058
3758.649304,-383.047749,-0.000000,9474.636058
3758.649619,-919.314598,-296.082377,9696.697840
3758.649934,-766.095498,-962.267725,10214.842000
3758.650248,-995.924147,-1554.432478,9992.780217
3758.650563,-1378.971896,-1628.453072,10584.944971
3758.650878,-383.047749,-1554.432478,10288.862594
3758.651192,76.609550,-1036.288319,10288.862594
3758.651507,229.828649,-222.061783,9918.759623
3758.651821,76.609550,592.164754,9252.574275
3758.652136,1225.752797,296.082377,9178.553681
3758.652451,1685.410096,444.123565,9178.553681
3758.652765,842.705048,-0.000000,9622.677246
3758.653080,1149.143247,-0.000000,9400.615463
3758.653394,766.095498,-592.164754,9844.739029
3758.653709,306.438199,-814.226536,9918.759623
3758.654024,0.000000,-1110.308913,10362.883188
3758.654338,-306.438199,-1036.288319,9548.656652
3758.654653,0.000000,-1480.411884,9770.718434
3758.654968,-459.657299,-1480.411884,9474.636058
3758.655282,-612.876398,-1258.350101,9474.636058
3758.655597,-536.266849,-740.205942,9696.697840
3758.655911,0.000000,-888.247130,9474.636058
3758.656226,153.219100,-296.082377,9622.677246
3758.656541,229.828649,222.061783,9252.574275
3758.656855,229.828649,444.123565,8956.491898
3758.657170,689.485948,740.205942,9326.594869
3758.657484,766.095498,592.164754,9622.677246
3758.657799,153.219100,814.226536,9622.677246
3758.658114,306.438199,222.061783,9400.615463
3758.658428,153.219100,-0.000000,9696.697840
3758.658743,0.000000,222.061783,9474.636058
3758.659057,-536.266849,-0.000000,9326.594869
3758.659372,-689.485948,-74.020594,9400.615463
3758.659687,-995.924147,-444.123565,9548.656652
3758.660001,-383.047749,-666.185348,9030.512492
3758.660316,-229.828649,-222.061783,9252.574275
3758.660631,-306.438199,-296.082377,9252.574275
3758.660945,0.000000,-0.000000,9252.574275
3758.661260,-229.828649,666.185348,8734.430116
3758.661574,0.000000,814.226536,8882.471304
3758.661889,0.000000,370.102971,9030.512492
3758.662204,153.219100,370.102971,9844.739029
3758.662518,76.609550,222.061783,9696.697840
3758.662833,76.609550,592.164754,9548.656652
3758.663147,306.438199,-296.082377,10658.965565
3758.663462,-306.438199,592.164754,10658.965565
3758.663777,-842.705048,1184.329507,9622.677246
3758.664091,-229.828649,518.144159,9622.677246
3758.664406,0.000000,-0.000000,9548.656652
3758.664721,153.219100,-0.000000,9918.759623
3758.665035,0.000000,-74.020594,9918.759623
3758.665350,76.609550,-0.000000,9548.656652
3758.665664,459.657299,296.082377,9770.718434
3758.665979,306.438199,370.102971,9918.759623
3758.666294,153.219100,370.102971,9992.780217
3758.666608,842.705048,370.102971,9770.718434
3758.666923,536.266849,518.144159,9696.697840
3758.667237,689.485948,962.267725,9992.780217
3758.667552,689.485948,1332.370696,9844.739029
3758.667867,612.876398,740.205942,9770.718434
3758.668181,919.314598,740.205942,9992.780217
3758.668496,842.705048,1184.329507,9548.656652
3758.668811,766.095498,1258.350101,8586.388927
3758.669125,995.924147,888.247130,9474.636058
3758.669440,536.266849,592.164754,9474.636058
3758.669754,0.000000,592.164754,10066.800811
3758.670069,-229.828649,222.061783,10288.862594
3758.670384,0.000000,-148.041188,10288.862594
3758.670698,0.000000,370.102971,10140.821405
3758.671013,0.000000,962.267725,9696.697840
3758.671327,0.000000,1036.288319,9992.780217
3758.671642,459.657299,1184.329507,9770.718434
3758.671957,842.705048,1110.308913,9622.677246
3758.672271,689.485948,518.144159,9474.636058
3758.672586,1302.362347,370.102971,9474.636058
3758.672901,995.924147,444.123565,9622.677246
3758.673215,459.657299,370.102971,9326.594869
3758.673530,459.657299,592.164754,8956.491898
3758.673844,383.047749,-444.123565,9400.615463
3758.674159,153.219100,-370.102971,9474.636058
3758.674474,-459.657299,-666.185348,9548.656652
3758.674788,-919.314598,-814.226536,9474.636058
3758.675103,-766.095498,-1480.411884,10140.821405
