#time,accel_x,accel_y,accel_z
3831.801012,229.828649,-0.000000,9400.615463
3831.801327,306.438199,370.102971,9770.718434
3831.801642,0.000000,296.082377,9622.677246
3831.801956,153.219100,-0.000000,9548.656652
3831.802271,153.219100,148.041188,9696.697840
3831.802586,0.000000,-0.000000,9326.594869
3831.802901,0.000000,222.061783,9400.615463
3831.803215,0.000000,148.041188,9844.739029
3831.803530,459.657299,-0.000000,9696.697840
3831.803845,0.000000,-0.000000,9548.656652
3831.804159,0.000000,-0.000000,9474.636058
3831.804474,0.000000,222.061783,9474.636058
3831.804789,0.000000,222.061783,9918.759623
3831.805103,76.609550,-0.000000,9844.739029
3831.805418,459.657299,-0.000000,9844.739029
3831.805733,383.047749,296.082377,9400.615463
3831.806048,229.828649,-0.000000,9178.553681
3831.806362,76.609550,-0.000000,9622.677246
3831.806677,0.000000,222.061783,9622.677246
3831.806992,153.219100,-0.000000,9622.677246
3831.807306,76.609550,296.082377,9622.677246
3831.807621,0.000000,222.061783,9622.677246
3831.807936,153.219100,296.082377,9474.636058
3831.808250,919.314598,-222.061783,9252.574275
3831.808565,229.828649,148.041188,9770.718434
3831.808880,229.828649,-0.000000,9474.636058
3831.809195,76.609550,222.061783,9622.677246
3831.809509,0.000000,296.082377,9622.677246
3831.809824,0.000000,-148.041188,9474.636058
3831.810139,76.609550,-0.000000,9622.677246
3831.810453,153.219100,444.123565,9696.697840
3831.810768,76.609550,148.041188,9696.697840
3831.811083,229.828649,-0.000000,9474.636058
3831.811398,536.266849,222.061783,9474.636058
3831.811712,0.000000,-0.000000,9474.636058
3831.812027,0.000000,296.082377,9548.656652
3831.812342,0.000000,296.082377,9696.697840
3831.812656,-153.219100,-0.000000,9696.697840
3831.812971,0.000000,148.041188,9400.615463
3831.813286,-306.438199,-0.000000,9400.615463
3831.813600,0.000000,222.061783,9844.739029
3831.813915,0.000000,-0.000000,9474.636058
3831.814230,0.000000,148.041188,9696.697840
3831.814545,306.438199,-0.000000,9918.759623
3831.814859,0.000000,296.082377,9474.636058
3831.815174,76.609550,148.041188,9474.636058
3831.815489,153.219100,296.082377,9770.718434
3831.815803,229.828649,296.082377,9622.677246
3831.816118,306.438199,-0.000000,9474.636058
3831.816433,306.438199,-0.000000,9326.594869
3831.816747,153.219100,296.082377,9474.636058
3831.817062,229.828649,370.102971,9400.615463
3831.817377,-229.828649,-0.000000,9474.636058
3831.817692,0.000000,-0.000000,9326.594869
3831.818006,0.000000,222.061783,9474.636058
3831.818321,76.609550,222.061783,9622.677246
3831.818636,0.000000,-0.000000,9548.656652
3831.818950,229.828649,-592.164754,9474.636058
3831.819265,229.828649,-0.000000,9548.656652
3831.819580,153.219100,-0.000000,9548.656652
3831.819894,0.000000,222.061783,9844.739029
3831.820209,76.609550,370.102971,9770.718434
3831.820524,383.047749,-0.000000,9770.718434
3831.820839,0.000000,148.041188,9844.739029
3831.821153,383.047749,370.102971,9770.718434
3831.821468,0.000000,296.082377,9696.697840
3831.821783,0.000000,222.061783,9696.697840
3831.822097,612.876398,222.061783,9918.759623
3831.822412,0.000000,-0.000000,9622.677246
3831.822727,0.000000,370.102971,9696.697840
3831.823042,0.000000,296.082377,9474.636058
3831.823356,0.000000,-0.000000,9696.697840
3831.823671,0.000000,-74.020594,9696.697840
3831.823986,0.000000,518.144159,9548.656652
3831.824300,383.047749,296.082377,9918.759623
3831.824615,153.219100,-0.000000,9622.677246
3831.824930,0.000000,-74.020594,9474.636058
3831.825244,229.828649,-74.020594,9844.739029
3831.825559,306.438199,592.164754,9770.718434
3831.825874,689.485948,296.082377,9770.718434
3831.826189,766.095498,666.185348,9474.636058
3831.826503,842.705048,518.144159,9400.615463
3831.826818,995.924147,370.102971,8438.347739
3831.827133,1378.971896,740.205942,8660.409521
3831.827447,689.485948,74.020594,9474.636058
3831.827762,689.485948,296.082377,9178.553681
3831.828077,689.485948,-0.000000,9400.615463
3831.828391,383.047749,222.061783,9474.636058
3831.828706,459.657299,370.102971,9770.718434
3831.829021,689.485948,740.205942,9770.718434
3831.829336,689.485948,814.226536,9474.636058
3831.829650,1455.581446,592.164754,9992.780217
3831.829965,1072.533697,592.164754,9696.697840
3831.830280,1455.581446,814.226536,9696.697840
3831.830594,1915.238745,814.226536,10140.821405
3831.830909,2374.896044,1406.391290,9918.759623
3831.831224,2451.505594,1406.391290,9918.759623
3831.831539,2911.162892,1776.494261,9696.697840
3831.831853,3140.991542,2220.617826,9252.574275
3831.832168,3447.429741,2442.679609,8956.491898
3831.832483,3524.039291,2442.679609,8808.450710
3831.832797,3600.648841,2516.700203,9030.512492
3831.833112,3447.429741,1776.494261,8660.409521
3831.833427,3524.039291,1924.535449,9104.533087
3831.833741,3217.601092,2146.597232,9326.594869
3831.834056,3217.601092,2220.617826,9252.574275
3831.834371,2604.724693,2664.741391,9474.636058
3831.834686,2834.553343,2664.741391,9326.594869
3831.835000,3217.601092,3034.844362,9474.636058
3831.835315,2911.162892,3182.885551,9178.553681
3831.835630,2834.553343,3552.988522,8586.388927
3831.835944,2834.553343,3330.926739,8882.471304
3831.836259,2298.286494,3849.070898,8956.491898
3831.836574,2451.505594,3478.967927,9474.636058
3831.836888,2298.286494,3404.947333,9696.697840
3831.837203,1838.629195,3701.029710,10288.862594
3831.837518,1225.752797,3330.926739,10362.883188
3831.837833,1685.410096,3849.070898,10732.986159
3831.838147,1685.410096,3701.029710,10955.047942
3831.838462,1532.190996,3701.029710,10658.965565
3831.838777,1302.362347,3775.050304,10732.986159
3831.839091,1685.410096,3849.070898,10510.924376
3831.839406,2451.505594,3775.050304,10362.883188
3831.839721,2298.286494,4071.132681,10066.800811
3831.840035,2145.067394,4219.173869,9770.718434
3831.840350,2451.505594,3923.091493,9770.718434
3831.840665,2221.676944,3627.009116,9844.739029
3831.840980,2298.286494,3404.947333,9918.759623
3831.841294,2374.896044,3182.885551,9992.780217
3831.841609,2068.457845,3108.864956,10214.842000
3831.841924,1991.848295,2960.823768,10214.842000
3831.842238,1838.629195,2812.782580,9992.780217
3831.842553,1838.629195,2590.720797,9622.677246
3831.842868,1838.629195,3034.844362,10362.883188
3831.843183,1455.581446,3404.947333,9918.759623
3831.843497,1608.800546,3404.947333,9548.656652
3831.843812,1762.019645,3182.885551,9770.718434
3831.844127,1762.019645,2738.761985,9474.636058
3831.844441,1532.190996,2738.761985,9400.615463
3831.844756,1532.190996,2294.638420,9622.677246
3831.845071,1608.800546,1850.514855,10066.800811
3831.845385,2298.286494,1480.411884,10288.862594
3831.845700,1378.971896,962.267725,10140.821405
3831.846015,1302.362347,1776.494261,10288.862594
3831.846330,1762.019645,1924.535449,10066.800811
3831.846644,2068.457845,1702.473667,9400.615463
3831.846959,2298.286494,2072.576638,9326.594869
3831.847274,2528.115143,2072.576638,8586.388927
3831.847588,2528.115143,1924.535449,8364.327145
3831.847903,3140.991542,1628.453072,8438.347739
3831.848218,3370.820191,1480.411884,8586.388927
3831.848532,3370.820191,1554.432478,8660.409521
3831.848847,3753.867940,1332.370696,8882.471304
3831.849162,2834.553343,962.267725,9178.553681
3831.849477,2451.505594,1184.329507,9326.594869
3831.849791,2451.505594,1036.288319,8512.368333
3831.850106,2374.896044,370.102971,8586.388927
3831.850421,1915.238745,592.164754,9252.574275
3831.850735,1762.019645,-0.000000,9696.697840
3831.851050,1762.019645,-296.082377,9770.718434
3831.851365,1685.410096,444.123565,10066.800811
3831.851679,2451.505594,1258.350101,9844.739029
3831.851994,2834.553343,1702.473667,9474.636058
3831.852309,3294.210641,2146.597232,9178.553681
3831.852624,3370.820191,2220.617826,8808.450710
3831.852938,3983.696590,2738.761985,7994.224174
3831.853253,3830.477490,2590.720797,7846.182985
3831.853568,3217.601092,1998.556043,8142.265362
3831.853882,2681.334243,1480.411884,8956.491898
3831.854197,1685.410096,444.123565,8956.491898
3831.854512,459.657299,-222.061783,10140.821405
3831.854827,306.438199,-518.144159,11695.253884
3831.855141,-459.657299,-148.041188,11991.336260
3831.855456,-459.657299,-0.000000,12583.501014
3831.855771,0.000000,740.205942,12065.356855
3831.856085,1378.971896,2146.597232,11177.109724
3831.856400,2681.334243,3034.844362,9918.759623
3831.856715,3753.867940,4367.215058,8586.388927
3831.857029,4136.915689,5033.400406,7994.224174
3831.857344,4749.792088,4737.318029,7031.956449
3831.857659,4519.963438,4441.235652,7105.977043
3831.857974,4213.525239,3330.926739,8142.265362
3831.858288,3064.381992,1850.514855,9400.615463
3831.858603,1225.752797,1406.391290,10436.903782
3831.858918,0.000000,962.267725,11843.295072
3831.859232,-383.047749,888.247130,12583.501014
3831.859547,-766.095498,1332.370696,12065.356855
3831.859862,-383.047749,2146.597232,10955.047942
3831.860176,383.047749,2960.823768,9622.677246
3831.860491,1838.629195,3775.050304,8512.368333
3831.860806,3524.039291,3997.112087,7624.121203
3831.861121,4366.744339,4219.173869,7550.100608
3831.861435,4519.963438,4367.215058,8216.285956
3831.861750,4060.306139,3478.967927,8808.450710
3831.862065,3217.601092,3701.029710,9992.780217
3831.862379,2298.286494,3108.864956,11325.150913
3831.862694,1685.410096,3182.885551,11695.253884
3831.863009,995.924147,4071.132681,10362.883188
3831.863324,459.657299,2960.823768,10362.883188
3831.863638,1685.410096,2146.597232,10140.821405
3831.863953,1838.629195,1998.556043,9548.656652
3831.864268,2451.505594,2220.617826,8956.491898
3831.864582,2604.724693,2368.659014,8882.471304
3831.864897,2911.162892,3034.844362,8512.368333
3831.865212,3140.991542,3404.947333,8290.306550
3831.865526,3140.991542,3478.967927,8586.388927
3831.865841,2987.772442,3330.926739,8956.491898
3831.866156,2145.067394,2664.741391,9918.759623
3831.866471,2145.067394,1702.473667,10955.047942
3831.866785,1685.410096,1480.411884,11251.130318
3831.867100,1302.362347,1258.350101,11399.171507
3831.867415,1838.629195,2220.617826,10658.965565
3831.867729,2068.457845,3108.864956,10288.862594
3831.868044,2911.162892,3330.926739,8734.430116
3831.868359,3294.210641,3849.070898,7624.121203
3831.868673,3600.648841,3478.967927,8142.265362
3831.868988,4213.525239,2886.803174,8142.265362
3831.869303,3370.820191,2146.597232,8734.430116
3831.869618,2604.724693,370.102971,9918.759623
3831.869932,2374.896044,444.123565,11103.089130
3831.870247,1685.410096,1110.308913,10362.883188
3831.870562,1225.752797,1184.329507,10436.903782
3831.870876,1762.019645,2146.597232,10510.924376
3831.871191,1685.410096,2812.782580,9474.636058
3831.871506,2068.457845,3034.844362,8808.450710
3831.871820,2834.553343,2960.823768,8660.409521
3831.872135,3140.991542,2516.700203,8438.347739
3831.872450,3447.429741,2590.720797,8068.244768
3831.872765,3830.477490,2146.597232,8142.265362
3831.873079,2987.772442,962.267725,9770.718434
3831.873394,2221.676944,1184.329507,10955.047942
3831.873708,919.314598,1406.391290,11103.089130
3831.874023,229.828649,1110.308913,11843.295072
3831.874338,536.266849,962.267725,11399.171507
3831.874652,0.000000,1258.350101,10732.986159
3831.874967,612.876398,740.205942,11029.068536
3831.875282,1378.971896,962.267725,10510.924376
3831.875596,1915.238745,1998.556043,9548.656652
3831.875911,3140.991542,2368.659014,8734.430116
3831.876226,3140.991542,2960.823768,7846.182985
3831.876540,3524.039291,3404.947333,7550.100608
3831.876855,3753.867940,2516.700203,7550.100608
3831.877170,3524.039291,1776.494261,8364.327145
3831.877484,1991.848295,592.164754,9770.718434
3831.877799,766.095498,370.102971,10288.862594
3831.878114,76.609550,-0.000000,10881.027347
3831.878428,-536.266849,740.205942,11103.089130
3831.878743,-153.219100,444.123565,10881.027347
3831.879058,766.095498,518.144159,10732.986159
3831.879372,1072.533697,1702.473667,10288.862594
3831.879687,1762.019645,1850.514855,9696.697840
3831.880002,2068.457845,2442.679609,9030.512492
3831.880316,2987.772442,3108.864956,8586.388927
3831.880631,4060.306139,2664.741391,8142.265362
3831.880946,3983.696590,2368.659014,7772.162391
3831.881260,2911.162892,1628.453072,8364.327145
3831.881575,2068.457845,1036.288319,9474.636058
3831.881890,995.924147,1998.556043,9104.533087
3831.882204,0.000000,1850.514855,8956.491898
3831.882519,229.828649,518.144159,9992.780217
3831.882834,-229.828649,518.144159,10807.006753
3831.883148,-842.705048,222.061783,11399.171507
3831.883463,-1149.143247,296.082377,11103.089130
3831.883778,-1072.533697,1110.308913,10214.842000
3831.884092,536.266849,1184.329507,9992.780217
3831.884407,2221.676944,1776.494261,10658.965565
3831.884722,2604.724693,2368.659014,9474.636058
3831.885036,2604.724693,2294.638420,9622.677246
3831.885351,2298.286494,2664.741391,9178.553681
3831.885666,1455.581446,2886.803174,8660.409521
3831.885980,1915.238745,2072.576638,8586.388927
3831.886295,1685.410096,1850.514855,9178.553681
3831.886610,229.828649,1184.329507,9548.656652
3831.886924,-229.828649,-370.102971,10066.800811
3831.887239,-1455.581446,-592.164754,9918.759623
3831.887554,-1991.848295,-1036.288319,10732.986159
3831.887868,-842.705048,-1184.329507,10510.924376
3831.888183,-383.047749,-444.123565,10140.821405
3831.888498,0.000000,-444.123565,10732.986159
3831.888812,-229.828649,666.185348,9696.697840
3831.889127,153.219100,1110.308913,9400.615463
3831.889441,1302.362347,1406.391290,9918.759623
3831.889756,1915.238745,2368.659014,8882.471304
3831.890071,2298.286494,2368.659014,9178.553681
3831.890385,1991.848295,2146.597232,9474.636058
3831.890700,1225.752797,1480.411884,8290.306550
3831.891015,1072.533697,592.164754,9548.656652
3831.891329,1378.971896,-148.041188,9770.718434
3831.891644,536.266849,-1332.370696,9770.718434
3831.891959,-153.219100,-962.267725,10658.965565
3831.892273,-919.314598,-1036.288319,8734.430116
3831.892588,-689.485948,-1036.288319,9474.636058
3831.892903,229.828649,-1480.411884,10140.821405
3831.893217,76.609550,-296.082377,9030.512492
3831.893532,-229.828649,-370.102971,9844.739029
3831.893847,0.000000,962.267725,9178.553681
3831.894161,0.000000,1036.288319,8364.327145
3831.894476,842.705048,222.061783,9178.553681
3831.894791,1532.190996,-0.000000,8882.471304
3831.895105,766.095498,666.185348,9548.656652
3831.895420,0.000000,592.164754,10288.862594
3831.895735,-383.047749,370.102971,9474.636058
3831.896049,0.000000,-74.020594,9696.697840
3831.896364,153.219100,-370.102971,9770.718434
3831.896679,-612.876398,-592.164754,9548.656652
3831.896993,-1685.410096,-592.164754,8512.368333
3831.897308,-842.705048,-2368.659014,9992.780217
3831.897623,-1225.752797,-1184.329507,9474.636058
3831.897937,-1838.629195,-2072.576638,10066.800811
3831.898252,-689.485948,-1406.391290,10140.821405
3831.898567,-1072.533697,-888.247130,10436.903782
3831.898881,-842.705048,-592.164754,9770.718434
3831.899196,383.047749,-74.020594,8734.430116
3831.899511,1149.143247,-370.102971,9622.677246
3831.899825,1225.752797,370.102971,8734.430116
3831.900140,766.095498,148.041188,9326.594869
3831.900455,153.219100,-0.000000,9474.636058
3831.900769,153.219100,296.082377,8512.368333
3831.901084,153.219100,-592.164754,9844.739029
3831.901399,0.000000,-888.247130,9918.759623
3831.901713,-766.095498,-1036.288319,10140.821405
3831.902028,-1685.410096,-1628.453072,10658.965565
3831.902343,-1685.410096,-1924.535449,10066.800811
3831.902657,-1455.581446,-2294.638420,9918.759623
3831.902972,-1225.752797,-1924.535449,10288.862594
3831.903287,-229.828649,-1184.329507,9770.718434
3831.903601,-383.047749,-444.123565,10066.800811
3831.903916,0.000000,666.185348,9178.553681
3831.904230,1149.143247,962.267725,7920.203579
3831.904545,1915.238745,1110.308913,8512.368333
3831.904860,2221.676944,666.185348,8734.430116
3831.905174,1685.410096,666.185348,8882.471304
3831.905489,766.095498,666.185348,8956.491898
3831.905804,0.000000,444.123565,9474.636058
3831.906118,0.000000,-444.123565,10881.027347
3831.906433,76.609550,-370.102971,10510.924376
3831.906748,-842.705048,-518.144159,10140.821405
3831.907062,-919.314598,-518.144159,10881.027347
3831.907377,-612.876398,-222.061783,9252.574275
3831.907692,-536.266849,148.041188,9104.533087
3831.908006,689.485948,-0.000000,9474.636058
3831.908321,1149.143247,888.247130,8586.388927
3831.908636,1072.533697,888.247130,8586.388927
3831.908950,842.705048,1332.370696,8882.471304
3831.909265,459.657299,1184.329507,8512.368333
3831.909580,1149.143247,1184.329507,9400.615463
3831.909894,1455.581446,1184.329507,9622.677246
3831.910209,153.219100,740.205942,9696.697840
3831.910524,-306.438199,962.267725,10288.862594
3831.910838,-1149.143247,1036.288319,9474.636058
3831.911153,-919.314598,444.123565,10066.800811
3831.911468,-153.219100,370.102971,10436.903782
3831.911782,0.000000,814.226536,9548.656652
3831.912097,0.000000,592.164754,9918.759623
3831.912412,-612.876398,888.247130,10140.821405
3831.912726,0.000000,1332.370696,9474.636058
3831.913041,383.047749,740.205942,10288.862594
3831.913356,536.266849,1184.329507,10436.903782
3831.913670,0.000000,888.247130,10732.986159
3831.913985,76.609550,1850.514855,10510.924376
3831.914300,306.438199,2294.638420,9104.533087
3831.914614,842.705048,1036.288319,9844.739029
3831.914929,995.924147,1184.329507,9992.780217
3831.915244,842.705048,666.185348,9252.574275
3831.915558,0.000000,444.123565,9474.636058
3831.915873,153.219100,888.247130,9400.615463
3831.916188,153.219100,444.123565,10140.821405
3831.916502,-536.266849,-518.144159,10214.842000
3831.916817,-383.047749,-370.102971,11029.068536
3831.917132,-1302.362347,-0.000000,10881.027347
3831.917446,-689.485948,888.247130,9474.636058
3831.917761,-229.828649,444.123565,9252.574275
3831.918076,842.705048,814.226536,9844.739029
3831.918390,919.314598,592.164754,9400.615463
3831.918705,383.047749,888.247130,9622.677246
3831.919019,766.095498,888.247130,9474.636058
3831.919334,612.876398,444.123565,8808.450710
3831.919649,766.095498,-0.000000,9400.615463
3831.919963,536.266849,222.061783,9326.594869
3831.920278,-153.219100,-814.226536,9696.697840
3831.920593,-612.876398,-1036.288319,9918.759623
3831.920907,-612.876398,-370.102971,9030.512492
3831.921222,-1072.533697,-814.226536,9844.739029
3831.921537,-766.095498,-962.267725,9696.697840
3831.921851,76.609550,-1036.288319,9474.636058
3831.922166,383.047749,-814.226536,9252.574275
3831.922481,76.609550,-74.020594,8438.347739
3831.922795,766.095498,-0.000000,8216.285956
3831.923110,766.095498,-222.061783,8882.471304
3831.923425,1149.143247,-0.000000,8808.450710
3831.923739,689.485948,-0.000000,8956.491898
3831.924054,0.000000,-666.185348,9030.512492
3831.924369,-459.657299,-740.205942,9696.697840
3831.924683,-229.828649,-814.226536,9548.656652
3831.924998,0.000000,-1554.432478,9696.697840
3831.925313,-306.438199,-1406.391290,9918.759623
3831.925627,-459.657299,-888.247130,9992.780217
3831.925942,-459.657299,-592.164754,9696.697840
3831.926257,-459.657299,-888.247130,8660.409521
3831.926571,612.876398,-1110.308913,9622.677246
3831.926886,306.438199,-740.205942,9548.656652
3831.927201,-306.438199,-444.123565,9918.759623
3831.927515,0.000000,-0.000000,8882.471304
3831.927830,0.000000,-222.061783,8512.368333
3831.928145,229.828649,-148.041188,9400.615463
3831.928459,1149.143247,-0.000000,9548.656652
3831.928774,0.000000,814.226536,8882.471304
3831.929089,-536.266849,-0.000000,9474.636058
3831.929403,0.000000,296.082377,8660.409521
3831.929718,-612.876398,-444.123565,9548.656652
3831.930033,0.000000,-370.102971,9992.780217
3831.930347,-536.266849,-296.082377,10214.842000
3831.930662,-306.438199,-370.102971,10214.842000
3831.930977,-1072.533697,-0.000000,10140.821405
3831.931291,-1072.533697,740.205942,9696.697840
3831.931606,0.000000,592.164754,9918.759623
3831.931921,153.219100,518.144159,9992.780217
3831.932235,76.609550,1036.288319,10140.821405
3831.932550,76.609550,1110.308913,8734.430116
3831.932865,459.657299,1036.288319,9474.636058
3831.933179,995.924147,814.226536,10510.924376
3831.933494,1225.752797,370.102971,9770.718434
3831.933808,1302.362347,814.226536,10807.006753
3831.934123,459.657299,962.267725,10140.821405
3831.934438,612.876398,1258.350101,9474.636058
3831.934752,153.219100,888.247130,9400.615463
3831.935067,689.485948,740.205942,9474.636058
3831.935382,0.000000,370.102971,9770.718434
3831.935696,-306.438199,148.041188,9400.615463
3831.936011,0.000000,-74.020594,9252.574275
3831.936326,-229.828649,-0.000000,9992.780217
3831.936640,919.314598,-0.000000,10807.006753
3831.936955,1455.581446,444.123565,10140.821405
3831.937270,689.485948,1110.308913,9992.780217
3831.937584,612.876398,1110.308913,9992.780217
3831.937899,383.047749,1628.453072,9400.615463
3831.938214,919.314598,814.226536,9992.780217
3831.938528,1149.143247,1036.288319,9696.697840
3831.938843,919.314598,888.247130,9400.615463
3831.939158,689.485948,444.123565,9326.594869
3831.939472,459.657299,444.123565,9178.553681
3831.939787,383.047749,444.123565,9992.780217
3831.940102,689.485948,-962.267725,10214.842000
3831.940416,0.000000,-666.185348,10288.862594
3831.940731,-459.657299,-592.164754,10584.944971
3831.941046,-689.485948,518.144159,9474.636058
3831.941360,-766.095498,592.164754,8882.471304
3831.941675,229.828649,740.205942,9252.574275
3831.941990,689.485948,370.102971,8956.491898
3831.942304,229.828649,-0.000000,8660.409521
3831.942619,459.657299,592.164754,8956.491898
3831.942934,0.000000,814.226536,8808.450710
3831.943248,383.047749,518.144159,9622.677246
3831.943563,612.876398,888.247130,9844.739029
3831.943878,-306.438199,592.164754,9696.697840
3831.944192,-459.657299,296.082377,10807.006753
3831.944507,-536.266849,148.041188,10362.883188
3831.944822,-612.876398,370.102971,9474.636058
3831.945136,153.219100,518.144159,9918.759623
3831.945451,153.219100,666.185348,9474.636058
3831.945766,-229.828649,666.185348,9104.533087
3831.946080,0.000000,444.123565,8808.450710
3831.946395,0.000000,296.082377,8734.430116
3831.946710,536.266849,-148.041188,9474.636058
3831.947024,306.438199,-74.020594,9770.718434
3831.947339,-306.438199,-0.000000,10140.821405
3831.947654,-306.438199,-222.061783,10066.800811
3831.947968,-459.657299,-444.123565,9918.759623
3831.948283,-306.438199,-666.185348,10732.986159
3831.948598,459.657299,-74.020594,9918.759623
3831.948912,76.609550,148.041188,10288.862594
3831.949227,-459.657299,-0.000000,9696.697840
3831.949541,0.000000,370.102971,8734.430116
3831.949856,306.438199,-0.000000,8808.450710
3831.950171,306.438199,-592.164754,10066.800811
3831.950485,229.828649,-444.123565,9770.718434
3831.950800,-153.219100,-814.226536,10288.862594
3831.951115,-536.266849,-0.000000,10140.821405
3831.951429,-766.095498,-444.123565,10362.883188
3831.951744,153.219100,-1110.308913,10362.883188
3831.952059,0.000000,-518.144159,10288.862594
3831.952373,-383.047749,-0.000000,9918.759623
3831.952688,0.000000,-296.082377,8882.471304
3831.953003,153.219100,-74.020594,8364.327145
3831.953317,689.485948,-444.123565,9326.594869
3831.953632,1149.143247,-740.205942,8808.450710
3831.953947,383.047749,-666.185348,9104.533087
3831.954261,383.047749,-444.123565,9548.656652
3831.954576,153.219100,-518.144159,9400.615463
3831.954891,0.000000,-592.164754,9474.636058
3831.955205,919.314598,-518.144159,9918.759623
3831.955520,383.047749,222.061783,9326.594869
3831.955835,-459.657299,-518.144159,9696.697840
3831.956149,153.219100,-0.000000,8660.409521
3831.956464,306.438199,-0.000000,8216.285956
3831.956779,995.924147,-296.082377,8882.471304
3831.957093,1149.143247,-74.020594,9030.512492
3831.957408,459.657299,-148.041188,9178.553681
3831.957723,153.219100,444.123565,9326.594869
3831.958037,-76.609550,370.102971,9326.594869
3831.958352,0.000000,-0.000000,9548.656652
3831.958667,689.485948,-0.000000,9918.759623
3831.958981,612.876398,296.082377,9252.574275
3831.959296,-383.047749,370.102971,9548.656652
3831.959611,-306.438199,740.205942,9474.636058
3831.959925,-229.828649,444.123565,9548.656652
3831.960240,612.876398,370.102971,9548.656652
3831.960555,306.438199,444.123565,9844.739029
3831.960869,-383.047749,1110.308913,9548.656652
3831.961184,-153.219100,666.185348,9992.780217
3831.961499,-536.266849,1036.288319,9770.718434
3831.961813,0.000000,444.123565,10584.944971
3831.962128,689.485948,592.164754,9770.718434
3831.962443,-383.047749,740.205942,9622.677246
3831.962757,0.000000,592.164754,10362.883188
3831.963072,-383.047749,1184.329507,9918.759623
3831.963387,-459.657299,1036.288319,9770.718434
3831.963701,306.438199,740.205942,10214.842000
3831.964016,306.438199,740.205942,10807.006753
3831.964330,0.000000,666.185348,10214.842000
3831.964645,76.609550,444.123565,9548.656652
3831.964960,0.000000,222.061783,10140.821405
3831.965274,229.828649,444.123565,10140.821405
3831.965589,-229.828649,962.267725,10584.944971
3831.965904,0.000000,592.164754,10436.903782
3831.966218,0.000000,888.247130,9622.677246
3831.966533,306.438199,1258.350101,8956.491898
3831.966848,995.924147,370.102971,9474.636058
3831.967162,1149.143247,592.164754,10584.944971
3831.967477,153.219100,296.082377,10362.883188
3831.967792,0.000000,518.144159,9400.615463
3831.968106,229.828649,666.185348,9696.697840
3831.968421,383.047749,592.164754,9992.780217
3831.968736,842.705048,-0.000000,10288.862594
3831.969050,229.828649,444.123565,9992.780217
3831.969365,0.000000,-74.020594,10066.800811
3831.969680,-536.266849,-370.102971,9622.677246
3831.969994,-1149.143247,-370.102971,9622.677246
3831.970309,-153.219100,-592.164754,10066.800811
3831.970624,0.000000,-148.041188,9696.697840
3831.970938,0.000000,-370.102971,9770.718434
3831.971253,0.000000,-0.000000,9030.512492
3831.971568,76.609550,814.226536,8512.368333
3831.971882,536.266849,-0.000000,9474.636058
3831.972197,1532.190996,-0.000000,9474.636058
3831.972512,1149.143247,-666.185348,8956.491898
3831.972826,766.095498,370.102971,8586.388927
3831.973145,-153.219100,-0.000000,8364.327145
3831.973459,612.876398,-148.041188,8290.306550
3831.973774,1225.752797,-814.226536,9474.636058
3831.974088,306.438199,-148.041188,8882.471304
3831.974403,0.000000,-0.000000,9104.533087
3831.974718,-919.314598,-222.061783,9400.615463
3831.975032,-306.438199,-814.226536,9104.533087
3831.975347,0.000000,-1332.370696,9400.615463
3831.975662,0.000000,-1332.370696,9696.697840
3831.975976,-612.876398,-666.185348,9622.677246
3831.976291,-536.266849,-666.185348,9992.780217
3831.976605,0.000000,-0.000000,9104.533087
3831.976920,612.876398,-222.061783,9400.615463
3831.977235,995.924147,-0.000000,8882.471304
3831.977549,306.438199,296.082377,8882.471304
3831.977864,0.000000,-296.082377,9474.636058
3831.978178,0.000000,-0.000000,9622.677246
3831.978493,153.219100,-0.000000,8956.491898
3831.978808,766.095498,-74.020594,9844.739029
3831.979122,153.219100,-0.000000,9474.636058
3831.979437,-306.438199,-370.102971,10955.047942
3831.979752,-459.657299,-0.000000,10362.883188
3831.980066,-612.876398,370.102971,9770.718434
3831.980381,-229.828649,518.144159,9622.677246
3831.980695,0.000000,370.102971,9918.759623
3831.981010,-306.438199,-296.082377,10510.924376
3831.981325,153.219100,-0.000000,10362.883188
3831.981639,-306.438199,370.102971,9474.636058
3831.981954,153.219100,148.041188,9844.739029
3831.982268,995.924147,592.164754,10288.862594
3831.982583,459.657299,296.082377,10066.800811
3831.982898,0.000000,1406.391290,9918.759623
3831.983212,-306.438199,1036.288319,9400.615463
3831.983527,153.219100,666.185348,9474.636058
3831.983842,536.266849,-0.000000,9844.739029
3831.984156,689.485948,1110.308913,9474.636058
3831.984471,0.000000,-0.000000,9770.718434
3831.984785,-536.266849,222.061783,9622.677246
3831.985100,-383.047749,518.144159,9474.636058
3831.985415,0.000000,-148.041188,9696.697840
3831.985729,0.000000,-0.000000,10214.842000
3831.986044,-383.047749,370.102971,10362.883188
3831.986358,-689.485948,444.123565,9992.780217
3831.986673,-459.657299,888.247130,8660.409521
3831.986988,153.219100,-0.000000,9992.780217
3831.987302,459.657299,296.082377,9918.759623
3831.987617,536.266849,-74.020594,9474.636058
3831.987932,76.609550,296.082377,9548.656652
3831.988246,0.000000,444.123565,9178.553681
3831.988561,383.047749,370.102971,8956.491898
3831.988875,1225.752797,-0.000000,8956.491898
3831.989190,536.266849,296.082377,9326.594869
3831.989505,0.000000,-0.000000,9326.594869
3831.989819,153.219100,518.144159,9030.512492
3831.990134,229.828649,-0.000000,9104.533087
3831.990448,383.047749,222.061783,9844.739029
3831.990763,919.314598,-0.000000,9548.656652
3831.991078,306.438199,-0.000000,9474.636058
3831.991392,459.657299,740.205942,8956.491898
3831.991707,383.047749,962.267725,8734.430116
3831.992022,842.705048,444.123565,9030.512492
3831.992336,919.314598,518.144159,9400.615463
3831.992651,612.876398,296.082377,9030.512492
3831.992965,76.609550,148.041188,9326.594869
3831.993280,-306.438199,222.061783,9400.615463
3831.993595,0.000000,-74.020594,10066.800811
3831.993909,383.047749,-148.041188,9918.759623
3831.994224,0.000000,-0.000000,9770.718434
3831.994538,-383.047749,-0.000000,10362.883188
3831.994853,-536.266849,518.144159,8882.471304
3831.995168,-306.438199,592.164754,9178.553681
3831.995482,536.266849,-0.000000,9474.636058
3831.995797,766.095498,370.102971,9104.533087
3831.996112,306.438199,-0.000000,9030.512492
3831.996426,0.000000,-0.000000,9474.636058
3831.996741,-536.266849,-222.061783,9770.718434
3831.997055,-383.047749,-518.144159,10362.883188
3831.997370,-306.438199,-222.061783,10362.883188
3831.997685,0.000000,-0.000000,10584.944971
3831.997999,-612.876398,222.061783,10066.800811
3831.998314,-306.438199,592.164754,9400.615463
3831.998628,0.000000,222.061783,9474.636058
3831.998943,766.095498,-0.000000,9844.739029
3831.999258,1302.362347,-814.226536,10066.800811
3831.999572,459.657299,-444.123565,9844.739029
3831.999887,383.047749,-0.000000,9474.636058
3832.000202,153.219100,-0.000000,9178.553681
3832.000516,229.828649,-518.144159,10955.047942
3832.000831,459.657299,-74.020594,9992.780217
3832.001145,-383.047749,-370.102971,10881.027347
3832.001460,-612.876398,-222.061783,9992.780217
3832.001775,-689.485948,-74.020594,9696.697840
3832.002089,0.000000,-888.247130,9992.780217
3832.002404,1149.143247,-444.123565,10214.842000
3832.002718,229.828649,-74.020594,10214.842000
3832.003033,0.000000,-444.123565,10584.944971
3832.003348,0.000000,222.061783,9770.718434
3832.003662,0.000000,-0.000000,9474.636058
3832.003977,76.609550,-148.041188,10214.842000
3832.004292,0.000000,-370.102971,10066.800811
3832.004606,-229.828649,-222.061783,9474.636058
3832.004921,0.000000,-74.020594,9104.533087
3832.005235,0.000000,148.041188,8882.471304
3832.005550,536.266849,-0.000000,8956.491898
3832.005865,1378.971896,296.082377,9400.615463
3832.006179,153.219100,-74.020594,9030.512492
3832.006494,0.000000,370.102971,8586.388927
3832.006808,0.000000,444.123565,7994.224174
3832.007123,0.000000,-222.061783,8808.450710
3832.007438,153.219100,-962.267725,9770.718434
3832.007752,-612.876398,-1036.288319,9696.697840
3832.008067,-995.924147,-666.185348,10288.862594
3832.008382,-1455.581446,148.041188,9474.636058
3832.008696,-1225.752797,296.082377,9474.636058
3832.009011,0.000000,222.061783,10066.800811
3832.009325,459.657299,148.041188,9252.574275
3832.009640,0.000000,222.061783,9400.615463
3832.009955,229.828649,1628.453072,8290.306550
3832.010269,0.000000,962.267725,9030.512492
3832.010584,1302.362347,-0.000000,9252.574275
3832.010898,1072.533697,-0.000000,9770.718434
3832.011213,536.266849,370.102971,9400.615463
3832.011528,0.000000,222.061783,9622.677246
3832.011842,0.000000,-0.000000,9548.656652
3832.012157,0.000000,296.082377,10066.800811
3832.012472,0.000000,296.082377,10288.862594
3832.012786,0.000000,1036.288319,10066.800811
3832.013101,-306.438199,222.061783,10214.842000
3832.013415,0.000000,148.041188,9918.759623
3832.013730,-536.266849,-0.000000,9622.677246
3832.014045,612.876398,370.102971,10288.862594
3832.014359,612.876398,962.267725,11103.089130
3832.014674,229.828649,1332.370696,10955.047942
3832.014988,306.438199,1258.350101,10436.903782
3832.015303,0.000000,1406.391290,10214.842000
3832.015618,842.705048,1554.432478,9474.636058
3832.015932,995.924147,1258.350101,9844.739029
3832.016247,536.266849,1258.350101,9474.636058
3832.016562,306.438199,444.123565,9326.594869
3832.016876,0.000000,148.041188,9326.594869
3832.017191,0.000000,-222.061783,9474.636058
3832.017505,76.609550,-666.185348,10436.903782
3832.017820,0.000000,-814.226536,10658.965565
3832.018135,-536.266849,-370.102971,10510.924376
3832.018449,-842.705048,-148.041188,10288.862594
3832.018764,-919.314598,148.041188,9326.594869
3832.019078,229.828649,666.185348,9770.718434
3832.019393,1455.581446,370.102971,9474.636058
3832.019708,536.266849,518.144159,9104.533087
3832.020022,536.266849,518.144159,8882.471304
3832.020337,766.095498,888.247130,8438.347739
3832.020652,1455.581446,296.082377,8808.450710
3832.020966,1378.971896,-888.247130,9474.636058
3832.021281,306.438199,-740.205942,9992.780217
3832.021595,-306.438199,-1036.288319,9030.512492
3832.021910,-612.876398,-666.185348,8956.491898
3832.022225,-842.705048,-370.102971,9326.594869
3832.022539,76.609550,-370.102971,9400.615463
3832.022854,383.047749,-444.123565,9178.553681
3832.023168,0.000000,-0.000000,8438.347739
3832.023483,0.000000,-74.020594,8142.265362
3832.023798,0.000000,-74.020594,8956.491898
3832.024112,995.924147,-0.000000,9030.512492
3832.024427,842.705048,-0.000000,9548.656652
3832.024742,153.219100,-0.000000,9770.718434
3832.025056,-306.438199,-0.000000,10214.842000
3832.025371,-612.876398,592.164754,9474.636058
3832.025685,0.000000,-0.000000,9992.780217
3832.026000,0.000000,296.082377,9696.697840
3832.026315,-229.828649,444.123565,9326.594869
3832.026629,-766.095498,-0.000000,8956.491898
3832.026944,-766.095498,-444.123565,9104.533087
3832.027258,-919.314598,-1184.329507,9474.636058
3832.027573,-229.828649,-444.123565,9474.636058
3832.027888,-612.876398,296.082377,9474.636058
3832.028202,-459.657299,-0.000000,10807.006753
3832.028517,-383.047749,-222.061783,10510.924376
3832.028832,-459.657299,296.082377,10140.821405
3832.029146,153.219100,-0.000000,10288.862594
3832.029461,459.657299,444.123565,10214.842000
3832.029775,76.609550,888.247130,9918.759623
3832.030090,229.828649,814.226536,9326.594869
3832.030405,229.828649,888.247130,9104.533087
3832.030719,766.095498,518.144159,9400.615463
3832.031034,995.924147,-0.000000,9548.656652
3832.031349,153.219100,518.144159,9992.780217
3832.031663,-229.828649,-740.205942,10584.944971
3832.031978,-995.924147,148.041188,10066.800811
3832.032292,-306.438199,-370.102971,10510.924376
3832.032607,153.219100,-814.226536,10955.047942
3832.032922,306.438199,-0.000000,10140.821405
3832.033236,536.266849,518.144159,9622.677246
3832.033551,0.000000,962.267725,9474.636058
3832.033865,689.485948,1258.350101,8734.430116
3832.034180,1378.971896,-0.000000,8956.491898
3832.034495,1455.581446,148.041188,9030.512492
3832.034809,1225.752797,222.061783,10288.862594
3832.035124,76.609550,518.144159,9844.739029
3832.035439,-229.828649,-0.000000,9992.780217
3832.035753,-383.047749,-148.041188,10436.903782
3832.036068,229.828649,-740.205942,10955.047942
3832.036382,-383.047749,-592.164754,9844.739029
3832.036697,-306.438199,-0.000000,9622.677246
3832.037012,-229.828649,962.267725,9474.636058
3832.037326,76.609550,296.082377,8808.450710
3832.037641,842.705048,-0.000000,8956.491898
3832.037955,536.266849,296.082377,9696.697840
3832.038270,76.609550,-222.061783,9770.718434
3832.038585,536.266849,-0.000000,8882.471304
3832.038899,536.266849,-0.000000,9252.574275
3832.039214,995.924147,-296.082377,9474.636058
3832.039529,612.876398,222.061783,9844.739029
3832.039843,-229.828649,-0.000000,9178.553681
3832.040158,-229.828649,-0.000000,9400.615463
3832.040472,0.000000,370.102971,8364.327145
3832.040787,612.876398,-0.000000,8438.347739
3832.041102,995.924147,148.041188,8882.471304
3832.041416,689.485948,-296.082377,9178.553681
3832.041731,-306.438199,-0.000000,8882.471304
3832.042045,-612.876398,-0.000000,9474.636058
3832.042360,0.000000,-0.000000,9770.718434
3832.042675,306.438199,-0.000000,9622.677246
3832.042989,229.828649,888.247130,9770.718434
3832.043304,-536.266849,592.164754,9918.759623
3832.043619,0.000000,1258.350101,9622.677246
3832.043933,-153.219100,1036.288319,9400.615463
3832.044248,229.828649,740.205942,9326.594869
3832.044562,995.924147,518.144159,9918.759623
3832.044877,229.828649,740.205942,9474.636058
3832.045192,-459.657299,-0.000000,9696.697840
3832.045506,-459.657299,370.102971,10214.842000
3832.045821,-919.314598,-74.020594,10732.986159
3832.046135,-306.438199,-592.164754,10732.986159
3832.046450,-995.924147,-0.000000,10584.944971
3832.046765,-766.095498,222.061783,9992.780217
3832.047079,-689.485948,-0.000000,10288.862594
3832.047394,-229.828649,518.144159,9918.759623
3832.047709,153.219100,296.082377,10214.842000
3832.048023,536.266849,592.164754,9992.780217
3832.048338,306.438199,592.164754,9844.739029
3832.048652,306.438199,1332.370696,9770.718434
3832.048967,383.047749,1110.308913,8956.491898
3832.049282,919.314598,296.082377,9474.636058
3832.049596,1302.362347,296.082377,9696.697840
3832.049911,153.219100,-0.000000,9770.718434
3832.050225,0.000000,-0.000000,9178.553681
3832.050540,0.000000,-74.020594,9474.636058
3832.050855,0.000000,-962.267725,9400.615463
3832.051169,383.047749,-888.247130,9992.780217
3832.051484,0.000000,-740.205942,9992.780217
3832.051799,-306.438199,-296.082377,10362.883188
3832.052113,0.000000,148.041188,9474.636058
3832.052428,153.219100,296.082377,8438.347739
3832.052742,1302.362347,222.061783,9030.512492
3832.053057,1991.848295,-74.020594,9770.718434
3832.053372,842.705048,-296.082377,9326.594869
3832.053686,842.705048,-444.123565,8956.491898
3832.054001,689.485948,-0.000000,8734.430116
3832.054315,689.485948,-296.082377,8882.471304
3832.054630,1378.971896,-518.144159,9844.739029
3832.054945,919.314598,-740.205942,9474.636058
3832.055259,-153.219100,-296.082377,9400.615463
3832.055574,-229.828649,-222.061783,9178.553681
3832.055889,229.828649,-740.205942,9474.636058
3832.056203,689.485948,-666.185348,9696.697840
3832.056518,766.095498,-0.000000,9844.739029
3832.056832,0.000000,-222.061783,9844.739029
3832.057147,-383.047749,666.185348,8660.409521
3832.057462,383.047749,296.082377,8808.450710
3832.057776,1378.971896,-0.000000,9326.594869
3832.058091,766.095498,444.123565,9030.512492
3832.058405,153.219100,-0.000000,9252.574275
3832.058720,-153.219100,-74.020594,9178.553681
3832.059035,-766.095498,370.102971,9326.594869
3832.059349,0.000000,-296.082377,10066.800811
3832.059664,-459.657299,-148.041188,10140.821405
3832.059979,-766.095498,148.041188,10510.924376
3832.060293,-383.047749,-0.000000,9696.697840
3832.060608,-612.876398,-0.000000,9104.533087
3832.060922,-459.657299,740.205942,9622.677246
3832.061237,306.438199,296.082377,9844.739029
3832.061552,0.000000,1110.308913,9104.533087
3832.061866,-306.438199,962.267725,9252.574275
3832.062181,-229.828649,962.267725,8882.471304
3832.062495,-306.438199,666.185348,9030.512492
3832.062810,612.876398,-0.000000,10140.821405
3832.063125,76.609550,888.247130,9844.739029
3832.063439,-842.705048,740.205942,10362.883188
3832.063754,-689.485948,222.061783,10288.862594
3832.064069,-919.314598,666.185348,10288.862594
3832.064383,-459.657299,888.247130,10362.883188
3832.064698,0.000000,518.144159,10288.862594
3832.065012,0.000000,1184.329507,9992.780217
3832.065327,0.000000,1332.370696,9992.780217
3832.065642,383.047749,1554.432478,9474.636058
3832.065956,306.438199,1184.329507,9622.677246
3832.066271,1072.533697,444.123565,10288.862594
3832.066585,995.924147,1110.308913,10584.944971
3832.066900,306.438199,740.205942,10214.842000
3832.067215,229.828649,1332.370696,10066.800811
3832.067529,0.000000,370.102971,9770.718434
3832.067844,612.876398,296.082377,10066.800811
3832.068159,689.485948,222.061783,10288.862594
3832.068473,153.219100,740.205942,10066.800811
3832.068788,76.609550,370.102971,9696.697840
3832.069102,0.000000,-148.041188,9252.574275
3832.069417,919.314598,-666.185348,9474.636058
3832.069732,1455.581446,-0.000000,8956.491898
3832.070046,536.266849,-148.041188,10066.800811
3832.070361,383.047749,444.123565,9474.636058
3832.070675,0.000000,-0.000000,9622.677246
3832.070990,306.438199,296.082377,9030.512492
3832.071305,1149.143247,-814.226536,9992.780217
3832.071619,919.314598,-518.144159,9696.697840
3832.071934,306.438199,-592.164754,9696.697840
3832.072249,0.000000,-296.082377,8808.450710
3832.072563,-306.438199,74.020594,8882.471304
3832.072878,612.876398,-222.061783,8660.409521
3832.073192,1072.533697,-370.102971,8808.450710
3832.073507,612.876398,-296.082377,8586.388927
3832.073822,153.219100,-1406.391290,9770.718434
3832.074136,0.000000,-518.144159,9326.594869
3832.074451,-383.047749,-814.226536,9178.553681
3832.074766,383.047749,-148.041188,9844.739029
3832.075081,229.828649,-518.144159,10066.800811
3832.075395,153.219100,-0.000000,8660.409521
3832.075710,306.438199,148.041188,8586.388927
3832.076025,0.000000,518.144159,7994.224174
3832.076339,842.705048,-370.102971,9474.636058
3832.076654,536.266849,-222.061783,9030.512492
3832.076969,0.000000,-0.000000,9252.574275
3832.077283,-383.047749,-74.020594,9548.656652
3832.077598,-1072.533697,-222.061783,9474.636058
3832.077913,-229.828649,-148.041188,10436.903782
3832.078228,-229.828649,-592.164754,10066.800811
3832.078542,-995.924147,296.082377,10658.965565
3832.078857,-766.095498,444.123565,10288.862594
3832.079172,-842.705048,1036.288319,9030.512492
3832.079486,-306.438199,592.164754,9918.759623
3832.079801,229.828649,-0.000000,9770.718434
3832.080116,76.609550,-0.000000,9474.636058
3832.080431,-229.828649,518.144159,9918.759623
3832.080745,-383.047749,814.226536,9622.677246
3832.081060,-536.266849,222.061783,10066.800811
3832.081375,153.219100,-222.061783,10066.800811
3832.081689,76.609550,-222.061783,10436.903782
3832.082004,-383.047749,-0.000000,10658.965565
3832.082319,-612.876398,296.082377,10214.842000
3832.082633,-1149.143247,666.185348,9844.739029
3832.082948,-229.828649,814.226536,9548.656652
3832.083263,229.828649,518.144159,9400.615463
3832.083578,-306.438199,148.041188,9696.697840
3832.083892,-459.657299,-370.102971,10214.842000
3832.084207,-842.705048,-0.000000,9622.677246
3832.084522,-1072.533697,-148.041188,9770.718434
3832.084836,-229.828649,-296.082377,11251.130318
3832.085151,-383.047749,-0.000000,10214.842000
3832.085466,-459.657299,-222.061783,10140.821405
3832.085781,153.219100,222.061783,9918.759623
3832.086095,229.828649,222.061783,9252.574275
3832.086410,1378.971896,888.247130,8882.471304
3832.086725,1915.238745,740.205942,8586.388927
3832.087039,1225.752797,-0.000000,8808.450710
3832.087354,1532.190996,370.102971,8586.388927
3832.087669,689.485948,-0.000000,8142.265362
3832.087983,1072.533697,-814.226536,9104.533087
3832.088298,1072.533697,-814.226536,9844.739029
3832.088613,766.095498,-74.020594,9622.677246
3832.088928,76.609550,-222.061783,9770.718434
3832.089242,0.000000,-0.000000,9474.636058
3832.089557,536.266849,-0.000000,9622.677246
3832.089872,1225.752797,222.061783,9770.718434
3832.090186,919.314598,518.144159,9770.718434
3832.090501,842.705048,1036.288319,9252.574275
3832.090816,1455.581446,1184.329507,8660.409521
3832.091131,1149.143247,1406.391290,8364.327145
3832.091445,1455.581446,148.041188,9474.636058
3832.091760,1302.362347,444.123565,9474.636058
3832.092075,459.657299,-0.000000,9770.718434
3832.092389,229.828649,518.144159,9474.636058
3832.092704,-229.828649,592.164754,9030.512492
3832.093019,383.047749,-0.000000,9548.656652
3832.093333,536.266849,-296.082377,9992.780217
3832.093648,0.000000,-222.061783,9474.636058
3832.093963,-383.047749,-148.041188,9326.594869
3832.094278,0.000000,518.144159,9474.636058
3832.094592,-229.828649,592.164754,9844.739029
3832.094907,0.000000,296.082377,10288.862594
3832.095222,76.609550,296.082377,10436.903782
3832.095536,0.000000,222.061783,10881.027347
3832.095851,-153.219100,1036.288319,9918.759623
3832.096166,-229.828649,666.185348,9548.656652
3832.096481,306.438199,888.247130,10362.883188
3832.096795,306.438199,1036.288319,9474.636058
3832.097110,0.000000,592.164754,9474.636058
3832.097425,-229.828649,296.082377,9696.697840
3832.097739,0.000000,962.267725,9992.780217
3832.098054,-612.876398,-296.082377,9622.677246
3832.098369,0.000000,-74.020594,9992.780217
3832.098683,-919.314598,-0.000000,10436.903782
3832.098998,-1149.143247,-0.000000,10362.883188
3832.099313,-919.314598,444.123565,9992.780217
3832.099628,-612.876398,296.082377,9474.636058
3832.099942,0.000000,-0.000000,10066.800811
3832.100257,0.000000,666.185348,9326.594869
3832.100572,76.609550,666.185348,9474.636058
3832.100886,0.000000,666.185348,9696.697840
3832.101201,-306.438199,518.144159,9104.533087
3832.101516,383.047749,-370.102971,9918.759623
3832.101831,76.609550,-444.123565,10214.842000
3832.102145,-612.876398,-0.000000,10510.924376
3832.102460,-995.924147,-148.041188,10214.842000
3832.102775,-842.705048,-592.164754,9474.636058
3832.103089,-306.438199,-296.082377,9474.636058
3832.103404,229.828649,-814.226536,8882.471304
3832.103719,306.438199,-592.164754,9252.574275
3832.104033,-383.047749,-814.226536,9400.615463
3832.104348,0.000000,-444.123565,8734.430116
3832.104663,306.438199,-444.123565,8882.471304
3832.104978,766.095498,-0.000000,9696.697840
3832.105292,919.314598,-74.020594,9326.594869
3832.105607,612.876398,-1110.308913,9622.677246
3832.105922,229.828649,-0.000000,10362.883188
3832.106236,153.219100,-0.000000,9474.636058
3832.106551,689.485948,-444.123565,9770.718434
3832.106866,1455.581446,-148.041188,9178.553681
3832.107181,1302.362347,-74.020594,8364.327145
3832.107495,1225.752797,-148.041188,8586.388927
3832.107810,689.485948,-296.082377,7994.224174
3832.108125,919.314598,-666.185348,8882.471304
3832.108439,1072.533697,-370.102971,9326.594869
3832.108754,919.314598,-444.123565,9474.636058
3832.109069,612.876398,-518.144159,9030.512492
3832.109383,229.828649,-370.102971,8808.450710
3832.109698,153.219100,-740.205942,9474.636058
3832.110013,536.266849,-370.102971,9548.656652
3832.110328,383.047749,518.144159,9326.594869
3832.110642,383.047749,666.185348,9178.553681
3832.110957,153.219100,666.185348,8586.388927
3832.111272,306.438199,518.144159,9104.533087
3832.111586,536.266849,-0.000000,9474.636058
3832.111901,0.000000,-0.000000,10214.842000
3832.112216,-766.095498,296.082377,10362.883188
3832.112531,-995.924147,592.164754,10658.965565
3832.112845,-766.095498,962.267725,10436.903782
3832.113160,-842.705048,814.226536,10288.862594
3832.113475,229.828649,592.164754,10510.924376
3832.113789,0.000000,444.123565,9844.739029
3832.114104,-383.047749,962.267725,9400.615463
3832.114419,0.000000,1258.350101,8956.491898
3832.114733,0.000000,592.164754,8586.388927
3832.115048,689.485948,740.205942,9474.636058
3832.115363,153.219100,444.123565,9992.780217
3832.115678,-612.876398,444.123565,10214.842000
3832.115992,-995.924147,666.185348,11251.130318
3832.116307,-995.924147,666.185348,10436.903782
3832.116622,-383.047749,444.123565,10955.047942
3832.116936,76.609550,814.226536,10140.821405
3832.117251,-229.828649,666.185348,10140.821405
3832.117566,0.000000,1258.350101,9770.718434
3832.117881,0.000000,740.205942,9104.533087
3832.118195,0.000000,1184.329507,9104.533087
3832.118510,383.047749,740.205942,9474.636058
3832.118825,153.219100,-0.000000,9474.636058
3832.119139,153.219100,-0.000000,10214.842000
3832.119454,0.000000,740.205942,9696.697840
3832.119769,0.000000,-0.000000,9474.636058
3832.120083,383.047749,-0.000000,9992.780217
3832.120398,76.609550,296.082377,10288.862594
3832.120713,306.438199,148.041188,9474.636058
3832.121028,0.000000,-592.164754,9474.636058
3832.121342,-153.219100,296.082377,9178.553681
3832.121657,306.438199,-444.123565,9400.615463
3832.121972,612.876398,-296.082377,9474.636058
3832.122286,383.047749,-296.082377,9696.697840
3832.122601,0.000000,-0.000000,9696.697840
3832.122916,-689.485948,-0.000000,10066.800811
3832.123231,-153.219100,-370.102971,9548.656652
3832.123545,612.876398,-888.247130,10214.842000
3832.123860,536.266849,-0.000000,9696.697840
3832.124175,0.000000,444.123565,9474.636058
3832.124489,229.828649,666.185348,8808.450710
3832.124804,459.657299,592.164754,8216.285956
3832.125119,1762.019645,-296.082377,9548.656652
3832.125433,1838.629195,-518.144159,8882.471304
3832.125748,766.095498,-666.185348,8586.388927
3832.126063,919.314598,222.061783,8734.430116
3832.126378,306.438199,222.061783,8438.347739
3832.126692,689.485948,-148.041188,9178.553681
3832.127007,995.924147,-518.144159,9474.636058
3832.127322,383.047749,-296.082377,9400.615463
3832.127636,76.609550,-0.000000,9474.636058
3832.127951,-229.828649,-0.000000,8882.471304
3832.128266,0.000000,-0.000000,9474.636058
3832.128581,536.266849,-370.102971,9474.636058
3832.128895,153.219100,148.041188,9918.759623
3832.129210,-153.219100,-0.000000,9844.739029
3832.129525,0.000000,296.082377,9770.718434
3832.129839,0.000000,296.082377,9992.780217
3832.130154,383.047749,-0.000000,10807.006753
3832.130469,229.828649,740.205942,10214.842000
3832.130783,-306.438199,370.102971,9844.739029
3832.131098,0.000000,-0.000000,9474.636058
3832.131413,0.000000,222.061783,9918.759623
3832.131728,153.219100,-0.000000,9548.656652
3832.132042,76.609550,-0.000000,9474.636058
3832.132357,-536.266849,-74.020594,9992.780217
3832.132672,-612.876398,-0.000000,9918.759623
3832.132986,-1149.143247,222.061783,9918.759623
3832.133301,-306.438199,-592.164754,10436.903782
3832.133616,76.609550,-222.061783,10807.006753
3832.133931,0.000000,444.123565,9844.739029
3832.134245,-383.047749,370.102971,10362.883188
3832.134560,-459.657299,666.185348,9622.677246
3832.134875,-536.266849,370.102971,9474.636058
3832.135189,459.657299,222.061783,9400.615463
3832.135504,153.219100,518.144159,9770.718434
3832.135819,-229.828649,-0.000000,9622.677246
3832.136133,-153.219100,148.041188,9696.697840
3832.136448,-766.095498,-0.000000,8882.471304
3832.136763,0.000000,-296.082377,9400.615463
3832.137078,153.219100,-370.102971,10140.821405
3832.137392,-383.047749,-148.041188,9474.636058
3832.137707,-383.047749,-370.102971,9548.656652
3832.138022,-766.095498,-0.000000,8956.491898
3832.138336,0.000000,148.041188,9178.553681
3832.138651,689.485948,-74.020594,8956.491898
3832.138966,153.219100,-0.000000,9474.636058
3832.139281,612.876398,444.123565,8882.471304
3832.139595,536.266849,-0.000000,9030.512492
3832.139910,383.047749,296.082377,9104.533087
3832.140225,536.266849,-0.000000,9400.615463
3832.140539,766.095498,-0.000000,9622.677246
3832.140854,76.609550,-0.000000,10214.842000
3832.141169,306.438199,74.020594,9622.677246
3832.141483,153.219100,-0.000000,8956.491898
3832.141798,459.657299,370.102971,9548.656652
3832.142113,1225.752797,148.041188,9918.759623
3832.142428,536.266849,888.247130,8956.491898
3832.142742,536.266849,962.267725,9400.615463
3832.143057,153.219100,814.226536,9474.636058
3832.143372,383.047749,518.144159,9326.594869
3832.143686,995.924147,-0.000000,10066.800811
3832.144001,459.657299,370.102971,9992.780217
3832.144316,-229.828649,-0.000000,10362.883188
3832.144631,0.000000,-0.000000,9844.739029
3832.144945,76.609550,740.205942,9474.636058
3832.145260,0.000000,148.041188,9178.553681
3832.145575,1225.752797,-148.041188,10214.842000
3832.145889,919.314598,444.123565,9622.677246
3832.146204,0.000000,740.205942,9548.656652
3832.146519,0.000000,-0.000000,9770.718434
3832.146833,0.000000,148.041188,9844.739029
3832.147148,0.000000,296.082377,9770.718434
3832.147463,0.000000,-0.000000,9770.718434
3832.147778,-459.657299,-222.061783,10214.842000
3832.148092,-612.876398,740.205942,10214.842000
3832.148407,0.000000,592.164754,10066.800811
3832.148722,76.609550,666.185348,10066.800811
3832.149036,612.876398,814.226536,9474.636058
3832.149351,76.609550,740.205942,9622.677246
3832.149666,76.609550,-0.000000,9548.656652
3832.149981,0.000000,740.205942,9178.553681
3832.150295,0.000000,-0.000000,9104.533087
3832.150610,153.219100,-0.000000,9844.739029
3832.150925,-306.438199,222.061783,9770.718434
3832.151239,-995.924147,148.041188,9992.780217
3832.151554,-689.485948,-0.000000,9770.718434
3832.151869,-536.266849,-148.041188,9770.718434
3832.152183,306.438199,-74.020594,10214.842000
3832.152498,-153.219100,-0.000000,10288.862594
3832.152813,-536.266849,666.185348,10066.800811
3832.153128,0.000000,296.082377,8586.388927
3832.153442,0.000000,-222.061783,9030.512492
3832.153757,842.705048,-222.061783,9104.533087
3832.154072,766.095498,-592.164754,9844.739029
3832.154386,76.609550,-444.123565,9622.677246
3832.154701,-612.876398,-296.082377,9844.739029
3832.155016,-689.485948,148.041188,8956.491898
3832.155331,0.000000,-1258.350101,9622.677246
3832.155645,383.047749,-1184.329507,10584.944971
3832.155960,-459.657299,-962.267725,10436.903782
3832.156275,-612.876398,-296.082377,9252.574275
3832.156589,-229.828649,-370.102971,9104.533087
3832.156904,153.219100,-74.020594,9030.512492
3832.157219,1378.971896,-148.041188,9030.512492
3832.157533,1225.752797,370.102971,8734.430116
3832.157848,842.705048,296.082377,9178.553681
3832.158163,919.314598,-74.020594,8882.471304
3832.158478,383.047749,148.041188,8660.409521
3832.158792,842.705048,-148.041188,9474.636058
3832.159107,536.266849,-518.144159,9474.636058
3832.159422,0.000000,-296.082377,9548.656652
3832.159736,0.000000,222.061783,8956.491898
3832.160051,-459.657299,-222.061783,9104.533087
3832.160366,-459.657299,-0.000000,9548.656652
3832.160681,0.000000,-370.102971,9326.594869
3832.160995,0.000000,-740.205942,9844.739029
3832.161310,-612.876398,-148.041188,9400.615463
3832.161625,-153.219100,518.144159,9400.615463
3832.161939,229.828649,740.205942,9030.512492
3832.162254,1072.533697,1184.329507,10510.924376
3832.162569,153.219100,1036.288319,10362.883188
3832.162883,459.657299,1702.473667,9474.636058
3832.163198,1072.533697,1702.473667,9030.512492
3832.163513,995.924147,1406.391290,8808.450710
3832.163828,842.705048,518.144159,9252.574275
3832.164142,766.095498,444.123565,9252.574275
3832.164457,-229.828649,296.082377,9474.636058
3832.164772,-995.924147,-0.000000,9992.780217
3832.165086,-1149.143247,370.102971,10288.862594
3832.165401,-536.266849,-0.000000,11251.130318
3832.165716,-306.438199,-296.082377,11103.089130
3832.166031,-612.876398,-0.000000,10584.944971
3832.166345,-536.266849,888.247130,11177.109724
3832.166660,-306.438199,1628.453072,10214.842000
3832.166975,459.657299,1628.453072,9918.759623
3832.167289,1225.752797,1628.453072,9474.636058
3832.167604,1225.752797,1258.350101,9696.697840
3832.167919,919.314598,592.164754,9400.615463
3832.168233,689.485948,-0.000000,9178.553681
3832.168548,0.000000,222.061783,9918.759623
3832.168863,153.219100,-962.267725,10881.027347
3832.169178,0.000000,-444.123565,10881.027347
3832.169492,-459.657299,-370.102971,10658.965565
3832.169807,-536.266849,-740.205942,9918.759623
3832.170122,-842.705048,-296.082377,10436.903782
3832.170436,-229.828649,-518.144159,9474.636058
3832.170751,766.095498,-148.041188,9474.636058
3832.171066,536.266849,-0.000000,9178.553681
3832.171381,153.219100,592.164754,8660.409521
3832.171695,76.609550,-0.000000,9030.512492
3832.172010,842.705048,-0.000000,8660.409521
3832.172325,995.924147,-444.123565,9474.636058
3832.172639,689.485948,-148.041188,9770.718434
3832.172954,153.219100,-370.102971,9622.677246
3832.173269,306.438199,-296.082377,9474.636058
3832.173583,-612.876398,-0.000000,8808.450710
3832.173898,229.828649,-444.123565,9178.553681
3832.174213,612.876398,-666.185348,9400.615463
3832.174528,306.438199,-740.205942,9326.594869
3832.174842,0.000000,-222.061783,8586.388927
3832.175157,0.000000,-222.061783,8290.306550
3832.175472,383.047749,-222.061783,8808.450710
3832.175786,1072.533697,-148.041188,9104.533087
3832.176101,766.095498,-444.123565,9770.718434
3832.176416,0.000000,-0.000000,9474.636058
3832.176731,0.000000,370.102971,8660.409521
3832.177045,153.219100,444.123565,8734.430116
3832.177360,306.438199,-0.000000,9178.553681
3832.177675,153.219100,222.061783,9474.636058
3832.177990,-459.657299,-0.000000,9770.718434
3832.178304,-536.266849,-222.061783,9474.636058
3832.178619,-612.876398,-0.000000,9400.615463
3832.178934,-536.266849,-444.123565,10140.821405
3832.179249,-153.219100,-444.123565,10584.944971
3832.179564,-536.266849,-148.041188,10881.027347
3832.179878,-459.657299,370.102971,9992.780217
3832.180193,-383.047749,740.205942,9474.636058
3832.180508,306.438199,740.205942,9326.594869
3832.180823,842.705048,444.123565,9992.780217
3832.181138,919.314598,814.226536,9770.718434
3832.181452,383.047749,814.226536,9252.574275
3832.181767,-229.828649,518.144159,8956.491898
3832.182082,76.609550,222.061783,9696.697840
3832.182397,76.609550,-296.082377,10658.965565
3832.182712,0.000000,-74.020594,11177.109724
3832.183026,-229.828649,222.061783,11843.295072
3832.183341,-995.924147,666.185348,10584.944971
3832.183656,-383.047749,814.226536,10288.862594
3832.183971,0.000000,296.082377,10288.862594
3832.184286,459.657299,888.247130,9696.697840
3832.184600,459.657299,740.205942,9474.636058
3832.184915,306.438199,888.247130,9474.636058
3832.185230,76.609550,740.205942,9326.594869
3832.185545,383.047749,222.061783,9400.615463
3832.185860,612.876398,-148.041188,9696.697840
3832.186174,383.047749,222.061783,9992.780217
3832.186489,-689.485948,518.144159,10214.842000
3832.186804,-995.924147,-0.000000,9548.656652
3832.187119,-766.095498,-74.020594,9696.697840
3832.187434,229.828649,-370.102971,9178.553681
3832.187748,0.000000,-0.000000,8882.471304
3832.188063,306.438199,518.144159,9326.594869
3832.188378,76.609550,296.082377,9030.512492
3832.188693,76.609550,296.082377,8290.306550
3832.189008,842.705048,-222.061783,8882.471304
3832.189322,919.314598,-0.000000,9474.636058
3832.189637,536.266849,-370.102971,9474.636058
3832.189952,0.000000,-296.082377,9918.759623
3832.190267,-229.828649,-0.000000,9474.636058
3832.190582,76.609550,-0.000000,9474.636058
3832.190896,536.266849,-74.020594,9178.553681
3832.191211,536.266849,-148.041188,9474.636058
3832.191526,306.438199,-0.000000,8882.471304
3832.191841,536.266849,-0.000000,8512.368333
3832.192156,766.095498,-296.082377,8660.409521
3832.192470,919.314598,-74.020594,9030.512492
3832.192785,459.657299,-0.000000,9992.780217
3832.193100,153.219100,-222.061783,10214.842000
3832.193415,0.000000,-148.041188,10288.862594
3832.193730,76.609550,-0.000000,9918.759623
3832.194044,459.657299,518.144159,9992.780217
3832.194359,383.047749,740.205942,10214.842000
3832.194674,0.000000,1258.350101,9622.677246
3832.194989,306.438199,592.164754,9474.636058
3832.195304,0.000000,1110.308913,8586.388927
3832.195618,306.438199,-0.000000,8660.409521
3832.195933,1225.752797,-74.020594,9770.718434
3832.196248,0.000000,296.082377,10066.800811
3832.196563,-383.047749,666.185348,9992.780217
3832.196878,-536.266849,518.144159,10362.883188
3832.197192,-689.485948,444.123565,10140.821405
3832.197507,76.609550,-0.000000,10510.924376
3832.197822,-229.828649,666.185348,9992.780217
3832.198137,-383.047749,1036.288319,10066.800811
3832.198452,-383.047749,888.247130,9474.636058
3832.198766,-459.657299,1036.288319,9252.574275
3832.199081,0.000000,592.164754,9326.594869
3832.199396,153.219100,-0.000000,10066.800811
3832.199711,-536.266849,-148.041188,10362.883188
3832.200026,-536.266849,-148.041188,11029.068536
3832.200340,-1072.533697,444.123565,10214.842000
3832.200655,-536.266849,-0.000000,10510.924376
3832.200970,0.000000,-222.061783,10214.842000
3832.201285,76.609550,-370.102971,10066.800811
3832.201600,0.000000,370.102971,9326.594869
3832.201914,0.000000,740.205942,8142.265362
3832.202229,383.047749,666.185348,8438.347739
3832.202544,919.314598,-148.041188,9252.574275
3832.202859,612.876398,-666.185348,9030.512492
3832.203174,766.095498,-962.267725,9474.636058
3832.203488,-306.438199,-666.185348,10140.821405
3832.203803,-1149.143247,-962.267725,9992.780217
3832.204118,0.000000,-740.205942,10214.842000
3832.204433,153.219100,-592.164754,10732.986159
3832.204748,153.219100,370.102971,10288.862594
3832.205062,0.000000,148.041188,10066.800811
3832.205377,0.000000,370.102971,8882.471304
3832.205692,1149.143247,-370.102971,9030.512492
3832.206007,1838.629195,-74.020594,8734.430116
3832.206322,1608.800546,-222.061783,8660.409521
3832.206636,1072.533697,-0.000000,9474.636058
3832.206951,612.876398,-148.041188,9326.594869
3832.207266,76.609550,-0.000000,8808.450710
3832.207581,689.485948,-1480.411884,9326.594869
3832.207896,306.438199,-1628.453072,10214.842000
3832.208210,229.828649,-592.164754,9326.594869
3832.208525,0.000000,-74.020594,9030.512492
3832.208840,-536.266849,-296.082377,8734.430116
3832.209155,306.438199,-888.247130,8808.450710
3832.209470,995.924147,-666.185348,8882.471304
3832.209784,306.438199,296.082377,8660.409521
3832.210099,383.047749,740.205942,9326.594869
3832.210414,76.609550,666.185348,8512.368333
3832.210729,0.000000,518.144159,8734.430116
3832.211044,689.485948,-1184.329507,10288.862594
3832.211358,383.047749,-0.000000,10288.862594
3832.211673,-306.438199,518.144159,9918.759623
3832.211988,-612.876398,444.123565,9400.615463
3832.212303,-383.047749,1036.288319,9252.574275
3832.212618,76.609550,740.205942,9326.594869
3832.212932,153.219100,222.061783,9030.512492
3832.213247,229.828649,518.144159,9918.759623
3832.213562,0.000000,592.164754,9178.553681
3832.213877,-383.047749,518.144159,9030.512492
3832.214192,153.219100,-0.000000,10584.944971
3832.214506,383.047749,296.082377,9622.677246
3832.214821,229.828649,518.144159,9696.697840
3832.215136,0.000000,962.267725,9696.697840
3832.215451,0.000000,1258.350101,10140.821405
3832.215766,76.609550,1110.308913,9918.759623
3832.216080,459.657299,1110.308913,10288.862594
3832.216395,536.266849,962.267725,10807.006753
3832.216710,0.000000,814.226536,10436.903782
3832.217025,-536.266849,962.267725,10066.800811
3832.217340,0.000000,666.185348,10288.862594
3832.217654,76.609550,148.041188,10732.986159
3832.217969,306.438199,370.102971,10510.924376
3832.218284,-306.438199,592.164754,9918.759623
3832.218599,-383.047749,518.144159,10658.965565
3832.218914,-229.828649,888.247130,9622.677246
3832.219228,0.000000,296.082377,9622.677246
3832.219543,612.876398,-148.041188,10288.862594
3832.219858,459.657299,-0.000000,9474.636058
3832.220173,229.828649,370.102971,9696.697840
3832.220488,0.000000,518.144159,9104.533087
3832.220802,153.219100,-0.000000,9030.512492
3832.221117,153.219100,-518.144159,9770.718434
3832.221432,0.000000,-0.000000,9918.759623
3832.221747,306.438199,222.061783,9770.718434
3832.222062,153.219100,-74.020594,9252.574275
3832.222376,0.000000,-0.000000,8956.491898
3832.222691,689.485948,-296.082377,9252.574275
3832.223006,612.876398,-296.082377,9918.759623
3832.223321,383.047749,222.061783,9474.636058
3832.223636,-459.657299,370.102971,9104.533087
3832.223950,0.000000,-296.082377,8956.491898
3832.224265,383.047749,-296.082377,8882.471304
3832.224580,306.438199,-296.082377,9178.553681
3832.224895,229.828649,-370.102971,9770.718434
3832.225210,76.609550,-518.144159,9474.636058
3832.225524,0.000000,-0.000000,8364.327145
3832.225839,459.657299,-74.020594,8364.327145
3832.226154,1149.143247,-962.267725,8512.368333
3832.226469,1455.581446,-1110.308913,8956.491898
3832.226784,459.657299,444.123565,9622.677246
3832.227098,-306.438199,-0.000000,9178.553681
3832.227413,-612.876398,222.061783,8734.430116
3832.227728,459.657299,-666.185348,9844.739029
3832.228043,536.266849,-518.144159,9696.697840
3832.228358,-229.828649,-0.000000,10732.986159
3832.228672,-842.705048,-148.041188,10510.924376
3832.228987,-689.485948,222.061783,10066.800811
3832.229302,-229.828649,518.144159,9622.677246
3832.229617,76.609550,-0.000000,9844.739029
3832.229932,229.828649,370.102971,10140.821405
3832.230246,0.000000,222.061783,9770.718434
3832.230561,-306.438199,-0.000000,9474.636058
3832.230876,0.000000,-148.041188,9252.574275
3832.231191,76.609550,-0.000000,9844.739029
3832.231506,383.047749,-148.041188,10140.821405
3832.231820,0.000000,-592.164754,10436.903782
3832.232135,-536.266849,-592.164754,10140.821405
3832.232450,-1149.143247,-148.041188,10214.842000
3832.232765,-536.266849,-148.041188,9992.780217
3832.233080,612.876398,-0.000000,9992.780217
3832.233394,612.876398,740.205942,9474.636058
3832.233709,306.438199,888.247130,9474.636058
3832.234024,76.609550,1184.329507,9474.636058
3832.234339,612.876398,888.247130,9326.594869
3832.234654,1072.533697,592.164754,9992.780217
3832.234968,842.705048,518.144159,10066.800811
3832.235283,229.828649,666.185348,10066.800811
3832.235598,0.000000,148.041188,9400.615463
3832.235913,-612.876398,-74.020594,10807.006753
3832.236228,0.000000,-370.102971,10288.862594
3832.236542,229.828649,-518.144159,9474.636058
3832.236857,0.000000,-0.000000,9548.656652
3832.237172,-229.828649,296.082377,9622.677246
3832.237487,0.000000,296.082377,8882.471304
3832.237802,76.609550,-296.082377,9178.553681
3832.238116,229.828649,-740.205942,9474.636058
3832.238431,76.609550,-444.123565,9770.718434
3832.238746,0.000000,222.061783,9696.697840
3832.239061,-383.047749,518.144159,9474.636058
3832.239376,0.000000,370.102971,9696.697840
3832.239690,842.705048,-0.000000,9548.656652
3832.240005,842.705048,222.061783,9696.697840
3832.240320,153.219100,666.185348,9030.512492
3832.240635,0.000000,666.185348,8956.491898
3832.240950,0.000000,370.102971,8438.347739
3832.241264,536.266849,-518.144159,8882.471304
3832.241579,766.095498,-444.123565,9252.574275
3832.241894,0.000000,-222.061783,9474.636058
3832.242209,-612.876398,-74.020594,9400.615463
3832.242524,-919.314598,-222.061783,9474.636058
3832.242838,0.000000,-592.164754,9474.636058
3832.243153,459.657299,-148.041188,9696.697840
3832.243468,0.000000,-0.000000,9992.780217
3832.243783,-229.828649,1332.370696,8808.450710
3832.244098,-229.828649,962.267725,8142.265362
3832.244412,536.266849,888.247130,8290.306550
3832.244727,1532.190996,444.123565,9030.512492
3832.245042,383.047749,296.082377,9030.512492
3832.245357,0.000000,-0.000000,10066.800811
3832.245672,-842.705048,296.082377,10140.821405
3832.245986,-1532.190996,-74.020594,10288.862594
3832.246301,-612.876398,-518.144159,10881.027347
3832.246616,-459.657299,-740.205942,11473.192101
3832.246931,-383.047749,-74.020594,10955.047942
3832.247246,-612.876398,370.102971,9918.759623
3832.247560,0.000000,1924.535449,8808.450710
3832.247875,536.266849,740.205942,9400.615463
3832.248190,1685.410096,962.267725,9326.594869
3832.248505,1685.410096,1332.370696,9474.636058
3832.248820,1072.533697,814.226536,9326.594869
3832.249134,689.485948,222.061783,9548.656652
3832.249449,153.219100,148.041188,10066.800811
3832.249764,306.438199,-0.000000,11103.089130
3832.250079,0.000000,-222.061783,11325.150913
3832.250394,76.609550,444.123565,10510.924376
3832.250708,-383.047749,666.185348,10288.862594
3832.251023,0.000000,518.144159,9918.759623
3832.251338,383.047749,518.144159,9918.759623
3832.251653,383.047749,148.041188,9696.697840
3832.251968,76.609550,-222.061783,9918.759623
3832.252282,689.485948,814.226536,10066.800811
3832.252597,459.657299,666.185348,9252.574275
3832.252912,689.485948,-0.000000,8956.491898
3832.253227,459.657299,-222.061783,10140.821405
3832.253542,383.047749,-370.102971,10066.800811
3832.253856,-459.657299,-74.020594,10066.800811
3832.254171,-766.095498,444.123565,9400.615463
3832.254486,-383.047749,-0.000000,9326.594869
3832.254801,0.000000,-518.144159,9252.574275
3832.255116,0.000000,-444.123565,8956.491898
3832.255430,-383.047749,-666.185348,9104.533087
3832.255745,-459.657299,-666.185348,9104.533087
3832.256060,-459.657299,-148.041188,9400.615463
3832.256375,0.000000,-444.123565,9400.615463
3832.256690,229.828649,-592.164754,9474.636058
3832.257004,0.000000,-148.041188,9326.594869
3832.257319,-306.438199,-518.144159,9178.553681
3832.257634,-536.266849,-0.000000,8882.471304
3832.257949,-153.219100,-370.102971,9252.574275
3832.258264,0.000000,-296.082377,9252.574275
3832.258578,536.266849,-0.000000,9178.553681
3832.258893,76.609550,-0.000000,9326.594869
3832.259208,-306.438199,-0.000000,8438.347739
3832.259523,76.609550,-444.123565,8882.471304
3832.259838,0.000000,-518.144159,9474.636058
3832.260152,76.609550,-296.082377,10214.842000
3832.260467,-229.828649,-0.000000,10066.800811
3832.260782,-459.657299,222.061783,9474.636058
3832.261097,-383.047749,370.102971,9474.636058
3832.261412,612.876398,-74.020594,9918.759623
3832.261726,1072.533697,296.082377,9622.677246
3832.262041,689.485948,518.144159,9400.615463
3832.262356,229.828649,1036.288319,9474.636058
3832.262671,229.828649,1258.350101,9104.533087
3832.262986,689.485948,592.164754,9548.656652
3832.263300,689.485948,-74.020594,10584.944971
3832.263615,229.828649,-148.041188,10732.986159
3832.263930,-459.657299,296.082377,10362.883188
3832.264245,-383.047749,370.102971,10214.842000
3832.264560,-842.705048,592.164754,9918.759623
3832.264874,842.705048,370.102971,9844.739029
3832.265189,919.314598,296.082377,10066.800811
3832.265504,1072.533697,518.144159,9474.636058
3832.265819,766.095498,1184.329507,9326.594869
3832.266134,842.705048,1258.350101,8808.450710
3832.266448,1608.800546,592.164754,9474.636058
3832.266763,1378.971896,518.144159,10214.842000
3832.267078,1378.971896,222.061783,10066.800811
3832.267393,1225.752797,148.041188,10881.027347
3832.267708,-229.828649,814.226536,9548.656652
3832.268022,383.047749,222.061783,9178.553681
3832.268337,919.314598,-74.020594,9844.739029
3832.268652,383.047749,-0.000000,9622.677246
3832.268967,383.047749,222.061783,9474.636058
3832.269282,0.000000,-148.041188,8956.491898
3832.269596,459.657299,-0.000000,9178.553681
3832.269911,766.095498,-0.000000,9474.636058
3832.270226,612.876398,-296.082377,10436.903782
3832.270541,0.000000,-0.000000,9992.780217
3832.270856,-459.657299,-0.000000,10066.800811
3832.271170,-1225.752797,370.102971,9622.677246
3832.271485,-306.438199,518.144159,9326.594869
3832.271800,0.000000,518.144159,9178.553681
3832.272115,153.219100,222.061783,9030.512492
3832.272429,-306.438199,1184.329507,7994.224174
3832.272744,-689.485948,370.102971,8734.430116
3832.273059,-306.438199,148.041188,9178.553681
3832.273374,0.000000,-0.000000,9178.553681
3832.273688,-536.266849,-370.102971,10288.862594
3832.274003,-1149.143247,-148.041188,10658.965565
3832.274318,-1225.752797,518.144159,9770.718434
3832.274633,-2068.457845,-222.061783,9918.759623
3832.274947,-1072.533697,-518.144159,9696.697840
3832.275262,-919.314598,296.082377,9622.677246
3832.275577,-689.485948,-0.000000,9400.615463
3832.275892,-842.705048,518.144159,9252.574275
3832.276206,0.000000,740.205942,8882.471304
3832.276521,383.047749,518.144159,8882.471304
3832.276836,612.876398,-0.000000,9252.574275
3832.277151,229.828649,888.247130,10510.924376
3832.277465,-76.609550,222.061783,9844.739029
3832.277780,-383.047749,444.123565,9326.594869
3832.278095,-459.657299,296.082377,9252.574275
3832.278409,459.657299,-444.123565,9918.759623
3832.278724,76.609550,-296.082377,9992.780217
3832.279039,-153.219100,-0.000000,9474.636058
3832.279354,-536.266849,-0.000000,9178.553681
3832.279668,-306.438199,-74.020594,9474.636058
3832.279983,842.705048,-148.041188,9918.759623
3832.280298,842.705048,-370.102971,9992.780217
3832.280613,536.266849,296.082377,10214.842000
3832.280927,612.876398,-222.061783,10288.862594
3832.281242,153.219100,370.102971,9474.636058
3832.281557,1302.362347,222.061783,9844.739029
3832.281872,1762.019645,-0.000000,10214.842000
3832.282186,1225.752797,-0.000000,9844.739029
3832.282501,995.924147,444.123565,9030.512492
3832.282816,842.705048,148.041188,8808.450710
3832.283131,1225.752797,222.061783,8882.471304
3832.283445,1762.019645,-740.205942,10066.800811
3832.283760,995.924147,-148.041188,10288.862594
3832.284075,612.876398,518.144159,9844.739029
3832.284390,0.000000,-0.000000,9622.677246
3832.284704,306.438199,-0.000000,9918.759623
3832.285019,842.705048,-296.082377,10288.862594
3832.285334,612.876398,-74.020594,10140.821405
3832.285648,229.828649,-0.000000,9622.677246
3832.285963,306.438199,444.123565,9474.636058
3832.286278,842.705048,740.205942,8882.471304
3832.286593,612.876398,296.082377,8364.327145
3832.286907,919.314598,-222.061783,9474.636058
3832.287222,612.876398,-296.082377,9696.697840
3832.287537,76.609550,-296.082377,9696.697840
3832.287852,-459.657299,-370.102971,9918.759623
3832.288166,-689.485948,-666.185348,9770.718434
3832.288481,0.000000,-1036.288319,10288.862594
3832.288796,76.609550,-444.123565,9918.759623
3832.289111,-612.876398,-0.000000,9400.615463
3832.289425,0.000000,518.144159,9622.677246
3832.289740,-612.876398,370.102971,7772.162391
3832.290055,76.609550,-222.061783,8660.409521
3832.290370,459.657299,222.061783,9178.553681
3832.290684,-229.828649,444.123565,9030.512492
3832.290999,0.000000,-0.000000,10066.800811
3832.291314,-612.876398,370.102971,10140.821405
3832.291629,-689.485948,370.102971,9696.697840
3832.291943,-383.047749,-296.082377,10658.965565
3832.292258,-536.266849,518.144159,10510.924376
3832.292573,-842.705048,-148.041188,9992.780217
3832.292887,76.609550,962.267725,9030.512492
3832.293202,-383.047749,518.144159,8808.450710
3832.293517,383.047749,-0.000000,8956.491898
3832.293832,919.314598,370.102971,9770.718434
3832.294146,-306.438199,518.144159,8660.409521
3832.294461,-229.828649,1110.308913,9622.677246
3832.294776,-459.657299,1258.350101,9474.636058
3832.295091,0.000000,518.144159,8808.450710
3832.295405,153.219100,-0.000000,10066.800811
3832.295720,-766.095498,740.205942,10584.944971
3832.296035,-1455.581446,592.164754,10066.800811
3832.296350,-1532.190996,962.267725,9474.636058
3832.296664,-995.924147,592.164754,9696.697840
3832.296979,0.000000,-222.061783,11103.089130
3832.297294,0.000000,814.226536,9696.697840
3832.297609,-612.876398,-0.000000,9992.780217
3832.297923,-612.876398,740.205942,10584.944971
3832.298238,-229.828649,1258.350101,9548.656652
3832.298553,306.438199,444.123565,10140.821405
3832.298867,689.485948,444.123565,10214.842000
3832.299182,689.485948,518.144159,9474.636058
3832.299497,459.657299,148.041188,9326.594869
3832.299812,306.438199,518.144159,9178.553681
3832.300126,995.924147,148.041188,9326.594869
3832.300441,1532.190996,74.020594,10066.800811
3832.300756,1302.362347,888.247130,9252.574275
3832.301071,842.705048,-0.000000,9326.594869
3832.301385,459.657299,-0.000000,9548.656652
3832.301700,1225.752797,-0.000000,9622.677246
3832.302015,1225.752797,-148.041188,10214.842000
3832.302330,842.705048,-74.020594,9548.656652
3832.302644,229.828649,-444.123565,9696.697840
3832.302959,-459.657299,370.102971,9104.533087
3832.303274,229.828649,-148.041188,9474.636058
3832.303589,919.314598,-518.144159,9992.780217
3832.303903,842.705048,-666.185348,10214.842000
3832.304218,689.485948,370.102971,9844.739029
3832.304533,766.095498,-0.000000,9400.615463
3832.304848,689.485948,296.082377,8586.388927
3832.305162,1225.752797,-222.061783,9400.615463
3832.305477,1302.362347,-740.205942,9770.718434
3832.305792,766.095498,-370.102971,9696.697840
3832.306106,919.314598,-0.000000,9474.636058
3832.306421,76.609550,-0.000000,8956.491898
3832.306736,383.047749,-518.144159,8734.430116
3832.307051,766.095498,-1258.350101,9474.636058
3832.307365,612.876398,-666.185348,9326.594869
3832.307680,229.828649,-148.041188,9992.780217
3832.307995,-229.828649,-0.000000,8956.491898
3832.308310,-306.438199,296.082377,8882.471304
3832.308624,306.438199,-666.185348,9474.636058
3832.308939,229.828649,-814.226536,9400.615463
3832.309254,0.000000,-814.226536,9992.780217
3832.309569,-612.876398,-0.000000,9844.739029
3832.309883,-766.095498,740.205942,8808.450710
3832.310198,0.000000,222.061783,8956.491898
3832.310513,383.047749,-0.000000,9474.636058
3832.310828,306.438199,370.102971,9400.615463
3832.311142,-383.047749,740.205942,8364.327145
3832.311457,-766.095498,592.164754,8808.450710
3832.311772,-919.314598,-0.000000,9400.615463
3832.312086,-229.828649,-370.102971,9622.677246
3832.312401,-766.095498,-0.000000,10510.924376
3832.312716,-1685.410096,-0.000000,10807.006753
3832.313031,-1991.848295,-222.061783,10955.047942
3832.313345,-1762.019645,296.082377,9622.677246
3832.313660,-766.095498,-222.061783,10288.862594
3832.313975,-229.828649,740.205942,10214.842000
3832.314290,-919.314598,444.123565,9474.636058
3832.314604,-842.705048,962.267725,9696.697840
3832.314919,-459.657299,1184.329507,9400.615463
3832.315234,-459.657299,888.247130,9770.718434
3832.315549,0.000000,-0.000000,10140.821405
3832.315863,-306.438199,-0.000000,10584.944971
3832.316178,-383.047749,444.123565,10362.883188
3832.316493,-766.095498,740.205942,9918.759623
3832.316808,-306.438199,1480.411884,9474.636058
3832.317122,0.000000,888.247130,9622.677246
3832.317437,306.438199,666.185348,9770.718434
3832.317752,306.438199,296.082377,9474.636058
3832.318067,229.828649,74.020594,9326.594869
3832.318381,306.438199,518.144159,9252.574275
3832.318696,536.266849,-0.000000,9622.677246
3832.319011,919.314598,296.082377,9696.697840
3832.319325,383.047749,222.061783,9844.739029
3832.319640,76.609550,666.185348,9918.759623
3832.319955,229.828649,740.205942,9474.636058
3832.320270,1072.533697,370.102971,9474.636058
3832.320584,1532.190996,444.123565,9770.718434
3832.320899,1302.362347,518.144159,9474.636058
3832.321214,1072.533697,370.102971,9844.739029
3832.321529,995.924147,-0.000000,9696.697840
3832.321843,766.095498,-0.000000,8660.409521
3832.322158,1608.800546,-370.102971,9326.594869
3832.322473,1991.848295,-370.102971,9474.636058
3832.322788,1455.581446,-148.041188,9622.677246
3832.323102,919.314598,518.144159,9104.533087
3832.323417,612.876398,-0.000000,9252.574275
3832.323732,1149.143247,-740.205942,9696.697840
3832.324047,1685.410096,-370.102971,9548.656652
3832.324361,1149.143247,-0.000000,8956.491898
3832.324676,766.095498,-0.000000,8956.491898
3832.324991,383.047749,-0.000000,9400.615463
3832.325306,1072.533697,-0.000000,8438.347739
3832.325620,1225.752797,-444.123565,9400.615463
3832.325935,612.876398,-148.041188,9770.718434
3832.326250,229.828649,-296.082377,9918.759623
3832.326564,-383.047749,148.041188,9696.697840
3832.326879,-536.266849,-0.000000,9548.656652
3832.327194,153.219100,-296.082377,10584.944971
3832.327509,0.000000,-518.144159,9918.759623
3832.327823,-612.876398,-0.000000,9696.697840
3832.328138,-536.266849,148.041188,9622.677246
3832.328453,-919.314598,666.185348,9030.512492
3832.328768,76.609550,-148.041188,9474.636058
3832.329082,229.828649,-222.061783,9474.636058
3832.329397,-1072.533697,444.123565,9326.594869
3832.329712,-919.314598,-74.020594,9918.759623
3832.330027,-1838.629195,148.041188,9400.615463
3832.330341,-1608.800546,-0.000000,9844.739029
3832.330656,-229.828649,-444.123565,11103.089130
3832.330971,-1149.143247,-0.000000,10362.883188
3832.331286,-1225.752797,444.123565,10214.842000
3832.331600,-1378.971896,666.185348,10288.862594
3832.331915,-1455.581446,1036.288319,9400.615463
3832.332230,0.000000,666.185348,9252.574275
3832.332544,0.000000,370.102971,9474.636058
3832.332859,76.609550,814.226536,8660.409521
3832.333174,229.828649,1110.308913,8734.430116
3832.333489,-153.219100,666.185348,9474.636058
3832.333803,0.000000,-0.000000,9844.739029
3832.334118,0.000000,-444.123565,10732.986159
3832.334433,-229.828649,-0.000000,9770.718434
3832.334748,-229.828649,444.123565,9770.718434
3832.335062,-612.876398,888.247130,9622.677246
3832.335377,0.000000,148.041188,9474.636058
3832.335692,689.485948,740.205942,9548.656652
3832.336007,612.876398,-0.000000,9548.656652
3832.336321,153.219100,-0.000000,9252.574275
3832.336636,842.705048,-0.000000,9474.636058
3832.336951,153.219100,148.041188,9696.697840
3832.337266,536.266849,-518.144159,10658.965565
3832.337580,612.876398,-296.082377,10510.924376
3832.337895,153.219100,-0.000000,10214.842000
3832.338210,612.876398,-222.061783,10214.842000
3832.338525,76.609550,518.144159,9696.697840
3832.338839,536.266849,-0.000000,9844.739029
3832.339154,1225.752797,-592.164754,10066.800811
3832.339469,842.705048,-592.164754,9918.759623
3832.339783,1149.143247,-370.102971,9770.718434
3832.340098,995.924147,-0.000000,9030.512492
3832.340413,766.095498,-370.102971,8882.471304
3832.340728,1378.971896,-962.267725,9844.739029
3832.341042,1072.533697,-592.164754,10362.883188
3832.341357,766.095498,370.102971,9400.615463
3832.341672,383.047749,-0.000000,9770.718434
3832.341987,153.219100,370.102971,8808.450710
3832.342301,1072.533697,-222.061783,8882.471304
3832.342616,1608.800546,-592.164754,9474.636058
3832.342931,995.924147,-74.020594,9326.594869
3832.343246,536.266849,-0.000000,9844.739029
3832.343560,0.000000,592.164754,9474.636058
3832.343875,536.266849,888.247130,9252.574275
3832.344190,766.095498,-0.000000,10140.821405
3832.344505,229.828649,-0.000000,9844.739029
3832.344819,229.828649,518.144159,9622.677246
3832.345134,-306.438199,444.123565,8512.368333
3832.345449,0.000000,740.205942,8882.471304
3832.345763,612.876398,148.041188,9696.697840
3832.346078,459.657299,666.185348,9104.533087
3832.346393,-153.219100,740.205942,9178.553681
3832.346708,-612.876398,518.144159,9400.615463
3832.347022,-1149.143247,444.123565,9178.553681
3832.347337,-995.924147,-296.082377,9622.677246
3832.347652,-766.095498,-370.102971,10362.883188
3832.347967,-1072.533697,-296.082377,10436.903782
3832.348281,-1149.143247,-222.061783,10066.800811
3832.348596,-1838.629195,962.267725,9400.615463
3832.348911,-612.876398,962.267725,9326.594869
3832.349226,0.000000,962.267725,9474.636058
3832.349540,-459.657299,814.226536,9548.656652
3832.349855,0.000000,1628.453072,8734.430116
3832.350170,-612.876398,1554.432478,9030.512492
3832.350485,-1072.533697,814.226536,9326.594869
3832.350799,-459.657299,-74.020594,10955.047942
3832.351114,-842.705048,-296.082377,11399.171507
3832.351429,-1225.752797,-296.082377,11325.150913
3832.351744,-1149.143247,-0.000000,11399.171507
3832.352058,-1225.752797,370.102971,9622.677246
3832.352373,-536.266849,592.164754,9696.697840
3832.352688,153.219100,222.061783,9992.780217
3832.353002,229.828649,222.061783,8956.491898
3832.353317,995.924147,148.041188,8882.471304
3832.353632,459.657299,296.082377,7994.224174
3832.353947,766.095498,-0.000000,8956.491898
3832.354261,766.095498,-444.123565,10214.842000
3832.354576,153.219100,-0.000000,9918.759623
3832.354891,383.047749,-518.144159,9992.780217
3832.355206,306.438199,-74.020594,10658.965565
3832.355520,459.657299,592.164754,9622.677246
3832.355835,1225.752797,-0.000000,9474.636058
3832.356150,1225.752797,592.164754,8512.368333
3832.356465,1225.752797,-0.000000,9326.594869
3832.356779,842.705048,148.041188,8956.491898
3832.357094,919.314598,-0.000000,9030.512492
3832.357409,1455.581446,-148.041188,9326.594869
3832.357724,1455.581446,-666.185348,9992.780217
3832.358038,995.924147,-0.000000,9252.574275
3832.358353,995.924147,-148.041188,10140.821405
3832.358668,536.266849,444.123565,9030.512492
3832.358982,1378.971896,-74.020594,9104.533087
3832.359297,1762.019645,-0.000000,8808.450710
3832.359612,1455.581446,-148.041188,8808.450710
3832.359927,1072.533697,-0.000000,8734.430116
3832.360241,689.485948,148.041188,8512.368333
3832.360556,689.485948,-0.000000,8142.265362
3832.360871,1302.362347,-1258.350101,9844.739029
3832.361186,536.266849,-1184.329507,9918.759623
3832.361500,0.000000,-1258.350101,10881.027347
3832.361815,229.828649,-74.020594,10510.924376
3832.362130,-229.828649,518.144159,9474.636058
3832.362445,0.000000,444.123565,9474.636058
3832.362759,536.266849,-0.000000,9696.697840
3832.363074,0.000000,222.061783,9474.636058
3832.363389,229.828649,-0.000000,9326.594869
3832.363704,0.000000,740.205942,9104.533087
3832.364018,-536.266849,-0.000000,9622.677246
3832.364333,0.000000,-666.185348,10584.944971
3832.364648,-306.438199,-74.020594,10214.842000
3832.364963,-766.095498,-0.000000,10436.903782
3832.365277,-1915.238745,-0.000000,10584.944971
3832.365592,-1685.410096,518.144159,9992.780217
3832.365907,-919.314598,296.082377,10584.944971
3832.366221,-229.828649,370.102971,9992.780217
3832.366536,-689.485948,666.185348,9178.553681
3832.366851,-536.266849,592.164754,8808.450710
3832.367166,-459.657299,962.267725,8734.430116
3832.367480,-306.438199,1258.350101,9326.594869
3832.367795,0.000000,370.102971,9918.759623
3832.368110,-229.828649,888.247130,10288.862594
3832.368425,-383.047749,1406.391290,11029.068536
3832.368739,-1149.143247,1036.288319,10732.986159
3832.369054,-689.485948,962.267725,10584.944971
3832.369369,-1302.362347,814.226536,10436.903782
3832.369684,-689.485948,296.082377,10732.986159
3832.369998,-766.095498,370.102971,9770.718434
3832.370313,-612.876398,1258.350101,8882.471304
3832.370628,0.000000,888.247130,8882.471304
3832.370943,0.000000,592.164754,8734.430116
3832.371257,229.828649,-74.020594,8734.430116
3832.371572,1149.143247,-518.144159,9770.718434
3832.371887,-229.828649,-444.123565,9844.739029
3832.372202,0.000000,-888.247130,9918.759623
3832.372516,459.657299,-740.205942,10140.821405
3832.372831,612.876398,-0.000000,9844.739029
3832.373146,842.705048,222.061783,9474.636058
3832.373460,842.705048,-74.020594,9178.553681
3832.373775,1225.752797,296.082377,9030.512492
3832.374090,1455.581446,296.082377,9326.594869
3832.374404,1685.410096,592.164754,8660.409521
3832.374719,2145.067394,-296.082377,9474.636058
3832.375034,1149.143247,-1036.288319,9992.780217
3832.375349,306.438199,-592.164754,9548.656652
3832.375663,76.609550,-296.082377,9770.718434
3832.375978,383.047749,-814.226536,9918.759623
3832.376293,842.705048,-740.205942,9770.718434
3832.376607,995.924147,-296.082377,9622.677246
3832.376922,766.095498,-0.000000,8956.491898
3832.377237,766.095498,-0.000000,8586.388927
3832.377552,1072.533697,-0.000000,8586.388927
3832.377866,995.924147,-666.185348,8882.471304
3832.378181,1225.752797,370.102971,8882.471304
3832.378496,842.705048,296.082377,9178.553681
3832.378810,383.047749,962.267725,9104.533087
3832.379125,766.095498,-0.000000,9474.636058
3832.379440,1072.533697,222.061783,9622.677246
3832.379755,306.438199,222.061783,10214.842000
3832.380069,-536.266849,592.164754,9992.780217
3832.380384,-1149.143247,740.205942,9178.553681
3832.380699,-383.047749,-0.000000,9696.697840
3832.381013,0.000000,148.041188,9770.718434
3832.381328,-766.095498,-0.000000,10140.821405
3832.381643,-383.047749,-74.020594,9696.697840
3832.381957,-919.314598,-0.000000,10140.821405
3832.382272,-1762.019645,148.041188,9918.759623
3832.382587,-536.266849,-148.041188,9474.636058
3832.382902,-383.047749,-148.041188,9992.780217
3832.383216,-229.828649,-74.020594,9770.718434
3832.383531,-459.657299,444.123565,9844.739029
3832.383846,-919.314598,962.267725,9178.553681
3832.384160,-919.314598,444.123565,9474.636058
3832.384475,153.219100,-0.000000,9844.739029
3832.384790,-459.657299,296.082377,10214.842000
3832.385105,-995.924147,-74.020594,10066.800811
3832.385419,-995.924147,-666.185348,10362.883188
3832.385734,-1762.019645,148.041188,10510.924376
3832.386049,-919.314598,-0.000000,10214.842000
3832.386363,-536.266849,-370.102971,10807.006753
3832.386678,-689.485948,222.061783,9770.718434
3832.386993,153.219100,-74.020594,9400.615463
3832.387308,153.219100,666.185348,8882.471304
3832.387622,153.219100,518.144159,9622.677246
3832.387937,536.266849,444.123565,9918.759623
3832.388252,306.438199,-0.000000,9474.636058
3832.388566,229.828649,-148.041188,10288.862594
3832.388881,-229.828649,-0.000000,9770.718434
3832.389196,-153.219100,-148.041188,10214.842000
3832.389510,153.219100,222.061783,10066.800811
3832.389825,76.609550,-148.041188,10140.821405
3832.390140,-229.828649,-1406.391290,9992.780217
3832.390455,0.000000,-444.123565,9918.759623
3832.390769,153.219100,370.102971,8882.471304
3832.391084,919.314598,370.102971,8660.409521
3832.391399,1455.581446,148.041188,9030.512492
3832.391713,919.314598,-296.082377,9400.615463
3832.392028,689.485948,148.041188,8956.491898
3832.392343,459.657299,296.082377,8808.450710
3832.392658,842.705048,518.144159,9178.553681
3832.392972,1149.143247,-0.000000,9548.656652
3832.393287,1072.533697,-148.041188,9326.594869
3832.393602,689.485948,-592.164754,9030.512492
3832.393916,76.609550,-148.041188,8808.450710
3832.394231,612.876398,-74.020594,8734.430116
3832.394546,1072.533697,-0.000000,8808.450710
3832.394860,536.266849,-148.041188,8586.388927
3832.395175,842.705048,-74.020594,8956.491898
3832.395490,306.438199,-74.020594,8956.491898
3832.395805,76.609550,-0.000000,8808.450710
3832.396119,76.609550,-518.144159,9622.677246
3832.396434,76.609550,-370.102971,10140.821405
3832.396749,0.000000,-0.000000,10510.924376
3832.397063,0.000000,148.041188,9918.759623
3832.397378,-689.485948,888.247130,9844.739029
3832.397693,459.657299,1036.288319,9770.718434
3832.398008,766.095498,888.247130,9474.636058
3832.398322,536.266849,888.247130,9474.636058
3832.398637,612.876398,518.144159,9548.656652
3832.398952,0.000000,296.082377,9252.574275
3832.399266,0.000000,444.123565,8956.491898
3832.399581,-153.219100,-0.000000,10510.924376
3832.399896,-612.876398,-74.020594,11177.109724
3832.400211,-995.924147,-148.041188,11251.130318
3832.400525,-1302.362347,222.061783,10436.903782
3832.400840,-1455.581446,666.185348,9992.780217
3832.401155,-383.047749,1184.329507,10214.842000
3832.401469,-229.828649,740.205942,10214.842000
3832.401784,76.609550,1036.288319,10288.862594
3832.402099,0.000000,1480.411884,9400.615463
3832.402413,-306.438199,1850.514855,8586.388927
3832.402728,0.000000,1258.350101,9992.780217
3832.403043,0.000000,962.267725,10584.944971
3832.403358,-229.828649,444.123565,10066.800811
3832.403672,-689.485948,222.061783,10214.842000
3832.403987,-995.924147,-0.000000,10510.924376
3832.404302,-919.314598,-0.000000,10362.883188
3832.404616,-766.095498,-592.164754,9992.780217
3832.404931,-842.705048,-518.144159,10066.800811
3832.405246,0.000000,-888.247130,9252.574275
3832.405561,-689.485948,-0.000000,9104.533087
3832.405875,-229.828649,-222.061783,8956.491898
3832.406190,919.314598,-148.041188,8956.491898
3832.406505,1302.362347,-592.164754,9030.512492
3832.406819,1302.362347,-740.205942,8290.306550
3832.407134,153.219100,-592.164754,9326.594869
3832.407449,76.609550,-148.041188,9918.759623
3832.407764,0.000000,-444.123565,9326.594869
3832.408078,536.266849,-518.144159,9474.636058
3832.408393,459.657299,-444.123565,9622.677246
3832.408708,459.657299,-0.000000,8956.491898
3832.409022,76.609550,-0.000000,9104.533087
3832.409337,229.828649,-0.000000,9030.512492
3832.409652,995.924147,-444.123565,9178.553681
3832.409966,919.314598,-518.144159,8882.471304
3832.410281,1072.533697,-666.185348,9104.533087
3832.410596,766.095498,-370.102971,9474.636058
3832.410911,612.876398,-0.000000,8956.491898
3832.411225,1149.143247,-296.082377,9474.636058
3832.411540,842.705048,-518.144159,9474.636058
3832.411855,995.924147,222.061783,9474.636058
3832.412169,689.485948,518.144159,8660.409521
3832.412484,0.000000,666.185348,8882.471304
3832.412799,536.266849,592.164754,8660.409521
3832.413114,1149.143247,-296.082377,8882.471304
3832.413428,766.095498,-296.082377,9252.574275
3832.413743,153.219100,222.061783,9622.677246
3832.414058,-459.657299,296.082377,9844.739029
3832.414372,-612.876398,370.102971,9770.718434
3832.414687,0.000000,222.061783,10140.821405
3832.415002,76.609550,-0.000000,11029.068536
3832.415316,0.000000,-0.000000,10584.944971
3832.415631,-306.438199,-0.000000,9696.697840
3832.415946,-459.657299,962.267725,9474.636058
3832.416261,0.000000,962.267725,9252.574275
3832.416575,536.266849,666.185348,9474.636058
3832.416890,383.047749,666.185348,9252.574275
3832.417205,229.828649,296.082377,9326.594869
3832.417519,-153.219100,-0.000000,9400.615463
3832.417834,0.000000,-0.000000,9992.780217
3832.418149,0.000000,518.144159,10510.924376
3832.418464,-459.657299,-148.041188,10658.965565
3832.418778,-842.705048,444.123565,10140.821405
3832.419093,-612.876398,222.061783,9918.759623
3832.419408,-1225.752797,962.267725,9400.615463
3832.419722,-689.485948,1036.288319,9770.718434
3832.420037,-919.314598,592.164754,10066.800811
3832.420352,-1378.971896,-0.000000,9548.656652
3832.420667,-1378.971896,-740.205942,9992.780217
3832.420981,-1991.848295,-592.164754,10584.944971
3832.421296,-2068.457845,-444.123565,10584.944971
3832.421611,-1685.410096,-222.061783,10658.965565
3832.421925,-2298.286494,-148.041188,10881.027347
3832.422240,-2374.896044,-74.020594,10214.842000
3832.422555,-1685.410096,-74.020594,9622.677246
3832.422869,-1302.362347,-518.144159,9104.533087
3832.423184,-1149.143247,74.020594,8734.430116
3832.423499,-1149.143247,-592.164754,9474.636058
3832.423814,-1149.143247,-962.267725,9400.615463
3832.424128,-1225.752797,-1628.453072,9622.677246
3832.424443,-1762.019645,-1406.391290,9474.636058
3832.424758,-1991.848295,-1332.370696,9548.656652
3832.425072,-919.314598,-1480.411884,10510.924376
3832.425387,-1378.971896,-2072.576638,10214.842000
3832.425702,-1378.971896,-1702.473667,9844.739029
3832.426017,-1455.581446,-1036.288319,8956.491898
3832.426331,-1991.848295,-1480.411884,8142.265362
3832.426646,-995.924147,-1036.288319,8364.327145
3832.426961,-459.657299,-2220.617826,8660.409521
3832.427275,-689.485948,-2220.617826,8068.244768
3832.427590,-612.876398,-2664.741391,8882.471304
3832.427905,-1838.629195,-2294.638420,9548.656652
3832.428220,-2374.896044,-2516.700203,9104.533087
3832.428534,-1685.410096,-2738.761985,10066.800811
3832.428849,-1608.800546,-2812.782580,10140.821405
3832.429164,-2068.457845,-3552.988522,10510.924376
3832.429478,-1838.629195,-3108.864956,10436.903782
3832.429793,-2451.505594,-2664.741391,9326.594869
3832.430108,-2145.067394,-1776.494261,8956.491898
3832.430422,-766.095498,-1998.556043,8142.265362
3832.430737,-229.828649,-1702.473667,8290.306550
3832.431052,-229.828649,-2146.597232,8734.430116
3832.431367,-689.485948,-2294.638420,8808.450710
3832.431681,-1378.971896,-2516.700203,9844.739029
3832.431996,-1838.629195,-2664.741391,10066.800811
3832.432311,-1608.800546,-2294.638420,9992.780217
3832.432625,-995.924147,-2960.823768,9844.739029
3832.432940,-1532.190996,-2368.659014,10140.821405
3832.433255,-2068.457845,-2368.659014,10066.800811
3832.433570,-2528.115143,-2368.659014,9400.615463
3832.433884,-2911.162892,-2146.597232,9178.553681
3832.434199,-2681.334243,-1998.556043,8660.409521
3832.434514,-1762.019645,-2590.720797,8586.388927
3832.434828,-1685.410096,-2590.720797,9252.574275
3832.435143,-2374.896044,-2738.761985,9770.718434
3832.435458,-2451.505594,-3108.864956,10510.924376
3832.435773,-2528.115143,-3404.947333,11177.109724
3832.436087,-2681.334243,-1924.535449,10288.862594
3832.436402,-1838.629195,-1628.453072,10066.800811
3832.436717,-1838.629195,-1036.288319,9548.656652
3832.437031,-1838.629195,-1480.411884,9326.594869
3832.437346,-2451.505594,-1776.494261,9104.533087
3832.437661,-2145.067394,-2220.617826,9104.533087
3832.437975,-2145.067394,-1702.473667,9104.533087
3832.438290,-1838.629195,-1554.432478,8734.430116
3832.438605,-1685.410096,-1184.329507,8290.306550
3832.438920,-2221.676944,-1628.453072,8512.368333
3832.439234,-1991.848295,-2738.761985,9474.636058
3832.439549,-2681.334243,-3182.885551,10732.986159
3832.439864,-3524.039291,-3034.844362,10807.006753
3832.440178,-3524.039291,-2738.761985,10732.986159
3832.440493,-2911.162892,-2072.576638,10436.903782
3832.440808,-2911.162892,-1850.514855,10066.800811
3832.441123,-2604.724693,-962.267725,9844.739029
3832.441437,-1991.848295,-962.267725,9844.739029
3832.441752,-1915.238745,-1258.350101,9696.697840
3832.442067,-1225.752797,-1480.411884,9400.615463
3832.442381,-995.924147,-1110.308913,9104.533087
3832.442696,-919.314598,-1702.473667,9474.636058
3832.443011,-1455.581446,-1924.535449,10881.027347
3832.443325,-1915.238745,-2220.617826,10140.821405
3832.443640,-2451.505594,-1998.556043,9400.615463
3832.443955,-2221.676944,-1554.432478,9548.656652
3832.444270,-2068.457845,-1924.535449,9474.636058
3832.444584,-1762.019645,-1776.494261,9844.739029
3832.444899,-2145.067394,-2368.659014,9474.636058
3832.445214,-2528.115143,-2294.638420,10436.903782
3832.445528,-2221.676944,-2072.576638,10288.862594
3832.445843,-1685.410096,-1554.432478,9992.780217
3832.446158,-1302.362347,-962.267725,9252.574275
3832.446473,-612.876398,-888.247130,8586.388927
3832.446787,-612.876398,-888.247130,7994.224174
3832.447102,-612.876398,-1554.432478,8808.450710
3832.447417,-1225.752797,-1628.453072,9474.636058
3832.447731,-1915.238745,-1998.556043,9622.677246
3832.448046,-1915.238745,-2294.638420,9770.718434
3832.448361,-2451.505594,-1924.535449,9992.780217
3832.448676,-2528.115143,-1924.535449,10807.006753
3832.448990,-2681.334243,-1332.370696,10214.842000
3832.449305,-2451.505594,-1406.391290,9326.594869
3832.449620,-1915.238745,-1332.370696,8734.430116
3832.449934,-919.314598,-1480.411884,8586.388927
3832.450249,-1455.581446,-2590.720797,8290.306550
3832.450564,-1838.629195,-2812.782580,9104.533087
3832.450878,-1762.019645,-2738.761985,9770.718434
3832.451193,-1915.238745,-2072.576638,9770.718434
3832.451508,-1608.800546,-1702.473667,10214.842000
3832.451823,-1608.800546,-740.205942,10362.883188
3832.452137,-1302.362347,-518.144159,9992.780217
3832.452452,-1072.533697,-666.185348,9030.512492
3832.452767,-1302.362347,-518.144159,8586.388927
3832.453081,-1915.238745,-592.164754,7994.224174
3832.453396,-1225.752797,-2664.741391,8216.285956
3832.453711,-1532.190996,-2590.720797,8882.471304
3832.454026,-2374.896044,-2960.823768,9474.636058
3832.454340,-2145.067394,-3108.864956,9992.780217
3832.454655,-3140.991542,-2812.782580,10732.986159
3832.454970,-3064.381992,-1998.556043,11769.274478
3832.455284,-2604.724693,-1924.535449,11843.295072
3832.455599,-2911.162892,-1332.370696,11177.109724
3832.455914,-2834.553343,-1184.329507,10436.903782
3832.456229,-2221.676944,-592.164754,9918.759623
3832.456543,-1378.971896,-814.226536,8882.471304
3832.456858,-1225.752797,-1184.329507,8364.327145
3832.457173,-1225.752797,-1406.391290,8068.244768
3832.457487,-1378.971896,-1480.411884,8364.327145
3832.457802,-1838.629195,-2516.700203,9178.553681
3832.458117,-2528.115143,-2738.761985,10881.027347
3832.458431,-3294.210641,-2590.720797,11399.171507
3832.458746,-4060.306139,-3108.864956,11695.253884
3832.459061,-3447.429741,-3034.844362,11473.192101
3832.459376,-3677.258390,-2738.761985,11251.130318
3832.459690,-3064.381992,-2072.576638,10140.821405
3832.460005,-1838.629195,-1110.308913,8586.388927
3832.460320,-1072.533697,-444.123565,7254.018232
3832.460634,-306.438199,-222.061783,6883.915261
3832.460949,0.000000,-962.267725,6587.832884
3832.461264,-306.438199,-1776.494261,7624.121203
3832.461579,-1149.143247,-2664.741391,8734.430116
3832.461893,-2528.115143,-3404.947333,10510.924376
3832.462208,-2757.943793,-3552.988522,11843.295072
3832.462523,-3600.648841,-3627.009116,12361.439231
3832.462837,-3524.039291,-2960.823768,12065.356855
3832.463152,-3140.991542,-2590.720797,11177.109724
3832.463467,-2834.553343,-1702.473667,10584.944971
3832.463781,-1991.848295,-1184.329507,9030.512492
3832.464096,-842.705048,-1036.288319,7402.059420
3832.464411,306.438199,-1332.370696,6883.915261
3832.464726,459.657299,-1480.411884,6735.874072
3832.465040,842.705048,-1998.556043,6809.894666
3832.465355,0.000000,-2664.741391,8142.265362
3832.465670,-995.924147,-3034.844362,9400.615463
3832.465984,-1608.800546,-2812.782580,10510.924376
3832.466299,-2451.505594,-2812.782580,10510.924376
3832.466614,-3370.820191,-3108.864956,11103.089130
3832.466929,-3600.648841,-2960.823768,11103.089130
3832.467243,-3677.258390,-2590.720797,9696.697840
3832.467558,-3600.648841,-2812.782580,9622.677246
3832.467873,-2834.553343,-2368.659014,8882.471304
3832.468187,-2298.286494,-2368.659014,8808.450710
3832.468502,-1149.143247,-1776.494261,8882.471304
3832.468817,-1072.533697,-1406.391290,9252.574275
3832.469132,-919.314598,-1628.453072,9844.739029
3832.469446,-995.924147,-1998.556043,10436.903782
3832.469761,-1225.752797,-1628.453072,10658.965565
3832.470076,-1455.581446,-1406.391290,10436.903782
3832.470390,-1532.190996,-962.267725,9548.656652
3832.470705,-1455.581446,-962.267725,8734.430116
3832.471020,-1532.190996,-1036.288319,8068.244768
3832.471334,-1991.848295,-1702.473667,7772.162391
3832.471649,-2068.457845,-1924.535449,7624.121203
3832.471964,-2221.676944,-2146.597232,7994.224174
3832.472279,-2298.286494,-2294.638420,9030.512492
3832.472593,-2604.724693,-2812.782580,9992.780217
3832.472908,-2681.334243,-3108.864956,10510.924376
3832.473223,-2834.553343,-2590.720797,11547.212695
3832.473538,-2681.334243,-2146.597232,11843.295072
3832.473852,-2451.505594,-1480.411884,11103.089130
3832.474167,-1838.629195,-0.000000,10436.903782
3832.474482,-1149.143247,740.205942,9918.759623
3832.474797,-612.876398,814.226536,8882.471304
3832.475112,-306.438199,888.247130,8586.388927
3832.475426,-229.828649,-444.123565,8142.265362
3832.475741,-689.485948,-814.226536,8586.388927
3832.476056,-1225.752797,-1776.494261,9252.574275
3832.476371,-2298.286494,-2368.659014,10066.800811
3832.476686,-2757.943793,-2960.823768,11251.130318
3832.477001,-3140.991542,-3256.906145,11843.295072
3832.477315,-3294.210641,-3182.885551,11473.192101
3832.477630,-3370.820191,-2442.679609,11399.171507
3832.477945,-2911.162892,-1554.432478,10658.965565
3832.478260,-2374.896044,-1036.288319,9918.759623
3832.478575,-1149.143247,-740.205942,8956.491898
3832.478890,-536.266849,-296.082377,8734.430116
3832.479204,229.828649,-148.041188,8364.327145
3832.479519,383.047749,-74.020594,8734.430116
3832.479834,459.657299,-222.061783,9400.615463
3832.480149,766.095498,-814.226536,9844.739029
3832.480464,76.609550,-1110.308913,10288.862594
3832.480779,0.000000,-1480.411884,10214.842000
3832.481093,-536.266849,-1924.535449,10140.821405
3832.481408,-766.095498,-1924.535449,9770.718434
3832.481723,-383.047749,-1628.453072,9474.636058
3832.482038,-689.485948,-1480.411884,8364.327145
3832.482353,-995.924147,-1184.329507,7476.080014
3832.482667,-919.314598,-1480.411884,7550.100608
3832.482982,-1072.533697,-1776.494261,7994.224174
3832.483297,-1225.752797,-1924.535449,8068.244768
3832.483612,-1838.629195,-2368.659014,8734.430116
3832.483927,-2068.457845,-2294.638420,9548.656652
3832.484242,-2451.505594,-1998.556043,10362.883188
3832.484556,-2604.724693,-1998.556043,10584.944971
3832.484871,-2145.067394,-1628.453072,10732.986159
3832.485186,-2451.505594,-1258.350101,11029.068536
3832.485501,-2528.115143,-444.123565,10436.903782
3832.485816,-2528.115143,-148.041188,9696.697840
3832.486131,-2604.724693,-814.226536,9474.636058
3832.486445,-2834.553343,-888.247130,8956.491898
3832.486760,-2911.162892,-1480.411884,8734.430116
3832.487075,-3140.991542,-2220.617826,9178.553681
3832.487390,-3447.429741,-2516.700203,9992.780217
3832.487705,-3753.867940,-2812.782580,10214.842000
3832.488019,-4366.744339,-2960.823768,10214.842000
3832.488334,-4366.744339,-3404.947333,10732.986159
3832.488649,-4443.353888,-3108.864956,10881.027347
3832.488964,-4136.915689,-2960.823768,10881.027347
3832.489279,-3753.867940,-3182.885551,10362.883188
3832.489594,-3600.648841,-2812.782580,9992.780217
3832.489908,-3294.210641,-2590.720797,9696.697840
3832.490223,-2834.553343,-1998.556043,9548.656652
3832.490538,-2451.505594,-1998.556043,9770.718434
3832.490853,-2145.067394,-2146.597232,9178.553681
3832.491168,-1991.848295,-2368.659014,9622.677246
3832.491483,-2068.457845,-2442.679609,9918.759623
3832.491797,-2298.286494,-2516.700203,10140.821405
3832.492112,-2451.505594,-2960.823768,10066.800811
3832.492427,-2681.334243,-3330.926739,10066.800811
3832.492742,-2604.724693,-3701.029710,10362.883188
3832.493057,-2604.724693,-3923.091493,10066.800811
3832.493371,-2757.943793,-3478.967927,9400.615463
3832.493686,-2987.772442,-3849.070898,9770.718434
3832.494001,-2681.334243,-3552.988522,9104.533087
3832.494316,-1838.629195,-3404.947333,8660.409521
3832.494631,-1378.971896,-3256.906145,8882.471304
3832.494946,-1302.362347,-3330.926739,8660.409521
3832.495260,-1072.533697,-3034.844362,8142.265362
3832.495575,-612.876398,-2664.741391,7624.121203
3832.495890,-612.876398,-2368.659014,8512.368333
3832.496205,-689.485948,-2294.638420,8438.347739
3832.496520,-766.095498,-2220.617826,8586.388927
3832.496835,-842.705048,-2294.638420,8808.450710
3832.497149,-995.924147,-2886.803174,9696.697840
3832.497464,-1762.019645,-2812.782580,10436.903782
3832.497779,-1838.629195,-2516.700203,10066.800811
3832.498094,-1762.019645,-2664.741391,9918.759623
3832.498409,-459.657299,-2516.700203,9474.636058
3832.498723,0.000000,-2146.597232,8586.388927
3832.499038,0.000000,-1332.370696,7476.080014
3832.499353,0.000000,-1184.329507,7031.956449
3832.499668,229.828649,-1628.453072,7179.997637
3832.499983,-306.438199,-1480.411884,6957.935855
3832.500298,-306.438199,-1850.514855,7031.956449
3832.500612,-919.314598,-2220.617826,7698.141797
3832.500927,-1915.238745,-2590.720797,9252.574275
3832.501242,-2528.115143,-2960.823768,10362.883188
3832.501557,-3294.210641,-3034.844362,11029.068536
3832.501872,-3370.820191,-2516.700203,11251.130318
3832.502187,-2987.772442,-2220.617826,11251.130318
3832.502501,-2604.724693,-1628.453072,10955.047942
3832.502816,-1685.410096,-740.205942,10436.903782
3832.503131,-1608.800546,-592.164754,9400.615463
3832.503446,-1149.143247,518.144159,8586.388927
3832.503761,-766.095498,444.123565,8364.327145
3832.504075,-689.485948,740.205942,8512.368333
3832.504390,-1225.752797,-0.000000,9178.553681
3832.504705,-2604.724693,-592.164754,10066.800811
3832.505020,-3294.210641,-1258.350101,11399.171507
3832.505335,-4136.915689,-1924.535449,12731.542202
3832.505650,-4290.134789,-1998.556043,13101.645173
3832.505964,-4213.525239,-1554.432478,12731.542202
3832.506279,-4366.744339,-518.144159,12065.356855
3832.506594,-3447.429741,-0.000000,11399.171507
3832.506909,-2528.115143,888.247130,9696.697840
3832.507224,-1302.362347,1406.391290,8438.347739
3832.507539,-459.657299,1036.288319,7698.141797
3832.507853,-306.438199,666.185348,7920.203579
3832.508168,-612.876398,-222.061783,8660.409521
3832.508483,-1762.019645,-1036.288319,10362.883188
3832.508798,-2451.505594,-1924.535449,11843.295072
3832.509113,-2834.553343,-2220.617826,13323.706956
3832.509428,-3524.039291,-2146.597232,13989.892304
3832.509742,-3677.258390,-1258.350101,12657.521608
3832.510057,-3294.210641,-1036.288319,11917.315666
3832.510372,-2374.896044,-222.061783,9918.759623
3832.510687,-1225.752797,-518.144159,8512.368333
3832.511002,-306.438199,-444.123565,7105.977043
3832.511316,0.000000,-666.185348,5921.647536
3832.511631,-306.438199,-1628.453072,5921.647536
3832.511946,-536.266849,-3108.864956,8512.368333
3832.512261,-919.314598,-3256.906145,9474.636058
3832.512576,-2145.067394,-3552.988522,11177.109724
3832.512891,-2757.943793,-2664.741391,11103.089130
3832.513205,-3140.991542,-2886.803174,11695.253884
3832.513520,-2987.772442,-2590.720797,11325.150913
3832.513835,-1991.848295,-2072.576638,10066.800811
3832.514150,-2374.896044,-1776.494261,8512.368333
3832.514465,-1455.581446,-2294.638420,7328.038826
3832.514780,-306.438199,-2294.638420,6883.915261
3832.515094,0.000000,-2886.803174,7476.080014
3832.515409,-76.609550,-2886.803174,7550.100608
3832.515724,-612.876398,-2812.782580,7994.224174
3832.516039,-919.314598,-3182.885551,9400.615463
3832.516354,-1455.581446,-2886.803174,10658.965565
3832.516668,-2298.286494,-3256.906145,10436.903782
3832.516983,-2757.943793,-3775.050304,10214.842000
3832.517298,-2604.724693,-4515.256246,10288.862594
3832.517613,-2298.286494,-3923.091493,10066.800811
3832.517928,-2298.286494,-2516.700203,9548.656652
3832.518243,-1991.848295,-1480.411884,7476.080014
3832.518557,-1149.143247,-1406.391290,6883.915261
3832.518872,-459.657299,-1554.432478,6735.874072
3832.519187,-536.266849,-1850.514855,7179.997637
3832.519502,-995.924147,-3256.906145,8142.265362
3832.519817,-1378.971896,-4441.235652,9252.574275
3832.520132,-2374.896044,-3997.112087,10584.944971
3832.520446,-2911.162892,-3478.967927,11547.212695
3832.520761,-3830.477490,-2664.741391,11029.068536
3832.521076,-3294.210641,-2960.823768,9992.780217
3832.521391,-3677.258390,-2294.638420,9770.718434
3832.521706,-3524.039291,-1850.514855,8956.491898
3832.522020,-3447.429741,-2368.659014,8512.368333
3832.522335,-2757.943793,-3108.864956,9030.512492
3832.522650,-2681.334243,-3330.926739,9474.636058
3832.522965,-2451.505594,-2812.782580,9474.636058
3832.523280,-1991.848295,-2294.638420,10214.842000
3832.523595,-2374.896044,-1850.514855,10881.027347
3832.523909,-2068.457845,-1628.453072,11103.089130
3832.524224,-2068.457845,-1776.494261,11547.212695
3832.524539,-2374.896044,-814.226536,10362.883188
3832.524854,-2451.505594,-814.226536,9992.780217
3832.525169,-2374.896044,-1036.288319,9474.636058
3832.525484,-2221.676944,-1406.391290,7772.162391
3832.525798,-2757.943793,-1776.494261,7846.182985
3832.526113,-2374.896044,-2220.617826,8068.244768
3832.526428,-2451.505594,-2738.761985,8734.430116
3832.526743,-2911.162892,-2220.617826,9030.512492
3832.527058,-2528.115143,-2590.720797,10288.862594
3832.527372,-2298.286494,-2960.823768,11473.192101
3832.527687,-2374.896044,-2960.823768,11473.192101
3832.528002,-2374.896044,-2590.720797,11843.295072
3832.528317,-2451.505594,-1924.535449,11991.336260
3832.528632,-2298.286494,-296.082377,11177.109724
3832.528947,-995.924147,814.226536,9548.656652
3832.529261,0.000000,1628.453072,8216.285956
3832.529576,689.485948,1924.535449,7105.977043
3832.529891,1225.752797,-0.000000,7772.162391
3832.530206,995.924147,-1184.329507,8438.347739
3832.530521,-383.047749,-1924.535449,9400.615463
3832.530836,-1378.971896,-2220.617826,9474.636058
3832.531150,-1915.238745,-2738.761985,10140.821405
3832.531465,-2298.286494,-2886.803174,11177.109724
3832.531780,-1762.019645,-2960.823768,11769.274478
3832.532095,-1378.971896,-3182.885551,11991.336260
3832.532410,-3217.601092,296.082377,9474.636058
3832.532724,-1685.410096,-592.164754,9770.718434
3832.533039,383.047749,518.144159,8660.409521
3832.533354,842.705048,1184.329507,7254.018232
3832.533669,2068.457845,-370.102971,7476.080014
3832.533984,1762.019645,-518.144159,8586.388927
3832.534299,995.924147,444.123565,7994.224174
3832.534613,1302.362347,-74.020594,8586.388927
3832.534928,919.314598,296.082377,8660.409521
3832.535243,459.657299,-1184.329507,10214.842000
3832.535558,-383.047749,-1702.473667,10066.800811
3832.535873,-1838.629195,-2220.617826,11029.068536
3832.536188,-3753.867940,-1924.535449,10881.027347
3832.536502,-3524.039291,-1998.556043,11029.068536
3832.536817,-2681.334243,-518.144159,9400.615463
3832.537132,-536.266849,-296.082377,9178.553681
3832.537447,153.219100,-370.102971,8956.491898
3832.537762,766.095498,-148.041188,8808.450710
3832.538077,842.705048,-74.020594,9474.636058
3832.538391,1225.752797,962.267725,9252.574275
3832.538706,1225.752797,1554.432478,9474.636058
3832.539021,1378.971896,1628.453072,9992.780217
3832.539336,612.876398,1406.391290,10362.883188
3832.539651,0.000000,1776.494261,9770.718434
3832.539965,0.000000,1036.288319,10214.842000
3832.540280,-919.314598,1554.432478,9252.574275
3832.540595,-766.095498,1110.308913,9548.656652
3832.540910,-995.924147,666.185348,9474.636058
3832.541225,-2145.067394,-0.000000,9474.636058
3832.541540,-1838.629195,-740.205942,9844.739029
3832.541854,-1532.190996,-1998.556043,9992.780217
3832.542169,-1302.362347,-1258.350101,10214.842000
3832.542484,-766.095498,-962.267725,11251.130318
3832.542799,-1532.190996,370.102971,10658.965565
3832.543114,-1225.752797,1406.391290,9844.739029
3832.543429,-306.438199,1924.535449,10066.800811
3832.543743,153.219100,1628.453072,10140.821405
3832.544058,1072.533697,1258.350101,9992.780217
3832.544373,612.876398,1036.288319,9918.759623
3832.544688,0.000000,1554.432478,9178.553681
3832.545003,-229.828649,518.144159,9622.677246
3832.545317,383.047749,-444.123565,10140.821405
3832.545632,306.438199,-1554.432478,10066.800811
3832.545947,306.438199,-1480.411884,10807.006753
3832.546262,-766.095498,-1480.411884,10362.883188
3832.546577,-995.924147,-1184.329507,9770.718434
3832.546892,0.000000,-1184.329507,10362.883188
3832.547206,153.219100,-518.144159,9474.636058
3832.547521,459.657299,-666.185348,9104.533087
3832.547836,689.485948,-74.020594,9030.512492
3832.548151,1072.533697,1036.288319,7920.203579
3832.548466,1225.752797,740.205942,8142.265362
3832.548781,1608.800546,740.205942,8660.409521
3832.549095,2451.505594,222.061783,8660.409521
3832.549410,1915.238745,-148.041188,9178.553681
3832.549725,1149.143247,-0.000000,9178.553681
3832.550040,1149.143247,-296.082377,9030.512492
3832.550355,1149.143247,-740.205942,9104.533087
3832.550669,1302.362347,-518.144159,9104.533087
3832.550984,459.657299,-296.082377,8956.491898
3832.551299,-153.219100,-0.000000,8808.450710
3832.551614,0.000000,814.226536,8660.409521
3832.551929,153.219100,148.041188,8512.368333
3832.552244,229.828649,592.164754,8956.491898
3832.552558,306.438199,-740.205942,9622.677246
3832.552873,0.000000,-148.041188,9622.677246
3832.553188,-459.657299,148.041188,9104.533087
3832.553503,0.000000,-296.082377,10214.842000
3832.553818,153.219100,370.102971,10140.821405
3832.554133,612.876398,444.123565,10658.965565
3832.554447,306.438199,1110.308913,10436.903782
3832.554762,0.000000,1702.473667,9474.636058
3832.555077,306.438199,1554.432478,9548.656652
3832.555392,76.609550,1480.411884,9326.594869
3832.555707,459.657299,740.205942,8734.430116
3832.556021,766.095498,-814.226536,10214.842000
3832.556336,-459.657299,-0.000000,9770.718434
3832.556651,-689.485948,-0.000000,9178.553681
3832.556966,-306.438199,-740.205942,10140.821405
3832.557281,76.609550,-518.144159,9918.759623
3832.557596,995.924147,-0.000000,10658.965565
3832.557910,-383.047749,444.123565,9844.739029
3832.558225,-689.485948,962.267725,9400.615463
3832.558540,76.609550,1036.288319,9474.636058
3832.558855,383.047749,1110.308913,9622.677246
3832.559170,612.876398,1258.350101,10140.821405
3832.559485,383.047749,962.267725,10362.883188
3832.559799,-153.219100,1554.432478,9326.594869
3832.560114,-383.047749,888.247130,10140.821405
3832.560429,-383.047749,518.144159,10955.047942
3832.560744,0.000000,592.164754,10881.027347
3832.561059,0.000000,-222.061783,11029.068536
3832.561373,-842.705048,148.041188,10362.883188
3832.561688,-459.657299,296.082377,9770.718434
3832.562003,-536.266849,222.061783,8956.491898
3832.562318,153.219100,1036.288319,8882.471304
3832.562633,536.266849,740.205942,9030.512492
3832.562948,229.828649,666.185348,9030.512492
3832.563262,0.000000,444.123565,8734.430116
3832.563577,842.705048,-0.000000,8586.388927
3832.563892,76.609550,-0.000000,9474.636058
3832.564207,459.657299,-740.205942,9548.656652
3832.564522,536.266849,-296.082377,9992.780217
3832.564837,153.219100,222.061783,9104.533087
3832.565151,612.876398,666.185348,9326.594869
3832.565466,842.705048,370.102971,9474.636058
3832.565781,1149.143247,370.102971,9326.594869
3832.566096,689.485948,-0.000000,9622.677246
3832.566411,-306.438199,222.061783,9326.594869
3832.566726,229.828649,296.082377,8660.409521
3832.567040,229.828649,-222.061783,9400.615463
3832.567355,153.219100,-370.102971,9104.533087
3832.567670,842.705048,-1258.350101,9770.718434
3832.567985,229.828649,-1332.370696,9400.615463
3832.568300,0.000000,-962.267725,9400.615463
3832.568614,153.219100,-740.205942,9400.615463
3832.568929,536.266849,-0.000000,8734.430116
3832.569244,842.705048,-370.102971,8438.347739
3832.569559,459.657299,-592.164754,9178.553681
3832.569874,-229.828649,-148.041188,8882.471304
3832.570189,-383.047749,-0.000000,9030.512492
3832.570503,-766.095498,-370.102971,9918.759623
3832.570818,-689.485948,148.041188,9844.739029
3832.571133,0.000000,-1110.308913,10955.047942
3832.571448,-1302.362347,-962.267725,11251.130318
3832.571763,-1378.971896,-888.247130,11029.068536
3832.572078,-229.828649,-296.082377,10510.924376
3832.572392,0.000000,592.164754,9474.636058
3832.572707,842.705048,888.247130,9992.780217
3832.573022,536.266849,1110.308913,9548.656652
3832.573337,153.219100,2072.576638,8364.327145
3832.573652,383.047749,962.267725,8808.450710
3832.573966,76.609550,740.205942,9030.512492
3832.574281,536.266849,222.061783,9770.718434
3832.574596,-383.047749,-74.020594,10584.944971
3832.574911,-1378.971896,-74.020594,9918.759623
3832.575226,-1225.752797,-370.102971,10362.883188
3832.575541,-766.095498,-222.061783,10288.862594
3832.575855,153.219100,-0.000000,10066.800811
3832.576170,766.095498,-0.000000,9918.759623
3832.576485,459.657299,888.247130,8956.491898
3832.576800,0.000000,1480.411884,8438.347739
3832.577115,229.828649,666.185348,9104.533087
3832.577430,306.438199,1036.288319,8882.471304
3832.577744,306.438199,-0.000000,10140.821405
3832.578059,153.219100,-148.041188,10584.944971
3832.578374,0.000000,-370.102971,10658.965565
3832.578689,229.828649,-74.020594,10807.006753
3832.579004,0.000000,-0.000000,10658.965565
3832.579318,0.000000,-592.164754,9992.780217
3832.579633,76.609550,-740.205942,10066.800811
3832.579948,76.609550,-0.000000,8660.409521
3832.580263,689.485948,370.102971,7994.224174
3832.580578,1149.143247,-296.082377,8438.347739
3832.580893,1072.533697,148.041188,8512.368333
3832.581207,1149.143247,-222.061783,9400.615463
3832.581522,76.609550,-444.123565,9622.677246
3832.581837,459.657299,-0.000000,9844.739029
3832.582152,919.314598,-518.144159,10584.944971
3832.582467,1072.533697,296.082377,10288.862594
3832.582781,1302.362347,-0.000000,10362.883188
3832.583096,842.705048,296.082377,9844.739029
3832.583411,842.705048,1554.432478,7920.203579
3832.583726,1455.581446,1184.329507,8660.409521
3832.584041,1455.581446,1110.308913,8364.327145
3832.584356,1225.752797,592.164754,8808.450710
3832.584670,1072.533697,-0.000000,9770.718434
3832.584985,-459.657299,-74.020594,9326.594869
3832.585300,-766.095498,-592.164754,10140.821405
3832.585615,0.000000,-962.267725,10807.006753
3832.585930,-689.485948,-444.123565,9770.718434
3832.586244,-306.438199,-518.144159,10436.903782
3832.586559,-229.828649,-0.000000,9992.780217
3832.586874,-459.657299,1110.308913,8734.430116
3832.587189,0.000000,1110.308913,8216.285956
3832.587504,153.219100,1184.329507,8364.327145
3832.587819,459.657299,1036.288319,8216.285956
3832.588133,306.438199,518.144159,9030.512492
3832.588448,-995.924147,148.041188,9252.574275
3832.588763,-612.876398,-370.102971,9992.780217
3832.589078,-842.705048,-0.000000,10584.944971
3832.589393,-842.705048,-74.020594,10881.027347
3832.589708,-1378.971896,-592.164754,11547.212695
3832.590022,-1915.238745,148.041188,9992.780217
3832.590337,-1302.362347,592.164754,8882.471304
3832.590652,0.000000,370.102971,8956.491898
3832.590967,0.000000,-0.000000,8882.471304
3832.591282,383.047749,-74.020594,9178.553681
3832.591596,-536.266849,666.185348,9178.553681
3832.591911,-612.876398,518.144159,8882.471304
3832.592226,0.000000,-0.000000,9326.594869
3832.592541,0.000000,-370.102971,10436.903782
3832.592856,-229.828649,-518.144159,10584.944971
3832.593171,-459.657299,-666.185348,11029.068536
3832.593485,-995.924147,-0.000000,10510.924376
3832.593800,-689.485948,888.247130,9992.780217
3832.594115,0.000000,962.267725,9474.636058
3832.594430,689.485948,444.123565,8586.388927
3832.594745,1225.752797,-222.061783,9844.739029
3832.595059,383.047749,296.082377,9104.533087
3832.595374,0.000000,296.082377,8956.491898
3832.595689,383.047749,-0.000000,9844.739029
3832.596004,153.219100,-296.082377,10066.800811
3832.596319,306.438199,-888.247130,11029.068536
3832.596634,153.219100,-666.185348,10955.047942
3832.596948,-306.438199,-444.123565,10140.821405
3832.597263,76.609550,-518.144159,9770.718434
3832.597578,612.876398,518.144159,9400.615463
3832.597893,1762.019645,814.226536,8808.450710
3832.598208,1302.362347,444.123565,8216.285956
3832.598522,995.924147,592.164754,8586.388927
3832.598837,1455.581446,592.164754,8438.347739
3832.599152,1532.190996,-0.000000,9474.636058
3832.599467,1532.190996,-74.020594,9770.718434
3832.599782,995.924147,-0.000000,10140.821405
3832.600097,459.657299,444.123565,9622.677246
3832.600411,459.657299,-148.041188,9548.656652
3832.600726,689.485948,-444.123565,9918.759623
3832.601041,842.705048,-0.000000,8882.471304
3832.601356,1378.971896,-148.041188,8882.471304
3832.601671,612.876398,222.061783,9474.636058
3832.601986,0.000000,740.205942,8808.450710
3832.602300,459.657299,222.061783,8808.450710
3832.602615,536.266849,-0.000000,9474.636058
3832.602930,689.485948,-74.020594,10214.842000
