#time,accel_x,accel_y,accel_z
3722.121249,2221.676944,814.226536,9178.553681
3722.121563,2145.067394,1110.308913,8808.450710
3722.121877,2145.067394,1480.411884,9104.533087
3722.122192,2451.505594,1480.411884,8808.450710
3722.122506,2528.115143,1332.370696,8586.388927
3722.122820,2068.457845,1036.288319,9178.553681
3722.123135,1608.800546,1036.288319,9474.636058
3722.123449,995.924147,370.102971,9474.636058
3722.123763,383.047749,-0.000000,9548.656652
3722.124078,153.219100,-222.061783,9474.636058
3722.124392,383.047749,-740.205942,9696.697840
3722.124707,0.000000,-296.082377,9474.636058
3722.125021,0.000000,-222.061783,8586.388927
3722.125335,-229.828649,-0.000000,8660.409521
3722.125650,612.876398,-222.061783,8956.491898
3722.125964,229.828649,-666.185348,8956.491898
3722.126278,153.219100,-740.205942,9474.636058
3722.126593,76.609550,-740.205942,9474.636058
3722.126907,-153.219100,-444.123565,9622.677246
3722.127221,229.828649,-0.000000,9474.636058
3722.127536,-459.657299,-74.020594,9548.656652
3722.127850,-459.657299,-370.102971,9252.574275
3722.128164,153.219100,-148.041188,9252.574275
3722.128479,0.000000,-444.123565,8956.491898
3722.128793,-383.047749,-592.164754,9474.636058
3722.129107,76.609550,-518.144159,9622.677246
3722.129422,0.000000,-666.185348,9400.615463
3722.129736,0.000000,-962.267725,9474.636058
3722.130050,0.000000,-592.164754,9474.636058
3722.130365,-612.876398,-1110.308913,9770.718434
3722.130679,-995.924147,-1406.391290,10066.800811
3722.130993,-536.266849,-1036.288319,9918.759623
3722.131308,-459.657299,-888.247130,9844.739029
3722.131622,-459.657299,-518.144159,9696.697840
3722.131936,-383.047749,-444.123565,10066.800811
3722.132251,0.000000,-148.041188,9770.718434
3722.132565,0.000000,-74.020594,9770.718434
3722.132879,612.876398,-0.000000,9474.636058
3722.133194,612.876398,296.082377,9326.594869
3722.133508,459.657299,-0.000000,9326.594869
3722.133822,689.485948,-0.000000,9104.533087
3722.134137,459.657299,-222.061783,9548.656652
3722.134451,153.219100,-444.123565,9844.739029
3722.134765,0.000000,-444.123565,9400.615463
3722.135080,-383.047749,-592.164754,9400.615463
3722.135394,0.000000,-0.000000,9400.615463
3722.135709,383.047749,370.102971,9400.615463
3722.136023,153.219100,444.123565,8734.430116
3722.136337,536.266849,592.164754,8882.471304
3722.136652,766.095498,518.144159,9178.553681
3722.136966,766.095498,666.185348,9030.512492
3722.137280,1225.752797,444.123565,8512.368333
3722.137595,1455.581446,1110.308913,8734.430116
3722.137909,1225.752797,1184.329507,9178.553681
3722.138223,919.314598,1258.350101,9252.574275
3722.138538,766.095498,888.247130,9474.636058
3722.138852,383.047749,814.226536,9696.697840
3722.139166,306.438199,814.226536,9400.615463
3722.139481,383.047749,740.205942,9548.656652
3722.139795,0.000000,740.205942,9474.636058
3722.140109,459.657299,962.267725,9696.697840
3722.140424,0.000000,666.185348,9548.656652
3722.140738,0.000000,666.185348,9696.697840
3722.141052,153.219100,888.247130,10362.883188
3722.141367,0.000000,666.185348,10510.924376
3722.141681,0.000000,740.205942,10881.027347
3722.141995,-306.438199,814.226536,11029.068536
3722.142310,-383.047749,814.226536,10658.965565
3722.142624,0.000000,962.267725,10584.944971
3722.142938,0.000000,592.164754,10584.944971
3722.143253,76.609550,962.267725,10584.944971
3722.143567,0.000000,518.144159,10288.862594
3722.143881,0.000000,666.185348,9918.759623
3722.144196,0.000000,592.164754,10436.903782
3722.144510,0.000000,296.082377,10436.903782
3722.144824,-306.438199,-0.000000,9992.780217
3722.145139,0.000000,-222.061783,9992.780217
3722.145453,0.000000,-0.000000,9992.780217
3722.145768,229.828649,-0.000000,9844.739029
3722.146082,306.438199,-0.000000,9770.718434
3722.146396,0.000000,222.061783,9844.739029
3722.146711,306.438199,-0.000000,9400.615463
3722.147025,153.219100,-0.000000,9104.533087
3722.147339,306.438199,-0.000000,9326.594869
3722.147654,153.219100,-0.000000,9474.636058
3722.147968,306.438199,-0.000000,9474.636058
3722.148282,383.047749,-0.000000,9474.636058
3722.148597,383.047749,-0.000000,9696.697840
3722.148911,383.047749,-74.020594,8956.491898
3722.149225,229.828649,-0.000000,8808.450710
3722.149540,306.438199,-296.082377,9104.533087
3722.149854,76.609550,-296.082377,9104.533087
3722.150168,0.000000,-444.123565,8956.491898
3722.150483,306.438199,-518.144159,9326.594869
3722.150797,0.000000,-592.164754,9178.553681
3722.151111,0.000000,-370.102971,9030.512492
3722.151426,0.000000,-444.123565,9252.574275
3722.151740,0.000000,-518.144159,9548.656652
3722.152054,459.657299,-296.082377,9474.636058
3722.152369,153.219100,-444.123565,9474.636058
3722.152683,-229.828649,-444.123565,9252.574275
3722.152997,229.828649,-222.061783,9326.594869
3722.153312,306.438199,-148.041188,9252.574275
3722.153626,306.438199,-74.020594,9770.718434
3722.153940,459.657299,-370.102971,9844.739029
3722.154255,0.000000,-444.123565,9252.574275
3722.154569,-306.438199,-296.082377,9252.574275
3722.154883,-459.657299,-444.123565,9992.780217
3722.155198,0.000000,-592.164754,10214.842000
3722.155512,-76.609550,-518.144159,9696.697840
3722.155826,-306.438199,-518.144159,9622.677246
3722.156141,-229.828649,-444.123565,9548.656652
3722.156455,153.219100,-296.082377,9474.636058
3722.156770,0.000000,-74.020594,9474.636058
3722.157084,-306.438199,-222.061783,9992.780217
3722.157398,-383.047749,-370.102971,9844.739029
3722.157713,-383.047749,-370.102971,9474.636058
3722.158027,0.000000,-148.041188,9770.718434
3722.158341,-536.266849,-370.102971,9992.780217
3722.158656,0.000000,-74.020594,9622.677246
3722.158970,0.000000,222.061783,9548.656652
3722.159284,76.609550,148.041188,9622.677246
3722.159599,689.485948,-0.000000,9474.636058
3722.159913,229.828649,370.102971,9252.574275
3722.160227,153.219100,-0.000000,9400.615463
3722.160542,153.219100,148.041188,9252.574275
3722.160856,229.828649,444.123565,9252.574275
3722.161170,383.047749,296.082377,9326.594869
3722.161485,229.828649,370.102971,9474.636058
3722.161799,153.219100,592.164754,9252.574275
3722.162114,229.828649,518.144159,9400.615463
3722.162428,306.438199,814.226536,9400.615463
3722.162742,536.266849,518.144159,9548.656652
3722.163057,842.705048,962.267725,9622.677246
3722.163371,612.876398,1036.288319,9474.636058
3722.163685,383.047749,962.267725,9474.636058
3722.164000,229.828649,666.185348,9474.636058
3722.164314,459.657299,814.226536,9474.636058
3722.164628,76.609550,666.185348,9992.780217
3722.164943,383.047749,888.247130,10140.821405
3722.165257,0.000000,740.205942,9770.718434
3722.165572,383.047749,666.185348,9622.677246
3722.165886,76.609550,666.185348,9770.718434
3722.166200,0.000000,592.164754,9992.780217
3722.166515,0.000000,444.123565,9622.677246
3722.166829,0.000000,518.144159,9770.718434
3722.167143,-306.438199,296.082377,10214.842000
3722.167458,0.000000,444.123565,10066.800811
3722.167772,-229.828649,296.082377,9992.780217
3722.168087,0.000000,74.020594,10066.800811
3722.168401,-153.219100,296.082377,9992.780217
3722.168715,0.000000,518.144159,10140.821405
3722.169030,229.828649,222.061783,10066.800811
3722.169344,383.047749,444.123565,9844.739029
3722.169658,229.828649,-0.000000,9474.636058
3722.169973,383.047749,444.123565,9548.656652
3722.170287,229.828649,222.061783,9474.636058
3722.170601,153.219100,-0.000000,9474.636058
3722.170916,229.828649,-74.020594,9696.697840
3722.171230,0.000000,-0.000000,9548.656652
3722.171545,383.047749,-296.082377,9770.718434
3722.171859,459.657299,-74.020594,9474.636058
3722.172173,383.047749,-0.000000,9474.636058
3722.172488,153.219100,-0.000000,9548.656652
3722.172802,76.609550,-0.000000,9474.636058
3722.173116,76.609550,-0.000000,9474.636058
3722.173431,153.219100,-0.000000,9474.636058
3722.173745,229.828649,-0.000000,9474.636058
3722.174060,153.219100,-0.000000,9178.553681
3722.174374,76.609550,-0.000000,9474.636058
3722.174688,383.047749,-296.082377,9474.636058
3722.175003,153.219100,-0.000000,9548.656652
3722.175317,229.828649,-0.000000,9474.636058
3722.175631,0.000000,-0.000000,9474.636058
3722.175946,0.000000,-0.000000,9474.636058
3722.176260,76.609550,-74.020594,9178.553681
3722.176574,153.219100,148.041188,9474.636058
3722.176889,0.000000,-0.000000,9474.636058
3722.177203,0.000000,-0.000000,9326.594869
3722.177518,0.000000,-222.061783,9400.615463
3722.177832,76.609550,-296.082377,9474.636058
3722.178146,383.047749,-0.000000,9696.697840
3722.178461,76.609550,-74.020594,9326.594869
3722.178775,153.219100,-148.041188,9474.636058
3722.179089,0.000000,-148.041188,9474.636058
3722.179404,76.609550,148.041188,9622.677246
3722.179718,229.828649,-0.000000,9844.739029
3722.180032,0.000000,-74.020594,9696.697840
3722.180347,0.000000,-74.020594,9696.697840
3722.180661,0.000000,-0.000000,9622.677246
3722.180976,153.219100,-0.000000,9696.697840
3722.181290,0.000000,-0.000000,9918.759623
3722.181604,-153.219100,-0.000000,9622.677246
3722.181919,-229.828649,296.082377,9918.759623
3722.182233,383.047749,444.123565,9696.697840
3722.182547,76.609550,-0.000000,9918.759623
3722.182862,229.828649,296.082377,9918.759623
3722.183176,229.828649,222.061783,10066.800811
3722.183491,0.000000,296.082377,9770.718434
3722.183805,0.000000,370.102971,9474.636058
3722.184119,0.000000,296.082377,9844.739029
3722.184434,229.828649,74.020594,10140.821405
3722.184748,153.219100,592.164754,9918.759623
3722.185062,306.438199,444.123565,9918.759623
3722.185377,459.657299,592.164754,9622.677246
3722.185691,383.047749,592.164754,9918.759623
3722.186005,229.828649,666.185348,9696.697840
3722.186320,153.219100,666.185348,9548.656652
3722.186634,76.609550,888.247130,10140.821405
3722.186949,229.828649,888.247130,9474.636058
3722.187263,383.047749,444.123565,9696.697840
3722.187577,459.657299,740.205942,9696.697840
3722.187892,76.609550,444.123565,9696.697840
3722.188206,0.000000,370.102971,9474.636058
3722.188520,459.657299,296.082377,9844.739029
3722.188835,76.609550,296.082377,9918.759623
3722.189149,0.000000,518.144159,9474.636058
3722.189464,76.609550,296.082377,9326.594869
3722.189778,153.219100,296.082377,9400.615463
3722.190092,153.219100,1110.308913,9474.636058
3722.190407,0.000000,518.144159,9770.718434
3722.190721,76.609550,74.020594,9548.656652
3722.191035,306.438199,296.082377,9474.636058
3722.191350,383.047749,148.041188,9178.553681
3722.191664,153.219100,296.082377,9474.636058
3722.191978,76.609550,222.061783,9548.656652
3722.192293,306.438199,-0.000000,9474.636058
3722.192607,76.609550,-74.020594,9474.636058
3722.192922,229.828649,-0.000000,9252.574275
3722.193236,306.438199,-0.000000,9474.636058
3722.193550,229.828649,-0.000000,10140.821405
3722.193865,0.000000,-74.020594,9992.780217
3722.194179,-76.609550,-222.061783,9622.677246
3722.194493,153.219100,-148.041188,9252.574275
3722.194808,153.219100,-222.061783,9178.553681
3722.195122,229.828649,-0.000000,9622.677246
3722.195437,0.000000,-222.061783,9474.636058
3722.195751,0.000000,-148.041188,9474.636058
3722.196065,153.219100,-740.205942,9548.656652
3722.196380,0.000000,-518.144159,9770.718434
3722.196694,0.000000,-0.000000,9622.677246
3722.197008,0.000000,-222.061783,9474.636058
3722.197323,-153.219100,-0.000000,9696.697840
3722.197637,536.266849,-222.061783,9770.718434
3722.197951,76.609550,-148.041188,9696.697840
3722.198266,0.000000,-0.000000,9622.677246
3722.198580,0.000000,-0.000000,9400.615463
3722.198895,-229.828649,-0.000000,9474.636058
3722.199209,76.609550,-222.061783,9474.636058
3722.199523,153.219100,-222.061783,9622.677246
3722.199838,306.438199,-0.000000,9474.636058
3722.200152,0.000000,-148.041188,9474.636058
3722.200466,0.000000,-74.020594,9400.615463
3722.200781,229.828649,-0.000000,9474.636058
3722.201095,383.047749,-74.020594,9474.636058
3722.201409,153.219100,-0.000000,9326.594869
3722.201724,76.609550,-0.000000,9326.594869
3722.202038,76.609550,-0.000000,9030.512492
3722.202353,689.485948,-0.000000,9326.594869
3722.202667,383.047749,-0.000000,9622.677246
3722.202981,383.047749,222.061783,9474.636058
3722.203296,536.266849,148.041188,9178.553681
3722.203610,306.438199,-0.000000,9474.636058
3722.203924,153.219100,-148.041188,9918.759623
3722.204239,229.828649,296.082377,9326.594869
3722.204553,76.609550,296.082377,9622.677246
3722.204868,153.219100,-0.000000,9696.697840
3722.205182,612.876398,-0.000000,9474.636058
3722.205496,153.219100,370.102971,9474.636058
3722.205811,229.828649,-0.000000,9622.677246
3722.206125,76.609550,370.102971,9918.759623
3722.206439,0.000000,222.061783,9548.656652
3722.206754,76.609550,518.144159,9622.677246
3722.207068,153.219100,370.102971,9844.739029
3722.207382,0.000000,370.102971,10066.800811
3722.207697,153.219100,370.102971,10214.842000
3722.208011,0.000000,222.061783,9622.677246
3722.208326,0.000000,-222.061783,9992.780217
3722.208640,0.000000,-0.000000,9696.697840
3722.208954,0.000000,370.102971,9918.759623
3722.209269,0.000000,592.164754,10436.903782
3722.209583,0.000000,148.041188,9696.697840
3722.209897,0.000000,-0.000000,9622.677246
3722.210212,-153.219100,148.041188,9622.677246
3722.210526,0.000000,148.041188,9770.718434
3722.210841,0.000000,370.102971,9844.739029
3722.211155,0.000000,-0.000000,9696.697840
3722.211469,-383.047749,370.102971,9622.677246
3722.211784,229.828649,-0.000000,9474.636058
3722.212098,0.000000,222.061783,9326.594869
3722.212412,0.000000,296.082377,9474.636058
3722.212727,76.609550,370.102971,9474.636058
3722.213041,612.876398,-0.000000,9696.697840
3722.213355,0.000000,148.041188,9474.636058
3722.213670,76.609550,444.123565,9770.718434
3722.213984,0.000000,-0.000000,9474.636058
3722.214299,153.219100,-0.000000,9400.615463
3722.214613,306.438199,148.041188,9770.718434
3722.214927,153.219100,222.061783,9474.636058
3722.215242,383.047749,444.123565,9474.636058
3722.215556,306.438199,-0.000000,9400.615463
3722.215870,306.438199,222.061783,9252.574275
3722.216185,76.609550,148.041188,9548.656652
3722.216499,306.438199,-0.000000,9104.533087
3722.216814,383.047749,222.061783,9548.656652
3722.217128,306.438199,-0.000000,9474.636058
3722.217442,229.828649,-222.061783,9474.636058
3722.217757,0.000000,-0.000000,9326.594869
3722.218071,76.609550,-0.000000,9474.636058
3722.218385,0.000000,-0.000000,9992.780217
3722.218700,229.828649,-0.000000,9548.656652
3722.219014,0.000000,-148.041188,9696.697840
3722.219328,153.219100,-74.020594,9918.759623
3722.219643,229.828649,-74.020594,9622.677246
3722.219957,153.219100,-0.000000,9770.718434
3722.220272,76.609550,-0.000000,9770.718434
3722.220586,-306.438199,-0.000000,9696.697840
3722.220900,-76.609550,-0.000000,9252.574275
3722.221215,229.828649,-0.000000,9548.656652
3722.221529,76.609550,-0.000000,9548.656652
3722.221843,0.000000,-148.041188,9474.636058
3722.222158,0.000000,-0.000000,9400.615463
3722.222472,153.219100,-0.000000,9474.636058
3722.222786,153.219100,-0.000000,9548.656652
3722.223101,0.000000,-0.000000,9548.656652
3722.223415,0.000000,-74.020594,9326.594869
3722.223730,0.000000,222.061783,9770.718434
3722.224044,0.000000,-0.000000,9400.615463
3722.224358,76.609550,-0.000000,9548.656652
3722.224673,-229.828649,-0.000000,9326.594869
3722.224987,153.219100,296.082377,9400.615463
3722.225301,0.000000,222.061783,9400.615463
3722.225616,76.609550,370.102971,9844.739029
3722.225930,383.047749,370.102971,9548.656652
3722.226245,306.438199,222.061783,9252.574275
3722.226559,76.609550,444.123565,9178.553681
3722.226873,229.828649,592.164754,9770.718434
3722.227188,229.828649,296.082377,9622.677246
3722.227502,229.828649,370.102971,9622.677246
3722.227816,153.219100,444.123565,9622.677246
3722.228131,0.000000,222.061783,9622.677246
3722.228445,612.876398,666.185348,9696.697840
3722.228759,153.219100,296.082377,9770.718434
3722.229074,306.438199,296.082377,9696.697840
3722.229388,229.828649,370.102971,9474.636058
3722.229703,153.219100,148.041188,9548.656652
3722.230017,306.438199,444.123565,9696.697840
3722.230331,306.438199,370.102971,9696.697840
3722.230646,153.219100,370.102971,9696.697840
3722.230960,229.828649,370.102971,9474.636058
3722.231274,76.609550,592.164754,9326.594869
3722.231589,306.438199,592.164754,9622.677246
3722.231903,306.438199,222.061783,9844.739029
3722.232218,76.609550,370.102971,9992.780217
3722.232532,153.219100,222.061783,9474.636058
3722.232846,383.047749,-0.000000,9770.718434
3722.233161,153.219100,222.061783,9696.697840
3722.233475,306.438199,-0.000000,9622.677246
3722.233789,306.438199,296.082377,9696.697840
3722.234104,0.000000,148.041188,9696.697840
3722.234418,76.609550,-0.000000,10066.800811
3722.234732,306.438199,222.061783,9474.636058
3722.235047,0.000000,-0.000000,9400.615463
3722.235361,153.219100,-0.000000,9622.677246
3722.235676,0.000000,222.061783,9474.636058
3722.235990,76.609550,-0.000000,9548.656652
3722.236304,76.609550,148.041188,9992.780217
3722.236619,76.609550,-0.000000,9696.697840
3722.236933,76.609550,370.102971,9548.656652
3722.237247,76.609550,296.082377,9400.615463
3722.237562,383.047749,-148.041188,9770.718434
3722.237876,459.657299,222.061783,9696.697840
3722.238191,0.000000,-0.000000,9548.656652
3722.238505,0.000000,-0.000000,9474.636058
3722.238819,0.000000,-0.000000,9548.656652
3722.239134,1072.533697,-0.000000,9622.677246
3722.239448,0.000000,-0.000000,9696.697840
3722.239762,229.828649,-222.061783,9770.718434
3722.240077,0.000000,-74.020594,9326.594869
3722.240391,76.609550,222.061783,9474.636058
3722.240705,229.828649,-0.000000,9474.636058
3722.241020,153.219100,296.082377,9400.615463
3722.241334,306.438199,-370.102971,9252.574275
3722.241649,153.219100,-0.000000,9326.594869
3722.241963,153.219100,-0.000000,9400.615463
3722.242277,0.000000,-148.041188,9474.636058
3722.242592,306.438199,-148.041188,9548.656652
3722.242906,229.828649,-222.061783,9696.697840
3722.243220,76.609550,-74.020594,9474.636058
3722.243535,0.000000,-518.144159,9178.553681
3722.243849,153.219100,148.041188,9548.656652
3722.244163,-153.219100,-0.000000,9622.677246
3722.244478,76.609550,222.061783,9474.636058
3722.244792,0.000000,-0.000000,9474.636058
3722.245107,306.438199,-0.000000,9844.739029
3722.245421,229.828649,296.082377,9696.697840
3722.245735,76.609550,-74.020594,9622.677246
3722.246050,153.219100,-0.000000,9474.636058
3722.246364,0.000000,-0.000000,9622.677246
3722.246678,0.000000,-0.000000,9622.677246
3722.246993,153.219100,-148.041188,9474.636058
3722.247307,76.609550,-74.020594,9918.759623
3722.247622,153.219100,-0.000000,9992.780217
3722.247936,76.609550,-0.000000,9770.718434
3722.248250,0.000000,222.061783,9474.636058
3722.248565,0.000000,-74.020594,9326.594869
3722.248879,229.828649,148.041188,9918.759623
3722.249193,76.609550,296.082377,9622.677246
3722.249508,76.609550,-0.000000,9696.697840
3722.249822,0.000000,444.123565,9548.656652
3722.250136,536.266849,296.082377,9622.677246
3722.250451,0.000000,-0.000000,9622.677246
3722.250765,-153.219100,222.061783,9770.718434
3722.251080,0.000000,222.061783,9622.677246
3722.251394,-306.438199,296.082377,9400.615463
3722.251708,459.657299,222.061783,9548.656652
3722.252023,0.000000,370.102971,9474.636058
3722.252337,0.000000,296.082377,9474.636058
3722.252651,0.000000,370.102971,9622.677246
3722.252966,0.000000,222.061783,9548.656652
3722.253280,0.000000,148.041188,9622.677246
3722.253595,0.000000,148.041188,9770.718434
3722.253909,153.219100,-0.000000,9918.759623
3722.254223,0.000000,370.102971,9400.615463
3722.254538,229.828649,592.164754,9474.636058
3722.254852,153.219100,222.061783,9548.656652
3722.255166,0.000000,-74.020594,9548.656652
3722.255481,76.609550,370.102971,9918.759623
3722.255795,76.609550,-0.000000,9474.636058
3722.256109,0.000000,222.061783,9696.697840
3722.256424,383.047749,222.061783,9844.739029
3722.256738,153.219100,-0.000000,9326.594869
3722.257053,76.609550,-0.000000,9474.636058
3722.257367,229.828649,-0.000000,9474.636058
3722.257681,0.000000,-74.020594,9474.636058
3722.257996,306.438199,-0.000000,9696.697840
3722.258311,153.219100,222.061783,9918.759623
3722.258625,153.219100,-0.000000,9992.780217
3722.258940,0.000000,-0.000000,9474.636058
3722.259254,0.000000,-148.041188,9400.615463
3722.259569,0.000000,-0.000000,10140.821405
3722.259883,0.000000,222.061783,9844.739029
3722.260198,76.609550,222.061783,9548.656652
3722.260512,76.609550,-0.000000,9622.677246
3722.260827,383.047749,296.082377,9622.677246
3722.261141,76.609550,296.082377,9474.636058
3722.261456,76.609550,-0.000000,9696.697840
3722.261770,153.219100,222.061783,9696.697840
3722.262085,153.219100,148.041188,9252.574275
3722.262399,153.219100,148.041188,9548.656652
3722.262714,0.000000,518.144159,9622.677246
3722.263028,153.219100,296.082377,9474.636058
3722.263343,76.609550,-0.000000,9326.594869
3722.263657,76.609550,-0.000000,9474.636058
3722.263972,0.000000,-148.041188,9918.759623
3722.264287,0.000000,-0.000000,9548.656652
3722.264601,0.000000,-148.041188,9326.594869
3722.264916,229.828649,-0.000000,9622.677246
3722.265230,0.000000,148.041188,9474.636058
3722.265545,153.219100,-74.020594,9474.636058
3722.265859,0.000000,-0.000000,9548.656652
3722.266174,229.828649,-0.000000,9474.636058
3722.266488,229.828649,-148.041188,9104.533087
3722.266803,306.438199,370.102971,9104.533087
3722.267117,383.047749,74.020594,10288.862594
3722.267432,153.219100,-148.041188,9622.677246
3722.267746,0.000000,-74.020594,9474.636058
3722.268061,76.609550,222.061783,9474.636058
3722.268375,153.219100,-0.000000,9696.697840
3722.268690,306.438199,74.020594,9696.697840
3722.269004,0.000000,-0.000000,9918.759623
3722.269319,229.828649,-148.041188,9918.759623
3722.269633,383.047749,-0.000000,10066.800811
3722.269948,459.657299,370.102971,9918.759623
3722.270263,612.876398,74.020594,9770.718434
3722.270577,689.485948,666.185348,9918.759623
3722.270892,766.095498,814.226536,9474.636058
3722.271206,689.485948,888.247130,9178.553681
3722.271521,689.485948,888.247130,9252.574275
3722.271835,383.047749,444.123565,9104.533087
3722.272150,383.047749,370.102971,9622.677246
3722.272464,995.924147,666.185348,9474.636058
3722.272779,536.266849,370.102971,9622.677246
3722.273093,536.266849,444.123565,9992.780217
3722.273408,689.485948,222.061783,9770.718434
3722.273722,229.828649,444.123565,9844.739029
3722.274037,459.657299,592.164754,9844.739029
3722.274351,919.314598,888.247130,9992.780217
3722.274666,1225.752797,1110.308913,9622.677246
3722.274980,1378.971896,1480.411884,9696.697840
3722.275295,1762.019645,1332.370696,9178.553681
3722.275609,1991.848295,1480.411884,9178.553681
3722.275924,2145.067394,1554.432478,9178.553681
3722.276239,2451.505594,1480.411884,9104.533087
3722.276553,2604.724693,1554.432478,9178.553681
3722.276868,2604.724693,1924.535449,9252.574275
3722.277182,2681.334243,1850.514855,9178.553681
3722.277497,2604.724693,2072.576638,9030.512492
3722.277811,2528.115143,1998.556043,9474.636058
3722.278126,2911.162892,1924.535449,9400.615463
3722.278440,2681.334243,2368.659014,9548.656652
3722.278755,2604.724693,2368.659014,9252.574275
3722.279069,2834.553343,2442.679609,9030.512492
3722.279384,3217.601092,2886.803174,9548.656652
3722.279698,3064.381992,2886.803174,9696.697840
3722.280013,3294.210641,3108.864956,9326.594869
3722.280327,3140.991542,3256.906145,9474.636058
3722.280642,3140.991542,3849.070898,9326.594869
3722.280956,3064.381992,3627.009116,8956.491898
3722.281271,2987.772442,3701.029710,9770.718434
3722.281585,2987.772442,3478.967927,9474.636058
3722.281900,2451.505594,3701.029710,9474.636058
3722.282215,2451.505594,3552.988522,9918.759623
3722.282529,2068.457845,3478.967927,10288.862594
3722.282844,2145.067394,3478.967927,10436.903782
3722.283158,2068.457845,3478.967927,10584.944971
3722.283473,1915.238745,3552.988522,10510.924376
3722.283787,2374.896044,3923.091493,10362.883188
3722.284102,2604.724693,3997.112087,10288.862594
3722.284416,2757.943793,4441.235652,10288.862594
3722.284731,2681.334243,4441.235652,9474.636058
3722.285045,3140.991542,4737.318029,9622.677246
3722.285360,3064.381992,4663.297435,9326.594869
3722.285674,2681.334243,4811.338623,9326.594869
3722.285989,2374.896044,4293.194464,9548.656652
3722.286303,1838.629195,3627.009116,8956.491898
3722.286618,1378.971896,3108.864956,9770.718434
3722.286932,842.705048,2442.679609,10362.883188
3722.287247,536.266849,1924.535449,10658.965565
3722.287561,229.828649,1258.350101,11177.109724
3722.287876,76.609550,1554.432478,11251.130318
3722.288191,536.266849,2368.659014,11399.171507
3722.288505,919.314598,2590.720797,10732.986159
3722.288820,1608.800546,2516.700203,10510.924376
3722.289134,2374.896044,3478.967927,10658.965565
3722.289449,2911.162892,3923.091493,9178.553681
3722.289763,3600.648841,3627.009116,8808.450710
3722.290078,3677.258390,3404.947333,8734.430116
3722.290392,3907.087040,2886.803174,8882.471304
3722.290707,3677.258390,2368.659014,8734.430116
3722.291021,2604.724693,1776.494261,8734.430116
3722.291336,2298.286494,1554.432478,9326.594869
3722.291650,1455.581446,1258.350101,9326.594869
3722.291965,1149.143247,814.226536,9252.574275
3722.292279,459.657299,740.205942,9474.636058
3722.292594,766.095498,-0.000000,9326.594869
3722.292908,766.095498,-0.000000,9622.677246
3722.293223,842.705048,518.144159,9844.739029
3722.293538,1838.629195,296.082377,10140.821405
3722.293852,2145.067394,962.267725,9770.718434
3722.294167,2451.505594,1554.432478,9548.656652
3722.294481,2987.772442,2220.617826,9622.677246
3722.294796,3677.258390,2442.679609,9104.533087
3722.295110,4366.744339,2664.741391,8586.388927
3722.295425,3983.696590,2738.761985,8512.368333
3722.295739,3753.867940,2590.720797,7402.059420
3722.296054,3064.381992,1850.514855,7550.100608
3722.296368,2911.162892,1110.308913,7772.162391
3722.296683,2374.896044,-0.000000,8734.430116
3722.296997,1685.410096,-1036.288319,8882.471304
3722.297312,536.266849,-1036.288319,9474.636058
3722.297626,0.000000,-1406.391290,10584.944971
3722.297941,0.000000,-1628.453072,11621.233289
3722.298255,0.000000,-1184.329507,11695.253884
3722.298570,842.705048,-0.000000,11325.150913
3722.298884,2145.067394,1332.370696,10658.965565
3722.299199,3447.429741,2516.700203,9696.697840
3722.299514,4366.744339,3256.906145,8512.368333
3722.299828,4826.401637,4145.153275,7476.080014
3722.300143,4826.401637,4663.297435,7105.977043
3722.300457,4903.011187,4071.132681,6735.874072
3722.300772,4136.915689,3108.864956,7476.080014
3722.301086,2681.334243,1258.350101,8660.409521
3722.301401,1072.533697,-370.102971,10214.842000
3722.301715,-995.924147,-1258.350101,11547.212695
3722.302030,-2145.067394,-1480.411884,12731.542202
3722.302344,-2834.553343,-1184.329507,13545.768739
3722.302659,-2145.067394,-148.041188,13027.624579
3722.302973,-1762.019645,962.267725,11991.336260
3722.303288,-306.438199,2664.741391,9770.718434
3722.303602,995.924147,3923.091493,8660.409521
3722.303917,2451.505594,4367.215058,7698.141797
3722.304231,3294.210641,3997.112087,7254.018232
3722.304546,3677.258390,3775.050304,7846.182985
3722.304860,3294.210641,3330.926739,8586.388927
3722.305175,2145.067394,2368.659014,9992.780217
3722.305490,383.047749,1258.350101,11547.212695
3722.305804,-1149.143247,518.144159,12583.501014
3722.306119,-2068.457845,518.144159,12657.521608
3722.306433,-2145.067394,666.185348,11917.315666
3722.306748,-1991.848295,962.267725,10658.965565
3722.307062,-1225.752797,1184.329507,9548.656652
3722.307377,-306.438199,962.267725,8586.388927
3722.307691,919.314598,1184.329507,7920.203579
3722.308006,1991.848295,1184.329507,7624.121203
3722.308320,2451.505594,1184.329507,7846.182985
3722.308635,2451.505594,814.226536,9104.533087
3722.308949,2374.896044,1258.350101,9918.759623
3722.309264,1608.800546,1332.370696,10584.944971
3722.309578,766.095498,962.267725,10510.924376
3722.309893,0.000000,1628.453072,10362.883188
3722.310207,-536.266849,1480.411884,9548.656652
3722.310522,-689.485948,814.226536,9252.574275
3722.310836,306.438199,370.102971,9178.553681
3722.311151,766.095498,-296.082377,8808.450710
3722.311466,1072.533697,-296.082377,8734.430116
3722.311780,1302.362347,-740.205942,9548.656652
3722.312095,919.314598,-370.102971,10066.800811
3722.312409,995.924147,-740.205942,9992.780217
3722.312724,766.095498,-0.000000,10140.821405
3722.313038,383.047749,-0.000000,9622.677246
3722.313353,612.876398,518.144159,9474.636058
3722.313667,919.314598,592.164754,8808.450710
3722.313982,1455.581446,296.082377,8882.471304
3722.314296,1072.533697,-0.000000,8882.471304
3722.314611,1608.800546,888.247130,9178.553681
3722.314925,995.924147,148.041188,9326.594869
3722.315240,1149.143247,222.061783,9400.615463
3722.315554,1302.362347,518.144159,9622.677246
3722.315869,842.705048,518.144159,8734.430116
3722.316183,306.438199,-370.102971,9326.594869
3722.316498,153.219100,-814.226536,9696.697840
3722.316812,0.000000,-1628.453072,9770.718434
3722.317127,-76.609550,-1554.432478,10066.800811
3722.317442,-919.314598,-1776.494261,10658.965565
3722.317756,-1149.143247,-1702.473667,11103.089130
3722.318071,-1225.752797,-370.102971,10436.903782
3722.318385,-766.095498,222.061783,9696.697840
3722.318700,-383.047749,666.185348,9400.615463
3722.319014,76.609550,1036.288319,7846.182985
3722.319329,459.657299,370.102971,8438.347739
3722.319643,612.876398,-444.123565,8956.491898
3722.319958,383.047749,-1406.391290,9178.553681
3722.320272,153.219100,-2442.679609,9770.718434
3722.320587,-766.095498,-2072.576638,10955.047942
3722.320901,-1608.800546,-1628.453072,11843.295072
3722.321216,-2068.457845,-1332.370696,11473.192101
3722.321530,-2451.505594,-296.082377,10732.986159
3722.321845,-1608.800546,-0.000000,9696.697840
3722.322159,-1455.581446,370.102971,9104.533087
3722.322474,-306.438199,-0.000000,8512.368333
3722.322788,229.828649,-740.205942,8734.430116
3722.323103,229.828649,-1258.350101,8586.388927
3722.323418,689.485948,-1110.308913,8882.471304
3722.323732,459.657299,-962.267725,9992.780217
3722.324047,536.266849,-592.164754,10658.965565
3722.324361,0.000000,-74.020594,10881.027347
3722.324676,-383.047749,-592.164754,10288.862594
3722.324990,-229.828649,-0.000000,9400.615463
3722.325305,-995.924147,296.082377,8882.471304
3722.325619,-612.876398,-148.041188,8586.388927
3722.325934,-612.876398,-740.205942,8586.388927
3722.326248,0.000000,-888.247130,9178.553681
3722.326563,-229.828649,-888.247130,9030.512492
3722.326877,0.000000,-518.144159,9252.574275
3722.327192,76.609550,-0.000000,10140.821405
3722.327506,306.438199,148.041188,9622.677246
3722.327821,0.000000,888.247130,9178.553681
3722.328135,0.000000,962.267725,9030.512492
3722.328450,76.609550,370.102971,9104.533087
3722.328764,612.876398,666.185348,8586.388927
3722.329079,766.095498,592.164754,8660.409521
3722.329394,459.657299,444.123565,9326.594869
3722.329708,0.000000,444.123565,9622.677246
3722.330023,153.219100,888.247130,9548.656652
3722.330337,229.828649,888.247130,9918.759623
3722.330652,383.047749,1184.329507,9474.636058
3722.330966,229.828649,962.267725,8660.409521
3722.331281,459.657299,888.247130,8734.430116
3722.331595,919.314598,-0.000000,8882.471304
3722.331910,766.095498,-222.061783,9474.636058
3722.332224,766.095498,-0.000000,9622.677246
3722.332539,76.609550,370.102971,9992.780217
3722.332853,229.828649,666.185348,10881.027347
3722.333168,536.266849,1184.329507,10658.965565
3722.333482,536.266849,2146.597232,10732.986159
3722.333797,612.876398,2368.659014,10066.800811
3722.334111,842.705048,2590.720797,9030.512492
3722.334426,1225.752797,2146.597232,8808.450710
3722.334740,1072.533697,888.247130,9326.594869
3722.335055,1302.362347,296.082377,10362.883188
3722.335370,612.876398,-0.000000,10732.986159
3722.335684,-229.828649,370.102971,11103.089130
3722.335999,0.000000,-0.000000,11843.295072
3722.336313,-306.438199,666.185348,11769.274478
3722.336628,-459.657299,1406.391290,10955.047942
3722.336942,-536.266849,1776.494261,9992.780217
3722.337257,0.000000,1184.329507,9474.636058
3722.337571,76.609550,1110.308913,8808.450710
3722.337886,995.924147,962.267725,8364.327145
3722.338200,1455.581446,-0.000000,9474.636058
3722.338515,766.095498,-0.000000,9326.594869
3722.338829,306.438199,-370.102971,9918.759623
3722.339144,0.000000,-0.000000,10436.903782
3722.339458,0.000000,-0.000000,10658.965565
3722.339773,-612.876398,666.185348,10066.800811
3722.340087,-842.705048,666.185348,9252.574275
3722.340402,-1072.533697,666.185348,9178.553681
3722.340716,-306.438199,-148.041188,9178.553681
3722.341031,-306.438199,-666.185348,9474.636058
3722.341346,76.609550,-888.247130,9326.594869
3722.341660,229.828649,-666.185348,9104.533087
3722.341975,0.000000,-518.144159,9326.594869
3722.342289,229.828649,-592.164754,9696.697840
3722.342604,76.609550,-74.020594,9474.636058
3722.342918,229.828649,518.144159,8660.409521
3722.343233,0.000000,-0.000000,8142.265362
3722.343547,153.219100,-296.082377,8512.368333
3722.343862,229.828649,-814.226536,8956.491898
3722.344176,76.609550,-1628.453072,8808.450710
3722.344491,-229.828649,-1850.514855,9104.533087
3722.344805,-766.095498,-1332.370696,9548.656652
3722.345120,-612.876398,-592.164754,10066.800811
3722.345434,76.609550,-740.205942,9844.739029
3722.345749,-153.219100,-148.041188,9696.697840
3722.346063,0.000000,-74.020594,8660.409521
3722.346378,76.609550,-0.000000,7920.203579
3722.346693,306.438199,-740.205942,8734.430116
3722.347007,536.266849,-814.226536,9326.594869
3722.347322,612.876398,-962.267725,9844.739029
3722.347636,306.438199,-740.205942,9622.677246
3722.347951,0.000000,-962.267725,10362.883188
3722.348265,-306.438199,-222.061783,11029.068536
3722.348580,-383.047749,-0.000000,9992.780217
3722.348894,-383.047749,296.082377,9696.697840
3722.349209,-459.657299,370.102971,9178.553681
3722.349523,153.219100,-74.020594,8808.450710
3722.349838,919.314598,-814.226536,9104.533087
3722.350152,766.095498,-962.267725,9474.636058
3722.350467,306.438199,-1036.288319,9992.780217
3722.350781,306.438199,-666.185348,10362.883188
3722.351096,229.828649,-0.000000,10510.924376
3722.351410,536.266849,518.144159,10214.842000
3722.351725,536.266849,814.226536,9844.739029
3722.352039,459.657299,1332.370696,9252.574275
3722.352354,306.438199,1480.411884,8734.430116
3722.352669,383.047749,962.267725,8734.430116
3722.352983,995.924147,222.061783,9104.533087
3722.353298,995.924147,-444.123565,9622.677246
3722.353612,689.485948,-0.000000,10214.842000
3722.353927,383.047749,-0.000000,10362.883188
3722.354241,383.047749,-0.000000,10436.903782
3722.354556,383.047749,-0.000000,10584.944971
3722.354870,306.438199,1554.432478,9844.739029
3722.355185,-306.438199,1702.473667,8956.491898
3722.355499,0.000000,1776.494261,8956.491898
3722.355814,612.876398,962.267725,9400.615463
3722.356128,766.095498,-0.000000,9622.677246
3722.356443,459.657299,-0.000000,9622.677246
3722.356757,0.000000,-0.000000,10436.903782
3722.357072,0.000000,370.102971,10658.965565
3722.357386,0.000000,962.267725,10362.883188
3722.357701,229.828649,1628.453072,10140.821405
3722.358015,76.609550,1776.494261,9548.656652
3722.358330,-229.828649,2072.576638,9178.553681
3722.358645,229.828649,1480.411884,8660.409521
3722.358959,306.438199,592.164754,9252.574275
3722.359274,229.828649,444.123565,9474.636058
3722.359588,-459.657299,-74.020594,9992.780217
3722.359903,-689.485948,-0.000000,10732.986159
3722.360217,-689.485948,444.123565,10362.883188
3722.360532,-689.485948,592.164754,10140.821405
3722.360846,-306.438199,1184.329507,9548.656652
3722.361161,-459.657299,1480.411884,9030.512492
3722.361475,-306.438199,1110.308913,8660.409521
3722.361790,76.609550,592.164754,8734.430116
3722.362105,612.876398,-74.020594,9178.553681
3722.362419,0.000000,-148.041188,9474.636058
3722.362734,0.000000,-148.041188,10214.842000
3722.363048,0.000000,-0.000000,10658.965565
3722.363363,0.000000,296.082377,10584.944971
3722.363678,0.000000,444.123565,9992.780217
3722.363992,0.000000,1110.308913,9474.636058
3722.364307,0.000000,1110.308913,9104.533087
3722.364621,383.047749,814.226536,8734.430116
3722.364936,919.314598,296.082377,8808.450710
3722.365251,1225.752797,-296.082377,9104.533087
3722.365565,995.924147,-518.144159,9252.574275
3722.365880,383.047749,-592.164754,9622.677246
3722.366194,306.438199,-518.144159,9770.718434
3722.366509,153.219100,-666.185348,10584.944971
3722.366824,-229.828649,-148.041188,10362.883188
3722.367138,-536.266849,222.061783,9548.656652
3722.367453,-536.266849,-0.000000,9326.594869
3722.367767,76.609550,-148.041188,9474.636058
3722.368082,689.485948,-444.123565,9696.697840
3722.368397,689.485948,-666.185348,9844.739029
3722.368711,842.705048,-814.226536,10214.842000
3722.369026,689.485948,-592.164754,10436.903782
3722.369340,842.705048,-0.000000,10140.821405
3722.369655,1302.362347,370.102971,9844.739029
3722.369970,459.657299,444.123565,8882.471304
3722.370284,383.047749,666.185348,8882.471304
3722.370599,153.219100,-0.000000,8586.388927
3722.370913,229.828649,-962.267725,8438.347739
3722.371228,0.000000,-1554.432478,9252.574275
3722.371543,0.000000,-1332.370696,9770.718434
3722.371857,-306.438199,-1332.370696,10362.883188
3722.372172,0.000000,-962.267725,10066.800811
3722.372487,0.000000,-740.205942,10140.821405
3722.372801,-153.219100,-0.000000,9622.677246
3722.373116,0.000000,444.123565,9178.553681
3722.373430,0.000000,518.144159,8660.409521
3722.373745,536.266849,-0.000000,8586.388927
3722.374060,612.876398,-592.164754,9696.697840
3722.374374,383.047749,-592.164754,9918.759623
3722.374689,0.000000,-592.164754,9622.677246
3722.375003,-306.438199,-666.185348,10288.862594
3722.375318,-459.657299,-222.061783,10436.903782
3722.375633,-153.219100,-74.020594,10140.821405
3722.375947,-459.657299,148.041188,9548.656652
3722.376262,-383.047749,444.123565,8734.430116
3722.376576,-689.485948,444.123565,8660.409521
3722.376891,-229.828649,-74.020594,8512.368333
3722.377206,0.000000,-962.267725,8512.368333
3722.377520,0.000000,-814.226536,9474.636058
3722.377835,-383.047749,-444.123565,10288.862594
3722.378149,-536.266849,-0.000000,10584.944971
3722.378464,-383.047749,148.041188,10658.965565
3722.378779,76.609550,666.185348,10362.883188
3722.379093,-306.438199,1702.473667,9104.533087
3722.379408,-612.876398,1554.432478,8808.450710
3722.379722,0.000000,1258.350101,9178.553681
3722.380037,76.609550,888.247130,9178.553681
3722.380352,459.657299,-0.000000,9474.636058
3722.380666,229.828649,-74.020594,9992.780217
3722.380981,-229.828649,-74.020594,10510.924376
3722.381295,-306.438199,222.061783,10807.006753
3722.381610,0.000000,518.144159,10436.903782
3722.381925,0.000000,1110.308913,10140.821405
3722.382239,-306.438199,1332.370696,9178.553681
3722.382554,-306.438199,1332.370696,8734.430116
3722.382868,383.047749,888.247130,8512.368333
3722.383183,766.095498,148.041188,9400.615463
3722.383498,1225.752797,-0.000000,9622.677246
3722.383812,842.705048,296.082377,9992.780217
3722.384127,612.876398,962.267725,10288.862594
3722.384442,536.266849,888.247130,10140.821405
3722.384756,842.705048,740.205942,9918.759623
3722.385071,153.219100,1406.391290,9474.636058
3722.385385,76.609550,1480.411884,9104.533087
3722.385700,153.219100,1110.308913,8734.430116
3722.386015,919.314598,666.185348,9178.553681
3722.386329,766.095498,-0.000000,9844.739029
3722.386644,306.438199,-296.082377,10066.800811
3722.386958,0.000000,148.041188,10436.903782
3722.387273,0.000000,444.123565,10807.006753
3722.387588,153.219100,-0.000000,10732.986159
3722.387902,306.438199,592.164754,9992.780217
3722.388217,536.266849,1702.473667,8586.388927
3722.388531,383.047749,1258.350101,8882.471304
3722.388846,536.266849,740.205942,8734.430116
3722.389161,995.924147,-148.041188,9474.636058
3722.389475,766.095498,-444.123565,9622.677246
3722.389790,766.095498,-222.061783,9844.739029
3722.390104,612.876398,-0.000000,10140.821405
3722.390419,229.828649,-0.000000,10140.821405
3722.390734,76.609550,370.102971,10066.800811
3722.391048,-306.438199,888.247130,9178.553681
3722.391363,-229.828649,518.144159,8512.368333
3722.391677,0.000000,370.102971,8290.306550
3722.391992,-229.828649,-370.102971,8956.491898
3722.392307,0.000000,-1184.329507,9252.574275
3722.392621,0.000000,-1332.370696,10066.800811
3722.392936,-689.485948,-888.247130,10288.862594
3722.393250,-612.876398,-740.205942,10732.986159
3722.393565,-995.924147,-666.185348,10584.944971
3722.393880,-459.657299,-296.082377,9992.780217
3722.394194,-383.047749,518.144159,8734.430116
3722.394509,-689.485948,1184.329507,8512.368333
3722.394823,0.000000,592.164754,8660.409521
3722.395138,766.095498,-74.020594,8734.430116
3722.395453,536.266849,-666.185348,8808.450710
3722.395767,306.438199,-1036.288319,9030.512492
3722.396082,229.828649,-1036.288319,10436.903782
3722.396397,0.000000,-1036.288319,10436.903782
3722.396711,0.000000,-962.267725,10362.883188
3722.397026,-306.438199,-0.000000,9474.636058
3722.397340,-842.705048,370.102971,8734.430116
3722.397655,-459.657299,666.185348,8512.368333
3722.397970,0.000000,-0.000000,9030.512492
3722.398284,153.219100,-962.267725,9474.636058
3722.398599,0.000000,-1184.329507,9474.636058
3722.398913,-306.438199,-1184.329507,9918.759623
3722.399228,0.000000,-1036.288319,10658.965565
3722.399543,153.219100,-592.164754,11029.068536
3722.399857,-153.219100,740.205942,9622.677246
3722.400172,76.609550,296.082377,9696.697840
3722.400486,229.828649,1406.391290,8586.388927
3722.400801,229.828649,814.226536,8660.409521
3722.401116,766.095498,-222.061783,8882.471304
3722.401430,995.924147,-1036.288319,9622.677246
3722.401745,766.095498,-1036.288319,9622.677246
3722.402059,459.657299,-1036.288319,10066.800811
3722.402374,76.609550,-296.082377,10362.883188
3722.402689,0.000000,-0.000000,10510.924376
3722.403003,0.000000,740.205942,9622.677246
3722.403318,0.000000,1332.370696,8512.368333
3722.403632,306.438199,962.267725,8216.285956
3722.403947,536.266849,222.061783,8734.430116
3722.404262,536.266849,-518.144159,8956.491898
3722.404576,536.266849,-962.267725,9548.656652
3722.404891,-306.438199,-666.185348,10362.883188
3722.405205,0.000000,-0.000000,10807.006753
3722.405520,0.000000,370.102971,10955.047942
3722.405835,229.828649,1332.370696,10288.862594
3722.406149,536.266849,1480.411884,9474.636058
3722.406464,536.266849,1776.494261,8586.388927
3722.406778,229.828649,962.267725,8956.491898
3722.407093,536.266849,-0.000000,9400.615463
3722.407408,842.705048,-296.082377,9770.718434
3722.407722,689.485948,-518.144159,9474.636058
3722.408037,383.047749,-370.102971,10288.862594
3722.408352,306.438199,296.082377,10807.006753
3722.408666,76.609550,814.226536,10362.883188
3722.408981,229.828649,1110.308913,9400.615463
3722.409295,0.000000,1332.370696,9104.533087
3722.409610,0.000000,1554.432478,8808.450710
3722.409925,306.438199,1110.308913,9030.512492
3722.410239,153.219100,-0.000000,9548.656652
3722.410554,153.219100,-222.061783,9844.739029
3722.410868,0.000000,-0.000000,10214.842000
3722.411183,-306.438199,370.102971,11103.089130
3722.411498,0.000000,518.144159,11251.130318
3722.411812,-153.219100,814.226536,10658.965565
3722.412127,-995.924147,1628.453072,9696.697840
3722.412441,-612.876398,1776.494261,8734.430116
3722.412756,-306.438199,1554.432478,8660.409521
3722.413071,153.219100,518.144159,8808.450710
3722.413385,383.047749,-0.000000,9326.594869
3722.413700,383.047749,-296.082377,9326.594869
3722.414014,306.438199,-74.020594,9844.739029
3722.414329,0.000000,-148.041188,9992.780217
3722.414644,-306.438199,370.102971,10436.903782
3722.414958,-383.047749,518.144159,10214.842000
3722.415273,-919.314598,962.267725,8290.306550
3722.415587,-689.485948,888.247130,8438.347739
3722.415902,-383.047749,444.123565,8808.450710
3722.416217,0.000000,-370.102971,9178.553681
3722.416531,0.000000,-666.185348,9918.759623
3722.416846,-306.438199,-222.061783,10362.883188
3722.417160,-383.047749,-74.020594,10881.027347
3722.417475,0.000000,222.061783,10955.047942
3722.417790,76.609550,444.123565,10584.944971
3722.418104,383.047749,1332.370696,9992.780217
3722.418419,459.657299,1036.288319,8808.450710
3722.418733,919.314598,1184.329507,8734.430116
3722.419048,1072.533697,592.164754,8882.471304
3722.419363,1072.533697,-148.041188,8882.471304
3722.419677,612.876398,-962.267725,9400.615463
3722.419992,383.047749,-1332.370696,9622.677246
3722.420307,383.047749,-1406.391290,10436.903782
3722.420621,0.000000,-888.247130,10732.986159
3722.420936,0.000000,-518.144159,10362.883188
3722.421250,0.000000,370.102971,9326.594869
3722.421565,0.000000,518.144159,8808.450710
3722.421880,459.657299,-0.000000,8660.409521
3722.422194,1072.533697,-444.123565,9252.574275
3722.422509,1149.143247,-962.267725,9474.636058
3722.422823,1072.533697,-814.226536,9474.636058
3722.423138,919.314598,-444.123565,9992.780217
3722.423453,766.095498,-222.061783,10362.883188
3722.423767,536.266849,-74.020594,10436.903782
3722.424082,306.438199,518.144159,9992.780217
3722.424396,0.000000,814.226536,8808.450710
3722.424711,0.000000,222.061783,8364.327145
3722.425026,306.438199,-518.144159,8586.388927
3722.425340,612.876398,-1258.350101,9104.533087
3722.425655,229.828649,-1554.432478,9770.718434
3722.425969,0.000000,-1258.350101,10066.800811
3722.426284,0.000000,-1110.308913,10214.842000
3722.426599,306.438199,-296.082377,10140.821405
3722.426913,153.219100,296.082377,9770.718434
3722.427228,0.000000,1110.308913,8882.471304
3722.427542,0.000000,1110.308913,8290.306550
3722.427857,306.438199,962.267725,8882.471304
3722.428172,383.047749,148.041188,8734.430116
3722.428486,383.047749,-370.102971,9400.615463
3722.428801,-229.828649,-592.164754,10066.800811
3722.429115,-766.095498,-592.164754,10436.903782
3722.429430,-612.876398,-370.102971,11325.150913
3722.429745,-612.876398,-0.000000,10955.047942
3722.430059,-612.876398,814.226536,9622.677246
3722.430374,-612.876398,1406.391290,9474.636058
3722.430688,-1072.533697,1258.350101,8364.327145
3722.431003,-306.438199,740.205942,8882.471304
3722.431318,76.609550,-0.000000,9326.594869
3722.431632,0.000000,-444.123565,9548.656652
3722.431947,0.000000,-444.123565,10066.800811
3722.432262,0.000000,-0.000000,10436.903782
3722.432576,-153.219100,370.102971,10955.047942
3722.432891,-459.657299,740.205942,10510.924376
3722.433205,-383.047749,1110.308913,9622.677246
3722.433520,-459.657299,1554.432478,8956.491898
3722.433835,-383.047749,1258.350101,8956.491898
3722.434149,306.438199,814.226536,9178.553681
3722.434464,536.266849,-74.020594,9474.636058
3722.434778,383.047749,-74.020594,9622.677246
3722.435093,0.000000,-222.061783,10214.842000
3722.435408,0.000000,-222.061783,10881.027347
3722.435722,-383.047749,-0.000000,10881.027347
3722.436037,-153.219100,1258.350101,10436.903782
3722.436351,0.000000,1184.329507,9400.615463
3722.436666,0.000000,962.267725,9030.512492
3722.436981,919.314598,740.205942,8956.491898
3722.437295,1149.143247,-0.000000,8956.491898
3722.437610,1149.143247,-222.061783,9474.636058
3722.437924,1149.143247,-74.020594,9844.739029
3722.438239,766.095498,-0.000000,9696.697840
3722.438554,766.095498,-0.000000,9992.780217
3722.438868,766.095498,296.082377,10140.821405
3722.439183,306.438199,1184.329507,9326.594869
3722.439497,0.000000,1258.350101,8438.347739
3722.439812,229.828649,962.267725,8660.409521
3722.440127,612.876398,-74.020594,8586.388927
3722.440441,536.266849,-740.205942,9474.636058
3722.440756,383.047749,-666.185348,9844.739029
3722.441070,0.000000,-444.123565,10362.883188
3722.441385,0.000000,-370.102971,10955.047942
3722.441700,383.047749,370.102971,10510.924376
3722.442014,459.657299,888.247130,9696.697840
3722.442329,383.047749,1258.350101,8882.471304
3722.442643,459.657299,1406.391290,8882.471304
3722.442958,766.095498,814.226536,8216.285956
3722.443273,1149.143247,-0.000000,9030.512492
3722.443587,1072.533697,-0.000000,10140.821405
3722.443902,459.657299,-444.123565,10140.821405
3722.444217,0.000000,-148.041188,10066.800811
3722.444531,76.609550,-148.041188,10510.924376
3722.444846,-153.219100,-518.144159,10362.883188
3722.445160,0.000000,296.082377,9548.656652
3722.445475,-306.438199,814.226536,8956.491898
3722.445790,-536.266849,888.247130,8586.388927
3722.446104,0.000000,444.123565,8882.471304
3722.446419,0.000000,-370.102971,9474.636058
3722.446733,153.219100,-740.205942,9918.759623
3722.447048,-153.219100,-814.226536,9918.759623
3722.447363,-612.876398,-518.144159,10288.862594
3722.447677,-229.828649,148.041188,10807.006753
3722.447992,0.000000,444.123565,10066.800811
3722.448306,-919.314598,1110.308913,9622.677246
3722.448621,-995.924147,962.267725,8734.430116
3722.448936,-766.095498,-74.020594,8882.471304
3722.449250,0.000000,-740.205942,9326.594869
3722.449565,306.438199,-1258.350101,9844.739029
3722.449879,0.000000,-1110.308913,9770.718434
3722.450194,-689.485948,-1110.308913,10362.883188
3722.450509,-459.657299,-740.205942,10214.842000
3722.450823,0.000000,-148.041188,10288.862594
3722.451138,-383.047749,370.102971,9622.677246
3722.451452,-153.219100,962.267725,8956.491898
3722.451767,-229.828649,1184.329507,8660.409521
3722.452082,76.609550,666.185348,8808.450710
3722.452396,536.266849,-444.123565,9104.533087
3722.452711,76.609550,-962.267725,9918.759623
3722.453025,0.000000,-592.164754,10288.862594
3722.453340,-153.219100,-296.082377,10807.006753
3722.453655,0.000000,-296.082377,11251.130318
3722.453969,-689.485948,370.102971,10510.924376
3722.454284,-306.438199,592.164754,9326.594869
3722.454598,0.000000,962.267725,9104.533087
3722.454913,0.000000,592.164754,8586.388927
3722.455228,689.485948,-222.061783,9252.574275
3722.455542,995.924147,-888.247130,9400.615463
3722.455857,842.705048,-814.226536,9622.677246
3722.456172,536.266849,-444.123565,9844.739029
3722.456486,459.657299,-0.000000,10066.800811
3722.456801,919.314598,-0.000000,9696.697840
3722.457115,689.485948,444.123565,9696.697840
3722.457430,383.047749,962.267725,8734.430116
3722.457745,612.876398,1258.350101,8142.265362
3722.458059,306.438199,666.185348,7920.203579
3722.458374,842.705048,-296.082377,8882.471304
3722.458688,842.705048,-1480.411884,9548.656652
3722.459003,383.047749,-962.267725,10066.800811
3722.459318,0.000000,-296.082377,10436.903782
3722.459632,76.609550,-222.061783,10658.965565
3722.459947,383.047749,444.123565,10214.842000
3722.460261,229.828649,1258.350101,9326.594869
3722.460576,0.000000,1406.391290,8586.388927
3722.460890,153.219100,370.102971,8660.409521
3722.461205,842.705048,296.082377,8438.347739
3722.461520,1072.533697,-444.123565,9030.512492
3722.461834,1072.533697,-0.000000,9548.656652
3722.462149,612.876398,-222.061783,10066.800811
3722.462463,229.828649,296.082377,10362.883188
3722.462778,153.219100,296.082377,10362.883188
3722.463092,459.657299,1036.288319,10214.842000
3722.463407,0.000000,1628.453072,9178.553681
3722.463722,-306.438199,1628.453072,8512.368333
3722.464036,0.000000,962.267725,9252.574275
3722.464351,383.047749,444.123565,9622.677246
3722.464665,76.609550,-0.000000,9696.697840
3722.464980,0.000000,-148.041188,10066.800811
3722.465294,-689.485948,-0.000000,11029.068536
3722.465609,-536.266849,666.185348,11103.089130
3722.465924,-689.485948,666.185348,10658.965565
3722.466238,-766.095498,1258.350101,9844.739029
3722.466553,-842.705048,1480.411884,9622.677246
3722.466867,-766.095498,1332.370696,8734.430116
3722.467182,-229.828649,1036.288319,9104.533087
3722.467497,0.000000,-148.041188,9474.636058
3722.467811,0.000000,-370.102971,9548.656652
3722.468126,-383.047749,-740.205942,9844.739029
3722.468440,0.000000,-0.000000,10955.047942
3722.468755,-612.876398,-74.020594,10881.027347
3722.469069,-536.266849,518.144159,9770.718434
3722.469384,-383.047749,1332.370696,9326.594869
3722.469699,-383.047749,1258.350101,8808.450710
3722.470013,459.657299,1110.308913,8808.450710
3722.470328,383.047749,-148.041188,8882.471304
3722.470642,995.924147,-518.144159,9400.615463
3722.470957,459.657299,-370.102971,10066.800811
3722.471271,229.828649,-518.144159,9992.780217
3722.471586,459.657299,-444.123565,10510.924376
3722.471901,306.438199,-0.000000,10362.883188
3722.472215,306.438199,592.164754,9474.636058
3722.472530,306.438199,740.205942,8734.430116
3722.472844,153.219100,740.205942,8660.409521
3722.473159,919.314598,-0.000000,8586.388927
3722.473474,1072.533697,-296.082377,9030.512492
3722.473788,1072.533697,-814.226536,9326.594869
3722.474103,766.095498,-1036.288319,9992.780217
3722.474417,689.485948,-222.061783,10362.883188
3722.474732,842.705048,-222.061783,10881.027347
3722.475046,689.485948,518.144159,10436.903782
3722.475361,536.266849,962.267725,9030.512492
3722.475676,612.876398,1258.350101,8586.388927
3722.475990,1225.752797,814.226536,8882.471304
3722.476305,1302.362347,-148.041188,9252.574275
3722.476619,1149.143247,-1258.350101,9474.636058
3722.476934,919.314598,-1036.288319,9548.656652
3722.477248,766.095498,-740.205942,10436.903782
3722.477563,383.047749,-444.123565,10510.924376
3722.477878,459.657299,-222.061783,10584.944971
3722.478192,229.828649,888.247130,9918.759623
3722.478507,0.000000,1110.308913,8808.450710
3722.478821,0.000000,740.205942,8364.327145
3722.479136,536.266849,-0.000000,8586.388927
3722.479451,766.095498,-666.185348,9400.615463
3722.479765,0.000000,-1110.308913,9474.636058
3722.480080,-383.047749,-592.164754,9992.780217
3722.480394,-612.876398,-296.082377,10658.965565
3722.480709,-306.438199,-370.102971,10584.944971
3722.481023,0.000000,370.102971,10436.903782
3722.481338,-306.438199,740.205942,9770.718434
3722.481653,-536.266849,1258.350101,8882.471304
3722.481967,-153.219100,1110.308913,8512.368333
3722.482282,76.609550,296.082377,9178.553681
3722.482596,0.000000,-666.185348,9178.553681
3722.482911,0.000000,-370.102971,9696.697840
3722.483225,-383.047749,-1184.329507,10140.821405
3722.483540,-536.266849,-592.164754,11029.068536
3722.483855,-536.266849,-0.000000,10955.047942
3722.484169,-842.705048,962.267725,9992.780217
3722.484484,-1072.533697,1480.411884,8660.409521
3722.484798,-842.705048,1406.391290,8734.430116
3722.485113,-536.266849,370.102971,9326.594869
3722.485427,0.000000,-74.020594,9400.615463
3722.485742,0.000000,-666.185348,9252.574275
3722.486057,-153.219100,-740.205942,9992.780217
3722.486371,0.000000,-0.000000,10362.883188
3722.486686,-612.876398,222.061783,10881.027347
3722.487000,-229.828649,592.164754,10658.965565
3722.487315,-612.876398,814.226536,9400.615463
3722.487630,-306.438199,1332.370696,8290.306550
3722.487944,-153.219100,1036.288319,8216.285956
3722.488259,153.219100,222.061783,8956.491898
3722.488573,-306.438199,-444.123565,9400.615463
3722.488888,-153.219100,-888.247130,9474.636058
3722.489202,0.000000,-814.226536,10658.965565
3722.489517,-383.047749,-592.164754,10807.006753
3722.489832,0.000000,-148.041188,11251.130318
3722.490146,383.047749,518.144159,10288.862594
3722.490461,0.000000,1258.350101,9178.553681
3722.490775,0.000000,1702.473667,8512.368333
3722.491090,536.266849,1258.350101,8068.244768
3722.491404,1225.752797,296.082377,8660.409521
3722.491719,1685.410096,-518.144159,9252.574275
3722.492034,1532.190996,-666.185348,9548.656652
3722.492348,383.047749,-592.164754,10288.862594
3722.492663,229.828649,-148.041188,10584.944971
3722.492977,536.266849,-0.000000,10436.903782
3722.493292,459.657299,296.082377,9696.697840
3722.493607,229.828649,888.247130,8956.491898
3722.493921,229.828649,740.205942,9030.512492
3722.494236,689.485948,-0.000000,8660.409521
3722.494550,919.314598,-592.164754,9474.636058
3722.494865,612.876398,-740.205942,9474.636058
3722.495179,612.876398,-888.247130,9844.739029
3722.495494,842.705048,-0.000000,10584.944971
3722.495809,1225.752797,-74.020594,10732.986159
3722.496123,1149.143247,1036.288319,10658.965565
3722.496438,919.314598,1332.370696,9844.739029
3722.496752,229.828649,1480.411884,8586.388927
3722.497067,689.485948,1036.288319,8512.368333
3722.497381,1225.752797,-0.000000,9030.512492
3722.497696,919.314598,-888.247130,9178.553681
3722.498011,306.438199,-1110.308913,9770.718434
3722.498325,153.219100,-518.144159,10214.842000
3722.498640,76.609550,-222.061783,9918.759623
3722.498954,0.000000,-0.000000,10658.965565
3722.499269,-306.438199,740.205942,9844.739029
3722.499583,-766.095498,962.267725,8882.471304
3722.499898,-536.266849,1110.308913,8586.388927
3722.500213,-153.219100,370.102971,9030.512492
3722.500527,153.219100,-518.144159,9474.636058
3722.500842,306.438199,-592.164754,9474.636058
3722.501156,-536.266849,-814.226536,10066.800811
3722.501471,-459.657299,-0.000000,10510.924376
3722.501786,-229.828649,222.061783,10658.965565
3722.502100,0.000000,1110.308913,10214.842000
3722.502415,-229.828649,1110.308913,9474.636058
3722.502729,-459.657299,1110.308913,8660.409521
3722.503044,-153.219100,740.205942,8512.368333
3722.503358,76.609550,148.041188,8438.347739
3722.503673,76.609550,-740.205942,9178.553681
3722.503988,-689.485948,-1480.411884,9326.594869
3722.504302,-612.876398,-1110.308913,10140.821405
3722.504617,-689.485948,-666.185348,10510.924376
3722.504931,-306.438199,-0.000000,10362.883188
3722.505246,-306.438199,740.205942,9844.739029
3722.505560,-842.705048,1110.308913,9400.615463
3722.505875,-459.657299,1332.370696,8734.430116
3722.506190,-383.047749,740.205942,8438.347739
3722.506504,306.438199,-74.020594,8660.409521
3722.506819,459.657299,-370.102971,9696.697840
3722.507133,0.000000,-518.144159,10288.862594
3722.507448,0.000000,-74.020594,10807.006753
3722.507763,0.000000,370.102971,10658.965565
3722.508077,0.000000,592.164754,10436.903782
3722.508392,-383.047749,962.267725,9770.718434
3722.508706,-383.047749,1480.411884,8956.491898
3722.509021,-383.047749,1036.288319,9326.594869
3722.509335,229.828649,148.041188,9104.533087
3722.509650,842.705048,-296.082377,9400.615463
3722.509965,919.314598,-740.205942,9844.739029
3722.510279,383.047749,-814.226536,9622.677246
3722.510594,842.705048,-0.000000,10584.944971
3722.510908,612.876398,370.102971,10510.924376
3722.511223,229.828649,666.185348,10140.821405
3722.511537,0.000000,1332.370696,9104.533087
3722.511852,76.609550,1036.288319,8512.368333
3722.512167,459.657299,370.102971,8882.471304
3722.512481,536.266849,-296.082377,9400.615463
3722.512796,612.876398,-814.226536,9992.780217
3722.513110,459.657299,-666.185348,9992.780217
3722.513425,306.438199,-592.164754,10732.986159
3722.513740,536.266849,-222.061783,10362.883188
3722.514054,689.485948,296.082377,10214.842000
3722.514369,842.705048,666.185348,10362.883188
3722.514683,459.657299,1110.308913,8660.409521
3722.514998,612.876398,888.247130,8290.306550
3722.515312,1225.752797,-0.000000,8290.306550
3722.515627,1532.190996,-370.102971,8734.430116
3722.515942,1532.190996,-814.226536,9252.574275
3722.516256,459.657299,-814.226536,9548.656652
3722.516571,229.828649,-518.144159,10288.862594
3722.516885,0.000000,-444.123565,10288.862594
3722.517200,76.609550,-0.000000,9918.759623
3722.517514,76.609550,1036.288319,9400.615463
3722.517829,-536.266849,592.164754,9104.533087
3722.518144,-459.657299,148.041188,9178.553681
3722.518458,-459.657299,-444.123565,9178.553681
3722.518773,0.000000,-814.226536,9474.636058
3722.519087,0.000000,-814.226536,10436.903782
3722.519402,0.000000,-0.000000,10288.862594
3722.519716,-383.047749,370.102971,10584.944971
3722.520031,-153.219100,740.205942,10066.800811
3722.520346,0.000000,1184.329507,9548.656652
3722.520660,-459.657299,1332.370696,8882.471304
3722.520975,-612.876398,888.247130,8660.409521
3722.521289,0.000000,222.061783,8956.491898
3722.521604,0.000000,-814.226536,8956.491898
3722.521919,-153.219100,-1110.308913,9918.759623
3722.522233,-689.485948,-962.267725,9992.780217
3722.522548,-995.924147,-740.205942,10436.903782
3722.522862,-689.485948,-74.020594,10436.903782
3722.523177,0.000000,444.123565,10436.903782
3722.523491,0.000000,666.185348,9400.615463
3722.523806,0.000000,1332.370696,8734.430116
3722.524121,76.609550,1258.350101,8734.430116
3722.524435,383.047749,518.144159,8660.409521
3722.524750,1225.752797,-0.000000,8882.471304
3722.525064,766.095498,-370.102971,9696.697840
3722.525379,536.266849,-592.164754,10214.842000
3722.525693,306.438199,-370.102971,10584.944971
3722.526008,153.219100,-74.020594,10510.924376
3722.526323,76.609550,444.123565,10066.800811
3722.526637,0.000000,740.205942,9548.656652
3722.526952,-383.047749,1110.308913,9030.512492
3722.527266,0.000000,296.082377,8512.368333
3722.527581,766.095498,-222.061783,8956.491898
3722.527896,919.314598,-444.123565,9548.656652
3722.528210,612.876398,-370.102971,9918.759623
3722.528525,459.657299,-0.000000,10436.903782
3722.528839,536.266849,148.041188,10584.944971
3722.529154,229.828649,518.144159,10214.842000
3722.529468,306.438199,962.267725,9548.656652
3722.529783,0.000000,1480.411884,9326.594869
3722.530098,229.828649,1110.308913,8956.491898
3722.530412,842.705048,518.144159,8808.450710
3722.530727,842.705048,-518.144159,9474.636058
3722.531041,612.876398,-666.185348,9844.739029
3722.531356,383.047749,-666.185348,10362.883188
3722.531670,0.000000,-296.082377,10732.986159
3722.531985,229.828649,-0.000000,10732.986159
3722.532300,0.000000,1036.288319,9696.697840
3722.532614,-153.219100,1332.370696,9104.533087
3722.532929,0.000000,1110.308913,8660.409521
3722.533243,306.438199,888.247130,8808.450710
3722.533558,689.485948,-222.061783,9030.512492
3722.533873,766.095498,-592.164754,9474.636058
3722.534187,612.876398,-222.061783,9696.697840
3722.534502,0.000000,-74.020594,10288.862594
3722.534816,0.000000,-0.000000,10436.903782
3722.535131,0.000000,518.144159,10214.842000
3722.535445,-229.828649,1406.391290,9474.636058
3722.535760,-612.876398,1110.308913,8290.306550
3722.536075,-612.876398,444.123565,8734.430116
3722.536389,0.000000,-222.061783,9326.594869
3722.536704,76.609550,-962.267725,9474.636058
3722.537018,0.000000,-1184.329507,9770.718434
3722.537333,-459.657299,-814.226536,10807.006753
3722.537647,-689.485948,-370.102971,11029.068536
3722.537962,-153.219100,222.061783,10732.986159
3722.538277,76.609550,1184.329507,9770.718434
3722.538591,-383.047749,1628.453072,9400.615463
3722.538906,-229.828649,1480.411884,8882.471304
3722.539220,76.609550,1036.288319,8808.450710
3722.539535,612.876398,-0.000000,9252.574275
3722.539849,76.609550,-1110.308913,9400.615463
3722.540164,0.000000,-1110.308913,9992.780217
3722.540479,-229.828649,-666.185348,10807.006753
3722.540793,-306.438199,-296.082377,10732.986159
3722.541108,0.000000,-0.000000,10510.924376
3722.541422,-459.657299,592.164754,9770.718434
3722.541737,-612.876398,962.267725,8956.491898
3722.542052,-612.876398,518.144159,8808.450710
3722.542366,153.219100,222.061783,8734.430116
3722.542681,459.657299,-740.205942,8956.491898
3722.542995,459.657299,-740.205942,9400.615463
3722.543310,306.438199,-518.144159,9918.759623
3722.543624,306.438199,-222.061783,10436.903782
3722.543939,842.705048,-296.082377,11029.068536
3722.544254,306.438199,296.082377,9696.697840
3722.544568,153.219100,888.247130,9104.533087
3722.544883,0.000000,888.247130,8808.450710
3722.545197,0.000000,296.082377,8882.471304
3722.545512,306.438199,-518.144159,9104.533087
3722.545826,612.876398,-1480.411884,9030.512492
3722.546141,306.438199,-888.247130,10214.842000
3722.546456,306.438199,-740.205942,9844.739029
3722.546770,536.266849,-666.185348,10214.842000
3722.547085,919.314598,-0.000000,10732.986159
3722.547399,383.047749,370.102971,9622.677246
3722.547714,536.266849,814.226536,8586.388927
3722.548029,536.266849,1110.308913,8142.265362
3722.548343,919.314598,518.144159,8364.327145
3722.548658,995.924147,-296.082377,9030.512492
3722.548972,536.266849,-888.247130,8808.450710
3722.549287,0.000000,-962.267725,10140.821405
3722.549601,0.000000,-814.226536,10807.006753
3722.549916,0.000000,-518.144159,11177.109724
3722.550231,536.266849,-222.061783,10658.965565
3722.550545,153.219100,740.205942,9400.615463
3722.550860,0.000000,1480.411884,8882.471304
3722.551174,383.047749,1480.411884,8512.368333
3722.551489,1225.752797,592.164754,8808.450710
3722.551803,1685.410096,-0.000000,8882.471304
3722.552118,1149.143247,-0.000000,9252.574275
3722.552433,459.657299,-0.000000,9622.677246
3722.552747,306.438199,-0.000000,10288.862594
3722.553062,76.609550,-0.000000,10658.965565
3722.553376,-689.485948,-0.000000,9622.677246
3722.553691,-689.485948,1332.370696,8956.491898
3722.554006,-995.924147,1332.370696,8512.368333
3722.554320,-383.047749,666.185348,8956.491898
3722.554635,-306.438199,-0.000000,9770.718434
3722.554949,-229.828649,-666.185348,9918.759623
3722.555264,-536.266849,-592.164754,10436.903782
3722.555578,-995.924147,-148.041188,11177.109724
3722.555893,-459.657299,-0.000000,11325.150913
3722.556208,0.000000,1184.329507,10584.944971
3722.556522,-229.828649,1702.473667,9918.759623
3722.556837,-536.266849,2146.597232,9030.512492
3722.557151,0.000000,2146.597232,8660.409521
3722.557466,383.047749,1036.288319,8586.388927
3722.557780,612.876398,-296.082377,8956.491898
3722.558095,229.828649,-370.102971,9326.594869
3722.558410,-383.047749,-592.164754,9918.759623
3722.558724,-536.266849,-666.185348,10658.965565
3722.559039,-689.485948,-0.000000,10955.047942
3722.559353,-383.047749,444.123565,10214.842000
3722.559668,-612.876398,1036.288319,9400.615463
3722.559982,-766.095498,1258.350101,8586.388927
3722.560297,-536.266849,1258.350101,8734.430116
3722.560612,153.219100,-74.020594,9622.677246
3722.560926,229.828649,-222.061783,9918.759623
3722.561241,459.657299,-518.144159,10510.924376
3722.561555,76.609550,-222.061783,10510.924376
3722.561870,383.047749,-0.000000,10732.986159
3722.562185,306.438199,592.164754,10584.944971
3722.562499,459.657299,1036.288319,9770.718434
3722.562814,0.000000,1702.473667,8290.306550
3722.563128,306.438199,1110.308913,8438.347739
3722.563443,536.266849,-0.000000,8512.368333
3722.563757,842.705048,-740.205942,8882.471304
3722.564072,0.000000,-1480.411884,9474.636058
3722.564387,153.219100,-1554.432478,10288.862594
3722.564701,306.438199,-962.267725,9992.780217
3722.565016,612.876398,-0.000000,10732.986159
3722.565330,459.657299,296.082377,9696.697840
3722.565645,612.876398,1184.329507,9252.574275
3722.565959,536.266849,1702.473667,8364.327145
3722.566274,689.485948,1184.329507,7698.141797
3722.566589,1072.533697,-0.000000,8882.471304
3722.566903,1225.752797,-814.226536,9400.615463
3722.567218,995.924147,-962.267725,9918.759623
3722.567532,229.828649,-1036.288319,10214.842000
3722.567847,0.000000,-740.205942,11103.089130
3722.568162,0.000000,-0.000000,11177.109724
3722.568476,-306.438199,814.226536,9992.780217
3722.568791,-153.219100,592.164754,9104.533087
3722.569105,-229.828649,814.226536,8290.306550
3722.569420,306.438199,296.082377,8290.306550
3722.569734,919.314598,-814.226536,8882.471304
3722.570049,229.828649,-1406.391290,9474.636058
3722.570364,919.314598,-1184.329507,9696.697840
3722.570678,306.438199,-666.185348,9770.718434
3722.570993,306.438199,-222.061783,10436.903782
3722.571307,306.438199,148.041188,10510.924376
3722.571622,383.047749,1036.288319,9474.636058
3722.571936,-536.266849,1184.329507,9030.512492
3722.572251,-383.047749,518.144159,8586.388927
3722.572566,0.000000,-518.144159,9400.615463
3722.572880,0.000000,-1110.308913,9548.656652
3722.573195,-383.047749,-1628.453072,10288.862594
3722.573509,-383.047749,-740.205942,11103.089130
3722.573824,-383.047749,-666.185348,11103.089130
3722.574139,-306.438199,-74.020594,10807.006753
3722.574453,-229.828649,888.247130,10066.800811
3722.574768,-306.438199,1110.308913,8956.491898
3722.575082,0.000000,1110.308913,8438.347739
3722.575397,76.609550,666.185348,8512.368333
3722.575711,689.485948,-222.061783,9030.512492
3722.576026,1072.533697,-444.123565,9104.533087
3722.576341,153.219100,-814.226536,9622.677246
3722.576655,0.000000,-592.164754,10510.924376
3722.576970,0.000000,-0.000000,10362.883188
3722.577284,153.219100,740.205942,10140.821405
3722.577599,-459.657299,740.205942,9178.553681
3722.577913,-153.219100,1184.329507,8734.430116
3722.578228,0.000000,1036.288319,8438.347739
3722.578543,306.438199,370.102971,8438.347739
3722.578857,383.047749,-888.247130,9696.697840
3722.579172,153.219100,-814.226536,9770.718434
3722.579486,153.219100,-222.061783,10510.924376
3722.579801,-76.609550,370.102971,10807.006753
3722.580115,76.609550,444.123565,10362.883188
3722.580430,459.657299,1406.391290,9918.759623
3722.580745,383.047749,1702.473667,9104.533087
3722.581059,0.000000,1628.453072,8586.388927
3722.581374,536.266849,1036.288319,8364.327145
3722.581688,995.924147,222.061783,8734.430116
3722.582003,1225.752797,-814.226536,9252.574275
3722.582318,459.657299,-666.185348,10214.842000
3722.582632,76.609550,-222.061783,10658.965565
3722.582947,0.000000,-370.102971,10584.944971
3722.583261,0.000000,222.061783,10436.903782
3722.583576,306.438199,1480.411884,9918.759623
3722.583890,536.266849,1554.432478,9104.533087
3722.584205,229.828649,1406.391290,8882.471304
3722.584520,842.705048,666.185348,8512.368333
3722.584834,689.485948,-222.061783,9474.636058
3722.585149,689.485948,-296.082377,9474.636058
3722.585463,306.438199,-148.041188,10214.842000
3722.585778,-383.047749,-444.123565,10881.027347
3722.586092,0.000000,-148.041188,11177.109724
3722.586407,0.000000,222.061783,10362.883188
3722.586722,-459.657299,1036.288319,9844.739029
3722.587036,-689.485948,1110.308913,9252.574275
3722.587351,-229.828649,666.185348,8586.388927
3722.587665,383.047749,-0.000000,9178.553681
3722.587980,459.657299,-592.164754,9474.636058
3722.588295,383.047749,-370.102971,9622.677246
3722.588609,76.609550,-444.123565,10066.800811
3722.588924,536.266849,-0.000000,10214.842000
3722.589238,919.314598,518.144159,10288.862594
3722.589553,612.876398,1184.329507,9104.533087
3722.589867,153.219100,1332.370696,8660.409521
3722.590182,-306.438199,1184.329507,8216.285956
3722.590497,306.438199,370.102971,8734.430116
3722.590811,919.314598,-518.144159,8956.491898
3722.591126,76.609550,-1184.329507,9548.656652
3722.591440,-306.438199,-666.185348,10362.883188
3722.591755,-536.266849,-296.082377,10584.944971
3722.592069,-383.047749,-222.061783,10807.006753
3722.592384,-229.828649,666.185348,10362.883188
3722.592699,0.000000,1110.308913,9178.553681
3722.593013,-919.314598,1554.432478,8734.430116
3722.593328,0.000000,1184.329507,8734.430116
3722.593642,229.828649,-0.000000,9030.512492
3722.593957,459.657299,-592.164754,9400.615463
3722.594272,536.266849,-1036.288319,9770.718434
3722.594586,0.000000,-814.226536,10732.986159
3722.594901,0.000000,-148.041188,10658.965565
3722.595215,0.000000,296.082377,9770.718434
3722.595530,229.828649,740.205942,9548.656652
3722.595844,-689.485948,1258.350101,8290.306550
3722.596159,383.047749,518.144159,8660.409521
3722.596474,0.000000,74.020594,8068.244768
3722.596788,229.828649,-1110.308913,9104.533087
3722.597103,0.000000,-1110.308913,9326.594869
3722.597417,-153.219100,-1184.329507,9918.759623
3722.597732,-536.266849,-888.247130,11547.212695
3722.598046,-383.047749,-592.164754,11029.068536
3722.598361,-383.047749,296.082377,10658.965565
3722.598676,-306.438199,888.247130,9548.656652
3722.598990,-383.047749,1110.308913,9474.636058
3722.599305,76.609550,1184.329507,8882.471304
3722.599619,766.095498,296.082377,8808.450710
3722.599934,1149.143247,-740.205942,9252.574275
3722.600249,1072.533697,-888.247130,9548.656652
3722.600563,0.000000,-518.144159,9844.739029
3722.600878,153.219100,-444.123565,10658.965565
3722.601192,229.828649,-0.000000,10510.924376
3722.601507,306.438199,296.082377,9696.697840
3722.601821,76.609550,888.247130,8956.491898
3722.602136,-383.047749,740.205942,8586.388927
3722.602451,-153.219100,148.041188,8142.265362
3722.602765,-306.438199,-666.185348,8808.450710
3722.603080,0.000000,-888.247130,9548.656652
3722.603394,0.000000,-740.205942,9548.656652
3722.603709,-229.828649,-444.123565,10584.944971
3722.604023,-306.438199,-296.082377,10881.027347
3722.604338,-153.219100,444.123565,11029.068536
3722.604653,0.000000,1258.350101,9844.739029
3722.604967,-612.876398,1480.411884,9178.553681
3722.605282,-612.876398,1184.329507,9252.574275
3722.605596,612.876398,222.061783,9178.553681
3722.605911,536.266849,-740.205942,8734.430116
3722.606226,536.266849,-888.247130,9400.615463
3722.606540,153.219100,-962.267725,9992.780217
3722.606855,0.000000,-444.123565,10584.944971
3722.607169,229.828649,-370.102971,10288.862594
3722.607484,689.485948,148.041188,9696.697840
3722.607798,766.095498,962.267725,8364.327145
3722.608113,459.657299,1258.350101,7772.162391
3722.608428,995.924147,888.247130,8142.265362
3722.608742,842.705048,-370.102971,8808.450710
3722.609057,995.924147,-518.144159,8734.430116
3722.609371,459.657299,-814.226536,9548.656652
3722.609686,153.219100,-370.102971,10510.924376
3722.610000,612.876398,-296.082377,10955.047942
3722.610315,229.828649,-0.000000,10955.047942
3722.610630,0.000000,962.267725,10066.800811
3722.610944,-459.657299,1554.432478,9474.636058
3722.611259,-306.438199,1924.535449,8882.471304
3722.611573,306.438199,666.185348,8586.388927
3722.611888,1072.533697,-222.061783,9326.594869
3722.612202,919.314598,-888.247130,9326.594869
3722.612517,536.266849,-370.102971,9770.718434
3722.612832,153.219100,-0.000000,10362.883188
3722.613146,459.657299,666.185348,10658.965565
3722.613461,306.438199,666.185348,10066.800811
3722.613775,0.000000,1258.350101,8734.430116
3722.614090,0.000000,1406.391290,8734.430116
3722.614405,0.000000,740.205942,9030.512492
3722.614719,153.219100,296.082377,9030.512492
3722.615034,229.828649,-814.226536,9844.739029
3722.615348,0.000000,-814.226536,10362.883188
3722.615663,-306.438199,-296.082377,11251.130318
3722.615977,0.000000,-0.000000,11769.274478
3722.616292,-153.219100,-0.000000,11103.089130
3722.616607,0.000000,1554.432478,10140.821405
3722.616921,153.219100,1776.494261,8882.471304
3722.617236,0.000000,1998.556043,8512.368333
3722.617550,612.876398,814.226536,8512.368333
3722.617865,919.314598,-296.082377,8660.409521
3722.618179,995.924147,-666.185348,9178.553681
3722.618494,689.485948,-518.144159,9622.677246
3722.618809,153.219100,-0.000000,10066.800811
3722.619123,-306.438199,-148.041188,10436.903782
3722.619438,-689.485948,370.102971,10436.903782
3722.619752,-536.266849,666.185348,9474.636058
3722.620067,-612.876398,518.144159,8512.368333
3722.620382,-229.828649,518.144159,8734.430116
3722.620696,0.000000,-74.020594,9326.594869
3722.621011,0.000000,-740.205942,9548.656652
3722.621325,229.828649,-814.226536,9844.739029
3722.621640,0.000000,-74.020594,10214.842000
3722.621954,76.609550,296.082377,10584.944971
3722.622269,536.266849,370.102971,10955.047942
3722.622584,459.657299,888.247130,9474.636058
3722.622898,76.609550,1184.329507,8734.430116
3722.623213,229.828649,1258.350101,8290.306550
3722.623527,229.828649,444.123565,8660.409521
3722.623842,919.314598,-444.123565,8956.491898
3722.624156,383.047749,-1258.350101,8808.450710
3722.624471,0.000000,-1110.308913,9252.574275
3722.624786,-76.609550,-888.247130,10066.800811
3722.625100,-536.266849,-370.102971,10955.047942
3722.625415,-766.095498,-0.000000,10214.842000
3722.625729,-766.095498,444.123565,9474.636058
3722.626044,-689.485948,666.185348,8586.388927
3722.626359,-612.876398,962.267725,8734.430116
3722.626673,76.609550,-0.000000,8586.388927
3722.626988,0.000000,-518.144159,9252.574275
3722.627302,383.047749,-666.185348,9622.677246
3722.627617,-306.438199,-0.000000,10214.842000
3722.627931,-229.828649,370.102971,10584.944971
3722.628246,-383.047749,518.144159,11103.089130
3722.628561,-536.266849,740.205942,10214.842000
3722.628875,-766.095498,740.205942,9622.677246
3722.629190,-919.314598,1110.308913,8660.409521
3722.629504,-612.876398,592.164754,8882.471304
3722.629819,0.000000,-222.061783,9178.553681
3722.630133,-306.438199,-1184.329507,9474.636058
3722.630448,-306.438199,-1036.288319,9992.780217
3722.630763,0.000000,-888.247130,10955.047942
3722.631077,-536.266849,-74.020594,10732.986159
3722.631392,153.219100,-0.000000,10807.006753
3722.631706,229.828649,740.205942,9474.636058
3722.632021,153.219100,1628.453072,8512.368333
3722.632336,383.047749,1036.288319,8586.388927
3722.632650,766.095498,444.123565,8734.430116
3722.632965,919.314598,-370.102971,9178.553681
3722.633279,995.924147,-666.185348,9548.656652
3722.633594,459.657299,-814.226536,10362.883188
3722.633908,459.657299,-518.144159,11325.150913
3722.634223,1072.533697,-0.000000,10955.047942
3722.634538,689.485948,-0.000000,10436.903782
3722.634852,536.266849,888.247130,9622.677246
3722.635167,459.657299,1332.370696,8512.368333
3722.635481,612.876398,962.267725,8364.327145
3722.635796,1302.362347,-0.000000,9178.553681
3722.636110,1532.190996,-370.102971,9252.574275
3722.636425,995.924147,-814.226536,9326.594869
3722.636740,229.828649,-666.185348,10140.821405
3722.637054,536.266849,-0.000000,10658.965565
3722.637369,612.876398,296.082377,10288.862594
3722.637683,306.438199,962.267725,9400.615463
3722.637998,76.609550,1110.308913,9104.533087
3722.638312,0.000000,1332.370696,8734.430116
3722.638627,766.095498,148.041188,8364.327145
3722.638942,689.485948,-222.061783,9326.594869
3722.639256,0.000000,-888.247130,9474.636058
3722.639571,76.609550,-1036.288319,9844.739029
3722.639885,459.657299,-444.123565,10732.986159
3722.640200,229.828649,-296.082377,11325.150913
3722.640515,0.000000,74.020594,9992.780217
3722.640829,-459.657299,1332.370696,9326.594869
3722.641144,-306.438199,1406.391290,8660.409521
3722.641458,-306.438199,888.247130,8586.388927
3722.641773,842.705048,148.041188,8438.347739
3722.642087,536.266849,-444.123565,9178.553681
3722.642402,229.828649,-740.205942,9400.615463
3722.642717,-306.438199,-222.061783,9918.759623
3722.643031,-229.828649,-0.000000,10510.924376
3722.643346,-229.828649,-0.000000,10436.903782
3722.643660,-306.438199,814.226536,10066.800811
3722.643975,-689.485948,1184.329507,8660.409521
3722.644289,-919.314598,962.267725,8660.409521
3722.644604,-383.047749,740.205942,9030.512492
3722.644919,76.609550,-518.144159,9474.636058
3722.645233,-153.219100,-370.102971,9770.718434
3722.645548,0.000000,-592.164754,10658.965565
3722.645862,-612.876398,-0.000000,10658.965565
3722.646177,0.000000,-0.000000,10584.944971
3722.646492,689.485948,962.267725,10807.006753
3722.646806,-306.438199,1036.288319,9844.739029
3722.647121,-612.876398,1332.370696,9178.553681
3722.647435,-383.047749,1406.391290,8586.388927
3722.647750,306.438199,222.061783,9104.533087
3722.648064,459.657299,-592.164754,9474.636058
3722.648379,153.219100,-518.144159,9696.697840
3722.648694,-383.047749,-370.102971,10288.862594
3722.649008,-153.219100,-444.123565,10732.986159
3722.649323,76.609550,-0.000000,10658.965565
3722.649637,459.657299,1258.350101,10066.800811
3722.649952,229.828649,1110.308913,9400.615463
3722.650266,76.609550,1332.370696,8512.368333
3722.650581,306.438199,1110.308913,8216.285956
3722.650896,842.705048,-0.000000,8882.471304
3722.651210,1149.143247,-518.144159,9474.636058
3722.651525,766.095498,-888.247130,9992.780217
3722.651839,229.828649,-296.082377,10066.800811
3722.652154,383.047749,148.041188,10955.047942
3722.652469,229.828649,518.144159,10214.842000
3722.652783,76.609550,814.226536,9918.759623
3722.653098,229.828649,1332.370696,8956.491898
3722.653412,229.828649,1036.288319,8290.306550
3722.653727,612.876398,296.082377,8364.327145
3722.654041,995.924147,-1036.288319,9178.553681
3722.654356,306.438199,-1332.370696,9622.677246
3722.654671,306.438199,-1258.350101,9844.739029
3722.654985,306.438199,-518.144159,10436.903782
3722.655300,612.876398,-74.020594,10436.903782
3722.655614,995.924147,814.226536,10140.821405
3722.655929,383.047749,814.226536,8882.471304
3722.656243,229.828649,1184.329507,8364.327145
3722.656558,459.657299,740.205942,8290.306550
3722.656873,536.266849,-0.000000,9104.533087
3722.657187,459.657299,-666.185348,9178.553681
3722.657502,0.000000,-1406.391290,10140.821405
3722.657816,-229.828649,-666.185348,10584.944971
3722.658131,-536.266849,-296.082377,10881.027347
3722.658446,-459.657299,666.185348,10362.883188
3722.658760,-306.438199,592.164754,10584.944971
3722.659075,-536.266849,962.267725,9030.512492
3722.659389,-306.438199,1406.391290,8364.327145
3722.659704,0.000000,814.226536,8364.327145
3722.660018,383.047749,-518.144159,9178.553681
3722.660333,229.828649,-444.123565,9400.615463
3722.660647,-76.609550,-592.164754,9918.759623
3722.660962,-383.047749,-148.041188,10510.924376
3722.661276,-306.438199,-74.020594,10807.006753
3722.661591,0.000000,-0.000000,10362.883188
3722.661905,-689.485948,666.185348,9548.656652
3722.662220,-842.705048,888.247130,8808.450710
3722.662534,-459.657299,814.226536,8882.471304
3722.662849,229.828649,222.061783,8956.491898
3722.663163,689.485948,-296.082377,9178.553681
3722.663478,459.657299,-518.144159,9474.636058
3722.663792,0.000000,-666.185348,9844.739029
3722.664107,0.000000,-0.000000,10807.006753
3722.664421,229.828649,222.061783,10732.986159
3722.664736,0.000000,740.205942,9474.636058
3722.665050,0.000000,592.164754,9326.594869
3722.665365,-306.438199,814.226536,8364.327145
3722.665679,0.000000,148.041188,8808.450710
3722.665994,306.438199,-518.144159,9252.574275
3722.666308,229.828649,-962.267725,9770.718434
3722.666623,153.219100,-814.226536,10140.821405
3722.666937,-76.609550,-592.164754,10140.821405
3722.667252,153.219100,-0.000000,9992.780217
3722.667566,229.828649,444.123565,10658.965565
3722.667881,306.438199,962.267725,9696.697840
3722.668195,0.000000,1184.329507,9104.533087
3722.668510,0.000000,1628.453072,8734.430116
3722.668824,536.266849,370.102971,8364.327145
3722.669139,383.047749,-222.061783,9030.512492
3722.669453,153.219100,-666.185348,9696.697840
3722.669768,-536.266849,-814.226536,10658.965565
3722.670082,-306.438199,-370.102971,10881.027347
3722.670397,-229.828649,-0.000000,10881.027347
3722.670711,-153.219100,444.123565,10214.842000
3722.671026,0.000000,1184.329507,9178.553681
3722.671340,0.000000,1480.411884,8660.409521
3722.671655,306.438199,444.123565,7920.203579
3722.671969,1072.533697,222.061783,8512.368333
3722.672284,842.705048,-444.123565,8808.450710
3722.672598,459.657299,-666.185348,9474.636058
3722.672913,0.000000,-518.144159,10288.862594
3722.673227,229.828649,-370.102971,10584.944971
3722.673542,76.609550,74.020594,10066.800811
3722.673856,0.000000,296.082377,9474.636058
3722.674171,-383.047749,740.205942,9104.533087
3722.674485,76.609550,962.267725,8438.347739
3722.674800,0.000000,444.123565,8438.347739
3722.675114,229.828649,-444.123565,9252.574275
3722.675429,0.000000,-962.267725,9622.677246
3722.675743,76.609550,-592.164754,9770.718434
3722.676058,-229.828649,-444.123565,10658.965565
3722.676372,76.609550,-0.000000,10732.986159
3722.676687,76.609550,222.061783,10436.903782
3722.677001,383.047749,1258.350101,9326.594869
3722.677316,-229.828649,1776.494261,8956.491898
3722.677630,306.438199,962.267725,8512.368333
3722.677945,459.657299,444.123565,9326.594869
3722.678259,919.314598,-444.123565,9474.636058
3722.678574,76.609550,-962.267725,9992.780217
3722.678888,0.000000,-370.102971,10807.006753
3722.679203,306.438199,-222.061783,10881.027347
3722.679517,383.047749,-0.000000,10362.883188
3722.679832,153.219100,518.144159,9918.759623
3722.680146,0.000000,1480.411884,9178.553681
3722.680461,0.000000,1036.288319,9326.594869
3722.680775,-383.047749,740.205942,9030.512492
3722.681090,689.485948,-0.000000,9696.697840
3722.681404,995.924147,-148.041188,9770.718434
3722.681719,536.266849,-444.123565,9770.718434
3722.682033,76.609550,-74.020594,10807.006753
3722.682348,76.609550,-0.000000,10584.944971
3722.682662,919.314598,518.144159,9918.759623
3722.682977,153.219100,1184.329507,9178.553681
3722.683291,153.219100,1406.391290,8734.430116
3722.683606,0.000000,888.247130,8512.368333
3722.683920,919.314598,-148.041188,8956.491898
3722.684235,919.314598,-888.247130,9474.636058
3722.684549,383.047749,-518.144159,9622.677246
3722.684864,0.000000,-740.205942,10066.800811
3722.685178,76.609550,-444.123565,10658.965565
3722.685493,306.438199,370.102971,10214.842000
3722.685807,383.047749,370.102971,9844.739029
3722.686122,0.000000,1628.453072,8734.430116
3722.686436,0.000000,1998.556043,8216.285956
3722.686751,0.000000,1110.308913,8290.306550
3722.687065,689.485948,-0.000000,8808.450710
3722.687380,383.047749,-444.123565,9696.697840
3722.687694,536.266849,-666.185348,9770.718434
3722.688009,0.000000,-592.164754,10732.986159
3722.688323,0.000000,-0.000000,11103.089130
3722.688638,-229.828649,592.164754,10658.965565
3722.688952,-459.657299,666.185348,9548.656652
3722.689267,-229.828649,1332.370696,9030.512492
3722.689581,-306.438199,1258.350101,9104.533087
3722.689896,383.047749,222.061783,8882.471304
3722.690210,766.095498,-518.144159,9548.656652
3722.690525,919.314598,-222.061783,9918.759623
3722.690839,229.828649,-444.123565,10140.821405
3722.691154,306.438199,-0.000000,10658.965565
3722.691468,536.266849,296.082377,10584.944971
3722.691783,459.657299,1036.288319,9696.697840
3722.692097,229.828649,1036.288319,8882.471304
3722.692412,-383.047749,1554.432478,8438.347739
3722.692726,-306.438199,740.205942,8882.471304
3722.693041,0.000000,-74.020594,9252.574275
3722.693355,0.000000,-1184.329507,9844.739029
3722.693670,-536.266849,-962.267725,10362.883188
3722.693984,-459.657299,-888.247130,10732.986159
3722.694299,-689.485948,-518.144159,11029.068536
3722.694613,-459.657299,-222.061783,11177.109724
3722.694928,-383.047749,814.226536,9622.677246
3722.695242,-766.095498,1332.370696,8808.450710
3722.695557,-306.438199,1258.350101,8364.327145
3722.695871,153.219100,222.061783,8660.409521
3722.696186,459.657299,-444.123565,8660.409521
3722.696500,229.828649,-1110.308913,9104.533087
3722.696815,0.000000,-1332.370696,9696.697840
3722.697129,306.438199,-444.123565,10584.944971
3722.697444,0.000000,-0.000000,10066.800811
3722.697758,0.000000,296.082377,9696.697840
3722.698073,-306.438199,814.226536,8882.471304
3722.698387,-459.657299,962.267725,8364.327145
3722.698702,-229.828649,518.144159,8882.471304
3722.699016,153.219100,-222.061783,9326.594869
3722.699331,229.828649,-1036.288319,9844.739029
3722.699645,76.609550,-1332.370696,9844.739029
3722.699960,0.000000,-962.267725,10807.006753
3722.700274,0.000000,-296.082377,11325.150913
3722.700589,536.266849,222.061783,10955.047942
3722.700903,306.438199,814.226536,9474.636058
3722.701218,383.047749,1110.308913,8808.450710
3722.701532,459.657299,1258.350101,8512.368333
3722.701847,919.314598,296.082377,8216.285956
3722.702161,995.924147,-444.123565,8882.471304
3722.702476,536.266849,-814.226536,9326.594869
3722.702790,0.000000,-1332.370696,9548.656652
3722.703105,76.609550,-740.205942,10288.862594
3722.703419,-536.266849,-222.061783,10732.986159
3722.703734,0.000000,-0.000000,9992.780217
3722.704048,-229.828649,370.102971,9474.636058
3722.704363,-766.095498,1110.308913,9178.553681
3722.704677,-306.438199,962.267725,9326.594869
3722.704992,383.047749,-0.000000,8734.430116
3722.705306,536.266849,-666.185348,9178.553681
3722.705621,689.485948,-592.164754,9992.780217
3722.705935,383.047749,-222.061783,9992.780217
3722.706250,229.828649,222.061783,10288.862594
3722.706564,536.266849,296.082377,10732.986159
3722.706879,536.266849,1258.350101,9474.636058
3722.707193,153.219100,1110.308913,8512.368333
3722.707508,-383.047749,1184.329507,8438.347739
3722.707822,76.609550,370.102971,8882.471304
3722.708137,0.000000,-222.061783,9030.512492
3722.708451,229.828649,-962.267725,9548.656652
3722.708766,0.000000,-888.247130,10362.883188
3722.709080,-229.828649,-518.144159,10214.842000
3722.709395,459.657299,-0.000000,10732.986159
3722.709709,536.266849,814.226536,10584.944971
3722.710024,383.047749,1258.350101,9326.594869
3722.710338,306.438199,1998.556043,8586.388927
3722.710653,459.657299,1924.535449,8290.306550
3722.710967,689.485948,1036.288319,8956.491898
3722.711282,766.095498,370.102971,9548.656652
3722.711596,229.828649,-148.041188,9770.718434
3722.711911,-229.828649,-74.020594,10510.924376
3722.712225,-459.657299,-74.020594,11029.068536
3722.712540,0.000000,-0.000000,11547.212695
3722.712854,-689.485948,592.164754,11103.089130
3722.713169,-612.876398,1110.308913,9548.656652
3722.713483,-766.095498,1184.329507,8734.430116
3722.713798,76.609550,1184.329507,9178.553681
3722.714112,383.047749,148.041188,9104.533087
3722.714427,459.657299,-74.020594,9400.615463
3722.714741,-229.828649,-370.102971,9474.636058
3722.715056,0.000000,-0.000000,10362.883188
3722.715370,0.000000,-0.000000,10807.006753
3722.715685,0.000000,740.205942,10362.883188
3722.715999,-306.438199,1110.308913,9474.636058
3722.716314,-459.657299,1406.391290,8956.491898
3722.716628,-612.876398,962.267725,8660.409521
3722.716943,229.828649,74.020594,8956.491898
3722.717257,0.000000,-1184.329507,9326.594869
3722.717572,0.000000,-1480.411884,9770.718434
3722.717886,-306.438199,-962.267725,10362.883188
3722.718201,0.000000,-296.082377,10436.903782
3722.718515,0.000000,-148.041188,11177.109724
3722.718830,306.438199,592.164754,10436.903782
3722.719144,0.000000,1036.288319,8586.388927
3722.719459,383.047749,1480.411884,7994.224174
3722.719773,919.314598,888.247130,8068.244768
3722.720088,1915.238745,-74.020594,8512.368333
3722.720402,1072.533697,-1184.329507,8808.450710
3722.720717,612.876398,-1110.308913,9474.636058
3722.721031,0.000000,-1036.288319,9844.739029
3722.721346,229.828649,-518.144159,10584.944971
3722.721660,153.219100,-444.123565,10362.883188
3722.721975,-229.828649,-222.061783,9844.739029
3722.722289,-766.095498,-0.000000,9252.574275
3722.722604,-612.876398,444.123565,8586.388927
3722.722918,0.000000,-0.000000,8882.471304
3722.723233,306.438199,-962.267725,9104.533087
3722.723547,153.219100,-1406.391290,9844.739029
3722.723862,306.438199,-666.185348,9992.780217
3722.724176,306.438199,-0.000000,10214.842000
3722.724491,383.047749,-0.000000,10362.883188
3722.724805,612.876398,370.102971,9992.780217
3722.725120,459.657299,888.247130,9252.574275
3722.725434,0.000000,1036.288319,8512.368333
3722.725749,76.609550,370.102971,8586.388927
3722.726063,306.438199,-444.123565,8956.491898
3722.726378,0.000000,-1776.494261,9474.636058
3722.726692,0.000000,-1480.411884,9918.759623
3722.727007,-459.657299,-1184.329507,10214.842000
3722.727321,0.000000,-592.164754,10584.944971
3722.727636,612.876398,-74.020594,10436.903782
3722.727950,0.000000,814.226536,9696.697840
3722.728265,0.000000,1258.350101,8660.409521
3722.728579,0.000000,1480.411884,8290.306550
3722.728894,612.876398,518.144159,8660.409521
3722.729208,842.705048,-0.000000,8808.450710
3722.729523,229.828649,-666.185348,9622.677246
3722.729837,153.219100,-666.185348,10214.842000
3722.730152,-229.828649,-296.082377,10658.965565
3722.730466,-229.828649,-74.020594,10881.027347
3722.730781,-459.657299,592.164754,10807.006753
3722.731095,-306.438199,740.205942,9844.739029
3722.731410,-689.485948,1480.411884,8882.471304
3722.731724,-536.266849,962.267725,8660.409521
3722.732039,306.438199,-148.041188,9104.533087
3722.732353,383.047749,-370.102971,9252.574275
3722.732668,383.047749,-740.205942,9992.780217
3722.732982,153.219100,-592.164754,9992.780217
3722.733297,306.438199,-0.000000,10140.821405
3722.733611,536.266849,962.267725,10436.903782
3722.733926,459.657299,1184.329507,9918.759623
3722.734240,536.266849,1850.514855,9474.636058
3722.734555,76.609550,1850.514855,8438.347739
3722.734869,153.219100,1110.308913,8660.409521
3722.735184,229.828649,-0.000000,9400.615463
3722.735498,0.000000,-592.164754,9548.656652
3722.735813,-383.047749,-592.164754,10584.944971
3722.736127,-383.047749,-518.144159,10881.027347
3722.736442,-306.438199,-222.061783,11177.109724
3722.736756,-459.657299,296.082377,10214.842000
3722.737071,-383.047749,1184.329507,9326.594869
3722.737385,0.000000,1850.514855,9252.574275
3722.737700,0.000000,1406.391290,8438.347739
3722.738014,612.876398,370.102971,8216.285956
3722.738329,842.705048,-0.000000,9326.594869
3722.738643,842.705048,-148.041188,9474.636058
3722.738958,459.657299,-0.000000,9622.677246
3722.739272,306.438199,-0.000000,10436.903782
3722.739587,536.266849,-148.041188,10436.903782
3722.739901,306.438199,666.185348,9474.636058
3722.740216,-383.047749,518.144159,8660.409521
3722.740530,-766.095498,1332.370696,8586.388927
3722.740845,-306.438199,592.164754,8882.471304
3722.741159,76.609550,-74.020594,9326.594869
3722.741474,0.000000,-740.205942,9474.636058
3722.741788,0.000000,-814.226536,10288.862594
3722.742103,-459.657299,-592.164754,10436.903782
3722.742417,0.000000,-148.041188,10732.986159
3722.742732,229.828649,666.185348,10658.965565
3722.743046,-229.828649,1110.308913,9548.656652
3722.743361,229.828649,1554.432478,9104.533087
3722.743675,0.000000,1554.432478,8512.368333
3722.743990,0.000000,592.164754,8660.409521
3722.744304,459.657299,-814.226536,9326.594869
3722.744619,0.000000,-888.247130,9844.739029
3722.744933,-229.828649,-888.247130,10881.027347
3722.745248,-459.657299,-518.144159,10658.965565
3722.745562,-383.047749,-518.144159,10881.027347
3722.745877,-459.657299,-0.000000,10732.986159
3722.746191,-383.047749,666.185348,9474.636058
3722.746506,-612.876398,1036.288319,9178.553681
3722.746820,0.000000,814.226536,8512.368333
3722.747135,995.924147,-0.000000,8586.388927
3722.747449,1302.362347,-814.226536,8956.491898
3722.747764,1149.143247,-888.247130,9474.636058
3722.748078,459.657299,-444.123565,10362.883188
3722.748393,383.047749,-0.000000,10881.027347
3722.748707,229.828649,444.123565,10584.944971
3722.749022,383.047749,740.205942,9548.656652
3722.749336,0.000000,666.185348,8882.471304
3722.749651,0.000000,518.144159,8660.409521
3722.749965,229.828649,-296.082377,8660.409521
3722.750280,306.438199,-1406.391290,8882.471304
3722.750594,383.047749,-1554.432478,9252.574275
3722.750909,0.000000,-1184.329507,9770.718434
3722.751223,229.828649,-814.226536,10362.883188
3722.751538,306.438199,-296.082377,10510.924376
3722.751852,766.095498,148.041188,9770.718434
3722.752167,689.485948,518.144159,9104.533087
3722.752481,0.000000,1702.473667,7698.141797
3722.752796,1072.533697,592.164754,9252.574275
3722.753110,919.314598,518.144159,8438.347739
3722.753425,536.266849,-888.247130,8808.450710
3722.753739,689.485948,-1258.350101,9992.780217
3722.754054,229.828649,-370.102971,10214.842000
3722.754368,229.828649,-148.041188,11177.109724
3722.754683,229.828649,-222.061783,10584.944971
3722.754997,76.609550,666.185348,9326.594869
3722.755312,153.219100,888.247130,9252.574275
3722.755626,153.219100,740.205942,8512.368333
3722.755941,536.266849,444.123565,9104.533087
3722.756255,689.485948,-0.000000,8512.368333
3722.756570,612.876398,-1258.350101,9474.636058
3722.756884,0.000000,-888.247130,9770.718434
3722.757199,229.828649,-518.144159,10584.944971
3722.757513,383.047749,-0.000000,10658.965565
3722.757828,306.438199,444.123565,10362.883188
3722.758142,306.438199,1702.473667,9252.574275
3722.758457,76.609550,1702.473667,8438.347739
3722.758771,76.609550,1480.411884,8660.409521
3722.759086,76.609550,518.144159,9104.533087
3722.759400,0.000000,-74.020594,9326.594869
3722.759715,-153.219100,-518.144159,9844.739029
3722.760029,-612.876398,-666.185348,10732.986159
3722.760344,-612.876398,-296.082377,11177.109724
3722.760658,-306.438199,370.102971,10955.047942
3722.760972,-536.266849,740.205942,10066.800811
3722.761287,-689.485948,1110.308913,9104.533087
3722.761601,-536.266849,1924.535449,8438.347739
3722.761916,-306.438199,1258.350101,8216.285956
3722.762230,229.828649,222.061783,8882.471304
3722.762545,-153.219100,-296.082377,9474.636058
3722.762859,-459.657299,-518.144159,9548.656652
3722.763174,-536.266849,-444.123565,10807.006753
3722.763488,-612.876398,-222.061783,11251.130318
3722.763803,-536.266849,740.205942,10436.903782
3722.764117,-689.485948,1184.329507,9770.718434
3722.764432,-995.924147,1850.514855,9474.636058
3722.764746,-383.047749,1258.350101,9030.512492
3722.765061,0.000000,518.144159,8808.450710
3722.765375,76.609550,-666.185348,9104.533087
3722.765690,0.000000,-740.205942,9474.636058
3722.766004,-306.438199,-370.102971,10140.821405
3722.766319,-383.047749,-148.041188,10732.986159
3722.766633,0.000000,222.061783,10955.047942
3722.766948,76.609550,666.185348,10436.903782
3722.767262,0.000000,444.123565,8956.491898
3722.767577,-306.438199,1110.308913,9104.533087
3722.767891,229.828649,666.185348,8956.491898
3722.768206,459.657299,-0.000000,8808.450710
3722.768520,766.095498,-888.247130,9030.512492
3722.768835,-229.828649,-888.247130,10066.800811
3722.769149,612.876398,-814.226536,10140.821405
3722.769464,689.485948,-518.144159,10510.924376
3722.769778,766.095498,-0.000000,10288.862594
3722.770093,766.095498,740.205942,9622.677246
3722.770407,919.314598,962.267725,8512.368333
3722.770722,459.657299,666.185348,8882.471304
3722.771036,1072.533697,-0.000000,8586.388927
3722.771351,842.705048,-814.226536,8956.491898
3722.771665,536.266849,-962.267725,9548.656652
3722.771980,612.876398,-962.267725,9548.656652
3722.772294,306.438199,-666.185348,10214.842000
3722.772609,612.876398,-296.082377,10510.924376
3722.772923,536.266849,592.164754,10140.821405
3722.773238,536.266849,1036.288319,8586.388927
3722.773552,612.876398,1332.370696,8586.388927
3722.773867,766.095498,814.226536,8734.430116
3722.774181,842.705048,-0.000000,8512.368333
3722.774496,1072.533697,-592.164754,9178.553681
3722.774810,306.438199,-1036.288319,9326.594869
3722.775125,612.876398,-1036.288319,10066.800811
3722.775439,76.609550,-444.123565,11029.068536
3722.775754,0.000000,-0.000000,10436.903782
3722.776068,0.000000,666.185348,9844.739029
3722.776383,-383.047749,814.226536,9030.512492
3722.776697,0.000000,1258.350101,8512.368333
3722.777012,76.609550,592.164754,8364.327145
3722.777326,306.438199,-74.020594,8364.327145
3722.777641,76.609550,-296.082377,9696.697840
3722.777955,306.438199,-296.082377,10140.821405
3722.778270,-229.828649,-518.144159,10584.944971
3722.778584,-919.314598,-370.102971,11029.068536
3722.778899,-766.095498,-74.020594,10436.903782
3722.779213,-1149.143247,814.226536,9770.718434
3722.779528,-1225.752797,1184.329507,9178.553681
3722.779842,-995.924147,740.205942,9104.533087
3722.780157,-612.876398,-0.000000,8882.471304
3722.780471,-536.266849,-740.205942,9326.594869
3722.780786,-766.095498,-814.226536,9992.780217
3722.781100,-612.876398,-962.267725,10288.862594
3722.781415,-842.705048,-370.102971,10881.027347
3722.781729,0.000000,-0.000000,10881.027347
3722.782044,76.609550,888.247130,9844.739029
3722.782358,0.000000,1036.288319,9474.636058
3722.782673,0.000000,1258.350101,8808.450710
3722.782987,229.828649,1036.288319,8734.430116
3722.783302,76.609550,370.102971,8512.368333
3722.783616,229.828649,-296.082377,9326.594869
3722.783931,153.219100,-592.164754,9326.594869
3722.784245,306.438199,-1258.350101,9696.697840
3722.784560,229.828649,-814.226536,10658.965565
3722.784874,0.000000,148.041188,10510.924376
3722.785189,0.000000,518.144159,9696.697840
3722.785503,-459.657299,1258.350101,9104.533087
3722.785818,-153.219100,1110.308913,9178.553681
3722.786132,383.047749,370.102971,8882.471304
3722.786447,766.095498,-592.164754,9474.636058
3722.786761,766.095498,-814.226536,9696.697840
3722.787076,689.485948,-888.247130,10140.821405
3722.787390,76.609550,-0.000000,10658.965565
3722.787705,766.095498,666.185348,10288.862594
3722.788019,842.705048,1258.350101,9474.636058
3722.788334,459.657299,1332.370696,8808.450710
3722.788648,459.657299,1258.350101,8512.368333
3722.788963,689.485948,814.226536,8364.327145
3722.789278,689.485948,-296.082377,8882.471304
3722.789592,306.438199,-888.247130,9326.594869
3722.789907,0.000000,-1628.453072,9992.780217
3722.790221,0.000000,-1628.453072,10881.027347
3722.790536,0.000000,-814.226536,11103.089130
3722.790850,0.000000,148.041188,10658.965565
3722.791165,306.438199,888.247130,9844.739029
3722.791479,0.000000,1554.432478,8808.450710
3722.791794,0.000000,1554.432478,8142.265362
3722.792108,842.705048,666.185348,8438.347739
3722.792423,1378.971896,-74.020594,9030.512492
3722.792737,1225.752797,-444.123565,9400.615463
3722.793052,612.876398,-148.041188,9770.718434
3722.793366,153.219100,-740.205942,10955.047942
3722.793681,229.828649,-222.061783,10955.047942
3722.793995,0.000000,370.102971,10658.965565
3722.794310,-306.438199,740.205942,9474.636058
3722.794624,-612.876398,962.267725,8808.450710
3722.794939,-612.876398,592.164754,8956.491898
3722.795253,0.000000,-222.061783,9104.533087
3722.795568,-229.828649,-370.102971,9474.636058
3722.795882,-306.438199,-814.226536,9844.739029
3722.796197,-153.219100,-740.205942,9992.780217
3722.796511,153.219100,-0.000000,10436.903782
3722.796826,459.657299,592.164754,10881.027347
3722.797140,-153.219100,962.267725,9696.697840
3722.797455,0.000000,1554.432478,9030.512492
3722.797769,-306.438199,1406.391290,8512.368333
3722.798084,0.000000,888.247130,8660.409521
3722.798398,383.047749,-296.082377,9400.615463
3722.798713,-153.219100,-444.123565,9104.533087
3722.799027,-459.657299,-1036.288319,9992.780217
3722.799342,-689.485948,-814.226536,10436.903782
3722.799656,-383.047749,-296.082377,10732.986159
3722.799971,-306.438199,518.144159,10362.883188
3722.800285,-766.095498,888.247130,9474.636058
3722.800600,-536.266849,1332.370696,8956.491898
3722.800914,-536.266849,740.205942,8734.430116
3722.801229,76.609550,370.102971,8956.491898
3722.801543,306.438199,-814.226536,9178.553681
3722.801858,306.438199,-666.185348,9844.739029
3722.802172,0.000000,-518.144159,9992.780217
3722.802487,306.438199,-148.041188,10584.944971
3722.802801,306.438199,518.144159,10510.924376
3722.803116,842.705048,1406.391290,9474.636058
3722.803430,766.095498,1406.391290,8660.409521
3722.803745,536.266849,1406.391290,7846.182985
3722.804059,612.876398,518.144159,8586.388927
3722.804374,995.924147,-814.226536,9030.512492
3722.804688,459.657299,-1184.329507,9770.718434
3722.805003,229.828649,-888.247130,10362.883188
3722.805317,0.000000,-666.185348,10584.944971
3722.805632,306.438199,-0.000000,10807.006753
3722.805946,536.266849,296.082377,10436.903782
3722.806261,76.609550,1554.432478,9622.677246
3722.806575,0.000000,1628.453072,8734.430116
3722.806890,383.047749,1850.514855,8290.306550
3722.807204,842.705048,1184.329507,9178.553681
3722.807519,1072.533697,-148.041188,9548.656652
3722.807833,919.314598,-370.102971,9844.739029
3722.808148,0.000000,-518.144159,10732.986159
3722.808462,0.000000,-74.020594,11029.068536
3722.808777,76.609550,444.123565,10807.006753
3722.809091,306.438199,814.226536,9918.759623
3722.809406,0.000000,962.267725,9548.656652
3722.809720,-612.876398,814.226536,8808.450710
3722.810035,-306.438199,444.123565,8512.368333
3722.810349,383.047749,-74.020594,8956.491898
3722.810664,383.047749,-666.185348,9252.574275
3722.810978,0.000000,-296.082377,9696.697840
3722.811293,153.219100,-222.061783,9992.780217
3722.811607,0.000000,-518.144159,10436.903782
3722.811922,153.219100,-0.000000,10288.862594
3722.812236,-306.438199,370.102971,9918.759623
3722.812551,-612.876398,888.247130,9474.636058
3722.812865,-1072.533697,962.267725,8956.491898
3722.813180,-459.657299,518.144159,9326.594869
3722.813494,0.000000,-740.205942,9548.656652
3722.813809,-766.095498,-1332.370696,9696.697840
3722.814123,-306.438199,-1184.329507,10658.965565
3722.814438,-229.828649,-444.123565,10362.883188
3722.814752,153.219100,-370.102971,10140.821405
3722.815067,-153.219100,518.144159,9622.677246
3722.815381,-229.828649,740.205942,8956.491898
3722.815696,0.000000,1184.329507,8364.327145
3722.816010,0.000000,370.102971,8512.368333
3722.816325,689.485948,-0.000000,8882.471304
3722.816639,689.485948,-666.185348,9474.636058
3722.816954,536.266849,-592.164754,9474.636058
3722.817268,76.609550,-740.205942,9696.697840
3722.817583,306.438199,-518.144159,9622.677246
3722.817897,153.219100,-296.082377,10881.027347
3722.818212,0.000000,740.205942,9770.718434
3722.818526,-306.438199,888.247130,8882.471304
3722.818841,-383.047749,592.164754,8586.388927
3722.819156,383.047749,-666.185348,8660.409521
3722.819470,612.876398,-962.267725,9178.553681
3722.819785,536.266849,-962.267725,9770.718434
3722.820099,229.828649,-962.267725,10436.903782
3722.820414,0.000000,-74.020594,10214.842000
3722.820728,766.095498,-0.000000,10807.006753
3722.821043,306.438199,814.226536,10288.862594
3722.821357,306.438199,1258.350101,9474.636058
3722.821672,383.047749,1480.411884,8734.430116
3722.821986,536.266849,666.185348,8216.285956
3722.822301,1149.143247,-370.102971,8438.347739
3722.822615,1225.752797,-370.102971,8734.430116
3722.822930,1072.533697,-592.164754,9252.574275
3722.823244,383.047749,-814.226536,10140.821405
3722.823559,459.657299,-148.041188,10362.883188
3722.823873,306.438199,-0.000000,10214.842000
3722.824188,306.438199,740.205942,9474.636058
3722.824502,-229.828649,814.226536,9030.512492
3722.824817,0.000000,962.267725,8882.471304
3722.825131,229.828649,-0.000000,9104.533087
3722.825446,459.657299,-296.082377,10066.800811
3722.825760,459.657299,-814.226536,9696.697840
3722.826075,76.609550,-518.144159,9844.739029
3722.826389,0.000000,-74.020594,11177.109724
3722.826704,0.000000,296.082377,11029.068536
3722.827018,459.657299,962.267725,10140.821405
3722.827333,536.266849,1406.391290,9548.656652
3722.827647,459.657299,1480.411884,9030.512492
3722.827962,383.047749,1258.350101,8068.244768
3722.828276,536.266849,888.247130,8734.430116
3722.828591,306.438199,-148.041188,9400.615463
3722.828905,306.438199,-666.185348,9696.697840
3722.829220,0.000000,-518.144159,10436.903782
3722.829534,-229.828649,-74.020594,10362.883188
3722.829849,0.000000,-0.000000,10807.006753
3722.830163,-459.657299,740.205942,10066.800811
3722.830478,-919.314598,1406.391290,9548.656652
3722.830792,-919.314598,1480.411884,9178.553681
3722.831107,-536.266849,962.267725,9252.574275
3722.831421,0.000000,148.041188,9252.574275
3722.831736,153.219100,-222.061783,9474.636058
3722.832050,76.609550,-0.000000,10066.800811
3722.832365,-612.876398,74.020594,10658.965565
3722.832679,-612.876398,518.144159,10881.027347
3722.832994,-919.314598,1184.329507,10510.924376
3722.833308,0.000000,1036.288319,9474.636058
3722.833623,0.000000,1184.329507,8808.450710
3722.833937,-153.219100,888.247130,8364.327145
3722.834252,0.000000,518.144159,7920.203579
3722.834566,536.266849,-592.164754,8734.430116
3722.834881,0.000000,-592.164754,9178.553681
3722.835195,0.000000,-814.226536,9770.718434
3722.835510,0.000000,-444.123565,10436.903782
3722.835824,0.000000,-0.000000,10288.862594
3722.836139,0.000000,296.082377,10584.944971
3722.836453,-229.828649,962.267725,9400.615463
3722.836768,-229.828649,1702.473667,8882.471304
3722.837082,306.438199,1332.370696,8882.471304
3722.837397,536.266849,296.082377,8882.471304
3722.837711,459.657299,-592.164754,9622.677246
3722.838026,766.095498,-444.123565,9770.718434
3722.838340,0.000000,-296.082377,10732.986159
3722.838655,0.000000,-222.061783,11029.068536
3722.838969,0.000000,444.123565,11029.068536
3722.839284,0.000000,666.185348,9992.780217
3722.839598,76.609550,666.185348,9474.636058
3722.839913,0.000000,814.226536,8956.491898
3722.840227,306.438199,-0.000000,8956.491898
3722.840542,536.266849,-962.267725,8882.471304
3722.840856,689.485948,-1184.329507,9622.677246
3722.841171,919.314598,-814.226536,9844.739029
3722.841485,459.657299,-518.144159,10288.862594
3722.841800,919.314598,-0.000000,10214.842000
3722.842114,842.705048,814.226536,9548.656652
3722.842429,612.876398,888.247130,9030.512492
3722.842743,153.219100,1036.288319,8660.409521
3722.843058,229.828649,592.164754,8808.450710
3722.843372,459.657299,-370.102971,8956.491898
3722.843687,229.828649,-1110.308913,9030.512492
3722.844001,612.876398,-1776.494261,9918.759623
3722.844316,0.000000,-1110.308913,10510.924376
3722.844630,-76.609550,-1036.288319,10955.047942
3722.844945,-153.219100,-370.102971,10881.027347
3722.845259,0.000000,296.082377,9548.656652
3722.845574,229.828649,962.267725,9030.512492
3722.845888,229.828649,962.267725,8142.265362
3722.846203,689.485948,444.123565,8142.265362
3722.846517,919.314598,-518.144159,8364.327145
3722.846832,1225.752797,-962.267725,8660.409521
3722.847146,536.266849,-888.247130,9844.739029
3722.847461,76.609550,-518.144159,10140.821405
3722.847775,-229.828649,-666.185348,10288.862594
3722.848090,-306.438199,-0.000000,9918.759623
3722.848405,-766.095498,592.164754,9474.636058
3722.848719,-919.314598,740.205942,8956.491898
3722.849034,-612.876398,666.185348,9104.533087
3722.849348,-229.828649,222.061783,9178.553681
3722.849663,0.000000,-740.205942,9474.636058
3722.849977,-459.657299,-1184.329507,10066.800811
3722.850292,-1225.752797,-814.226536,10510.924376
3722.850606,-306.438199,-0.000000,11547.212695
3722.850921,0.000000,740.205942,11251.130318
3722.851235,153.219100,1406.391290,9844.739029
3722.851550,0.000000,1850.514855,9104.533087
3722.851864,-306.438199,1702.473667,8882.471304
3722.852179,0.000000,740.205942,8734.430116
3722.852493,306.438199,222.061783,8956.491898
3722.852808,0.000000,-444.123565,9104.533087
3722.853122,0.000000,-592.164754,9770.718434
3722.853437,-383.047749,-888.247130,10436.903782
3722.853751,-842.705048,-222.061783,11251.130318
3722.854066,-306.438199,444.123565,10881.027347
3722.854380,-229.828649,1036.288319,9918.759623
3722.854695,-612.876398,1184.329507,8808.450710
3722.855009,-229.828649,1110.308913,9030.512492
3722.855324,153.219100,296.082377,8512.368333
3722.855638,459.657299,-444.123565,9326.594869
3722.855953,153.219100,-592.164754,9992.780217
3722.856267,-153.219100,-444.123565,10140.821405
3722.856582,153.219100,-74.020594,11103.089130
3722.856896,306.438199,-74.020594,11251.130318
3722.857211,689.485948,1036.288319,10288.862594
3722.857525,306.438199,1184.329507,9178.553681
3722.857840,229.828649,1850.514855,8808.450710
3722.858154,689.485948,1036.288319,9104.533087
3722.858469,919.314598,-0.000000,8512.368333
3722.858783,1225.752797,-814.226536,8882.471304
3722.859098,689.485948,-1036.288319,9696.697840
3722.859412,689.485948,-518.144159,9696.697840
3722.859727,1149.143247,222.061783,10584.944971
3722.860041,995.924147,740.205942,10140.821405
3722.860356,919.314598,1184.329507,9474.636058
3722.860670,612.876398,2220.617826,8512.368333
3722.860985,459.657299,1628.453072,8068.244768
3722.861299,766.095498,592.164754,9104.533087
3722.861614,842.705048,-296.082377,9474.636058
3722.861928,306.438199,-962.267725,9918.759623
3722.862243,0.000000,-1036.288319,10214.842000
3722.862558,0.000000,-444.123565,11029.068536
3722.862872,-306.438199,296.082377,11177.109724
3722.863187,76.609550,1332.370696,10436.903782
3722.863502,536.266849,1998.556043,9474.636058
3722.863816,229.828649,1702.473667,8512.368333
3722.864131,306.438199,1480.411884,8438.347739
3722.864445,536.266849,296.082377,8364.327145
3722.864760,383.047749,-592.164754,8882.471304
3722.865075,459.657299,-962.267725,9178.553681
3722.865389,76.609550,-888.247130,10214.842000
3722.865704,-229.828649,-592.164754,10658.965565
3722.866018,-306.438199,-0.000000,10436.903782
3722.866333,-689.485948,666.185348,9622.677246
3722.866648,-842.705048,962.267725,9844.739029
3722.866962,-1149.143247,1184.329507,8512.368333
3722.867277,-229.828649,-0.000000,9178.553681
3722.867592,0.000000,-444.123565,9474.636058
3722.867906,-229.828649,-666.185348,9622.677246
3722.868221,-306.438199,-888.247130,9992.780217
3722.868535,-612.876398,-444.123565,10362.883188
3722.868850,0.000000,518.144159,11177.109724
3722.869165,-383.047749,518.144159,10362.883188
3722.869479,-612.876398,1036.288319,9474.636058
3722.869794,0.000000,740.205942,8882.471304
3722.870109,-306.438199,666.185348,8882.471304
3722.870423,-383.047749,-370.102971,9252.574275
3722.870738,0.000000,-888.247130,9400.615463
3722.871052,0.000000,-1258.350101,9770.718434
3722.871367,229.828649,-1110.308913,9844.739029
3722.871682,383.047749,-444.123565,10214.842000
3722.871996,536.266849,296.082377,10510.924376
3722.872311,383.047749,962.267725,9918.759623
3722.872625,0.000000,1480.411884,8734.430116
3722.872940,-229.828649,814.226536,8586.388927
3722.873255,536.266849,296.082377,8734.430116
3722.873569,689.485948,-666.185348,9104.533087
3722.873884,153.219100,-1110.308913,9474.636058
3722.874199,0.000000,-814.226536,10362.883188
3722.874513,-306.438199,-740.205942,10584.944971
3722.874828,153.219100,-370.102971,10732.986159
3722.875142,383.047749,444.123565,10288.862594
3722.875457,229.828649,666.185348,9326.594869
3722.875772,459.657299,1110.308913,8808.450710
3722.876086,612.876398,740.205942,8364.327145
3722.876401,842.705048,-0.000000,8438.347739
3722.876715,995.924147,-518.144159,8660.409521
3722.877030,919.314598,-1110.308913,8882.471304
3722.877345,842.705048,-1184.329507,9548.656652
3722.877659,383.047749,-740.205942,10362.883188
3722.877974,459.657299,-222.061783,10510.924376
3722.878289,153.219100,592.164754,9696.697840
3722.878603,153.219100,814.226536,8808.450710
3722.878918,0.000000,1110.308913,8142.265362
3722.879232,383.047749,592.164754,8956.491898
3722.879547,612.876398,-148.041188,9030.512492
3722.879862,306.438199,-740.205942,9252.574275
3722.880176,-153.219100,-666.185348,9918.759623
3722.880491,-536.266849,-592.164754,10214.842000
3722.880806,0.000000,-148.041188,11177.109724
3722.881120,-383.047749,-0.000000,10658.965565
3722.881435,0.000000,814.226536,10140.821405
3722.881749,-459.657299,1258.350101,9252.574275
3722.882064,-766.095498,1258.350101,8734.430116
3722.882379,0.000000,444.123565,8734.430116
3722.882693,153.219100,-444.123565,9178.553681
3722.883008,153.219100,-518.144159,9474.636058
3722.883322,0.000000,-518.144159,9918.759623
3722.883637,306.438199,-222.061783,10732.986159
3722.883952,-153.219100,-0.000000,10881.027347
3722.884266,-229.828649,666.185348,10214.842000
3722.884581,0.000000,1184.329507,9844.739029
3722.884896,-612.876398,1406.391290,9178.553681
3722.885210,-306.438199,740.205942,8734.430116
3722.885525,612.876398,-0.000000,9400.615463
3722.885839,0.000000,-592.164754,9696.697840
3722.886154,76.609550,-148.041188,9770.718434
3722.886469,0.000000,-74.020594,10362.883188
3722.886783,0.000000,-0.000000,11177.109724
3722.887098,229.828649,592.164754,10436.903782
3722.887412,229.828649,1258.350101,9696.697840
3722.887727,-76.609550,1554.432478,8734.430116
3722.888042,0.000000,1702.473667,8512.368333
3722.888356,459.657299,518.144159,8290.306550
3722.888671,153.219100,-296.082377,9326.594869
3722.888986,229.828649,-666.185348,9622.677246
3722.889300,306.438199,-666.185348,9844.739029
3722.889615,153.219100,-222.061783,10214.842000
3722.889929,536.266849,-0.000000,10510.924376
3722.890244,689.485948,370.102971,10140.821405
3722.890559,306.438199,1110.308913,9030.512492
3722.890873,229.828649,1628.453072,8586.388927
3722.891188,612.876398,1406.391290,8290.306550
3722.891502,689.485948,518.144159,8586.388927
3722.891817,766.095498,-518.144159,9474.636058
3722.892132,689.485948,-666.185348,10066.800811
3722.892446,76.609550,-518.144159,9992.780217
3722.892761,153.219100,-0.000000,10584.944971
3722.893076,-229.828649,-0.000000,10881.027347
3722.893390,0.000000,814.226536,10066.800811
3722.893705,76.609550,1332.370696,9326.594869
3722.894019,0.000000,1184.329507,9030.512492
3722.894334,612.876398,962.267725,9178.553681
3722.894649,919.314598,-0.000000,9104.533087
3722.894963,842.705048,-0.000000,9622.677246
3722.895278,919.314598,-222.061783,9918.759623
3722.895593,306.438199,-444.123565,10436.903782
3722.895907,612.876398,-0.000000,10066.800811
3722.896222,1149.143247,370.102971,9992.780217
3722.896536,459.657299,1332.370696,9326.594869
3722.896851,-153.219100,1628.453072,8438.347739
3722.897166,0.000000,1184.329507,8290.306550
3722.897480,383.047749,-0.000000,8660.409521
3722.897795,306.438199,-1036.288319,9252.574275
3722.898109,0.000000,-1332.370696,9770.718434
3722.898424,-612.876398,-814.226536,10584.944971
3722.898739,-995.924147,-444.123565,11029.068536
3722.899053,-306.438199,-0.000000,10807.006753
3722.899368,0.000000,814.226536,9992.780217
3722.899683,-306.438199,666.185348,9400.615463
3722.899997,-306.438199,1480.411884,8956.491898
3722.900312,76.609550,1332.370696,8734.430116
3722.900626,766.095498,518.144159,8956.491898
3722.900941,612.876398,-518.144159,8882.471304
3722.901256,306.438199,-1036.288319,9622.677246
3722.901570,0.000000,-1110.308913,10510.924376
3722.901885,153.219100,-962.267725,10436.903782
3722.902199,76.609550,-296.082377,10436.903782
3722.902514,0.000000,222.061783,9474.636058
3722.902829,-536.266849,888.247130,9030.512492
3722.903143,-306.438199,740.205942,8512.368333
3722.903458,0.000000,-0.000000,8512.368333
3722.903773,306.438199,-888.247130,8956.491898
3722.904087,0.000000,-1406.391290,9548.656652
3722.904402,-383.047749,-1184.329507,10732.986159
3722.904716,-306.438199,-592.164754,10807.006753
3722.905031,0.000000,-296.082377,11177.109724
3722.905346,0.000000,518.144159,10510.924376
3722.905660,-229.828649,1258.350101,9918.759623
3722.905975,-229.828649,1554.432478,9252.574275
3722.906290,0.000000,1184.329507,8808.450710
3722.906604,383.047749,370.102971,8882.471304
3722.906919,536.266849,-592.164754,8882.471304
3722.907233,153.219100,-888.247130,9696.697840
3722.907548,-76.609550,-1036.288319,10288.862594
3722.907863,0.000000,-814.226536,10732.986159
3722.908177,153.219100,-296.082377,10362.883188
3722.908492,-536.266849,370.102971,9252.574275
3722.908806,-459.657299,1036.288319,8586.388927
3722.909121,0.000000,1036.288319,8364.327145
3722.909436,153.219100,296.082377,7994.224174
3722.909750,689.485948,-592.164754,8882.471304
3722.910065,383.047749,-740.205942,8882.471304
3722.910380,229.828649,-666.185348,10066.800811
3722.910694,229.828649,-0.000000,10140.821405
3722.911009,536.266849,-0.000000,10510.924376
3722.911323,536.266849,962.267725,10140.821405
3722.911638,612.876398,888.247130,9104.533087
3722.911953,229.828649,1554.432478,8956.491898
3722.912267,76.609550,888.247130,8808.450710
3722.912582,612.876398,296.082377,9030.512492
3722.912896,459.657299,-814.226536,9326.594869
3722.913211,919.314598,-1184.329507,9622.677246
3722.913526,536.266849,-666.185348,10510.924376
3722.913840,612.876398,-222.061783,10584.944971
3722.914155,536.266849,444.123565,9992.780217
3722.914470,612.876398,1480.411884,9622.677246
3722.914784,459.657299,1998.556043,8956.491898
3722.915099,383.047749,1702.473667,8438.347739
3722.915413,459.657299,740.205942,8660.409521
3722.915728,306.438199,-296.082377,8882.471304
3722.916043,229.828649,-814.226536,9770.718434
3722.916357,-689.485948,-666.185348,10510.924376
3722.916672,-383.047749,-74.020594,11769.274478
3722.916987,-229.828649,444.123565,11547.212695
3722.917301,0.000000,666.185348,10807.006753
3722.917616,0.000000,1554.432478,9992.780217
3722.917930,-153.219100,1998.556043,9326.594869
3722.918245,-536.266849,1406.391290,9030.512492
3722.918560,0.000000,518.144159,8734.430116
3722.918874,383.047749,-444.123565,8956.491898
3722.919189,306.438199,-296.082377,9622.677246
3722.919503,-229.828649,-666.185348,10510.924376
3722.919818,229.828649,-0.000000,10658.965565
3722.920133,0.000000,222.061783,10362.883188
3722.920447,0.000000,1036.288319,9770.718434
3722.920762,0.000000,1628.453072,8956.491898
3722.921077,-383.047749,1332.370696,8882.471304
3722.921391,383.047749,666.185348,8808.450710
3722.921706,306.438199,-296.082377,8660.409521
3722.922020,229.828649,-444.123565,9474.636058
3722.922335,-153.219100,-740.205942,9696.697840
3722.922650,0.000000,-148.041188,10658.965565
3722.922964,306.438199,-148.041188,10658.965565
3722.923279,229.828649,370.102971,10066.800811
3722.923593,306.438199,666.185348,9622.677246
3722.923908,0.000000,1184.329507,9178.553681
3722.924223,0.000000,1332.370696,8290.306550
3722.924537,383.047749,592.164754,8364.327145
3722.924852,459.657299,-222.061783,8882.471304
3722.925167,766.095498,-962.267725,9326.594869
3722.925481,0.000000,-962.267725,10214.842000
3722.925796,-306.438199,-1036.288319,10955.047942
3722.926110,-689.485948,-444.123565,10807.006753
3722.926425,-612.876398,370.102971,10510.924376
3722.926740,-766.095498,814.226536,9252.574275
3722.927054,-689.485948,592.164754,9178.553681
3722.927369,0.000000,-74.020594,9104.533087
3722.927684,459.657299,-518.144159,9030.512492
3722.927998,306.438199,-592.164754,8660.409521
3722.928313,0.000000,-814.226536,9548.656652
3722.928627,0.000000,-148.041188,10140.821405
3722.928942,383.047749,-0.000000,10807.006753
3722.929257,76.609550,370.102971,10658.965565
3722.929571,383.047749,740.205942,9770.718434
3722.929886,153.219100,1110.308913,9104.533087
3722.930200,0.000000,962.267725,8734.430116
3722.930515,-76.609550,-0.000000,9474.636058
3722.930830,383.047749,-888.247130,9030.512492
3722.931144,0.000000,-1036.288319,9474.636058
3722.931459,0.000000,-740.205942,10140.821405
