#time,accel_x,accel_y,accel_z
3737.835931,0.000000,-0.000000,9400.615463
3737.836246,76.609550,370.102971,9696.697840
3737.836560,229.828649,148.041188,9918.759623
3737.836875,0.000000,-0.000000,9474.636058
3737.837190,306.438199,-0.000000,9474.636058
3737.837505,0.000000,-0.000000,9474.636058
3737.837819,153.219100,-0.000000,9844.739029
3737.838134,76.609550,-0.000000,9474.636058
3737.838449,229.828649,370.102971,9548.656652
3737.838764,459.657299,518.144159,9844.739029
3737.839078,229.828649,222.061783,9696.697840
3737.839393,0.000000,-0.000000,9622.677246
3737.839708,306.438199,222.061783,10140.821405
3737.840023,153.219100,-0.000000,9696.697840
3737.840337,153.219100,-0.000000,9548.656652
3737.840652,153.219100,222.061783,9548.656652
3737.840967,306.438199,370.102971,9696.697840
3737.841282,153.219100,-0.000000,9474.636058
3737.841596,0.000000,148.041188,9474.636058
3737.841911,0.000000,-0.000000,9696.697840
3737.842226,0.000000,-0.000000,9474.636058
3737.842541,76.609550,-0.000000,9548.656652
3737.842855,612.876398,296.082377,9696.697840
3737.843170,0.000000,222.061783,9548.656652
3737.843485,-229.828649,296.082377,9474.636058
3737.843800,76.609550,222.061783,9474.636058
3737.844114,76.609550,-0.000000,9622.677246
3737.844429,612.876398,222.061783,9622.677246
3737.844744,306.438199,-0.000000,9178.553681
3737.845059,0.000000,-0.000000,9474.636058
3737.845373,0.000000,-0.000000,9622.677246
3737.845688,306.438199,-0.000000,9548.656652
3737.846003,0.000000,444.123565,9696.697840
3737.846318,153.219100,-0.000000,9400.615463
3737.846632,0.000000,-0.000000,9474.636058
3737.846947,76.609550,444.123565,9400.615463
3737.847262,306.438199,222.061783,9770.718434
3737.847577,0.000000,-148.041188,9844.739029
3737.847891,0.000000,-0.000000,9548.656652
3737.848206,0.000000,-0.000000,9474.636058
3737.848521,76.609550,-0.000000,9770.718434
3737.848836,459.657299,-0.000000,10066.800811
3737.849150,153.219100,-0.000000,9770.718434
3737.849465,76.609550,-0.000000,9548.656652
3737.849780,153.219100,222.061783,9548.656652
3737.850095,153.219100,-0.000000,9474.636058
3737.850409,76.609550,222.061783,9918.759623
3737.850724,153.219100,222.061783,9844.739029
3737.851039,-229.828649,-0.000000,9696.697840
3737.851354,0.000000,222.061783,9844.739029
3737.851668,0.000000,222.061783,9622.677246
3737.851983,0.000000,518.144159,9622.677246
3737.852298,0.000000,222.061783,9770.718434
3737.852613,153.219100,148.041188,9622.677246
3737.852927,-153.219100,222.061783,9548.656652
3737.853242,0.000000,370.102971,9474.636058
3737.853557,0.000000,444.123565,9326.594869
3737.853872,0.000000,444.123565,9622.677246
3737.854186,153.219100,222.061783,9622.677246
3737.854501,153.219100,-0.000000,9474.636058
3737.854816,0.000000,-0.000000,9770.718434
3737.855131,0.000000,222.061783,9770.718434
3737.855445,76.609550,370.102971,9400.615463
3737.855760,0.000000,296.082377,9474.636058
3737.856075,153.219100,-0.000000,9252.574275
3737.856390,306.438199,-74.020594,9326.594869
3737.856704,229.828649,-0.000000,9400.615463
3737.857019,536.266849,-0.000000,9474.636058
3737.857334,-536.266849,222.061783,9474.636058
3737.857649,153.219100,296.082377,9400.615463
3737.857963,229.828649,148.041188,9696.697840
3737.858278,76.609550,-0.000000,9918.759623
3737.858593,76.609550,-0.000000,9548.656652
3737.858908,76.609550,-0.000000,9400.615463
3737.859222,153.219100,-0.000000,9844.739029
3737.859537,229.828649,296.082377,10362.883188
3737.859852,383.047749,148.041188,9622.677246
3737.860167,229.828649,-222.061783,9474.636058
3737.860481,76.609550,296.082377,9474.636058
3737.860796,383.047749,222.061783,9696.697840
3737.861111,383.047749,-0.000000,10066.800811
3737.861426,459.657299,-0.000000,10140.821405
3737.861740,306.438199,-148.041188,9770.718434
3737.862055,383.047749,370.102971,9844.739029
3737.862370,689.485948,740.205942,9548.656652
3737.862684,842.705048,740.205942,9474.636058
3737.862999,919.314598,888.247130,9474.636058
3737.863314,1455.581446,592.164754,8956.491898
3737.863629,919.314598,444.123565,8808.450710
3737.863943,842.705048,370.102971,9548.656652
3737.864258,536.266849,518.144159,9474.636058
3737.864573,612.876398,370.102971,9474.636058
3737.864888,459.657299,296.082377,10066.800811
3737.865202,229.828649,592.164754,9548.656652
3737.865517,536.266849,740.205942,9400.615463
3737.865832,612.876398,740.205942,9622.677246
3737.866147,919.314598,962.267725,9696.697840
3737.866461,1302.362347,814.226536,9548.656652
3737.866776,1838.629195,1110.308913,9548.656652
3737.867091,1915.238745,888.247130,9918.759623
3737.867406,2374.896044,1332.370696,9548.656652
3737.867720,2604.724693,1850.514855,9548.656652
3737.868035,2911.162892,2294.638420,9252.574275
3737.868350,3447.429741,2590.720797,9030.512492
3737.868665,3370.820191,2442.679609,8364.327145
3737.868979,3294.210641,2072.576638,8808.450710
3737.869294,3677.258390,2072.576638,9252.574275
3737.869609,3140.991542,1702.473667,8734.430116
3737.869924,3140.991542,1850.514855,9326.594869
3737.870238,3217.601092,2294.638420,9770.718434
3737.870553,3064.381992,2368.659014,9770.718434
3737.870868,3217.601092,2664.741391,9918.759623
3737.871183,2987.772442,3034.844362,9474.636058
3737.871497,3064.381992,3256.906145,9548.656652
3737.871812,2911.162892,3256.906145,9104.533087
3737.872127,2911.162892,3627.009116,9252.574275
3737.872442,2681.334243,3108.864956,9178.553681
3737.872756,2604.724693,3182.885551,9326.594869
3737.873071,2528.115143,3182.885551,10140.821405
3737.873386,2451.505594,3627.009116,10732.986159
3737.873701,2145.067394,3404.947333,11103.089130
3737.874015,2145.067394,3404.947333,10436.903782
3737.874330,1991.848295,3775.050304,10362.883188
3737.874645,1915.238745,3701.029710,11029.068536
3737.874960,1915.238745,3552.988522,10658.965565
3737.875274,1685.410096,3404.947333,10510.924376
3737.875589,1762.019645,3330.926739,10288.862594
3737.875904,2068.457845,3627.009116,10288.862594
3737.876219,2068.457845,3849.070898,9696.697840
3737.876533,2221.676944,3775.050304,9326.594869
3737.876848,2528.115143,3775.050304,10066.800811
3737.877163,2451.505594,3108.864956,9622.677246
3737.877478,2221.676944,3108.864956,9548.656652
3737.877792,1991.848295,3108.864956,9622.677246
3737.878107,2221.676944,2812.782580,9844.739029
3737.878422,2145.067394,2886.803174,9918.759623
3737.878737,1762.019645,2664.741391,9992.780217
3737.879051,2145.067394,2812.782580,10140.821405
3737.879366,2145.067394,3034.844362,9548.656652
3737.879681,1455.581446,3034.844362,9622.677246
3737.879996,1608.800546,2738.761985,9474.636058
3737.880310,1915.238745,2590.720797,9400.615463
3737.880625,1838.629195,2442.679609,9400.615463
3737.880940,1608.800546,2368.659014,9474.636058
3737.881255,1608.800546,1480.411884,9844.739029
3737.881569,1455.581446,1332.370696,9992.780217
3737.881884,1225.752797,962.267725,9770.718434
3737.882199,1455.581446,1850.514855,9770.718434
3737.882514,1225.752797,1628.453072,9844.739029
3737.882828,1762.019645,1850.514855,9992.780217
3737.883143,1685.410096,2072.576638,9622.677246
3737.883458,1991.848295,1850.514855,9178.553681
3737.883773,2528.115143,1998.556043,8882.471304
3737.884087,2681.334243,2072.576638,8586.388927
3737.884402,2987.772442,1628.453072,8734.430116
3737.884717,2987.772442,1554.432478,8882.471304
3737.885032,2911.162892,1628.453072,8586.388927
3737.885346,2834.553343,1554.432478,8882.471304
3737.885661,2374.896044,1184.329507,9030.512492
3737.885976,2145.067394,1406.391290,9030.512492
3737.886291,1915.238745,888.247130,8882.471304
3737.886605,1608.800546,814.226536,9030.512492
3737.886920,1685.410096,518.144159,9622.677246
3737.887235,1608.800546,370.102971,10510.924376
3737.887550,1838.629195,518.144159,10658.965565
3737.887864,2451.505594,888.247130,10732.986159
3737.888179,2681.334243,1628.453072,10362.883188
3737.888494,3524.039291,2294.638420,9474.636058
3737.888809,3907.087040,2664.741391,8956.491898
3737.889123,4136.915689,2738.761985,8068.244768
3737.889438,3907.087040,2516.700203,7846.182985
3737.889753,3677.258390,2294.638420,7402.059420
3737.890068,3140.991542,1702.473667,8438.347739
3737.890382,2145.067394,1036.288319,8586.388927
3737.890697,1455.581446,-0.000000,10436.903782
3737.891012,689.485948,-518.144159,11399.171507
3737.891327,0.000000,-814.226536,12287.418637
3737.891641,-306.438199,-444.123565,12287.418637
3737.891956,229.828649,666.185348,11991.336260
3737.892271,1302.362347,2072.576638,11325.150913
3737.892586,2987.772442,2664.741391,10288.862594
3737.892900,3907.087040,4219.173869,8882.471304
3737.893215,4443.353888,4811.338623,7624.121203
3737.893530,4979.620737,5181.441594,7105.977043
3737.893845,4903.011187,4737.318029,7254.018232
3737.894159,4903.011187,3478.967927,7328.038826
3737.894474,3294.210641,2146.597232,9104.533087
3737.894789,1838.629195,1184.329507,10214.842000
3737.895104,-536.266849,222.061783,11695.253884
3737.895418,-1072.533697,148.041188,12657.521608
3737.895733,-1532.190996,148.041188,12435.459826
3737.896048,-1225.752797,962.267725,11251.130318
3737.896363,-919.314598,2146.597232,9992.780217
3737.896677,76.609550,2812.782580,9178.553681
3737.896992,1302.362347,3701.029710,8216.285956
3737.897307,2834.553343,4219.173869,7179.997637
3737.897622,3370.820191,3627.009116,7846.182985
3737.897936,2987.772442,3775.050304,8290.306550
3737.898251,2068.457845,3256.906145,9474.636058
3737.898566,919.314598,2220.617826,10362.883188
3737.898881,76.609550,2072.576638,11695.253884
3737.899195,-919.314598,2368.659014,11695.253884
3737.899510,-1608.800546,1998.556043,11029.068536
3737.899825,-1762.019645,1406.391290,10510.924376
3737.900140,-689.485948,888.247130,9844.739029
3737.900454,76.609550,444.123565,8882.471304
3737.900769,612.876398,444.123565,8808.450710
3737.901084,766.095498,814.226536,8660.409521
3737.901399,1225.752797,962.267725,9474.636058
3737.901713,1302.362347,1554.432478,9252.574275
3737.902028,1455.581446,1332.370696,9178.553681
3737.902343,689.485948,1924.535449,9474.636058
3737.902658,229.828649,1702.473667,9474.636058
3737.902972,0.000000,888.247130,9918.759623
3737.903287,76.609550,-74.020594,10510.924376
3737.903602,0.000000,370.102971,10140.821405
3737.903917,76.609550,296.082377,10362.883188
3737.904231,153.219100,-0.000000,11029.068536
3737.904546,459.657299,-0.000000,10584.944971
3737.904861,459.657299,592.164754,9844.739029
3737.905176,76.609550,888.247130,8660.409521
3737.905490,306.438199,592.164754,8882.471304
3737.905805,536.266849,-592.164754,9030.512492
3737.906120,612.876398,-1258.350101,9992.780217
3737.906435,306.438199,-1406.391290,10732.986159
3737.906749,76.609550,-1554.432478,10362.883188
3737.907064,153.219100,-1110.308913,10881.027347
3737.907379,459.657299,-740.205942,10140.821405
3737.907694,1072.533697,814.226536,9400.615463
3737.908008,1532.190996,1036.288319,7994.224174
3737.908323,1608.800546,962.267725,7328.038826
3737.908638,2068.457845,222.061783,7994.224174
3737.908952,1608.800546,-592.164754,8290.306550
3737.909267,1072.533697,-1628.453072,9474.636058
3737.909582,536.266849,-1924.535449,9918.759623
3737.909896,0.000000,-1628.453072,10436.903782
3737.910211,0.000000,-1406.391290,11103.089130
3737.910526,-612.876398,-148.041188,9992.780217
3737.910840,-536.266849,-0.000000,8734.430116
3737.911155,153.219100,-74.020594,8438.347739
3737.911470,76.609550,-444.123565,8734.430116
3737.911784,383.047749,-1480.411884,9104.533087
3737.912099,0.000000,-1554.432478,9104.533087
3737.912414,-459.657299,-1480.411884,9474.636058
3737.912728,0.000000,-1036.288319,10066.800811
3737.913043,76.609550,-518.144159,10066.800811
3737.913358,229.828649,-0.000000,9696.697840
3737.913672,-306.438199,-148.041188,9252.574275
3737.913987,76.609550,-666.185348,9844.739029
3737.914302,-306.438199,-1110.308913,9474.636058
3737.914616,-536.266849,-1406.391290,9252.574275
3737.914931,-766.095498,-1554.432478,9844.739029
3737.915246,-1378.971896,-1184.329507,9992.780217
3737.915560,-1072.533697,-740.205942,9770.718434
3737.915875,-995.924147,-0.000000,9474.636058
3737.916189,-459.657299,296.082377,8808.450710
3737.916504,-306.438199,444.123565,9104.533087
3737.916819,0.000000,-296.082377,8808.450710
3737.917133,-306.438199,-962.267725,9696.697840
3737.917448,-536.266849,-1406.391290,9844.739029
3737.917763,-919.314598,-1406.391290,10288.862594
3737.918077,-459.657299,-444.123565,10584.944971
3737.918392,-995.924147,296.082377,10288.862594
3737.918707,-919.314598,1184.329507,9474.636058
3737.919021,-842.705048,1776.494261,8512.368333
3737.919336,-229.828649,814.226536,8882.471304
3737.919651,459.657299,444.123565,8882.471304
3737.919965,153.219100,-592.164754,9400.615463
3737.920280,-153.219100,-1036.288319,9474.636058
3737.920595,-229.828649,-814.226536,9992.780217
3737.920909,76.609550,-0.000000,10140.821405
3737.921224,153.219100,888.247130,9770.718434
3737.921539,0.000000,1998.556043,9178.553681
3737.921853,306.438199,1998.556043,8660.409521
3737.922168,689.485948,1332.370696,8586.388927
3737.922483,995.924147,444.123565,9474.636058
3737.922797,536.266849,-222.061783,9474.636058
3737.923112,536.266849,-148.041188,9770.718434
3737.923427,919.314598,666.185348,10140.821405
3737.923741,995.924147,888.247130,10658.965565
3737.924056,1072.533697,1628.453072,9696.697840
3737.924371,919.314598,2368.659014,9252.574275
3737.924685,1225.752797,1702.473667,8956.491898
3737.925000,1455.581446,814.226536,9252.574275
3737.925315,1378.971896,592.164754,9696.697840
3737.925629,612.876398,-0.000000,9696.697840
3737.925944,1225.752797,-296.082377,10436.903782
3737.926259,689.485948,518.144159,10510.924376
3737.926573,766.095498,1332.370696,10288.862594
3737.926888,766.095498,2146.597232,9474.636058
3737.927203,1072.533697,2220.617826,9104.533087
3737.927517,1225.752797,1850.514855,8882.471304
3737.927832,995.924147,740.205942,9326.594869
3737.928147,766.095498,-148.041188,9918.759623
3737.928461,229.828649,-740.205942,10362.883188
3737.928776,0.000000,-370.102971,10807.006753
3737.929090,0.000000,-0.000000,11547.212695
3737.929405,0.000000,888.247130,11029.068536
3737.929720,-383.047749,2072.576638,9770.718434
3737.930034,-306.438199,1998.556043,8882.471304
3737.930349,0.000000,1332.370696,8956.491898
3737.930664,76.609550,148.041188,9400.615463
3737.930978,0.000000,-518.144159,9696.697840
3737.931293,-383.047749,-666.185348,9696.697840
3737.931608,-536.266849,-518.144159,10140.821405
3737.931922,-229.828649,-0.000000,9992.780217
3737.932237,0.000000,666.185348,9696.697840
3737.932552,-306.438199,1036.288319,8956.491898
3737.932866,0.000000,1184.329507,8438.347739
3737.933181,0.000000,222.061783,9030.512492
3737.933496,-689.485948,-444.123565,9548.656652
3737.933810,-995.924147,-1036.288319,9548.656652
3737.934125,-842.705048,-1480.411884,9696.697840
3737.934440,-842.705048,-666.185348,10066.800811
3737.934754,-536.266849,-222.061783,10066.800811
3737.935069,-306.438199,814.226536,9548.656652
3737.935384,-229.828649,1258.350101,8882.471304
3737.935698,0.000000,666.185348,8660.409521
3737.936013,153.219100,-222.061783,9104.533087
3737.936328,0.000000,-1036.288319,9326.594869
3737.936642,-383.047749,-1258.350101,10066.800811
3737.936957,-766.095498,-1628.453072,9992.780217
3737.937272,-536.266849,-888.247130,9918.759623
3737.937586,-536.266849,-0.000000,9696.697840
3737.937901,-383.047749,-0.000000,9252.574275
3737.938216,-383.047749,444.123565,9252.574275
3737.938530,229.828649,-296.082377,8660.409521
3737.938845,306.438199,-1036.288319,9252.574275
3737.939160,0.000000,-1480.411884,9622.677246
3737.939474,-306.438199,-1702.473667,9918.759623
3737.939789,153.219100,-1110.308913,10362.883188
3737.940104,76.609550,-518.144159,10288.862594
3737.940418,229.828649,296.082377,9548.656652
3737.940733,306.438199,1184.329507,8586.388927
3737.941048,383.047749,666.185348,9178.553681
3737.941362,536.266849,-222.061783,9622.677246
3737.941677,153.219100,-814.226536,9400.615463
3737.941992,153.219100,-1110.308913,9770.718434
3737.942306,0.000000,-1554.432478,10288.862594
3737.942621,0.000000,-888.247130,10288.862594
3737.942935,536.266849,148.041188,10362.883188
3737.943250,459.657299,962.267725,9030.512492
3737.943565,842.705048,1480.411884,9104.533087
3737.943879,1149.143247,1258.350101,8660.409521
3737.944194,1608.800546,-74.020594,8882.471304
3737.944509,1072.533697,-444.123565,9252.574275
3737.944823,919.314598,-1110.308913,9178.553681
3737.945138,536.266849,-444.123565,9918.759623
3737.945453,689.485948,-0.000000,10288.862594
3737.945767,612.876398,1332.370696,9844.739029
3737.946082,383.047749,1554.432478,9178.553681
3737.946397,536.266849,1702.473667,8364.327145
3737.946711,766.095498,740.205942,9400.615463
3737.947026,995.924147,-0.000000,9992.780217
3737.947341,306.438199,-814.226536,10140.821405
3737.947655,0.000000,-1036.288319,10214.842000
3737.947970,0.000000,-0.000000,11029.068536
3737.948285,0.000000,1036.288319,10510.924376
3737.948599,76.609550,1998.556043,10140.821405
3737.948914,76.609550,2368.659014,9474.636058
3737.949229,536.266849,1998.556043,8660.409521
3737.949543,612.876398,1258.350101,9400.615463
3737.949858,536.266849,444.123565,10066.800811
3737.950173,229.828649,-0.000000,9918.759623
3737.950487,-306.438199,-518.144159,9844.739029
3737.950802,-612.876398,-0.000000,10584.944971
3737.951117,-306.438199,1110.308913,10214.842000
3737.951431,-1378.971896,2146.597232,9400.615463
3737.951746,-536.266849,1332.370696,9474.636058
3737.952061,0.000000,1036.288319,9326.594869
3737.952375,-766.095498,-0.000000,9548.656652
3737.952690,-612.876398,-222.061783,10140.821405
3737.953005,-306.438199,-444.123565,9548.656652
3737.953319,-612.876398,-296.082377,10436.903782
3737.953634,0.000000,444.123565,10066.800811
3737.953949,0.000000,1850.514855,9548.656652
3737.954263,383.047749,1998.556043,9326.594869
3737.954578,383.047749,2220.617826,8660.409521
3737.954893,689.485948,1184.329507,8586.388927
3737.955207,766.095498,444.123565,9252.574275
3737.955522,0.000000,-222.061783,9474.636058
3737.955836,-459.657299,-592.164754,9622.677246
3737.956151,-1072.533697,-1258.350101,10436.903782
3737.956466,0.000000,-222.061783,10584.944971
3737.956780,-229.828649,814.226536,9770.718434
3737.957095,0.000000,1554.432478,8808.450710
3737.957410,153.219100,1406.391290,8882.471304
3737.957724,919.314598,-0.000000,9104.533087
3737.958039,383.047749,-666.185348,9400.615463
3737.958354,0.000000,-666.185348,9696.697840
3737.958668,229.828649,-888.247130,9992.780217
3737.958983,229.828649,-370.102971,10214.842000
3737.959298,306.438199,518.144159,10214.842000
3737.959612,306.438199,962.267725,9548.656652
3737.959927,306.438199,1480.411884,8808.450710
3737.960242,383.047749,592.164754,8882.471304
3737.960556,689.485948,-370.102971,9696.697840
3737.960871,153.219100,-1184.329507,10288.862594
3737.961186,-153.219100,-1776.494261,9992.780217
3737.961500,0.000000,-1406.391290,10066.800811
3737.961815,153.219100,-888.247130,10436.903782
3737.962130,459.657299,148.041188,9770.718434
3737.962444,459.657299,740.205942,9252.574275
3737.962759,842.705048,888.247130,8438.347739
3737.963074,1149.143247,-0.000000,8660.409521
3737.963388,1072.533697,-370.102971,9178.553681
3737.963703,536.266849,-1332.370696,9326.594869
3737.964018,459.657299,-1480.411884,9770.718434
3737.964332,306.438199,-888.247130,9918.759623
3737.964647,76.609550,-296.082377,10066.800811
3737.964962,153.219100,666.185348,9770.718434
3737.965276,76.609550,962.267725,9030.512492
3737.965591,76.609550,666.185348,9030.512492
3737.965906,459.657299,-296.082377,9326.594869
3737.966220,153.219100,-814.226536,8512.368333
3737.966535,-536.266849,-1628.453072,9918.759623
3737.966850,0.000000,-1036.288319,9844.739029
3737.967164,0.000000,-740.205942,10658.965565
3737.967479,-689.485948,592.164754,10214.842000
3737.967794,-459.657299,1702.473667,9400.615463
3737.968108,0.000000,1924.535449,8660.409521
3737.968423,383.047749,888.247130,9030.512492
3737.968738,612.876398,222.061783,9326.594869
3737.969052,153.219100,-518.144159,9548.656652
3737.969367,-536.266849,-666.185348,9918.759623
3737.969681,-459.657299,-666.185348,10140.821405
3737.969996,-383.047749,-0.000000,9992.780217
3737.970311,-766.095498,1036.288319,9696.697840
3737.970625,-919.314598,1628.453072,9104.533087
3737.970940,-689.485948,1036.288319,9326.594869
3737.971255,-612.876398,222.061783,9992.780217
3737.971569,-383.047749,-444.123565,9844.739029
3737.971884,-919.314598,-1184.329507,10214.842000
3737.972199,-766.095498,-1110.308913,10436.903782
3737.972513,-306.438199,-222.061783,10584.944971
3737.972828,0.000000,814.226536,10214.842000
3737.973143,383.047749,1554.432478,9474.636058
3737.973457,536.266849,1998.556043,8660.409521
3737.973772,459.657299,1628.453072,8882.471304
3737.974087,612.876398,1110.308913,8808.450710
3737.974401,612.876398,-148.041188,9400.615463
3737.974716,306.438199,-1554.432478,10066.800811
3737.975031,-536.266849,-962.267725,10288.862594
3737.975345,-383.047749,-444.123565,10807.006753
3737.975660,-459.657299,148.041188,9918.759623
3737.975975,0.000000,888.247130,9400.615463
3737.976289,612.876398,1184.329507,9104.533087
3737.976604,689.485948,666.185348,8882.471304
3737.976919,536.266849,222.061783,9252.574275
3737.977233,689.485948,-370.102971,9400.615463
3737.977548,689.485948,-518.144159,9696.697840
3737.977863,1072.533697,-444.123565,10510.924376
3737.978177,1149.143247,740.205942,10214.842000
3737.978492,919.314598,1554.432478,9696.697840
3737.978807,995.924147,1998.556043,8586.388927
3737.979121,1225.752797,1628.453072,8438.347739
3737.979436,1378.971896,592.164754,9178.553681
3737.979751,919.314598,-0.000000,9548.656652
3737.980065,689.485948,-592.164754,9548.656652
3737.980380,76.609550,-1406.391290,10140.821405
3737.980695,76.609550,-1036.288319,10214.842000
3737.981009,0.000000,-0.000000,9918.759623
3737.981324,153.219100,666.185348,9474.636058
3737.981639,383.047749,1332.370696,8586.388927
3737.981953,842.705048,1110.308913,8586.388927
3737.982268,919.314598,444.123565,9400.615463
3737.982582,842.705048,-518.144159,9770.718434
3737.982897,153.219100,-1110.308913,9548.656652
3737.983212,76.609550,-1036.288319,10066.800811
3737.983526,229.828649,-296.082377,10362.883188
3737.983841,536.266849,518.144159,10510.924376
3737.984156,229.828649,1184.329507,9326.594869
3737.984470,0.000000,1332.370696,8586.388927
3737.984785,0.000000,740.205942,9252.574275
3737.985100,0.000000,-0.000000,9326.594869
3737.985414,-459.657299,-1184.329507,9474.636058
3737.985729,-919.314598,-1258.350101,9844.739029
3737.986044,-919.314598,-1406.391290,10362.883188
3737.986358,-689.485948,-444.123565,10288.862594
3737.986673,-689.485948,370.102971,9622.677246
3737.986988,-612.876398,888.247130,9474.636058
3737.987302,-536.266849,1110.308913,9326.594869
3737.987617,0.000000,370.102971,9104.533087
3737.987932,0.000000,-0.000000,9474.636058
3737.988246,0.000000,-222.061783,9474.636058
3737.988561,-1225.752797,-888.247130,10066.800811
3737.988876,-459.657299,-296.082377,10214.842000
3737.989190,0.000000,444.123565,10140.821405
3737.989505,-306.438199,740.205942,9326.594869
3737.989820,76.609550,1258.350101,8586.388927
3737.990134,459.657299,666.185348,9252.574275
3737.990449,229.828649,444.123565,9474.636058
3737.990764,-306.438199,-74.020594,9400.615463
3737.991078,-306.438199,-666.185348,9474.636058
3737.991393,-153.219100,-1258.350101,9918.759623
3737.991708,0.000000,-370.102971,10140.821405
3737.992022,0.000000,444.123565,9992.780217
3737.992337,-306.438199,1406.391290,9548.656652
3737.992652,-153.219100,1628.453072,8808.450710
3737.992966,459.657299,1110.308913,9104.533087
3737.993281,612.876398,-0.000000,9474.636058
3737.993596,306.438199,-518.144159,9474.636058
3737.993910,0.000000,-814.226536,9992.780217
3737.994225,-306.438199,-592.164754,10584.944971
3737.994540,0.000000,-0.000000,10732.986159
3737.994854,306.438199,1036.288319,9696.697840
3737.995169,459.657299,1406.391290,9326.594869
3737.995483,842.705048,1110.308913,8882.471304
3737.995798,1149.143247,592.164754,8734.430116
3737.996113,612.876398,-74.020594,9252.574275
3737.996427,229.828649,-592.164754,9696.697840
3737.996742,229.828649,-666.185348,9992.780217
3737.997057,153.219100,-222.061783,9918.759623
3737.997371,612.876398,666.185348,9474.636058
3737.997686,153.219100,888.247130,9030.512492
3737.998001,612.876398,1036.288319,9178.553681
3737.998315,995.924147,592.164754,9178.553681
3737.998630,459.657299,-0.000000,9548.656652
3737.998945,383.047749,-592.164754,9844.739029
3737.999259,0.000000,-666.185348,10140.821405
3737.999574,-229.828649,-666.185348,10362.883188
3737.999889,76.609550,-296.082377,10658.965565
3738.000203,306.438199,666.185348,10066.800811
3738.000518,306.438199,1776.494261,9252.574275
3738.000833,689.485948,1628.453072,9030.512492
3738.001147,1072.533697,814.226536,9178.553681
3738.001462,1072.533697,-222.061783,9326.594869
3738.001777,919.314598,-518.144159,9326.594869
3738.002091,153.219100,-888.247130,9918.759623
3738.002406,153.219100,-296.082377,10510.924376
3738.002721,383.047749,296.082377,9918.759623
3738.003035,229.828649,888.247130,8808.450710
3738.003350,229.828649,814.226536,8290.306550
3738.003665,612.876398,666.185348,8364.327145
3738.003979,383.047749,-148.041188,9474.636058
3738.004294,0.000000,-962.267725,9844.739029
3738.004609,-1072.533697,-1406.391290,9770.718434
3738.004923,-766.095498,-1110.308913,10288.862594
3738.005238,-459.657299,-518.144159,10362.883188
3738.005553,-612.876398,518.144159,9992.780217
3738.005867,-689.485948,1036.288319,9622.677246
3738.006182,-306.438199,1480.411884,8586.388927
3738.006497,153.219100,1036.288319,9252.574275
3738.006811,612.876398,222.061783,9474.636058
3738.007126,383.047749,-592.164754,9548.656652
3738.007441,-76.609550,-814.226536,9622.677246
3738.007755,-383.047749,-666.185348,9844.739029
3738.008070,-383.047749,-0.000000,10140.821405
3738.008385,-306.438199,666.185348,9178.553681
3738.008699,-229.828649,962.267725,9252.574275
3738.009014,-229.828649,888.247130,8808.450710
3738.009329,0.000000,-148.041188,9252.574275
3738.009643,0.000000,-888.247130,9622.677246
3738.009958,-459.657299,-1554.432478,9992.780217
3738.010273,-536.266849,-1628.453072,10066.800811
3738.010587,-612.876398,-666.185348,10584.944971
3738.010902,-306.438199,222.061783,10214.842000
3738.011217,306.438199,888.247130,9992.780217
3738.011532,612.876398,1702.473667,8808.450710
3738.011846,842.705048,962.267725,8956.491898
3738.012161,766.095498,1110.308913,9030.512492
3738.012476,536.266849,-0.000000,9326.594869
3738.012790,383.047749,-518.144159,9622.677246
3738.013105,612.876398,-814.226536,10214.842000
3738.013420,76.609550,-666.185348,10288.862594
3738.013735,0.000000,740.205942,9992.780217
3738.014049,0.000000,1036.288319,9474.636058
3738.014364,0.000000,888.247130,8586.388927
3738.014679,76.609550,444.123565,9030.512492
3738.014994,153.219100,-444.123565,9474.636058
3738.015308,-459.657299,-1110.308913,9918.759623
3738.015623,-536.266849,-1480.411884,10214.842000
3738.015938,-229.828649,-1184.329507,10732.986159
3738.016252,153.219100,296.082377,10436.903782
3738.016567,0.000000,1332.370696,10436.903782
3738.016882,306.438199,1702.473667,9030.512492
3738.017197,612.876398,1628.453072,8512.368333
3738.017511,1455.581446,1110.308913,9104.533087
3738.017826,1225.752797,-0.000000,9326.594869
3738.018141,612.876398,-444.123565,9400.615463
3738.018455,536.266849,-740.205942,9696.697840
3738.018770,153.219100,-592.164754,10288.862594
3738.019085,229.828649,-0.000000,10140.821405
3738.019400,-229.828649,-0.000000,9252.574275
3738.019714,0.000000,962.267725,8956.491898
3738.020029,459.657299,888.247130,8734.430116
3738.020344,76.609550,-0.000000,8882.471304
3738.020659,0.000000,-370.102971,9474.636058
3738.020973,-153.219100,-888.247130,9992.780217
3738.021288,-383.047749,-666.185348,9844.739029
3738.021603,0.000000,-148.041188,10510.924376
3738.021917,153.219100,1110.308913,10140.821405
3738.022232,0.000000,1628.453072,9474.636058
3738.022547,536.266849,2220.617826,9474.636058
3738.022862,612.876398,1110.308913,9178.553681
3738.023176,383.047749,296.082377,9326.594869
3738.023491,0.000000,296.082377,9844.739029
3738.023806,-383.047749,-888.247130,10436.903782
3738.024120,-459.657299,-814.226536,10288.862594
3738.024435,-689.485948,-370.102971,10436.903782
3738.024750,-612.876398,444.123565,9400.615463
3738.025065,-459.657299,888.247130,9400.615463
3738.025379,-689.485948,888.247130,9104.533087
3738.025694,-229.828649,-0.000000,9474.636058
3738.026009,-459.657299,-666.185348,9400.615463
3738.026324,-536.266849,-1036.288319,9622.677246
3738.026638,76.609550,-1036.288319,9992.780217
3738.026953,0.000000,-444.123565,10214.842000
3738.027268,0.000000,148.041188,10362.883188
3738.027582,-306.438199,1036.288319,9844.739029
3738.027897,229.828649,1850.514855,8882.471304
3738.028212,536.266849,1554.432478,8808.450710
3738.028527,766.095498,592.164754,9326.594869
3738.028841,689.485948,-222.061783,9326.594869
3738.029156,383.047749,-1110.308913,9548.656652
3738.029471,153.219100,-1184.329507,9770.718434
3738.029785,-153.219100,-518.144159,10214.842000
3738.030100,0.000000,-0.000000,9770.718434
3738.030415,-383.047749,888.247130,9474.636058
3738.030730,306.438199,1036.288319,8808.450710
3738.031044,612.876398,-0.000000,9104.533087
3738.031359,689.485948,-0.000000,9178.553681
3738.031674,536.266849,-1110.308913,9622.677246
3738.031989,-306.438199,-888.247130,9770.718434
3738.032303,0.000000,-592.164754,10584.944971
3738.032618,153.219100,518.144159,9918.759623
3738.032933,689.485948,888.247130,9548.656652
3738.033247,766.095498,1184.329507,9252.574275
3738.033562,689.485948,1184.329507,9474.636058
3738.033877,612.876398,296.082377,9326.594869
3738.034192,459.657299,-592.164754,9770.718434
3738.034506,0.000000,-666.185348,9918.759623
3738.034821,-229.828649,-1776.494261,10584.944971
3738.035136,-612.876398,-814.226536,10510.924376
3738.035450,-306.438199,-0.000000,10066.800811
3738.035765,-459.657299,962.267725,9104.533087
3738.036080,-76.609550,1332.370696,8882.471304
3738.036395,689.485948,-0.000000,8142.265362
3738.036709,689.485948,-0.000000,9178.553681
3738.037024,536.266849,-444.123565,9474.636058
3738.037339,0.000000,-1258.350101,9474.636058
3738.037654,383.047749,-888.247130,9844.739029
3738.037968,459.657299,-444.123565,9474.636058
3738.038283,76.609550,518.144159,9770.718434
3738.038598,0.000000,1332.370696,9252.574275
3738.038912,229.828649,1776.494261,9030.512492
3738.039227,383.047749,666.185348,9104.533087
3738.039542,536.266849,-0.000000,10066.800811
3738.039857,306.438199,-592.164754,9696.697840
3738.040171,0.000000,-1258.350101,9770.718434
3738.040486,0.000000,-888.247130,10362.883188
3738.040801,383.047749,222.061783,10288.862594
3738.041115,153.219100,1184.329507,9326.594869
3738.041430,383.047749,1850.514855,8512.368333
3738.041745,842.705048,1554.432478,8364.327145
3738.042060,1072.533697,740.205942,8734.430116
3738.042374,689.485948,222.061783,9474.636058
3738.042689,0.000000,-518.144159,9474.636058
3738.043004,-459.657299,-1184.329507,10140.821405
3738.043319,-919.314598,-74.020594,10362.883188
3738.043633,-306.438199,666.185348,10214.842000
3738.043948,-612.876398,1110.308913,9992.780217
3738.044263,-383.047749,1480.411884,9992.780217
3738.044577,0.000000,1258.350101,9844.739029
3738.044892,153.219100,518.144159,9696.697840
3738.045207,-306.438199,-0.000000,9992.780217
3738.045522,-383.047749,-370.102971,10140.821405
3738.045836,0.000000,-888.247130,10288.862594
3738.046151,229.828649,592.164754,10214.842000
3738.046466,459.657299,1258.350101,9030.512492
3738.046780,153.219100,2146.597232,8734.430116
3738.047095,536.266849,1924.535449,8512.368333
3738.047410,766.095498,814.226536,8734.430116
3738.047725,229.828649,-0.000000,9104.533087
3738.048039,-612.876398,-1036.288319,9474.636058
3738.048354,-459.657299,-1406.391290,10288.862594
3738.048669,-1149.143247,-1628.453072,10658.965565
3738.048984,-995.924147,-814.226536,10362.883188
3738.049298,-919.314598,444.123565,10066.800811
3738.049613,-536.266849,1332.370696,9622.677246
3738.049928,229.828649,1406.391290,9326.594869
3738.050242,689.485948,888.247130,9474.636058
3738.050557,536.266849,370.102971,9474.636058
3738.050872,383.047749,-222.061783,9474.636058
3738.051187,612.876398,-444.123565,9992.780217
3738.051501,766.095498,-0.000000,10140.821405
3738.051816,0.000000,370.102971,9770.718434
3738.052131,153.219100,1184.329507,9400.615463
3738.052445,0.000000,1406.391290,8734.430116
3738.052760,306.438199,444.123565,8808.450710
3738.053075,536.266849,-370.102971,9696.697840
3738.053390,0.000000,-1258.350101,9844.739029
3738.053704,-536.266849,-1554.432478,10214.842000
3738.054019,-612.876398,-1258.350101,10214.842000
3738.054334,0.000000,-222.061783,10140.821405
3738.054649,229.828649,814.226536,10066.800811
3738.054963,306.438199,1406.391290,9104.533087
3738.055278,1149.143247,1480.411884,8660.409521
3738.055593,1072.533697,888.247130,8956.491898
3738.055907,1149.143247,370.102971,9326.594869
3738.056222,536.266849,-222.061783,9400.615463
3738.056537,0.000000,-666.185348,9474.636058
3738.056852,153.219100,-888.247130,10436.903782
3738.057166,229.828649,-518.144159,9992.780217
3738.057481,0.000000,-0.000000,9400.615463
3738.057796,0.000000,592.164754,8882.471304
3738.058110,76.609550,-0.000000,9326.594869
3738.058425,-306.438199,-0.000000,9252.574275
3738.058740,76.609550,-888.247130,8882.471304
3738.059055,-536.266849,-2072.576638,9474.636058
3738.059369,-229.828649,-2072.576638,9696.697840
3738.059684,76.609550,-1850.514855,10214.842000
3738.059999,0.000000,-148.041188,9696.697840
3738.060314,0.000000,962.267725,9178.553681
3738.060628,383.047749,1776.494261,8660.409521
3738.060943,919.314598,888.247130,8808.450710
3738.061258,995.924147,444.123565,9252.574275
3738.061572,229.828649,-666.185348,9622.677246
3738.061887,-536.266849,-1480.411884,10362.883188
3738.062202,-383.047749,-1332.370696,10436.903782
3738.062517,-383.047749,-740.205942,10732.986159
3738.062831,0.000000,740.205942,10066.800811
3738.063146,-459.657299,814.226536,9030.512492
3738.063461,153.219100,814.226536,9326.594869
3738.063775,536.266849,296.082377,9770.718434
3738.064090,459.657299,-0.000000,9474.636058
3738.064405,153.219100,-666.185348,9400.615463
3738.064720,-383.047749,-740.205942,9992.780217
3738.065034,76.609550,-444.123565,9770.718434
3738.065349,306.438199,296.082377,10214.842000
3738.065664,229.828649,1332.370696,9178.553681
3738.065979,383.047749,1332.370696,9178.553681
3738.066293,536.266849,1406.391290,8956.491898
3738.066608,383.047749,592.164754,9474.636058
3738.066923,229.828649,370.102971,9548.656652
3738.067237,-229.828649,-444.123565,9918.759623
3738.067552,-383.047749,-740.205942,10510.924376
3738.067867,0.000000,-666.185348,11029.068536
3738.068182,0.000000,518.144159,9844.739029
3738.068496,76.609550,1258.350101,9400.615463
3738.068811,459.657299,1850.514855,8438.347739
3738.069126,995.924147,1258.350101,9326.594869
3738.069440,459.657299,666.185348,9326.594869
3738.069755,229.828649,-0.000000,9474.636058
3738.070070,-229.828649,-296.082377,9474.636058
3738.070385,0.000000,-962.267725,9992.780217
3738.070699,0.000000,-74.020594,9992.780217
3738.071014,0.000000,814.226536,9622.677246
3738.071329,0.000000,1036.288319,8956.491898
3738.071644,459.657299,1258.350101,8956.491898
3738.071958,766.095498,1258.350101,8956.491898
3738.072273,536.266849,518.144159,9326.594869
3738.072588,0.000000,-222.061783,9548.656652
3738.072902,-229.828649,-518.144159,10140.821405
3738.073217,0.000000,-444.123565,10066.800811
3738.073532,229.828649,-0.000000,10214.842000
3738.073847,383.047749,740.205942,9474.636058
3738.074161,383.047749,1184.329507,9030.512492
3738.074476,612.876398,1332.370696,9474.636058
3738.074791,919.314598,1184.329507,9474.636058
3738.075106,306.438199,222.061783,9696.697840
3738.075420,153.219100,-222.061783,9696.697840
3738.075735,0.000000,-444.123565,10288.862594
3738.076050,229.828649,-0.000000,10362.883188
3738.076364,0.000000,740.205942,9844.739029
3738.076679,0.000000,888.247130,9252.574275
3738.076994,0.000000,1480.411884,9178.553681
3738.077309,153.219100,666.185348,9178.553681
3738.077623,76.609550,296.082377,10066.800811
3738.077938,-383.047749,-370.102971,9992.780217
3738.078253,0.000000,-814.226536,10214.842000
3738.078567,-153.219100,-740.205942,10881.027347
3738.078882,0.000000,-222.061783,10584.944971
3738.079197,0.000000,814.226536,9696.697840
3738.079512,0.000000,1406.391290,8956.491898
3738.079826,76.609550,1406.391290,8808.450710
3738.080141,842.705048,740.205942,8882.471304
3738.080456,306.438199,-74.020594,8882.471304
3738.080771,-306.438199,-888.247130,9696.697840
3738.081085,-766.095498,-1332.370696,9696.697840
3738.081400,-612.876398,-1776.494261,10732.986159
3738.081715,-459.657299,-296.082377,9770.718434
3738.082029,-536.266849,-0.000000,9474.636058
3738.082344,-153.219100,444.123565,8882.471304
3738.082659,612.876398,592.164754,9178.553681
3738.082974,1149.143247,-0.000000,9104.533087
3738.083288,0.000000,-814.226536,9474.636058
3738.083603,0.000000,-1036.288319,9474.636058
3738.083918,459.657299,-1332.370696,10214.842000
3738.084232,153.219100,-740.205942,10436.903782
3738.084547,153.219100,-0.000000,9770.718434
3738.084862,229.828649,814.226536,8808.450710
3738.085177,536.266849,814.226536,8734.430116
3738.085491,1072.533697,370.102971,9326.594869
3738.085806,383.047749,-370.102971,9474.636058
3738.086121,383.047749,-1036.288319,9400.615463
3738.086436,153.219100,-1258.350101,9918.759623
3738.086750,0.000000,-1036.288319,10214.842000
3738.087065,0.000000,-592.164754,10807.006753
3738.087380,0.000000,444.123565,9992.780217
3738.087694,0.000000,1036.288319,8882.471304
3738.088009,229.828649,1332.370696,8882.471304
3738.088324,612.876398,1036.288319,9252.574275
3738.088639,383.047749,296.082377,9844.739029
3738.088953,153.219100,-592.164754,9548.656652
3738.089268,0.000000,-814.226536,9918.759623
3738.089583,306.438199,-740.205942,10510.924376
3738.089897,76.609550,296.082377,9770.718434
3738.090212,0.000000,1406.391290,9474.636058
3738.090527,383.047749,1554.432478,8660.409521
3738.090842,383.047749,1110.308913,8808.450710
3738.091156,229.828649,370.102971,9252.574275
3738.091471,-459.657299,-370.102971,9474.636058
3738.091786,-612.876398,-1258.350101,9844.739029
3738.092101,-995.924147,-1628.453072,10807.006753
3738.092415,-689.485948,-518.144159,10732.986159
3738.092730,-229.828649,592.164754,9918.759623
3738.093045,-153.219100,1184.329507,9474.636058
3738.093359,612.876398,1110.308913,8956.491898
3738.093674,1225.752797,962.267725,8882.471304
3738.093989,1149.143247,814.226536,9178.553681
3738.094304,76.609550,-0.000000,9030.512492
3738.094618,-153.219100,-518.144159,9622.677246
3738.094933,0.000000,-148.041188,10658.965565
3738.095248,-612.876398,296.082377,9844.739029
3738.095562,-459.657299,1110.308913,9474.636058
3738.095877,-459.657299,1554.432478,9400.615463
3738.096192,-459.657299,1184.329507,9400.615463
3738.096507,-229.828649,444.123565,9400.615463
3738.096821,-383.047749,-148.041188,9548.656652
3738.097136,-689.485948,-592.164754,10658.965565
3738.097451,-229.828649,-518.144159,10732.986159
3738.097766,0.000000,-148.041188,11177.109724
3738.098080,0.000000,592.164754,10214.842000
3738.098395,0.000000,1998.556043,9104.533087
3738.098710,842.705048,2146.597232,8808.450710
3738.099024,1685.410096,1998.556043,8586.388927
3738.099339,995.924147,962.267725,9326.594869
3738.099654,536.266849,-74.020594,9326.594869
3738.099969,0.000000,-666.185348,9252.574275
3738.100283,0.000000,-1036.288319,10214.842000
3738.100598,76.609550,-518.144159,10510.924376
3738.100913,0.000000,296.082377,10140.821405
3738.101227,76.609550,1258.350101,8808.450710
3738.101542,383.047749,1036.288319,8882.471304
3738.101857,689.485948,592.164754,9178.553681
3738.102172,459.657299,-148.041188,9474.636058
3738.102486,383.047749,-296.082377,10214.842000
3738.102801,0.000000,-962.267725,10140.821405
3738.103116,536.266849,-74.020594,10436.903782
3738.103431,842.705048,592.164754,9770.718434
3738.103745,842.705048,1406.391290,9030.512492
3738.104060,842.705048,1776.494261,9474.636058
3738.104375,1302.362347,1480.411884,8660.409521
3738.104689,1302.362347,518.144159,9474.636058
3738.105004,612.876398,-148.041188,9474.636058
3738.105319,0.000000,-1554.432478,9474.636058
3738.105634,-153.219100,-1924.535449,10140.821405
3738.105948,-383.047749,-1480.411884,10510.924376
3738.106263,-229.828649,-444.123565,10140.821405
3738.106578,-459.657299,-0.000000,9622.677246
3738.106892,-229.828649,666.185348,9400.615463
3738.107207,459.657299,296.082377,9400.615463
3738.107522,383.047749,-0.000000,9548.656652
3738.107837,0.000000,-888.247130,10214.842000
3738.108151,76.609550,-962.267725,10584.944971
3738.108466,459.657299,-888.247130,10658.965565
3738.108781,995.924147,-74.020594,10807.006753
3738.109096,459.657299,888.247130,9474.636058
3738.109410,612.876398,1702.473667,9030.512492
3738.109725,689.485948,962.267725,8956.491898
3738.110040,766.095498,-0.000000,9252.574275
3738.110354,229.828649,-592.164754,9252.574275
3738.110669,-612.876398,-1184.329507,9474.636058
3738.110984,-766.095498,-2146.597232,9918.759623
3738.111299,-842.705048,-2146.597232,10214.842000
3738.111613,-766.095498,-888.247130,9622.677246
3738.111928,-459.657299,-0.000000,9400.615463
3738.112243,-459.657299,740.205942,8512.368333
3738.112557,0.000000,592.164754,8216.285956
3738.112872,153.219100,444.123565,8882.471304
3738.113187,0.000000,-444.123565,9178.553681
3738.113502,-229.828649,-1110.308913,9622.677246
3738.113816,-536.266849,-1110.308913,10288.862594
3738.114131,0.000000,-74.020594,9770.718434
3738.114446,0.000000,888.247130,9178.553681
3738.114760,229.828649,1332.370696,9030.512492
3738.115075,383.047749,1406.391290,8512.368333
3738.115390,229.828649,888.247130,9326.594869
3738.115704,383.047749,-296.082377,9400.615463
3738.116019,-383.047749,-1036.288319,9178.553681
3738.116334,-612.876398,-1332.370696,9696.697840
3738.116648,-459.657299,-1332.370696,9918.759623
3738.116963,-229.828649,-666.185348,10140.821405
3738.117278,-383.047749,148.041188,9622.677246
3738.117592,0.000000,1036.288319,9178.553681
3738.117907,536.266849,1332.370696,8660.409521
3738.118222,766.095498,962.267725,9178.553681
3738.118537,612.876398,518.144159,9474.636058
3738.118851,229.828649,-296.082377,10140.821405
3738.119166,153.219100,-444.123565,11103.089130
3738.119481,153.219100,-0.000000,11029.068536
3738.119795,306.438199,518.144159,10807.006753
3738.120110,689.485948,1332.370696,9992.780217
3738.120425,919.314598,2220.617826,9474.636058
3738.120739,919.314598,1702.473667,9178.553681
3738.121054,842.705048,888.247130,9548.656652
3738.121369,612.876398,-0.000000,9918.759623
3738.121683,76.609550,-740.205942,9844.739029
3738.121998,0.000000,-962.267725,10288.862594
3738.122313,153.219100,-370.102971,10436.903782
3738.122628,-229.828649,888.247130,9622.677246
3738.122942,0.000000,1554.432478,9474.636058
3738.123257,306.438199,1776.494261,8586.388927
3738.123572,1072.533697,1184.329507,9030.512492
3738.123886,919.314598,740.205942,9474.636058
3738.124201,612.876398,296.082377,9548.656652
3738.124516,76.609550,-666.185348,9918.759623
3738.124830,0.000000,296.082377,10214.842000
3738.125145,-153.219100,518.144159,10436.903782
3738.125460,0.000000,962.267725,9918.759623
3738.125774,153.219100,1702.473667,8956.491898
3738.126089,383.047749,1258.350101,8956.491898
3738.126404,536.266849,814.226536,9178.553681
3738.126718,76.609550,370.102971,8882.471304
3738.127033,-229.828649,-740.205942,9178.553681
3738.127348,-995.924147,-1332.370696,9548.656652
3738.127663,459.657299,-962.267725,10362.883188
3738.127977,-229.828649,-148.041188,9474.636058
3738.128292,-383.047749,1036.288319,9400.615463
3738.128607,0.000000,1184.329507,8808.450710
3738.128921,306.438199,814.226536,8956.491898
3738.129236,612.876398,-0.000000,9104.533087
3738.129551,76.609550,-888.247130,9770.718434
3738.129865,0.000000,-740.205942,9844.739029
3738.130180,-459.657299,-814.226536,10436.903782
3738.130495,-383.047749,-148.041188,10510.924376
3738.130809,229.828649,666.185348,10214.842000
3738.131124,383.047749,1406.391290,9326.594869
3738.131439,612.876398,1184.329507,9252.574275
3738.131753,459.657299,666.185348,9104.533087
3738.132068,153.219100,-74.020594,9326.594869
3738.132383,0.000000,-888.247130,9474.636058
3738.132698,-383.047749,-1554.432478,10214.842000
3738.133012,-689.485948,-1480.411884,10658.965565
3738.133327,-383.047749,-740.205942,10214.842000
3738.133642,-306.438199,148.041188,9178.553681
3738.133956,689.485948,814.226536,8660.409521
3738.134271,612.876398,444.123565,9104.533087
3738.134586,383.047749,444.123565,8956.491898
3738.134900,76.609550,-444.123565,9474.636058
3738.135215,-229.828649,-1110.308913,10066.800811
3738.135530,0.000000,-1480.411884,10288.862594
3738.135844,-306.438199,-888.247130,10881.027347
3738.136159,-229.828649,-0.000000,10066.800811
3738.136474,153.219100,814.226536,9770.718434
3738.136788,536.266849,814.226536,9178.553681
3738.137103,766.095498,370.102971,9326.594869
3738.137418,689.485948,-0.000000,9252.574275
3738.137733,459.657299,-518.144159,9030.512492
3738.138047,459.657299,-1184.329507,9178.553681
3738.138362,153.219100,-1480.411884,9844.739029
3738.138677,383.047749,-518.144159,10288.862594
3738.138991,229.828649,370.102971,9400.615463
3738.139306,153.219100,1110.308913,8586.388927
3738.139621,306.438199,814.226536,8882.471304
3738.139935,689.485948,-0.000000,8512.368333
3738.140250,612.876398,-518.144159,9326.594869
3738.140565,0.000000,-888.247130,9918.759623
3738.140879,-306.438199,-1036.288319,10140.821405
3738.141194,0.000000,-814.226536,10732.986159
3738.141509,76.609550,-0.000000,10436.903782
3738.141823,0.000000,1184.329507,10066.800811
3738.142138,0.000000,1702.473667,9178.553681
3738.142453,459.657299,1110.308913,9030.512492
3738.142768,536.266849,1036.288319,9178.553681
3738.143082,383.047749,-0.000000,9474.636058
3738.143397,-459.657299,-592.164754,9400.615463
3738.143712,-383.047749,-666.185348,9918.759623
3738.144026,0.000000,-370.102971,10214.842000
3738.144341,-306.438199,296.082377,9770.718434
3738.144656,0.000000,888.247130,8882.471304
3738.144970,0.000000,1110.308913,9030.512492
3738.145285,0.000000,814.226536,8882.471304
3738.145600,-153.219100,370.102971,8882.471304
3738.145914,-383.047749,-0.000000,9696.697840
3738.146229,-766.095498,-666.185348,9844.739029
3738.146544,-459.657299,-740.205942,10807.006753
3738.146858,0.000000,370.102971,10362.883188
3738.147173,0.000000,1184.329507,10140.821405
3738.147488,0.000000,1998.556043,9178.553681
3738.147803,229.828649,2072.576638,8882.471304
3738.148117,1378.971896,1332.370696,9770.718434
3738.148432,919.314598,1110.308913,9400.615463
3738.148747,766.095498,444.123565,8956.491898
3738.149061,306.438199,-296.082377,9474.636058
3738.149376,536.266849,-222.061783,9918.759623
3738.149691,536.266849,370.102971,10066.800811
3738.150005,459.657299,1184.329507,9104.533087
3738.150320,229.828649,1554.432478,8734.430116
3738.150635,383.047749,1332.370696,8734.430116
3738.150949,612.876398,370.102971,9474.636058
3738.151264,76.609550,-74.020594,9992.780217
3738.151579,-383.047749,-370.102971,10362.883188
3738.151893,-153.219100,-370.102971,10881.027347
3738.152208,0.000000,296.082377,10510.924376
3738.152523,306.438199,1406.391290,10436.903782
3738.152838,536.266849,1998.556043,9548.656652
3738.153152,536.266849,2146.597232,9770.718434
3738.153467,689.485948,1554.432478,9622.677246
3738.153782,383.047749,740.205942,9548.656652
3738.154096,612.876398,-296.082377,9918.759623
3738.154411,76.609550,-740.205942,9992.780217
3738.154726,0.000000,-888.247130,10436.903782
3738.155040,0.000000,-444.123565,10732.986159
3738.155355,-536.266849,222.061783,9622.677246
3738.155670,-153.219100,518.144159,9326.594869
3738.155984,153.219100,814.226536,8734.430116
3738.156299,459.657299,-222.061783,8808.450710
3738.156614,306.438199,-814.226536,9252.574275
3738.156928,0.000000,-962.267725,9474.636058
3738.157243,-689.485948,-1776.494261,10140.821405
3738.157558,-383.047749,-888.247130,10066.800811
3738.157873,0.000000,222.061783,9622.677246
3738.158187,0.000000,1184.329507,8956.491898
3738.158502,229.828649,1258.350101,8956.491898
3738.158817,229.828649,296.082377,9548.656652
3738.159131,0.000000,-0.000000,9770.718434
3738.159446,76.609550,-962.267725,9400.615463
3738.159761,0.000000,-888.247130,9622.677246
3738.160075,0.000000,-1406.391290,9992.780217
3738.160390,229.828649,-814.226536,10214.842000
3738.160705,0.000000,-148.041188,9548.656652
3738.161019,-229.828649,-0.000000,8956.491898
3738.161334,0.000000,222.061783,8142.265362
3738.161649,383.047749,-74.020594,8364.327145
3738.161963,536.266849,-888.247130,9178.553681
3738.162278,-153.219100,-1554.432478,9770.718434
3738.162593,-842.705048,-2294.638420,9918.759623
3738.162908,-612.876398,-1998.556043,10288.862594
3738.163222,0.000000,-740.205942,10510.924376
3738.163537,0.000000,592.164754,9696.697840
3738.163852,306.438199,1258.350101,8956.491898
3738.164166,689.485948,962.267725,8882.471304
3738.164481,842.705048,296.082377,9400.615463
3738.164796,842.705048,-148.041188,9696.697840
3738.165110,76.609550,-444.123565,9992.780217
3738.165425,0.000000,-1036.288319,10066.800811
3738.165740,0.000000,-814.226536,10584.944971
3738.166054,0.000000,-0.000000,9696.697840
3738.166369,153.219100,148.041188,9326.594869
3738.166684,229.828649,370.102971,8734.430116
3738.166999,536.266849,-0.000000,8956.491898
3738.167313,536.266849,-0.000000,8882.471304
3738.167628,0.000000,-148.041188,8808.450710
3738.167943,-459.657299,-740.205942,9548.656652
3738.168257,0.000000,-1110.308913,9992.780217
3738.168572,153.219100,-148.041188,9770.718434
3738.168887,459.657299,962.267725,9622.677246
3738.169201,0.000000,1554.432478,9474.636058
3738.169516,229.828649,1332.370696,9474.636058
3738.169831,766.095498,1184.329507,9326.594869
3738.170145,153.219100,666.185348,9548.656652
3738.170460,0.000000,-0.000000,9844.739029
3738.170775,536.266849,-888.247130,10362.883188
3738.171089,153.219100,-370.102971,10881.027347
3738.171404,153.219100,740.205942,10510.924376
3738.171719,76.609550,1480.411884,9474.636058
3738.172034,383.047749,1554.432478,8512.368333
3738.172348,919.314598,1554.432478,8660.409521
3738.172663,689.485948,888.247130,9252.574275
3738.172978,0.000000,296.082377,9622.677246
3738.173292,-459.657299,-370.102971,9918.759623
3738.173607,-459.657299,-444.123565,10066.800811
3738.173922,-612.876398,-370.102971,10955.047942
3738.174236,-306.438199,518.144159,10288.862594
3738.174551,0.000000,1702.473667,9992.780217
3738.174866,0.000000,1850.514855,9252.574275
3738.175180,536.266849,1702.473667,9696.697840
3738.175495,689.485948,1258.350101,9918.759623
3738.175810,459.657299,666.185348,9844.739029
3738.176124,229.828649,-0.000000,10214.842000
3738.176439,229.828649,-74.020594,10214.842000
3738.176754,459.657299,518.144159,10288.862594
3738.177069,306.438199,962.267725,9474.636058
3738.177383,306.438199,1998.556043,8882.471304
3738.177698,536.266849,1776.494261,8734.430116
3738.178013,995.924147,962.267725,8364.327145
3738.178327,76.609550,518.144159,8956.491898
3738.178642,0.000000,-592.164754,9622.677246
3738.178957,-306.438199,-1332.370696,9622.677246
3738.179271,-383.047749,-740.205942,9992.780217
3738.179586,-383.047749,-0.000000,9992.780217
3738.179901,-306.438199,962.267725,9622.677246
3738.180215,-229.828649,1406.391290,9104.533087
3738.180530,306.438199,1036.288319,8956.491898
3738.180845,689.485948,962.267725,9178.553681
3738.181159,229.828649,666.185348,9474.636058
3738.181474,153.219100,-296.082377,9770.718434
3738.181789,1149.143247,-666.185348,10732.986159
3738.182104,536.266849,-222.061783,10288.862594
3738.182418,383.047749,518.144159,9548.656652
3738.182733,306.438199,1184.329507,8956.491898
3738.183048,536.266849,666.185348,8586.388927
3738.183362,1149.143247,-0.000000,8438.347739
3738.183677,229.828649,-74.020594,8660.409521
3738.183992,-459.657299,-1110.308913,9474.636058
3738.184306,-766.095498,-1628.453072,10066.800811
3738.184621,-689.485948,-1628.453072,10584.944971
3738.184936,-383.047749,-666.185348,10807.006753
3738.185250,-306.438199,148.041188,10732.986159
3738.185565,0.000000,666.185348,9474.636058
3738.185880,383.047749,666.185348,9252.574275
3738.186194,153.219100,518.144159,9548.656652
3738.186509,689.485948,148.041188,9474.636058
3738.186824,536.266849,-222.061783,9844.739029
3738.187139,229.828649,-518.144159,9918.759623
3738.187453,0.000000,-962.267725,10288.862594
3738.187768,0.000000,-740.205942,10288.862594
3738.188083,-306.438199,-0.000000,9474.636058
3738.188397,-306.438199,296.082377,9696.697840
3738.188712,0.000000,-222.061783,8956.491898
3738.189027,-153.219100,-444.123565,9548.656652
3738.189341,-306.438199,-1628.453072,9474.636058
3738.189656,-995.924147,-1480.411884,9770.718434
3738.189971,-536.266849,-1258.350101,9992.780217
3738.190285,0.000000,-888.247130,10140.821405
3738.190600,153.219100,-0.000000,9696.697840
3738.190915,76.609550,740.205942,9400.615463
3738.191229,383.047749,1036.288319,9104.533087
3738.191544,612.876398,888.247130,8882.471304
3738.191859,1225.752797,666.185348,8882.471304
3738.192174,919.314598,-0.000000,9474.636058
3738.192488,536.266849,-592.164754,9548.656652
3738.192803,153.219100,-962.267725,10362.883188
3738.193118,0.000000,-370.102971,9918.759623
3738.193432,-459.657299,444.123565,9400.615463
3738.193747,0.000000,1332.370696,8956.491898
3738.194062,383.047749,962.267725,8882.471304
3738.194376,383.047749,222.061783,9474.636058
3738.194691,306.438199,-592.164754,9178.553681
3738.195006,0.000000,-1258.350101,9326.594869
3738.195320,-383.047749,-888.247130,9992.780217
3738.195635,0.000000,-222.061783,10584.944971
3738.195950,76.609550,814.226536,10807.006753
3738.196264,306.438199,1554.432478,9474.636058
3738.196579,842.705048,1702.473667,8660.409521
3738.196894,766.095498,1332.370696,9326.594869
3738.197209,689.485948,962.267725,9474.636058
3738.197523,459.657299,-0.000000,9844.739029
3738.197838,153.219100,-370.102971,9770.718434
3738.198153,76.609550,-888.247130,10288.862594
3738.198467,-229.828649,-296.082377,10584.944971
3738.198782,-459.657299,444.123565,10140.821405
3738.199097,-612.876398,1184.329507,9770.718434
3738.199411,-306.438199,962.267725,9104.533087
3738.199726,-459.657299,888.247130,9030.512492
3738.200041,689.485948,296.082377,9104.533087
3738.200355,153.219100,-444.123565,9474.636058
3738.200670,0.000000,-666.185348,9918.759623
3738.200985,-306.438199,-296.082377,10288.862594
3738.201299,306.438199,592.164754,9992.780217
3738.201614,306.438199,1406.391290,9622.677246
3738.201929,383.047749,1850.514855,9400.615463
3738.202244,842.705048,1480.411884,8956.491898
3738.202558,919.314598,666.185348,9104.533087
3738.202873,306.438199,-74.020594,9548.656652
3738.203188,153.219100,-444.123565,9992.780217
3738.203502,0.000000,-888.247130,10214.842000
3738.203817,0.000000,-296.082377,10362.883188
3738.204132,459.657299,962.267725,9400.615463
3738.204446,153.219100,1702.473667,9104.533087
3738.204761,766.095498,1850.514855,8734.430116
3738.205076,995.924147,962.267725,8956.491898
3738.205390,766.095498,518.144159,8734.430116
3738.205705,153.219100,-740.205942,9548.656652
3738.206020,76.609550,-740.205942,10066.800811
3738.206334,-229.828649,-518.144159,10436.903782
3738.206649,0.000000,-370.102971,10955.047942
3738.206964,0.000000,444.123565,10214.842000
3738.207279,-153.219100,1480.411884,9326.594869
3738.207593,153.219100,1406.391290,9104.533087
3738.207908,536.266849,1110.308913,9178.553681
3738.208223,0.000000,444.123565,9178.553681
3738.208537,-459.657299,-296.082377,9474.636058
3738.208852,-383.047749,-1110.308913,9622.677246
3738.209167,-229.828649,-1406.391290,10584.944971
3738.209481,-306.438199,-740.205942,10214.842000
3738.209796,-306.438199,518.144159,10140.821405
3738.210111,0.000000,814.226536,9030.512492
3738.210425,612.876398,666.185348,8808.450710
3738.210740,612.876398,370.102971,9104.533087
3738.211055,306.438199,-0.000000,9178.553681
3738.211369,-306.438199,-1036.288319,9844.739029
3738.211684,-153.219100,-1184.329507,9992.780217
3738.211998,153.219100,-962.267725,10066.800811
3738.212313,0.000000,296.082377,9548.656652
3738.212628,-229.828649,666.185348,9548.656652
3738.212942,0.000000,740.205942,8956.491898
3738.213257,153.219100,222.061783,9252.574275
3738.213571,0.000000,-222.061783,9252.574275
3738.213886,-612.876398,-592.164754,10066.800811
3738.214201,-612.876398,-1184.329507,9548.656652
3738.214515,-229.828649,-1184.329507,10214.842000
3738.214830,-459.657299,-888.247130,10362.883188
3738.215144,-612.876398,-0.000000,10362.883188
3738.215459,0.000000,1184.329507,9770.718434
3738.215774,689.485948,1110.308913,9326.594869
3738.216088,383.047749,888.247130,9400.615463
3738.216403,612.876398,148.041188,9252.574275
3738.216717,0.000000,-740.205942,9696.697840
3738.217032,153.219100,-1184.329507,10140.821405
3738.217347,0.000000,-1036.288319,10288.862594
3738.217661,76.609550,296.082377,9992.780217
3738.217976,0.000000,1332.370696,9178.553681
3738.218290,0.000000,1406.391290,8290.306550
3738.218605,383.047749,666.185348,8734.430116
3738.218920,0.000000,-0.000000,9326.594869
3738.219234,0.000000,-888.247130,9400.615463
3738.219549,-1149.143247,-2220.617826,9622.677246
3738.219863,-1072.533697,-1406.391290,10807.006753
3738.220178,-536.266849,-592.164754,10807.006753
3738.220493,0.000000,-0.000000,10362.883188
3738.220807,153.219100,1184.329507,9696.697840
3738.221122,842.705048,1554.432478,8660.409521
3738.221436,1762.019645,1480.411884,8660.409521
3738.221751,1608.800546,962.267725,8512.368333
3738.222066,919.314598,-0.000000,9178.553681
3738.222380,612.876398,-814.226536,9400.615463
3738.222695,306.438199,-1036.288319,9770.718434
3738.223009,612.876398,-666.185348,10288.862594
3738.223324,76.609550,222.061783,9548.656652
3738.223639,153.219100,962.267725,8660.409521
3738.223953,0.000000,666.185348,9326.594869
3738.224268,0.000000,-74.020594,9178.553681
3738.224583,0.000000,-444.123565,9918.759623
3738.224897,0.000000,-888.247130,9992.780217
3738.225212,76.609550,-888.247130,10214.842000
3738.225526,1072.533697,222.061783,10288.862594
3738.225841,612.876398,1184.329507,10066.800811
3738.226156,766.095498,2072.576638,9178.553681
3738.226470,1149.143247,2220.617826,9030.512492
3738.226785,1302.362347,1998.556043,8512.368333
3738.227099,1378.971896,666.185348,8882.471304
3738.227414,536.266849,-0.000000,9770.718434
3738.227729,-229.828649,-444.123565,10066.800811
3738.228043,-689.485948,-814.226536,10436.903782
3738.228358,-766.095498,-444.123565,10732.986159
3738.228672,-612.876398,296.082377,10436.903782
3738.228987,-306.438199,1036.288319,9326.594869
3738.229302,0.000000,1258.350101,8882.471304
3738.229616,306.438199,1258.350101,8882.471304
3738.229931,383.047749,962.267725,8586.388927
3738.230245,0.000000,-0.000000,9252.574275
3738.230560,0.000000,-444.123565,9918.759623
3738.230875,76.609550,-148.041188,10140.821405
3738.231189,153.219100,444.123565,10140.821405
3738.231504,306.438199,1258.350101,9844.739029
3738.231818,-306.438199,1628.453072,9104.533087
3738.232133,229.828649,1406.391290,9178.553681
3738.232448,459.657299,592.164754,9622.677246
3738.232762,-229.828649,-0.000000,9622.677246
3738.233077,-612.876398,-962.267725,10362.883188
3738.233391,-995.924147,-1332.370696,10658.965565
3738.233706,-536.266849,-888.247130,10807.006753
3738.234021,-383.047749,222.061783,10510.924376
3738.234335,-459.657299,1036.288319,9622.677246
3738.234650,306.438199,1184.329507,8586.388927
3738.234964,1149.143247,1110.308913,8660.409521
3738.235279,1149.143247,1258.350101,8734.430116
3738.235594,842.705048,518.144159,9252.574275
3738.235908,383.047749,-74.020594,9696.697840
3738.236223,229.828649,-814.226536,10288.862594
3738.236537,383.047749,-0.000000,9992.780217
3738.236852,76.609550,444.123565,9918.759623
3738.237167,-229.828649,814.226536,10140.821405
3738.237481,153.219100,518.144159,9622.677246
3738.237796,383.047749,592.164754,9918.759623
3738.238110,0.000000,-0.000000,9844.739029
3738.238425,-612.876398,-814.226536,9992.780217
3738.238740,-229.828649,-1036.288319,10881.027347
3738.239054,0.000000,-962.267725,10510.924376
3738.239369,76.609550,-0.000000,9918.759623
3738.239683,612.876398,1258.350101,9474.636058
3738.239998,842.705048,1998.556043,8882.471304
3738.240313,1225.752797,1480.411884,8586.388927
3738.240627,1532.190996,740.205942,8808.450710
3738.240942,919.314598,-222.061783,9030.512492
3738.241256,0.000000,-1184.329507,9252.574275
3738.241571,0.000000,-1554.432478,9622.677246
3738.241886,-229.828649,-1406.391290,10214.842000
3738.242200,-689.485948,-592.164754,10140.821405
3738.242515,-919.314598,-148.041188,9474.636058
3738.242829,-536.266849,296.082377,9252.574275
3738.243144,76.609550,222.061783,9474.636058
3738.243459,306.438199,-518.144159,9548.656652
3738.243773,76.609550,-666.185348,9474.636058
3738.244088,0.000000,-1258.350101,9548.656652
3738.244402,229.828649,-814.226536,10140.821405
3738.244717,459.657299,-0.000000,10510.924376
3738.245032,459.657299,962.267725,9252.574275
3738.245346,612.876398,1258.350101,8586.388927
3738.245661,689.485948,1110.308913,8438.347739
3738.245975,919.314598,370.102971,8512.368333
3738.246290,229.828649,-444.123565,9104.533087
3738.246605,-306.438199,-1480.411884,9474.636058
3738.246919,-1149.143247,-2294.638420,10214.842000
3738.247234,-766.095498,-1924.535449,10362.883188
3738.247548,-766.095498,-666.185348,9844.739029
3738.247863,0.000000,592.164754,9992.780217
3738.248178,-229.828649,1036.288319,9252.574275
3738.248492,76.609550,1184.329507,9030.512492
3738.248807,229.828649,370.102971,9178.553681
3738.249121,0.000000,222.061783,9622.677246
3738.249436,-306.438199,-444.123565,9992.780217
3738.249751,-229.828649,-222.061783,10214.842000
3738.250065,0.000000,-0.000000,10362.883188
3738.250380,153.219100,-0.000000,9696.697840
3738.250694,-229.828649,1406.391290,9400.615463
3738.251009,-153.219100,1776.494261,9252.574275
3738.251324,0.000000,814.226536,9030.512492
3738.251638,-383.047749,-0.000000,9474.636058
3738.251953,-612.876398,-518.144159,9548.656652
3738.252267,-766.095498,-1480.411884,9622.677246
3738.252582,-689.485948,-1258.350101,10288.862594
3738.252897,-459.657299,-592.164754,10510.924376
3738.253211,-536.266849,518.144159,9622.677246
3738.253526,0.000000,1480.411884,9252.574275
3738.253840,612.876398,1258.350101,9400.615463
3738.254155,919.314598,1184.329507,8882.471304
3738.254470,919.314598,814.226536,8882.471304
3738.254784,1072.533697,-0.000000,9474.636058
3738.255099,383.047749,-222.061783,9844.739029
3738.255413,306.438199,-148.041188,10881.027347
3738.255728,459.657299,444.123565,10066.800811
3738.256043,306.438199,1110.308913,9770.718434
3738.256357,383.047749,1110.308913,8956.491898
3738.256672,919.314598,888.247130,9178.553681
3738.256986,842.705048,740.205942,9400.615463
3738.257301,689.485948,-74.020594,9622.677246
3738.257616,229.828649,-666.185348,9918.759623
3738.257930,536.266849,-962.267725,10288.862594
3738.258245,459.657299,-222.061783,9992.780217
3738.258559,306.438199,518.144159,9696.697840
3738.258874,536.266849,1480.411884,9178.553681
3738.259189,766.095498,1554.432478,9178.553681
3738.259503,1072.533697,1332.370696,9252.574275
3738.259818,842.705048,666.185348,9622.677246
3738.260132,0.000000,-0.000000,9918.759623
3738.260447,-459.657299,-666.185348,10510.924376
3738.260762,-153.219100,-444.123565,10732.986159
3738.261076,-536.266849,222.061783,10510.924376
3738.261391,0.000000,1110.308913,9844.739029
3738.261705,229.828649,1628.453072,9030.512492
3738.262020,383.047749,1332.370696,9104.533087
3738.262335,612.876398,888.247130,8808.450710
3738.262649,766.095498,296.082377,9030.512492
3738.262964,0.000000,-592.164754,9474.636058
3738.263278,0.000000,-962.267725,9548.656652
3738.263593,153.219100,-592.164754,9992.780217
3738.263908,-306.438199,-0.000000,9474.636058
3738.264222,-383.047749,814.226536,9178.553681
3738.264537,0.000000,962.267725,8882.471304
3738.264851,0.000000,740.205942,8808.450710
3738.265166,0.000000,296.082377,9474.636058
3738.265481,-229.828649,-74.020594,9400.615463
3738.265795,-306.438199,-1110.308913,9844.739029
3738.266110,-536.266849,-888.247130,11177.109724
3738.266424,-1072.533697,-444.123565,10955.047942
3738.266739,-612.876398,592.164754,10214.842000
3738.267054,-306.438199,1406.391290,9474.636058
3738.267368,0.000000,1406.391290,8808.450710
3738.267683,1072.533697,592.164754,9474.636058
3738.267997,383.047749,592.164754,9326.594869
3738.268312,-306.438199,-518.144159,9548.656652
3738.268627,-536.266849,-1332.370696,9622.677246
3738.268941,-612.876398,-1110.308913,9918.759623
3738.269256,-383.047749,-518.144159,10436.903782
3738.269570,-612.876398,-0.000000,9918.759623
3738.269885,-383.047749,370.102971,9474.636058
3738.270200,0.000000,518.144159,8808.450710
3738.270514,229.828649,-0.000000,9326.594869
3738.270829,76.609550,-0.000000,9474.636058
3738.271143,0.000000,-1110.308913,9770.718434
3738.271458,0.000000,-1332.370696,10362.883188
3738.271773,76.609550,-888.247130,10584.944971
3738.272087,536.266849,-0.000000,10140.821405
3738.272402,383.047749,888.247130,9622.677246
3738.272717,842.705048,1332.370696,8956.491898
3738.273031,1072.533697,1036.288319,8586.388927
3738.273346,1149.143247,370.102971,8734.430116
3738.273660,459.657299,-814.226536,9474.636058
3738.273975,383.047749,-1258.350101,9326.594869
3738.274290,0.000000,-1480.411884,9474.636058
3738.274604,153.219100,-814.226536,10066.800811
3738.274919,229.828649,-0.000000,9474.636058
3738.275233,76.609550,444.123565,8586.388927
3738.275548,842.705048,370.102971,8660.409521
3738.275863,1455.581446,370.102971,8882.471304
3738.276177,689.485948,-74.020594,8734.430116
3738.276492,229.828649,-518.144159,9178.553681
3738.276806,-383.047749,-1554.432478,9992.780217
3738.277121,0.000000,-888.247130,10732.986159
3738.277436,306.438199,-0.000000,10362.883188
3738.277750,153.219100,888.247130,10140.821405
3738.278065,459.657299,1406.391290,9252.574275
3738.278379,1072.533697,1332.370696,9474.636058
3738.278694,995.924147,666.185348,9474.636058
3738.279009,842.705048,-0.000000,9548.656652
3738.279323,229.828649,-518.144159,9622.677246
3738.279638,229.828649,-666.185348,9770.718434
3738.279952,76.609550,-518.144159,10584.944971
3738.280267,-229.828649,444.123565,10066.800811
3738.280582,-383.047749,962.267725,9252.574275
3738.280896,0.000000,1258.350101,8512.368333
3738.281211,229.828649,592.164754,8956.491898
3738.281525,689.485948,-0.000000,9104.533087
3738.281840,-383.047749,-74.020594,9918.759623
3738.282155,-919.314598,-666.185348,10288.862594
3738.282469,-1225.752797,-740.205942,10510.924376
3738.282784,-766.095498,222.061783,11103.089130
3738.283098,-459.657299,1406.391290,10362.883188
3738.283413,-459.657299,2146.597232,9400.615463
3738.283728,0.000000,2220.617826,8882.471304
3738.284042,612.876398,1850.514855,9178.553681
3738.284357,536.266849,962.267725,9622.677246
3738.284671,153.219100,370.102971,9326.594869
3738.284986,-306.438199,-74.020594,9622.677246
3738.285301,-536.266849,-222.061783,9622.677246
3738.285615,-459.657299,370.102971,9770.718434
3738.285930,-383.047749,888.247130,9474.636058
3738.286244,-383.047749,1110.308913,8808.450710
3738.286559,0.000000,962.267725,9030.512492
3738.286874,153.219100,592.164754,9252.574275
3738.287188,0.000000,-0.000000,9178.553681
3738.287503,-383.047749,-962.267725,10140.821405
3738.287817,-536.266849,-1406.391290,10658.965565
3738.288132,153.219100,-592.164754,10658.965565
3738.288447,306.438199,666.185348,9918.759623
3738.288761,766.095498,1554.432478,9474.636058
3738.289076,919.314598,1998.556043,9030.512492
3738.289390,1685.410096,1480.411884,9030.512492
3738.289705,1455.581446,888.247130,9178.553681
3738.290020,689.485948,-0.000000,9252.574275
3738.290334,536.266849,-666.185348,9696.697840
3738.290649,0.000000,-1702.473667,9992.780217
3738.290963,383.047749,-740.205942,10510.924376
3738.291278,76.609550,222.061783,9918.759623
3738.291593,76.609550,518.144159,8808.450710
3738.291907,459.657299,592.164754,9400.615463
3738.292222,536.266849,296.082377,9030.512492
3738.292536,383.047749,-0.000000,9548.656652
3738.292851,229.828649,-518.144159,9474.636058
3738.293166,0.000000,-1036.288319,9918.759623
3738.293480,76.609550,-1110.308913,10214.842000
3738.293795,536.266849,-74.020594,10066.800811
3738.294109,536.266849,1258.350101,9474.636058
3738.294424,612.876398,1702.473667,8808.450710
3738.294739,842.705048,1406.391290,9104.533087
3738.295053,1302.362347,222.061783,9326.594869
3738.295368,383.047749,-222.061783,9548.656652
3738.295682,0.000000,-1110.308913,9474.636058
3738.295997,-536.266849,-1702.473667,9548.656652
3738.296312,-383.047749,-888.247130,9844.739029
3738.296626,-383.047749,-0.000000,9770.718434
3738.296941,-612.876398,148.041188,8808.450710
3738.297255,-229.828649,296.082377,8512.368333
3738.297570,153.219100,296.082377,8882.471304
3738.297885,0.000000,-74.020594,9326.594869
3738.298199,-689.485948,-1110.308913,9696.697840
3738.298514,-842.705048,-1554.432478,10066.800811
3738.298828,-995.924147,-962.267725,10510.924376
3738.299143,-306.438199,-370.102971,10436.903782
3738.299458,0.000000,666.185348,10140.821405
3738.299772,0.000000,740.205942,9474.636058
3738.300087,383.047749,1258.350101,9252.574275
3738.300401,229.828649,518.144159,8882.471304
3738.300716,76.609550,-0.000000,9252.574275
3738.301031,-995.924147,-666.185348,9770.718434
3738.301345,-306.438199,-1406.391290,10066.800811
3738.301660,-612.876398,-1406.391290,10510.924376
3738.301974,-842.705048,-444.123565,10214.842000
3738.302289,-842.705048,-0.000000,9400.615463
3738.302604,-459.657299,666.185348,8586.388927
3738.302918,0.000000,592.164754,9252.574275
3738.303233,306.438199,-0.000000,9474.636058
3738.303547,229.828649,-148.041188,9400.615463
3738.303862,-229.828649,-740.205942,9770.718434
3738.304177,0.000000,-962.267725,9844.739029
3738.304491,76.609550,-370.102971,10288.862594
3738.304806,0.000000,666.185348,10066.800811
3738.305120,0.000000,1332.370696,9326.594869
3738.305435,612.876398,962.267725,9104.533087
3738.305750,766.095498,814.226536,9104.533087
3738.306064,612.876398,222.061783,9326.594869
3738.306379,153.219100,-148.041188,10066.800811
3738.306693,0.000000,-1036.288319,9622.677246
3738.307008,229.828649,-1776.494261,10066.800811
3738.307323,229.828649,-0.000000,10288.862594
3738.307637,459.657299,740.205942,9474.636058
3738.307952,766.095498,1184.329507,8882.471304
3738.308266,995.924147,1036.288319,8364.327145
3738.308581,1762.019645,518.144159,9178.553681
3738.308896,1149.143247,222.061783,8882.471304
3738.309210,612.876398,-814.226536,9178.553681
3738.309525,76.609550,-888.247130,10214.842000
3738.309839,306.438199,-666.185348,10214.842000
3738.310154,76.609550,-0.000000,9770.718434
3738.310469,0.000000,1332.370696,9992.780217
3738.310783,383.047749,1554.432478,9696.697840
3738.311098,1072.533697,1332.370696,9400.615463
3738.311412,842.705048,962.267725,9474.636058
3738.311727,612.876398,222.061783,9918.759623
3738.312041,76.609550,-296.082377,9992.780217
3738.312356,153.219100,-962.267725,10510.924376
3738.312670,153.219100,-0.000000,10436.903782
3738.312985,-76.609550,962.267725,9548.656652
3738.313299,459.657299,1406.391290,8882.471304
3738.313614,689.485948,1998.556043,8512.368333
3738.313929,536.266849,1110.308913,8956.491898
3738.314243,459.657299,370.102971,8882.471304
3738.314558,-612.876398,-296.082377,9622.677246
3738.314872,-689.485948,-962.267725,10288.862594
3738.315187,-1072.533697,-814.226536,10584.944971
3738.315501,-612.876398,-222.061783,11029.068536
3738.315816,-842.705048,814.226536,10510.924376
3738.316130,-153.219100,1406.391290,9474.636058
3738.316445,-306.438199,1258.350101,8808.450710
3738.316759,229.828649,962.267725,9326.594869
3738.317074,76.609550,666.185348,9770.718434
3738.317388,0.000000,-296.082377,9474.636058
3738.317703,-153.219100,-888.247130,9918.759623
3738.318017,0.000000,-296.082377,10288.862594
3738.318332,76.609550,148.041188,9770.718434
3738.318646,76.609550,1110.308913,9030.512492
3738.318961,229.828649,1480.411884,8586.388927
3738.319275,229.828649,962.267725,8586.388927
3738.319590,612.876398,592.164754,8438.347739
3738.319904,-383.047749,-74.020594,9400.615463
3738.320219,-1072.533697,-1110.308913,10288.862594
3738.320533,-1149.143247,-1554.432478,10214.842000
3738.320848,-459.657299,-1110.308913,10436.903782
3738.321162,-536.266849,-370.102971,10510.924376
3738.321477,0.000000,666.185348,9622.677246
3738.321791,229.828649,1406.391290,9474.636058
3738.322106,689.485948,1406.391290,8882.471304
3738.322420,919.314598,592.164754,9252.574275
3738.322735,919.314598,-148.041188,9696.697840
3738.323049,842.705048,-666.185348,9622.677246
3738.323364,459.657299,-1036.288319,10140.821405
3738.323679,153.219100,-444.123565,10066.800811
3738.323993,0.000000,-0.000000,9400.615463
3738.324308,-153.219100,222.061783,9548.656652
3738.324622,0.000000,-0.000000,9918.759623
3738.324937,76.609550,-148.041188,9400.615463
3738.325251,-306.438199,-370.102971,8882.471304
3738.325566,-842.705048,-1036.288319,9992.780217
3738.325880,-995.924147,-1776.494261,10510.924376
3738.326195,-459.657299,-1332.370696,10658.965565
3738.326509,76.609550,-148.041188,10066.800811
3738.326824,76.609550,814.226536,9696.697840
3738.327138,766.095498,1480.411884,9104.533087
3738.327453,1302.362347,1258.350101,9104.533087
3738.327767,919.314598,666.185348,9326.594869
3738.328082,536.266849,-148.041188,9548.656652
3738.328396,0.000000,-962.267725,9918.759623
3738.328711,153.219100,-1406.391290,9992.780217
3738.329025,76.609550,-1184.329507,10066.800811
3738.329340,-229.828649,74.020594,9474.636058
3738.329654,0.000000,518.144159,9178.553681
3738.329969,383.047749,888.247130,8734.430116
3738.330283,766.095498,222.061783,9178.553681
3738.330598,536.266849,-74.020594,9326.594869
3738.330912,76.609550,-740.205942,9622.677246
3738.331227,0.000000,-1110.308913,9474.636058
3738.331541,0.000000,-1110.308913,10066.800811
3738.331856,229.828649,-74.020594,9770.718434
3738.332170,0.000000,1036.288319,9474.636058
3738.332485,306.438199,1110.308913,8438.347739
3738.332800,612.876398,888.247130,8808.450710
3738.333114,766.095498,444.123565,8660.409521
3738.333429,459.657299,-0.000000,9400.615463
3738.333743,0.000000,-74.020594,9474.636058
3738.334058,-612.876398,-888.247130,10658.965565
3738.334372,-459.657299,-740.205942,10955.047942
3738.334687,-612.876398,296.082377,10362.883188
3738.335001,-383.047749,888.247130,9918.759623
3738.335316,-459.657299,962.267725,9548.656652
3738.335630,229.828649,1184.329507,9474.636058
3738.335945,842.705048,1110.308913,9252.574275
3738.336259,229.828649,-0.000000,9252.574275
3738.336574,459.657299,-370.102971,9696.697840
3738.336888,76.609550,-296.082377,9696.697840
3738.337203,306.438199,370.102971,9844.739029
3738.337517,306.438199,1258.350101,9622.677246
3738.337832,76.609550,1332.370696,9104.533087
3738.338146,459.657299,1554.432478,8734.430116
3738.338461,153.219100,518.144159,9474.636058
3738.338775,0.000000,148.041188,10436.903782
3738.339090,-689.485948,-444.123565,10066.800811
3738.339404,-766.095498,-518.144159,10510.924376
3738.339719,-229.828649,-888.247130,11177.109724
3738.340033,0.000000,370.102971,10288.862594
3738.340348,383.047749,1258.350101,9696.697840
3738.340662,919.314598,1628.453072,8586.388927
3738.340977,1378.971896,1924.535449,8734.430116
3738.341291,995.924147,1554.432478,9030.512492
3738.341606,612.876398,666.185348,9104.533087
3738.341920,0.000000,-370.102971,9474.636058
3738.342235,0.000000,-888.247130,9992.780217
3738.342550,-229.828649,-370.102971,10288.862594
3738.342864,-306.438199,-74.020594,10288.862594
3738.343179,-612.876398,888.247130,10066.800811
3738.343493,-383.047749,1036.288319,9474.636058
3738.343808,0.000000,888.247130,9474.636058
3738.344122,0.000000,370.102971,9474.636058
3738.344437,0.000000,74.020594,10066.800811
3738.344751,-153.219100,-518.144159,9918.759623
3738.345066,76.609550,-666.185348,10214.842000
3738.345380,76.609550,518.144159,9844.739029
3738.345695,153.219100,1406.391290,9474.636058
3738.346009,229.828649,1332.370696,8956.491898
3738.346324,842.705048,1480.411884,8660.409521
3738.346638,1072.533697,740.205942,9104.533087
3738.346953,306.438199,-0.000000,8882.471304
3738.347267,-383.047749,-740.205942,9844.739029
3738.347582,-612.876398,-1332.370696,10214.842000
3738.347896,-1072.533697,-1554.432478,10658.965565
3738.348211,0.000000,-370.102971,10140.821405
3738.348525,-612.876398,-0.000000,9548.656652
3738.348840,229.828649,740.205942,8956.491898
3738.349154,229.828649,592.164754,9030.512492
3738.349469,306.438199,444.123565,8882.471304
3738.349783,229.828649,-370.102971,9178.553681
3738.350098,153.219100,-444.123565,9400.615463
3738.350412,153.219100,-1184.329507,9918.759623
3738.350727,153.219100,-1110.308913,9992.780217
3738.351041,0.000000,-296.082377,9696.697840
3738.351356,-306.438199,444.123565,9104.533087
3738.351670,229.828649,740.205942,8882.471304
3738.351985,612.876398,-0.000000,8512.368333
3738.352300,153.219100,-592.164754,9178.553681
3738.352614,-536.266849,-1258.350101,9474.636058
3738.352929,-383.047749,-1998.556043,9770.718434
3738.353243,0.000000,-1332.370696,10288.862594
3738.353558,0.000000,-592.164754,10732.986159
3738.353872,-153.219100,296.082377,10066.800811
3738.354187,459.657299,666.185348,9030.512492
3738.354501,766.095498,814.226536,8882.471304
3738.354816,1378.971896,370.102971,8956.491898
3738.355130,1072.533697,-0.000000,9548.656652
3738.355445,306.438199,-518.144159,9474.636058
3738.355759,536.266849,-1036.288319,9770.718434
3738.356074,153.219100,-814.226536,9992.780217
3738.356388,459.657299,-148.041188,9474.636058
3738.356703,0.000000,740.205942,9030.512492
3738.357017,536.266849,1110.308913,8660.409521
3738.357332,459.657299,222.061783,9104.533087
3738.357646,306.438199,-222.061783,8956.491898
3738.357961,-306.438199,-370.102971,9770.718434
3738.358275,-919.314598,-1480.411884,10066.800811
3738.358590,-995.924147,-1628.453072,10362.883188
3738.358904,0.000000,-666.185348,10288.862594
3738.359219,0.000000,740.205942,9992.780217
3738.359533,0.000000,1628.453072,9030.512492
3738.359848,229.828649,1998.556043,9030.512492
3738.360162,459.657299,962.267725,8808.450710
3738.360477,689.485948,740.205942,9400.615463
3738.360791,76.609550,-0.000000,9770.718434
3738.361106,-383.047749,-962.267725,9844.739029
3738.361420,-459.657299,-814.226536,10214.842000
3738.361735,-306.438199,-74.020594,10214.842000
3738.362050,-306.438199,962.267725,9696.697840
3738.362364,-153.219100,1332.370696,9178.553681
3738.362679,842.705048,962.267725,9252.574275
3738.362993,0.000000,370.102971,9252.574275
3738.363308,0.000000,-0.000000,9548.656652
3738.363622,0.000000,-0.000000,9474.636058
3738.363937,153.219100,-962.267725,9918.759623
3738.364251,536.266849,-148.041188,10510.924376
3738.364566,536.266849,666.185348,10658.965565
3738.364880,459.657299,1776.494261,9474.636058
3738.365195,459.657299,1850.514855,8808.450710
3738.365509,1378.971896,1702.473667,8364.327145
3738.365824,1455.581446,1480.411884,9770.718434
3738.366138,459.657299,740.205942,9252.574275
3738.366453,0.000000,-740.205942,10288.862594
3738.366767,306.438199,-888.247130,10066.800811
3738.367082,153.219100,-370.102971,10658.965565
3738.367396,0.000000,740.205942,9696.697840
3738.367711,0.000000,1332.370696,9178.553681
3738.368025,229.828649,1406.391290,9326.594869
3738.368340,1072.533697,962.267725,9548.656652
3738.368654,459.657299,296.082377,9474.636058
3738.368969,-153.219100,-296.082377,9770.718434
3738.369283,-153.219100,-888.247130,9696.697840
3738.369598,-536.266849,-518.144159,9918.759623
3738.369912,689.485948,-0.000000,10140.821405
3738.370227,306.438199,1036.288319,9474.636058
3738.370541,306.438199,1258.350101,8956.491898
3738.370856,842.705048,1406.391290,8586.388927
3738.371171,842.705048,1110.308913,9252.574275
3738.371485,306.438199,296.082377,9178.553681
3738.371800,-229.828649,-444.123565,9178.553681
3738.372114,-306.438199,-1258.350101,9622.677246
3738.372429,-153.219100,-1258.350101,10510.924376
3738.372743,-842.705048,-0.000000,10288.862594
3738.373058,-1149.143247,-74.020594,9474.636058
3738.373372,-306.438199,814.226536,9030.512492
3738.373687,76.609550,518.144159,8734.430116
3738.374001,0.000000,148.041188,9104.533087
3738.374316,-383.047749,-518.144159,9326.594869
3738.374630,-536.266849,-1406.391290,9770.718434
3738.374945,0.000000,-740.205942,10288.862594
3738.375259,-383.047749,-74.020594,10362.883188
3738.375574,153.219100,370.102971,10214.842000
3738.375888,383.047749,1184.329507,9252.574275
3738.376203,0.000000,1110.308913,8660.409521
3738.376517,919.314598,666.185348,9474.636058
3738.376832,383.047749,-0.000000,9474.636058
3738.377146,0.000000,-666.185348,9474.636058
3738.377461,-689.485948,-1554.432478,10066.800811
3738.377775,-459.657299,-1184.329507,10510.924376
3738.378090,-536.266849,-666.185348,10584.944971
3738.378404,-459.657299,518.144159,9474.636058
3738.378719,-229.828649,444.123565,9474.636058
3738.379033,536.266849,370.102971,9326.594869
3738.379348,612.876398,-74.020594,9030.512492
3738.379662,0.000000,-296.082377,9474.636058
3738.379977,-153.219100,-1110.308913,9844.739029
3738.380291,0.000000,-1036.288319,9622.677246
3738.380606,306.438199,-740.205942,10288.862594
3738.380921,383.047749,-74.020594,9918.759623
3738.381235,229.828649,666.185348,9178.553681
3738.381550,229.828649,1036.288319,8660.409521
3738.381864,842.705048,296.082377,9030.512492
3738.382179,459.657299,296.082377,9178.553681
3738.382493,0.000000,-888.247130,9104.533087
3738.382808,-153.219100,-888.247130,9474.636058
3738.383122,76.609550,-1406.391290,10288.862594
3738.383437,0.000000,-666.185348,10140.821405
3738.383751,0.000000,370.102971,9548.656652
3738.384066,-383.047749,962.267725,9252.574275
3738.384380,153.219100,888.247130,9030.512492
3738.384695,995.924147,666.185348,8808.450710
3738.385009,612.876398,222.061783,8956.491898
3738.385324,306.438199,-370.102971,9400.615463
3738.385638,0.000000,-592.164754,9992.780217
3738.385953,383.047749,-74.020594,10732.986159
3738.386267,383.047749,222.061783,10436.903782
3738.386582,0.000000,740.205942,9400.615463
3738.386896,153.219100,1258.350101,8734.430116
3738.387211,536.266849,814.226536,9252.574275
3738.387525,459.657299,148.041188,9474.636058
3738.387840,76.609550,-148.041188,9622.677246
3738.388154,-383.047749,-740.205942,9474.636058
3738.388469,76.609550,-888.247130,9844.739029
3738.388783,0.000000,-370.102971,9844.739029
3738.389098,-612.876398,370.102971,10066.800811
3738.389412,-229.828649,1110.308913,9326.594869
3738.389727,-153.219100,1332.370696,9030.512492
3738.390041,-306.438199,1110.308913,9252.574275
3738.390356,-536.266849,370.102971,9622.677246
3738.390671,-459.657299,-518.144159,10288.862594
3738.390985,-995.924147,-1036.288319,10214.842000
3738.391300,-383.047749,-740.205942,10732.986159
3738.391614,0.000000,-222.061783,10807.006753
3738.391929,229.828649,1110.308913,10658.965565
3738.392243,383.047749,1850.514855,9030.512492
3738.392558,919.314598,1998.556043,8586.388927
3738.392872,1532.190996,1554.432478,8660.409521
3738.393187,1455.581446,888.247130,8808.450710
3738.393501,689.485948,-222.061783,9400.615463
3738.393816,459.657299,-962.267725,9918.759623
3738.394130,536.266849,-740.205942,9844.739029
3738.394445,229.828649,370.102971,9474.636058
3738.394759,459.657299,962.267725,9548.656652
3738.395074,612.876398,1184.329507,9252.574275
3738.395388,689.485948,1036.288319,8882.471304
3738.395703,919.314598,740.205942,9030.512492
3738.396017,536.266849,-0.000000,9770.718434
3738.396332,0.000000,-148.041188,9918.759623
3738.396646,0.000000,-0.000000,10584.944971
3738.396961,612.876398,-0.000000,10732.986159
3738.397275,383.047749,888.247130,9918.759623
3738.397590,459.657299,1998.556043,9178.553681
3738.397904,995.924147,1924.535449,8512.368333
3738.398219,689.485948,1406.391290,9326.594869
3738.398533,766.095498,888.247130,9400.615463
3738.398848,612.876398,-0.000000,9400.615463
3738.399162,229.828649,-814.226536,9696.697840
3738.399477,0.000000,-888.247130,10436.903782
3738.399792,0.000000,-444.123565,10658.965565
3738.400106,-459.657299,370.102971,9622.677246
3738.400421,-459.657299,666.185348,8882.471304
3738.400735,153.219100,370.102971,8882.471304
3738.401050,229.828649,-0.000000,9474.636058
3738.401364,383.047749,-222.061783,9918.759623
3738.401679,-383.047749,-740.205942,9622.677246
3738.401993,-383.047749,-740.205942,9992.780217
3738.402308,229.828649,-814.226536,10510.924376
3738.402622,383.047749,-0.000000,10807.006753
3738.402937,229.828649,814.226536,9770.718434
3738.403251,306.438199,1184.329507,9030.512492
3738.403566,536.266849,1036.288319,9252.574275
3738.403880,536.266849,370.102971,9178.553681
3738.404195,0.000000,-148.041188,9178.553681
3738.404509,-766.095498,-888.247130,9696.697840
3738.404824,-612.876398,-1850.514855,10140.821405
3738.405138,-612.876398,-962.267725,10066.800811
3738.405453,-766.095498,-370.102971,9770.718434
3738.405767,-383.047749,370.102971,9548.656652
3738.406082,-229.828649,518.144159,9326.594869
3738.406396,306.438199,592.164754,8734.430116
3738.406711,383.047749,-0.000000,9400.615463
3738.407025,0.000000,-370.102971,9474.636058
3738.407340,-306.438199,-1258.350101,9696.697840
3738.407654,0.000000,-740.205942,9844.739029
3738.407969,153.219100,-0.000000,9844.739029
3738.408283,-153.219100,1332.370696,9918.759623
3738.408598,-229.828649,1110.308913,9326.594869
3738.408912,766.095498,1184.329507,9548.656652
3738.409227,383.047749,370.102971,9622.677246
3738.409542,76.609550,-222.061783,9474.636058
3738.409856,0.000000,-962.267725,9770.718434
3738.410171,-229.828649,-1110.308913,10362.883188
3738.410485,153.219100,-1036.288319,10658.965565
3738.410800,-306.438199,-0.000000,9548.656652
3738.411114,76.609550,888.247130,9252.574275
3738.411429,459.657299,1036.288319,8512.368333
3738.411743,536.266849,740.205942,8882.471304
3738.412058,689.485948,-222.061783,9474.636058
3738.412372,0.000000,-814.226536,9474.636058
3738.412687,-383.047749,-1332.370696,9992.780217
3738.413001,-383.047749,-1702.473667,10658.965565
3738.413316,0.000000,-1036.288319,10732.986159
3738.413630,0.000000,370.102971,10066.800811
3738.413945,153.219100,962.267725,9178.553681
3738.414259,383.047749,1332.370696,8882.471304
3738.414574,766.095498,814.226536,9252.574275
3738.414888,612.876398,148.041188,9400.615463
3738.415203,229.828649,-740.205942,9696.697840
3738.415517,0.000000,-592.164754,9696.697840
3738.415832,153.219100,-740.205942,9992.780217
3738.416146,459.657299,-0.000000,9622.677246
3738.416461,536.266849,444.123565,9622.677246
3738.416775,0.000000,1258.350101,8364.327145
3738.417090,229.828649,740.205942,8438.347739
3738.417404,842.705048,444.123565,9178.553681
3738.417719,459.657299,-0.000000,9400.615463
3738.418033,0.000000,-518.144159,9770.718434
3738.418348,-612.876398,-1332.370696,9844.739029
3738.418662,-383.047749,-518.144159,10584.944971
3738.418977,0.000000,666.185348,10584.944971
3738.419291,76.609550,1628.453072,9474.636058
3738.419606,536.266849,2146.597232,8882.471304
3738.419920,1149.143247,1702.473667,9326.594869
3738.420235,919.314598,1036.288319,8808.450710
3738.420549,536.266849,518.144159,9178.553681
3738.420864,76.609550,-0.000000,9770.718434
3738.421178,0.000000,-444.123565,10436.903782
3738.421493,536.266849,444.123565,10362.883188
3738.421807,0.000000,814.226536,9474.636058
3738.422121,76.609550,1554.432478,9178.553681
3738.422436,0.000000,1110.308913,8734.430116
3738.422750,0.000000,370.102971,9474.636058
3738.423065,0.000000,-0.000000,9918.759623
3738.423379,-612.876398,-444.123565,9844.739029
3738.423694,-842.705048,-814.226536,9770.718434
3738.424008,-229.828649,-740.205942,10955.047942
3738.424323,0.000000,444.123565,10807.006753
3738.424637,0.000000,1184.329507,9326.594869
3738.424952,459.657299,1924.535449,8660.409521
3738.425266,995.924147,1554.432478,8882.471304
3738.425581,1455.581446,1702.473667,9030.512492
3738.425895,306.438199,666.185348,9252.574275
3738.426209,306.438199,-222.061783,9770.718434
3738.426524,-612.876398,-1480.411884,10732.986159
3738.426838,-612.876398,-1036.288319,10288.862594
3738.427153,-689.485948,-0.000000,10140.821405
3738.427467,-689.485948,740.205942,9548.656652
3738.427782,-229.828649,666.185348,9252.574275
3738.428096,153.219100,518.144159,8882.471304
3738.428411,229.828649,-0.000000,9696.697840
3738.428725,0.000000,-296.082377,10140.821405
3738.429040,0.000000,-740.205942,10140.821405
3738.429354,-612.876398,-444.123565,10214.842000
3738.429668,76.609550,222.061783,10436.903782
3738.429983,0.000000,1258.350101,9696.697840
3738.430297,459.657299,1480.411884,9252.574275
3738.430612,919.314598,1332.370696,8956.491898
3738.430926,612.876398,592.164754,9178.553681
3738.431241,153.219100,222.061783,9326.594869
3738.431555,-383.047749,-592.164754,9770.718434
3738.431870,-612.876398,-1184.329507,10066.800811
3738.432184,-383.047749,-1332.370696,10288.862594
3738.432499,0.000000,-592.164754,10140.821405
3738.432813,76.609550,-0.000000,9252.574275
3738.433128,76.609550,814.226536,8364.327145
3738.433442,766.095498,444.123565,9104.533087
3738.433756,842.705048,370.102971,8586.388927
3738.434071,459.657299,-74.020594,9400.615463
3738.434385,0.000000,-888.247130,9104.533087
3738.434700,0.000000,-1258.350101,9844.739029
3738.435014,0.000000,-740.205942,10881.027347
3738.435329,0.000000,-0.000000,9844.739029
3738.435643,153.219100,740.205942,9326.594869
3738.435958,536.266849,962.267725,8734.430116
3738.436272,919.314598,444.123565,8956.491898
3738.436587,383.047749,-148.041188,9474.636058
3738.436901,76.609550,-666.185348,9326.594869
3738.437216,-459.657299,-1480.411884,10066.800811
3738.437530,0.000000,-1406.391290,10066.800811
3738.437844,-383.047749,-814.226536,9992.780217
3738.438159,229.828649,222.061783,9548.656652
3738.438473,383.047749,148.041188,8956.491898
3738.438788,306.438199,-0.000000,8734.430116
3738.439102,612.876398,-0.000000,8882.471304
3738.439417,306.438199,-0.000000,9326.594869
3738.439731,-229.828649,-296.082377,9918.759623
3738.440046,-612.876398,-814.226536,9992.780217
3738.440360,-612.876398,-814.226536,10881.027347
3738.440675,-459.657299,-148.041188,11029.068536
3738.440989,-612.876398,888.247130,10436.903782
3738.441304,-689.485948,1332.370696,9696.697840
3738.441618,0.000000,962.267725,9622.677246
3738.441932,536.266849,740.205942,9548.656652
3738.442247,689.485948,444.123565,9770.718434
3738.442561,0.000000,-444.123565,9474.636058
3738.442876,383.047749,-888.247130,9770.718434
3738.443190,612.876398,-222.061783,9844.739029
3738.443505,383.047749,666.185348,9474.636058
3738.443819,153.219100,1332.370696,8734.430116
3738.444134,459.657299,1036.288319,8364.327145
3738.444448,612.876398,370.102971,8586.388927
3738.444763,0.000000,-0.000000,9178.553681
3738.445077,-766.095498,-740.205942,9770.718434
3738.445392,-689.485948,-1110.308913,10214.842000
3738.445706,-766.095498,-1258.350101,11103.089130
3738.446020,-229.828649,-370.102971,11251.130318
3738.446335,-383.047749,888.247130,9844.739029
3738.446649,-306.438199,1628.453072,9400.615463
3738.446964,306.438199,1702.473667,9104.533087
3738.447278,1149.143247,1850.514855,9474.636058
3738.447593,1072.533697,962.267725,8808.450710
3738.447907,383.047749,-0.000000,9696.697840
3738.448222,383.047749,-148.041188,9474.636058
3738.448536,383.047749,-444.123565,9770.718434
3738.448851,383.047749,666.185348,9548.656652
3738.449165,153.219100,888.247130,8882.471304
3738.449480,0.000000,1036.288319,8438.347739
3738.449794,459.657299,592.164754,8956.491898
3738.450108,229.828649,370.102971,8956.491898
3738.450423,-306.438199,-518.144159,9622.677246
3738.450737,-689.485948,-814.226536,9548.656652
3738.451052,-689.485948,-1258.350101,10658.965565
3738.451366,0.000000,-0.000000,10510.924376
3738.451681,383.047749,1406.391290,10436.903782
3738.451995,-153.219100,1702.473667,9400.615463
3738.452310,306.438199,1554.432478,9400.615463
3738.452624,995.924147,1628.453072,9400.615463
3738.452939,919.314598,1184.329507,9474.636058
3738.453253,229.828649,666.185348,10066.800811
3738.453567,229.828649,-148.041188,9622.677246
3738.453882,76.609550,-518.144159,10362.883188
3738.454196,0.000000,-74.020594,10510.924376
3738.454511,-306.438199,666.185348,9844.739029
3738.454825,0.000000,962.267725,9030.512492
3738.455140,459.657299,666.185348,8808.450710
3738.455454,1302.362347,518.144159,9474.636058
3738.455769,459.657299,-0.000000,9400.615463
3738.456083,-153.219100,-666.185348,9622.677246
3738.456398,-229.828649,-1184.329507,10584.944971
3738.456712,0.000000,-74.020594,10955.047942
3738.457027,76.609550,740.205942,10140.821405
3738.457341,153.219100,1332.370696,9548.656652
3738.457655,612.876398,1036.288319,9178.553681
3738.457970,995.924147,962.267725,9252.574275
3738.458284,1072.533697,592.164754,9474.636058
3738.458599,76.609550,-222.061783,10066.800811
3738.458913,153.219100,-518.144159,9770.718434
3738.459228,153.219100,-1110.308913,9992.780217
3738.459542,153.219100,-888.247130,10214.842000
3738.459857,306.438199,-0.000000,9696.697840
3738.460171,612.876398,222.061783,8660.409521
3738.460486,1072.533697,592.164754,8512.368333
3738.460800,1378.971896,444.123565,8956.491898
3738.461115,842.705048,148.041188,9178.553681
3738.461429,229.828649,-518.144159,9400.615463
3738.461743,229.828649,-1258.350101,9696.697840
3738.462058,0.000000,-1554.432478,10584.944971
3738.462372,536.266849,-814.226536,10214.842000
3738.462687,306.438199,666.185348,9770.718434
3738.463001,229.828649,592.164754,9252.574275
3738.463316,536.266849,888.247130,8882.471304
3738.463630,1149.143247,666.185348,9030.512492
3738.463945,536.266849,-74.020594,9474.636058
3738.464259,0.000000,-1258.350101,9918.759623
3738.464574,0.000000,-1554.432478,9622.677246
3738.464888,76.609550,-888.247130,10066.800811
3738.465203,-383.047749,-0.000000,9770.718434
3738.465517,-459.657299,740.205942,9104.533087
3738.465831,-612.876398,518.144159,8660.409521
3738.466146,229.828649,-0.000000,8512.368333
3738.466460,0.000000,-444.123565,9252.574275
3738.466775,-459.657299,-740.205942,9252.574275
3738.467089,-919.314598,-1110.308913,9548.656652
3738.467404,-1302.362347,-1480.411884,9918.759623
3738.467718,-689.485948,-148.041188,10362.883188
3738.468033,-689.485948,814.226536,9474.636058
3738.468347,-229.828649,1258.350101,9326.594869
3738.468662,229.828649,962.267725,9104.533087
3738.468976,766.095498,814.226536,8956.491898
3738.469291,153.219100,444.123565,9104.533087
3738.469605,-306.438199,-148.041188,9548.656652
3738.469919,-842.705048,-814.226536,10066.800811
3738.470234,-689.485948,-592.164754,10732.986159
3738.470548,0.000000,-0.000000,10214.842000
3738.470863,-383.047749,740.205942,9474.636058
3738.471177,-229.828649,1628.453072,8956.491898
3738.471492,229.828649,1554.432478,9326.594869
3738.471806,459.657299,1036.288319,9326.594869
3738.472121,0.000000,296.082377,9770.718434
3738.472435,-536.266849,-370.102971,9918.759623
3738.472750,-536.266849,-666.185348,10584.944971
3738.473064,-229.828649,148.041188,11251.130318
3738.473379,-229.828649,1184.329507,10658.965565
3738.473693,-459.657299,1776.494261,9844.739029
3738.474007,229.828649,2146.597232,9474.636058
3738.474322,842.705048,1480.411884,9474.636058
3738.474636,766.095498,814.226536,9474.636058
3738.474951,0.000000,296.082377,9844.739029
3738.475265,0.000000,-296.082377,10288.862594
3738.475580,0.000000,-814.226536,10214.842000
3738.475894,0.000000,-0.000000,10288.862594
3738.476209,-229.828649,740.205942,9992.780217
3738.476523,0.000000,1332.370696,9252.574275
3738.476838,76.609550,1110.308913,8956.491898
3738.477152,919.314598,962.267725,9104.533087
3738.477466,612.876398,148.041188,9548.656652
3738.477781,76.609550,-444.123565,9696.697840
3738.478095,229.828649,-1480.411884,9992.780217
3738.478410,459.657299,-740.205942,10288.862594
3738.478724,842.705048,518.144159,9918.759623
3738.479039,766.095498,1406.391290,9030.512492
3738.479353,919.314598,1554.432478,8364.327145
3738.479668,1838.629195,1184.329507,8660.409521
3738.479982,1072.533697,370.102971,8512.368333
3738.480297,612.876398,-222.061783,9178.553681
3738.480611,153.219100,-814.226536,9622.677246
3738.480926,0.000000,-1628.453072,9918.759623
3738.481240,153.219100,-1184.329507,10510.924376
3738.481554,76.609550,370.102971,9622.677246
3738.481869,383.047749,814.226536,8882.471304
3738.482183,842.705048,1110.308913,8660.409521
3738.482498,919.314598,1036.288319,8734.430116
3738.482812,689.485948,814.226536,8956.491898
3738.483127,0.000000,-444.123565,9400.615463
3738.483441,0.000000,-888.247130,9992.780217
3738.483756,0.000000,-1036.288319,10658.965565
3738.484070,0.000000,370.102971,10584.944971
3738.484385,-383.047749,888.247130,9918.759623
3738.484699,-383.047749,1036.288319,8808.450710
3738.485014,306.438199,740.205942,9326.594869
3738.485328,0.000000,-0.000000,9474.636058
3738.485642,-612.876398,-0.000000,9474.636058
3738.485957,-995.924147,-518.144159,10510.924376
3738.486271,-842.705048,-1036.288319,9992.780217
3738.486586,-612.876398,-962.267725,10732.986159
3738.486900,-842.705048,-74.020594,10214.842000
3738.487215,-919.314598,296.082377,9622.677246
3738.487529,-229.828649,444.123565,9474.636058
3738.487844,459.657299,666.185348,9400.615463
3738.488158,536.266849,666.185348,9548.656652
3738.488473,-229.828649,-148.041188,9474.636058
3738.488787,0.000000,-1480.411884,9770.718434
3738.489102,229.828649,-1628.453072,10510.924376
3738.489416,0.000000,-740.205942,10362.883188
3738.489730,76.609550,518.144159,9770.718434
3738.490045,-153.219100,962.267725,9178.553681
3738.490359,306.438199,962.267725,8808.450710
3738.490674,459.657299,296.082377,9400.615463
3738.490988,76.609550,-222.061783,9474.636058
3738.491303,-459.657299,-888.247130,9992.780217
3738.491617,-536.266849,-1406.391290,9844.739029
3738.491932,76.609550,-1628.453072,10214.842000
3738.492246,76.609550,-74.020594,9918.759623
3738.492561,306.438199,370.102971,9252.574275
3738.492875,459.657299,1110.308913,8660.409521
3738.493190,1072.533697,1258.350101,8660.409521
3738.493504,1302.362347,740.205942,8586.388927
3738.493818,995.924147,-0.000000,8808.450710
3738.494133,0.000000,-296.082377,9030.512492
3738.494447,-229.828649,-1628.453072,9918.759623
3738.494762,-229.828649,-1110.308913,10288.862594
3738.495076,-536.266849,-222.061783,9992.780217
3738.495391,-536.266849,518.144159,9400.615463
3738.495705,0.000000,888.247130,9400.615463
3738.496020,383.047749,592.164754,8956.491898
3738.496334,383.047749,592.164754,9326.594869
3738.496649,0.000000,-370.102971,10066.800811
3738.496963,76.609550,-740.205942,9844.739029
3738.497278,306.438199,-592.164754,10066.800811
3738.497592,536.266849,-0.000000,10066.800811
3738.497906,689.485948,1184.329507,9548.656652
3738.498221,383.047749,1406.391290,9400.615463
3738.498535,995.924147,1480.411884,8734.430116
3738.498850,919.314598,888.247130,9178.553681
3738.499164,612.876398,740.205942,9252.574275
3738.499479,-229.828649,-370.102971,9696.697840
3738.499793,-612.876398,-814.226536,10140.821405
3738.500108,-612.876398,-888.247130,10436.903782
3738.500422,-536.266849,-222.061783,10584.944971
3738.500737,-306.438199,1036.288319,9844.739029
3738.501051,-536.266849,1332.370696,8512.368333
3738.501365,689.485948,888.247130,9326.594869
3738.501680,536.266849,888.247130,9622.677246
3738.501994,0.000000,962.267725,9400.615463
3738.502309,0.000000,-0.000000,10362.883188
3738.502623,0.000000,-222.061783,10362.883188
3738.502938,229.828649,-74.020594,10584.944971
3738.503252,459.657299,740.205942,10288.862594
3738.503567,153.219100,1776.494261,9548.656652
3738.503881,536.266849,1850.514855,9104.533087
3738.504196,842.705048,1036.288319,9252.574275
3738.504510,536.266849,518.144159,8882.471304
3738.504825,0.000000,-296.082377,9696.697840
3738.505139,-383.047749,-888.247130,9992.780217
3738.505453,-459.657299,-1554.432478,10362.883188
3738.505768,-153.219100,-592.164754,10510.924376
3738.506082,-229.828649,222.061783,9696.697840
3738.506397,0.000000,1184.329507,9252.574275
3738.506711,383.047749,1184.329507,8882.471304
3738.507026,383.047749,1036.288319,8882.471304
3738.507340,383.047749,666.185348,9474.636058
3738.507655,-229.828649,-148.041188,9770.718434
3738.507969,-306.438199,-592.164754,9770.718434
3738.508284,-306.438199,-740.205942,10658.965565
3738.508598,-459.657299,-0.000000,10214.842000
3738.508913,-536.266849,444.123565,9770.718434
3738.509227,0.000000,888.247130,8956.491898
3738.509541,0.000000,370.102971,8882.471304
3738.509856,153.219100,370.102971,9252.574275
3738.510170,-459.657299,-370.102971,9252.574275
3738.510485,-1072.533697,-1036.288319,9548.656652
3738.510799,-995.924147,-1480.411884,9770.718434
3738.511114,-766.095498,-1332.370696,10066.800811
3738.511428,-612.876398,-0.000000,9770.718434
3738.511743,0.000000,518.144159,8586.388927
3738.512057,0.000000,1036.288319,8364.327145
3738.512372,1072.533697,518.144159,8808.450710
3738.512686,842.705048,592.164754,8956.491898
3738.513001,0.000000,-518.144159,9252.574275
3738.513315,-153.219100,-1184.329507,9696.697840
3738.513629,-306.438199,-1332.370696,9918.759623
3738.513944,-229.828649,-666.185348,10362.883188
3738.514258,-229.828649,222.061783,10288.862594
3738.514573,-306.438199,592.164754,9400.615463
3738.514887,229.828649,444.123565,9252.574275
3738.515202,766.095498,-0.000000,9474.636058
3738.515516,766.095498,-0.000000,9474.636058
3738.515831,229.828649,-888.247130,9844.739029
3738.516145,459.657299,-1036.288319,10140.821405
3738.516460,229.828649,-962.267725,10436.903782
3738.516774,536.266849,-518.144159,9770.718434
3738.517089,1149.143247,888.247130,9474.636058
3738.517403,1608.800546,1628.453072,8882.471304
3738.517717,1915.238745,1480.411884,8660.409521
3738.518032,1685.410096,740.205942,9252.574275
3738.518346,1378.971896,-148.041188,10066.800811
3738.518661,76.609550,-148.041188,10066.800811
3738.518975,306.438199,-1406.391290,10658.965565
3738.519290,1149.143247,-740.205942,10510.924376
3738.519605,689.485948,1110.308913,10140.821405
3738.519919,536.266849,1110.308913,8734.430116
3738.520234,766.095498,888.247130,9030.512492
3738.520548,1455.581446,592.164754,9178.553681
3738.520863,1149.143247,444.123565,9326.594869
3738.521177,459.657299,296.082377,9474.636058
3738.521492,306.438199,-592.164754,9918.759623
3738.521807,153.219100,-222.061783,9844.739029
3738.522121,459.657299,296.082377,10362.883188
3738.522436,0.000000,1258.350101,9400.615463
3738.522750,0.000000,1628.453072,8956.491898
3738.523065,0.000000,962.267725,9252.574275
3738.523379,0.000000,370.102971,9548.656652
3738.523694,-689.485948,-74.020594,9770.718434
3738.524008,-995.924147,-518.144159,10362.883188
3738.524323,-1378.971896,-888.247130,9992.780217
3738.524638,-919.314598,-814.226536,10510.924376
3738.524952,-689.485948,370.102971,10362.883188
3738.525267,-842.705048,1258.350101,9622.677246
3738.525581,-766.095498,1554.432478,8734.430116
3738.525896,-153.219100,1184.329507,9104.533087
3738.526210,0.000000,518.144159,9030.512492
3738.526525,-536.266849,-148.041188,9548.656652
3738.526840,-1302.362347,-518.144159,9770.718434
3738.527154,-842.705048,-1184.329507,10140.821405
3738.527469,-689.485948,-370.102971,10510.924376
3738.527783,-306.438199,666.185348,9696.697840
3738.528098,-766.095498,1332.370696,9326.594869
3738.528412,0.000000,1332.370696,8734.430116
3738.528727,306.438199,740.205942,8956.491898
3738.529042,229.828649,-0.000000,9178.553681
3738.529356,0.000000,-0.000000,9474.636058
3738.529671,-612.876398,-666.185348,9770.718434
3738.529985,-383.047749,-444.123565,9918.759623
3738.530300,0.000000,-0.000000,9622.677246
3738.530614,76.609550,370.102971,9474.636058
3738.530929,76.609550,888.247130,8808.450710
3738.531244,766.095498,740.205942,8734.430116
3738.531558,919.314598,592.164754,9030.512492
3738.531873,306.438199,-0.000000,9326.594869
3738.532187,0.000000,-296.082377,9548.656652
3738.532502,-153.219100,-1110.308913,9992.780217
3738.532816,306.438199,-814.226536,10584.944971
3738.533131,536.266849,296.082377,10510.924376
3738.533446,766.095498,1184.329507,9104.533087
3738.533760,1149.143247,1850.514855,8512.368333
3738.534075,1378.971896,1036.288319,9252.574275
3738.534389,1225.752797,814.226536,9474.636058
3738.534704,919.314598,222.061783,9474.636058
3738.535018,536.266849,-666.185348,9696.697840
3738.535333,689.485948,-1036.288319,10362.883188
3738.535648,766.095498,-148.041188,10436.903782
3738.535962,612.876398,888.247130,9548.656652
3738.536277,306.438199,814.226536,9326.594869
3738.536591,995.924147,1184.329507,9326.594869
3738.536906,1302.362347,1184.329507,9622.677246
3738.537220,766.095498,444.123565,9474.636058
3738.537535,0.000000,-370.102971,10288.862594
3738.537850,-459.657299,-962.267725,10881.027347
3738.538164,-306.438199,-1110.308913,10807.006753
3738.538479,-536.266849,-444.123565,10881.027347
3738.538793,0.000000,888.247130,9992.780217
3738.539108,0.000000,888.247130,9548.656652
3738.539422,919.314598,814.226536,9252.574275
3738.539737,689.485948,740.205942,9548.656652
3738.540051,76.609550,296.082377,9400.615463
3738.540366,-383.047749,-518.144159,9770.718434
3738.540681,-536.266849,-962.267725,9622.677246
3738.540995,-536.266849,-962.267725,10140.821405
3738.541310,-842.705048,-296.082377,9844.739029
3738.541624,-842.705048,222.061783,8956.491898
3738.541939,-612.876398,518.144159,9030.512492
3738.542253,-459.657299,518.144159,9030.512492
3738.542568,-842.705048,-0.000000,9474.636058
3738.542883,-536.266849,-740.205942,9548.656652
3738.543197,-1225.752797,-1332.370696,10066.800811
3738.543512,-919.314598,-1184.329507,10658.965565
3738.543826,-612.876398,-444.123565,10436.903782
3738.544141,-153.219100,1036.288319,9400.615463
3738.544455,76.609550,1480.411884,9104.533087
3738.544770,383.047749,1332.370696,8438.347739
3738.545085,919.314598,370.102971,9030.512492
3738.545399,689.485948,-0.000000,8956.491898
3738.545714,0.000000,-518.144159,8882.471304
3738.546028,229.828649,-962.267725,9474.636058
3738.546343,306.438199,-1110.308913,9696.697840
3738.546657,0.000000,-0.000000,9770.718434
3738.546972,0.000000,222.061783,8734.430116
3738.547287,0.000000,1036.288319,8216.285956
3738.547601,536.266849,592.164754,9178.553681
3738.547916,612.876398,148.041188,8882.471304
3738.548230,459.657299,-148.041188,9474.636058
3738.548545,-459.657299,-1036.288319,10066.800811
3738.548859,-459.657299,-1184.329507,10140.821405
3738.549174,0.000000,-1258.350101,11029.068536
3738.549489,0.000000,370.102971,10288.862594
3738.549803,76.609550,1036.288319,9918.759623
3738.550118,766.095498,1332.370696,9326.594869
3738.550432,1685.410096,1036.288319,9030.512492
3738.550747,1149.143247,1110.308913,9252.574275
3738.551061,766.095498,-0.000000,9844.739029
3738.551376,76.609550,-444.123565,9770.718434
3738.551691,153.219100,-888.247130,10140.821405
3738.552005,383.047749,-444.123565,10362.883188
3738.552320,153.219100,370.102971,9696.697840
3738.552634,0.000000,962.267725,9400.615463
3738.552949,229.828649,666.185348,8808.450710
3738.553263,306.438199,444.123565,8808.450710
3738.553578,459.657299,518.144159,9474.636058
3738.553893,0.000000,-518.144159,9622.677246
3738.554207,-383.047749,-666.185348,10288.862594
3738.554522,0.000000,-444.123565,10881.027347
3738.554836,306.438199,666.185348,10436.903782
3738.555151,0.000000,1480.411884,9918.759623
3738.555465,689.485948,1702.473667,8734.430116
3738.555780,995.924147,1628.453072,9326.594869
3738.556094,1378.971896,1332.370696,9474.636058
3738.556409,536.266849,444.123565,9030.512492
3738.556724,229.828649,-296.082377,9770.718434
3738.557038,0.000000,-666.185348,9992.780217
3738.557353,-229.828649,-296.082377,10066.800811
3738.557667,-306.438199,222.061783,9622.677246
3738.557982,-229.828649,888.247130,8734.430116
3738.558296,0.000000,888.247130,8956.491898
3738.558611,153.219100,592.164754,9252.574275
3738.558926,229.828649,296.082377,9474.636058
3738.559240,-766.095498,-0.000000,9474.636058
3738.559555,-919.314598,-296.082377,9992.780217
3738.559869,-229.828649,-592.164754,10658.965565
3738.560184,-229.828649,-0.000000,11177.109724
3738.560498,-306.438199,962.267725,10510.924376
3738.560813,-306.438199,1850.514855,9252.574275
3738.561128,459.657299,1554.432478,8882.471304
3738.561442,766.095498,666.185348,9474.636058
3738.561757,459.657299,592.164754,9474.636058
3738.562071,0.000000,-592.164754,9252.574275
3738.562386,-689.485948,-1036.288319,9696.697840
3738.562700,-383.047749,-962.267725,10214.842000
3738.563015,-229.828649,-444.123565,10140.821405
3738.563330,0.000000,222.061783,9104.533087
3738.563644,0.000000,740.205942,8438.347739
3738.563959,536.266849,-0.000000,8660.409521
3738.564273,995.924147,-0.000000,9400.615463
3738.564588,-229.828649,-148.041188,9474.636058
3738.564902,0.000000,-740.205942,9918.759623
3738.565217,-383.047749,-888.247130,10066.800811
3738.565532,-153.219100,-370.102971,10510.924376
3738.565846,229.828649,518.144159,10732.986159
3738.566161,-229.828649,1110.308913,9474.636058
3738.566475,153.219100,888.247130,9400.615463
3738.566790,919.314598,370.102971,9992.780217
3738.567104,383.047749,592.164754,9474.636058
3738.567419,766.095498,-518.144159,9844.739029
3738.567734,536.266849,-1036.288319,10436.903782
3738.568048,689.485948,-1184.329507,9992.780217
3738.568363,1072.533697,-0.000000,9326.594869
3738.568677,995.924147,666.185348,8512.368333
3738.568992,1225.752797,888.247130,8364.327145
3738.569306,1302.362347,592.164754,8438.347739
3738.569621,1532.190996,-74.020594,8586.388927
3738.569936,766.095498,-740.205942,8956.491898
3738.570250,0.000000,-1184.329507,9326.594869
3738.570565,-229.828649,-1554.432478,10362.883188
3738.570879,-383.047749,-1258.350101,10955.047942
3738.571194,-459.657299,-74.020594,10881.027347
3738.571508,-306.438199,1036.288319,9696.697840
3738.571823,306.438199,962.267725,9104.533087
3738.572137,1149.143247,296.082377,9474.636058
3738.572452,766.095498,518.144159,9474.636058
3738.572767,0.000000,222.061783,9474.636058
3738.573081,-536.266849,-444.123565,9474.636058
3738.573396,76.609550,-962.267725,9918.759623
3738.573710,0.000000,-814.226536,9474.636058
3738.574025,-153.219100,-74.020594,9252.574275
3738.574339,-919.314598,666.185348,9178.553681
3738.574654,-842.705048,592.164754,8512.368333
3738.574969,-306.438199,-0.000000,8882.471304
3738.575283,-612.876398,-148.041188,9474.636058
3738.575598,-1455.581446,-814.226536,9696.697840
3738.575912,-1378.971896,-1554.432478,10140.821405
3738.576227,-995.924147,-1554.432478,10807.006753
3738.576541,-842.705048,-814.226536,11399.171507
3738.576856,-459.657299,814.226536,9992.780217
3738.577171,-153.219100,2146.597232,8882.471304
3738.577485,153.219100,1480.411884,9252.574275
3738.577800,612.876398,962.267725,9326.594869
3738.578114,612.876398,592.164754,9622.677246
3738.578429,76.609550,222.061783,9400.615463
3738.578743,0.000000,-444.123565,9918.759623
3738.579058,229.828649,-222.061783,10288.862594
3738.579373,76.609550,370.102971,9918.759623
3738.579687,229.828649,888.247130,9400.615463
3738.580002,612.876398,1258.350101,8734.430116
3738.580316,842.705048,518.144159,9104.533087
3738.580631,612.876398,222.061783,9252.574275
3738.580945,0.000000,-148.041188,9104.533087
3738.581260,0.000000,-518.144159,9622.677246
3738.581575,0.000000,-740.205942,10288.862594
3738.581889,229.828649,-222.061783,10436.903782
3738.582204,229.828649,962.267725,9770.718434
3738.582518,536.266849,1998.556043,9474.636058
3738.582833,1072.533697,1628.453072,8956.491898
3738.583147,1838.629195,1850.514855,9474.636058
3738.583462,1685.410096,1184.329507,9918.759623
3738.583777,766.095498,370.102971,9548.656652
3738.584091,306.438199,-296.082377,9918.759623
3738.584406,689.485948,-444.123565,10214.842000
3738.584720,536.266849,296.082377,10362.883188
3738.585035,306.438199,592.164754,9622.677246
3738.585349,153.219100,962.267725,9326.594869
3738.585664,995.924147,370.102971,9178.553681
3738.585979,1149.143247,222.061783,9474.636058
3738.586293,842.705048,-222.061783,9770.718434
3738.586608,153.219100,-296.082377,9326.594869
3738.586922,919.314598,-888.247130,9918.759623
3738.587237,919.314598,-370.102971,10066.800811
3738.587551,689.485948,592.164754,10066.800811
3738.587866,919.314598,1036.288319,8956.491898
3738.588180,689.485948,1628.453072,8956.491898
3738.588495,995.924147,1110.308913,9548.656652
3738.588810,459.657299,666.185348,9474.636058
3738.589124,-459.657299,-148.041188,9918.759623
3738.589439,-612.876398,-814.226536,10288.862594
3738.589753,-383.047749,-666.185348,10732.986159
3738.590068,-536.266849,-370.102971,10881.027347
3738.590382,-383.047749,740.205942,9696.697840
3738.590697,-383.047749,1332.370696,9030.512492
3738.591012,0.000000,888.247130,8660.409521
3738.591326,689.485948,666.185348,9474.636058
3738.591641,0.000000,-0.000000,8956.491898
3738.591955,-766.095498,-740.205942,9400.615463
3738.592270,-919.314598,-962.267725,9844.739029
3738.592584,-919.314598,-666.185348,10214.842000
3738.592899,-1072.533697,222.061783,9770.718434
3738.593214,-919.314598,962.267725,9326.594869
3738.593528,-459.657299,1332.370696,8808.450710
3738.593843,-536.266849,740.205942,9252.574275
3738.594157,-383.047749,-0.000000,9622.677246
3738.594472,-536.266849,-370.102971,10066.800811
3738.594786,-1302.362347,-888.247130,9992.780217
3738.595101,-1378.971896,-1110.308913,10066.800811
3738.595416,-689.485948,-962.267725,10584.944971
3738.595730,-612.876398,-74.020594,9474.636058
3738.596045,-229.828649,814.226536,9030.512492
3738.596359,0.000000,1036.288319,8512.368333
3738.596674,306.438199,296.082377,8512.368333
3738.596988,306.438199,-74.020594,8660.409521
3738.597303,-612.876398,-814.226536,9252.574275
3738.597618,-919.314598,-1554.432478,9474.636058
3738.597932,-536.266849,-2072.576638,10214.842000
3738.598247,-383.047749,-888.247130,10584.944971
3738.598561,-383.047749,-148.041188,10214.842000
3738.598876,-536.266849,592.164754,9548.656652
3738.599190,153.219100,592.164754,9252.574275
3738.599505,995.924147,592.164754,9104.533087
3738.599820,842.705048,518.144159,9548.656652
3738.600134,689.485948,-370.102971,9918.759623
3738.600449,689.485948,-962.267725,9992.780217
3738.600763,919.314598,-1036.288319,10362.883188
3738.601078,1072.533697,222.061783,10066.800811
3738.601392,919.314598,1110.308913,9696.697840
3738.601707,1225.752797,1480.411884,8660.409521
3738.602022,1838.629195,814.226536,8734.430116
3738.602336,1685.410096,222.061783,8956.491898
3738.602651,766.095498,-814.226536,9474.636058
3738.602965,0.000000,-1110.308913,9622.677246
3738.603280,0.000000,-1554.432478,10436.903782
3738.603594,76.609550,-888.247130,10807.006753
3738.603909,383.047749,518.144159,10140.821405
3738.604223,306.438199,814.226536,8956.491898
3738.604538,919.314598,1332.370696,8882.471304
3738.604853,1455.581446,1110.308913,9548.656652
3738.605167,1072.533697,962.267725,9474.636058
3738.605482,689.485948,518.144159,9474.636058
3738.605796,383.047749,-0.000000,9622.677246
3738.606111,153.219100,-296.082377,10584.944971
3738.606425,536.266849,-0.000000,10066.800811
3738.606740,306.438199,666.185348,9844.739029
3738.607055,0.000000,1554.432478,9252.574275
3738.607369,383.047749,1258.350101,8808.450710
3738.607684,459.657299,370.102971,9104.533087
3738.607998,0.000000,-222.061783,9252.574275
3738.608313,-536.266849,-666.185348,9474.636058
3738.608627,-842.705048,-1406.391290,9918.759623
3738.608942,-612.876398,-740.205942,10658.965565
3738.609257,-306.438199,666.185348,10140.821405
3738.609571,0.000000,1184.329507,9178.553681
3738.609886,-383.047749,1036.288319,8882.471304
3738.610200,153.219100,1110.308913,8660.409521
3738.610515,306.438199,1110.308913,9326.594869
3738.610829,-536.266849,370.102971,9770.718434
3738.611144,-919.314598,-0.000000,10362.883188
3738.611459,-689.485948,-888.247130,10362.883188
3738.611773,-612.876398,-222.061783,10436.903782
3738.612088,-766.095498,1036.288319,10214.842000
3738.612402,-842.705048,1184.329507,9770.718434
3738.612717,-229.828649,1184.329507,9252.574275
3738.613031,0.000000,518.144159,9622.677246
3738.613346,-153.219100,814.226536,9326.594869
3738.613661,-612.876398,-0.000000,9474.636058
3738.613975,-842.705048,-370.102971,9918.759623
3738.614290,-612.876398,-666.185348,10140.821405
3738.614604,0.000000,592.164754,10066.800811
3738.614919,153.219100,1184.329507,9178.553681
3738.615233,76.609550,1702.473667,8512.368333
3738.615548,612.876398,1258.350101,8956.491898
3738.615863,689.485948,666.185348,9474.636058
3738.616177,76.609550,-0.000000,9474.636058
3738.616492,-536.266849,-814.226536,9918.759623
3738.616806,-459.657299,-1702.473667,10584.944971
3738.617121,76.609550,-888.247130,10732.986159
3738.617435,-459.657299,-148.041188,10288.862594
3738.617750,-153.219100,814.226536,9326.594869
3738.618065,153.219100,1110.308913,8808.450710
3738.618379,1378.971896,962.267725,9104.533087
3738.618694,1455.581446,370.102971,9548.656652
3738.619008,1072.533697,-296.082377,9474.636058
3738.619323,536.266849,-888.247130,9104.533087
3738.619637,919.314598,-888.247130,9844.739029
3738.619952,995.924147,-444.123565,10362.883188
3738.620267,306.438199,296.082377,9918.759623
3738.620581,766.095498,814.226536,9030.512492
3738.620896,842.705048,888.247130,8364.327145
3738.621211,1762.019645,592.164754,8882.471304
3738.621525,919.314598,-148.041188,9400.615463
3738.621840,842.705048,-1184.329507,9844.739029
3738.622154,-229.828649,-1850.514855,9992.780217
3738.622469,306.438199,-1776.494261,10288.862594
3738.622784,383.047749,-296.082377,10436.903782
3738.623098,612.876398,518.144159,9844.739029
3738.623413,459.657299,1184.329507,9178.553681
3738.623727,995.924147,1332.370696,8734.430116
3738.624042,1302.362347,1110.308913,8882.471304
3738.624357,919.314598,-0.000000,9104.533087
3738.624671,229.828649,-1184.329507,9326.594869
3738.624986,-306.438199,-1480.411884,9770.718434
3738.625301,-383.047749,-814.226536,10658.965565
3738.625615,-689.485948,-74.020594,9770.718434
3738.625930,-766.095498,592.164754,9178.553681
3738.626244,-842.705048,518.144159,9030.512492
3738.626559,0.000000,296.082377,9030.512492
3738.626874,-306.438199,-0.000000,9326.594869
3738.627188,-919.314598,-222.061783,9326.594869
3738.627503,-1149.143247,-1480.411884,10288.862594
3738.627818,-842.705048,-888.247130,10214.842000
3738.628132,-612.876398,-296.082377,9770.718434
3738.628447,-766.095498,962.267725,9400.615463
3738.628761,-766.095498,1406.391290,8808.450710
3738.629076,0.000000,1480.411884,8660.409521
3738.629391,612.876398,666.185348,9030.512492
3738.629705,0.000000,222.061783,9474.636058
3738.630020,-1149.143247,-296.082377,9474.636058
3738.630335,-1149.143247,-962.267725,10436.903782
3738.630649,-1072.533697,-1258.350101,11325.150913
3738.630964,-689.485948,-296.082377,10955.047942
3738.631278,-919.314598,518.144159,9696.697840
3738.631593,-536.266849,1258.350101,8882.471304
3738.631908,689.485948,814.226536,8586.388927
3738.632222,1072.533697,814.226536,9030.512492
3738.632537,536.266849,-0.000000,9474.636058
3738.632851,76.609550,-518.144159,9474.636058
3738.633166,306.438199,-962.267725,9844.739029
3738.633481,383.047749,-296.082377,10214.842000
3738.633795,76.609550,666.185348,10510.924376
3738.634110,229.828649,1036.288319,9252.574275
3738.634425,536.266849,1258.350101,9104.533087
3738.634739,919.314598,1184.329507,9252.574275
3738.635054,689.485948,444.123565,9622.677246
3738.635368,0.000000,-370.102971,10140.821405
3738.635683,-383.047749,-962.267725,10140.821405
3738.635998,-306.438199,-814.226536,10807.006753
3738.636312,153.219100,-148.041188,10807.006753
3738.636627,383.047749,814.226536,10140.821405
3738.636942,842.705048,1554.432478,9252.574275
3738.637256,1072.533697,1332.370696,8660.409521
3738.637571,1225.752797,888.247130,8956.491898
3738.637885,1378.971896,888.247130,8956.491898
3738.638200,612.876398,222.061783,9178.553681
3738.638515,612.876398,-444.123565,9178.553681
3738.638829,0.000000,-518.144159,9474.636058
3738.639144,0.000000,-0.000000,9770.718434
3738.639459,-306.438199,740.205942,9252.574275
3738.639773,-306.438199,1036.288319,8882.471304
3738.640088,229.828649,814.226536,9252.574275
3738.640402,383.047749,-0.000000,9622.677246
3738.640717,0.000000,74.020594,9474.636058
3738.641032,-536.266849,-518.144159,10288.862594
3738.641346,-306.438199,-1110.308913,10807.006753
3738.641661,0.000000,-444.123565,11103.089130
