#time,accel_x,accel_y,accel_z
3543.088653,2145.067394,888.247130,8438.347739
3543.088967,1991.848295,962.267725,7994.224174
3543.089281,1762.019645,1258.350101,8290.306550
3543.089595,1685.410096,888.247130,8808.450710
3543.089909,1225.752797,888.247130,9178.553681
3543.090224,1072.533697,740.205942,9178.553681
3543.090538,689.485948,518.144159,9326.594869
3543.090852,766.095498,592.164754,10066.800811
3543.091166,459.657299,370.102971,9326.594869
3543.091480,229.828649,296.082377,9178.553681
3543.091795,0.000000,148.041188,9252.574275
3543.092109,-229.828649,-0.000000,9104.533087
3543.092423,229.828649,-444.123565,9400.615463
3543.092737,-229.828649,-592.164754,9400.615463
3543.093051,-612.876398,-1036.288319,9622.677246
3543.093366,-689.485948,-1332.370696,9696.697840
3543.093680,-842.705048,-1184.329507,10066.800811
3543.093994,-1149.143247,-1184.329507,10214.842000
3543.094308,-1072.533697,-1258.350101,9918.759623
3543.094622,-306.438199,-740.205942,9474.636058
3543.094937,-459.657299,-592.164754,9252.574275
3543.095251,-306.438199,-444.123565,9474.636058
3543.095565,306.438199,-296.082377,9474.636058
3543.095879,-229.828649,-370.102971,9400.615463
3543.096194,229.828649,-444.123565,9844.739029
3543.096508,76.609550,-444.123565,9252.574275
3543.096822,0.000000,-814.226536,8808.450710
3543.097136,0.000000,-888.247130,9918.759623
3543.097450,-459.657299,-1258.350101,10288.862594
3543.097765,-842.705048,-1332.370696,10140.821405
3543.098079,-995.924147,-1184.329507,10288.862594
3543.098393,-689.485948,-1258.350101,10658.965565
3543.098707,-536.266849,-444.123565,10288.862594
3543.099021,0.000000,-370.102971,9770.718434
3543.099336,229.828649,-74.020594,9696.697840
3543.099650,612.876398,-0.000000,9104.533087
3543.099964,1072.533697,370.102971,8808.450710
3543.100278,1149.143247,518.144159,8660.409521
3543.100592,1378.971896,444.123565,8734.430116
3543.100907,1225.752797,148.041188,8734.430116
3543.101221,1072.533697,444.123565,8808.450710
3543.101535,536.266849,444.123565,9326.594869
3543.101849,766.095498,518.144159,9400.615463
3543.102163,229.828649,444.123565,9252.574275
3543.102478,153.219100,518.144159,9252.574275
3543.102792,383.047749,740.205942,9326.594869
3543.103106,306.438199,592.164754,8956.491898
3543.103420,766.095498,814.226536,9030.512492
3543.103734,1149.143247,1258.350101,8734.430116
3543.104049,842.705048,1332.370696,8882.471304
3543.104363,1149.143247,1332.370696,9474.636058
3543.104677,995.924147,1258.350101,9770.718434
3543.104991,995.924147,1258.350101,9918.759623
3543.105305,766.095498,1332.370696,9844.739029
3543.105620,612.876398,1406.391290,9770.718434
3543.105934,536.266849,1480.411884,10066.800811
3543.106248,919.314598,1184.329507,10066.800811
3543.106562,919.314598,1406.391290,9918.759623
3543.106876,689.485948,1258.350101,10140.821405
3543.107191,153.219100,814.226536,9770.718434
3543.107505,76.609550,666.185348,9992.780217
3543.107819,0.000000,592.164754,10732.986159
3543.108133,-229.828649,444.123565,10955.047942
3543.108448,-383.047749,370.102971,10955.047942
3543.108762,-766.095498,518.144159,10955.047942
3543.109076,-306.438199,518.144159,10658.965565
3543.109390,-383.047749,666.185348,10658.965565
3543.109704,0.000000,888.247130,10288.862594
3543.110019,0.000000,962.267725,10436.903782
3543.110333,0.000000,666.185348,10362.883188
3543.110647,0.000000,592.164754,10140.821405
3543.110961,0.000000,-0.000000,10362.883188
3543.111275,-383.047749,-148.041188,10510.924376
3543.111590,-153.219100,-148.041188,10214.842000
3543.111904,0.000000,-222.061783,9992.780217
3543.112218,0.000000,-370.102971,10140.821405
3543.112532,-153.219100,-370.102971,9844.739029
3543.112846,0.000000,-148.041188,9918.759623
3543.113161,76.609550,-0.000000,9326.594869
3543.113475,153.219100,-148.041188,8956.491898
3543.113789,229.828649,-0.000000,9030.512492
3543.114103,306.438199,-222.061783,8956.491898
3543.114417,459.657299,-444.123565,8734.430116
3543.114732,153.219100,-222.061783,8660.409521
3543.115046,306.438199,-74.020594,8882.471304
3543.115360,536.266849,-444.123565,9030.512492
3543.115674,383.047749,-592.164754,9030.512492
3543.115988,153.219100,-444.123565,9104.533087
3543.116303,76.609550,-592.164754,8734.430116
3543.116617,536.266849,-370.102971,8660.409521
3543.116931,153.219100,-370.102971,8882.471304
3543.117245,0.000000,-666.185348,8956.491898
3543.117559,76.609550,-518.144159,8956.491898
3543.117874,229.828649,-666.185348,8734.430116
3543.118188,76.609550,-518.144159,8808.450710
3543.118502,306.438199,-444.123565,9104.533087
3543.118816,76.609550,-444.123565,9400.615463
3543.119130,0.000000,-814.226536,9400.615463
3543.119445,0.000000,-666.185348,9400.615463
3543.119759,229.828649,-370.102971,9474.636058
3543.120073,153.219100,-518.144159,9548.656652
3543.120387,0.000000,-296.082377,9918.759623
3543.120702,0.000000,-222.061783,9770.718434
3543.121016,0.000000,-444.123565,9770.718434
3543.121330,0.000000,-444.123565,9992.780217
3543.121644,-229.828649,-296.082377,9770.718434
3543.121958,0.000000,-518.144159,10066.800811
3543.122273,-306.438199,-370.102971,9992.780217
3543.122587,-306.438199,-370.102971,9992.780217
3543.122901,-306.438199,-370.102971,10140.821405
3543.123215,-306.438199,-148.041188,9844.739029
3543.123529,-306.438199,-148.041188,9992.780217
3543.123844,-306.438199,222.061783,9770.718434
3543.124158,-153.219100,296.082377,9770.718434
3543.124472,-306.438199,222.061783,9844.739029
3543.124786,229.828649,296.082377,9844.739029
3543.125100,76.609550,592.164754,9918.759623
3543.125415,229.828649,888.247130,9622.677246
3543.125729,229.828649,740.205942,9696.697840
3543.126043,306.438199,592.164754,9770.718434
3543.126357,383.047749,740.205942,9770.718434
3543.126671,229.828649,962.267725,9696.697840
3543.126986,0.000000,888.247130,9622.677246
3543.127300,153.219100,962.267725,9622.677246
3543.127614,306.438199,962.267725,9548.656652
3543.127928,306.438199,962.267725,9622.677246
3543.128242,153.219100,814.226536,9400.615463
3543.128557,306.438199,814.226536,9400.615463
3543.128871,689.485948,1110.308913,9474.636058
3543.129185,612.876398,1036.288319,9400.615463
3543.129499,459.657299,740.205942,9474.636058
3543.129813,536.266849,888.247130,9548.656652
3543.130128,459.657299,814.226536,9400.615463
3543.130442,383.047749,740.205942,9622.677246
3543.130757,153.219100,592.164754,9622.677246
3543.131071,229.828649,592.164754,9622.677246
3543.131385,536.266849,888.247130,9548.656652
3543.131700,306.438199,740.205942,9622.677246
3543.132014,459.657299,592.164754,9844.739029
3543.132328,536.266849,740.205942,10140.821405
3543.132643,0.000000,-0.000000,9770.718434
3543.132957,153.219100,-148.041188,9770.718434
3543.133272,153.219100,-74.020594,9696.697840
3543.133586,153.219100,-222.061783,9622.677246
3543.133900,76.609550,-296.082377,9696.697840
3543.134215,76.609550,-222.061783,9474.636058
3543.134529,-229.828649,-296.082377,9474.636058
3543.134843,-306.438199,-370.102971,9474.636058
3543.135158,0.000000,-296.082377,9844.739029
3543.135472,-229.828649,-148.041188,9770.718434
3543.135786,0.000000,-222.061783,9622.677246
3543.136101,0.000000,-370.102971,9326.594869
3543.136415,0.000000,-222.061783,9474.636058
3543.136730,0.000000,-814.226536,9326.594869
3543.137044,-306.438199,-592.164754,9622.677246
3543.137358,0.000000,-222.061783,9622.677246
3543.137673,-153.219100,-222.061783,9400.615463
3543.137987,0.000000,-740.205942,9400.615463
3543.138301,153.219100,-370.102971,9326.594869
3543.138616,-306.438199,-296.082377,8956.491898
3543.138930,0.000000,-444.123565,8956.491898
3543.139245,0.000000,-222.061783,9104.533087
3543.139559,153.219100,-148.041188,9252.574275
3543.139873,536.266849,-0.000000,9474.636058
3543.140188,229.828649,-222.061783,9252.574275
3543.140502,153.219100,-0.000000,9252.574275
3543.140816,76.609550,-0.000000,9400.615463
3543.141131,459.657299,296.082377,9400.615463
3543.141445,229.828649,370.102971,9400.615463
3543.141759,306.438199,-0.000000,9104.533087
3543.142074,536.266849,444.123565,9326.594869
3543.142388,229.828649,148.041188,9474.636058
3543.142703,229.828649,296.082377,9474.636058
3543.143017,153.219100,148.041188,9770.718434
3543.143331,306.438199,-0.000000,9770.718434
3543.143646,0.000000,-0.000000,9474.636058
3543.143960,153.219100,-0.000000,9474.636058
3543.144274,229.828649,-0.000000,9548.656652
3543.144589,306.438199,-444.123565,9992.780217
3543.144903,0.000000,-0.000000,9992.780217
3543.145217,0.000000,-0.000000,9622.677246
3543.145532,383.047749,370.102971,9696.697840
3543.145846,383.047749,518.144159,9770.718434
3543.146161,306.438199,814.226536,9918.759623
3543.146475,229.828649,444.123565,10436.903782
3543.146789,0.000000,444.123565,9992.780217
3543.147104,0.000000,592.164754,10140.821405
3543.147418,0.000000,740.205942,9918.759623
3543.147732,153.219100,-0.000000,10214.842000
3543.148047,0.000000,444.123565,10658.965565
3543.148361,0.000000,592.164754,9622.677246
3543.148676,76.609550,666.185348,10214.842000
3543.148990,0.000000,666.185348,10288.862594
3543.149304,306.438199,740.205942,9992.780217
3543.149619,0.000000,592.164754,9474.636058
3543.149933,153.219100,740.205942,9400.615463
3543.150247,229.828649,814.226536,10140.821405
3543.150562,76.609550,962.267725,9844.739029
3543.150876,229.828649,370.102971,9992.780217
3543.151190,0.000000,518.144159,9696.697840
3543.151505,0.000000,592.164754,9696.697840
3543.151819,0.000000,592.164754,9844.739029
3543.152134,0.000000,592.164754,9622.677246
3543.152448,0.000000,370.102971,9844.739029
3543.152762,76.609550,740.205942,9474.636058
3543.153077,229.828649,370.102971,9474.636058
3543.153391,229.828649,296.082377,9548.656652
3543.153705,229.828649,370.102971,9548.656652
3543.154020,76.609550,-0.000000,9992.780217
3543.154334,76.609550,74.020594,9252.574275
3543.154649,76.609550,-148.041188,9252.574275
3543.154963,76.609550,-148.041188,9326.594869
3543.155277,306.438199,-0.000000,9474.636058
3543.155592,306.438199,-0.000000,9474.636058
3543.155906,76.609550,-74.020594,9030.512492
3543.156220,306.438199,-74.020594,9474.636058
3543.156535,459.657299,-0.000000,9474.636058
3543.156849,383.047749,-148.041188,9178.553681
3543.157163,229.828649,-222.061783,9696.697840
3543.157478,153.219100,-148.041188,9622.677246
3543.157792,459.657299,-148.041188,9474.636058
3543.158107,306.438199,-222.061783,9400.615463
3543.158421,536.266849,-74.020594,9400.615463
3543.158735,229.828649,-444.123565,9770.718434
3543.159050,0.000000,-222.061783,9400.615463
3543.159364,76.609550,-518.144159,9474.636058
3543.159678,0.000000,-370.102971,9548.656652
3543.159993,0.000000,-444.123565,9548.656652
3543.160307,76.609550,-148.041188,9326.594869
3543.160622,153.219100,-0.000000,9104.533087
3543.160936,76.609550,-0.000000,9918.759623
3543.161250,153.219100,-0.000000,9474.636058
3543.161565,0.000000,-0.000000,9548.656652
3543.161879,76.609550,74.020594,9622.677246
3543.162193,-383.047749,-370.102971,9474.636058
3543.162508,0.000000,-0.000000,9548.656652
3543.162822,0.000000,-0.000000,9770.718434
3543.163136,153.219100,-0.000000,9548.656652
3543.163451,76.609550,-0.000000,9474.636058
3543.163765,0.000000,148.041188,9252.574275
3543.164080,229.828649,-0.000000,9400.615463
3543.164394,229.828649,222.061783,9474.636058
3543.164708,0.000000,-0.000000,9548.656652
3543.165023,-306.438199,-0.000000,9844.739029
3543.165337,0.000000,222.061783,9622.677246
3543.165651,0.000000,222.061783,9474.636058
3543.165966,153.219100,370.102971,9622.677246
3543.166280,0.000000,518.144159,9844.739029
3543.166595,459.657299,-0.000000,9474.636058
3543.166909,153.219100,296.082377,9548.656652
3543.167223,306.438199,296.082377,9696.697840
3543.167538,229.828649,370.102971,9474.636058
3543.167852,306.438199,444.123565,9770.718434
3543.168166,536.266849,370.102971,10288.862594
3543.168481,536.266849,370.102971,9622.677246
3543.168795,306.438199,444.123565,9548.656652
3543.169109,306.438199,-0.000000,9474.636058
3543.169424,842.705048,296.082377,10140.821405
3543.169738,459.657299,-0.000000,9696.697840
3543.170053,612.876398,296.082377,9548.656652
3543.170367,383.047749,-0.000000,9696.697840
3543.170681,306.438199,148.041188,9918.759623
3543.170996,229.828649,518.144159,9622.677246
3543.171310,459.657299,296.082377,9474.636058
3543.171624,153.219100,222.061783,9992.780217
3543.171939,229.828649,296.082377,9844.739029
3543.172253,229.828649,296.082377,10066.800811
3543.172568,0.000000,296.082377,9918.759623
3543.172882,383.047749,296.082377,9622.677246
3543.173196,0.000000,-0.000000,9696.697840
3543.173511,0.000000,296.082377,10214.842000
3543.173825,0.000000,222.061783,9770.718434
3543.174139,0.000000,296.082377,9622.677246
3543.174454,229.828649,222.061783,9474.636058
3543.174768,0.000000,-0.000000,9696.697840
3543.175082,76.609550,-0.000000,9696.697840
3543.175397,0.000000,-0.000000,9622.677246
3543.175711,-536.266849,-148.041188,9696.697840
3543.176026,0.000000,-296.082377,9400.615463
3543.176340,-229.828649,-0.000000,9178.553681
3543.176654,0.000000,-0.000000,9252.574275
3543.176969,0.000000,-74.020594,9548.656652
3543.177283,0.000000,-296.082377,9474.636058
3543.177597,0.000000,-444.123565,9548.656652
3543.177912,0.000000,-74.020594,9474.636058
3543.178226,153.219100,-74.020594,9474.636058
3543.178540,153.219100,-0.000000,9326.594869
3543.178855,459.657299,-74.020594,9400.615463
3543.179169,612.876398,-444.123565,9548.656652
3543.179484,153.219100,-0.000000,9252.574275
3543.179798,306.438199,-74.020594,9104.533087
3543.180112,0.000000,-222.061783,9178.553681
3543.180427,0.000000,-296.082377,9252.574275
3543.180741,229.828649,-370.102971,9400.615463
3543.181055,306.438199,-222.061783,9252.574275
3543.181370,459.657299,-74.020594,9622.677246
3543.181684,306.438199,-0.000000,9474.636058
3543.181999,306.438199,222.061783,9400.615463
3543.182313,383.047749,-370.102971,9548.656652
3543.182627,383.047749,-0.000000,9474.636058
3543.182942,383.047749,-0.000000,9696.697840
3543.183256,306.438199,-0.000000,9622.677246
3543.183570,229.828649,-0.000000,9474.636058
3543.183885,153.219100,222.061783,9696.697840
3543.184199,0.000000,370.102971,9622.677246
3543.184513,0.000000,-0.000000,9844.739029
3543.184828,76.609550,296.082377,9474.636058
3543.185142,76.609550,296.082377,9326.594869
3543.185457,0.000000,370.102971,9622.677246
3543.185771,383.047749,444.123565,9844.739029
3543.186085,0.000000,296.082377,9918.759623
3543.186400,-306.438199,148.041188,9400.615463
3543.186714,-229.828649,222.061783,9770.718434
3543.187028,76.609550,222.061783,9474.636058
3543.187343,0.000000,666.185348,9474.636058
3543.187657,0.000000,518.144159,9844.739029
3543.187972,0.000000,296.082377,9918.759623
3543.188286,153.219100,444.123565,9844.739029
3543.188600,76.609550,370.102971,9770.718434
3543.188915,153.219100,444.123565,9844.739029
3543.189229,0.000000,370.102971,9696.697840
3543.189543,153.219100,296.082377,9548.656652
3543.189858,459.657299,-0.000000,9844.739029
3543.190172,76.609550,518.144159,9770.718434
3543.190486,153.219100,296.082377,9474.636058
3543.190801,0.000000,-0.000000,9400.615463
3543.191115,153.219100,222.061783,9622.677246
3543.191430,229.828649,222.061783,9548.656652
3543.191744,0.000000,444.123565,9474.636058
3543.192058,153.219100,518.144159,9844.739029
3543.192373,459.657299,518.144159,9770.718434
3543.192687,153.219100,444.123565,9474.636058
3543.193001,689.485948,592.164754,9844.739029
3543.193316,153.219100,296.082377,9696.697840
3543.193630,383.047749,370.102971,9992.780217
3543.193945,153.219100,222.061783,9474.636058
3543.194259,153.219100,444.123565,9474.636058
3543.194573,76.609550,518.144159,9770.718434
3543.194888,0.000000,370.102971,9770.718434
3543.195202,229.828649,148.041188,9474.636058
3543.195516,76.609550,148.041188,9474.636058
3543.195831,0.000000,444.123565,9474.636058
3543.196145,536.266849,-0.000000,9474.636058
3543.196459,0.000000,370.102971,9548.656652
3543.196774,0.000000,-0.000000,9918.759623
3543.197088,-153.219100,-0.000000,9474.636058
3543.197403,0.000000,-0.000000,9326.594869
3543.197717,459.657299,-296.082377,9548.656652
3543.198031,536.266849,-0.000000,9326.594869
3543.198346,229.828649,222.061783,9326.594869
3543.198660,153.219100,-0.000000,9474.636058
3543.198974,0.000000,296.082377,9844.739029
3543.199289,383.047749,-222.061783,9548.656652
3543.199603,153.219100,-0.000000,9548.656652
3543.199918,153.219100,-222.061783,9474.636058
3543.200232,0.000000,-148.041188,9474.636058
3543.200546,0.000000,-370.102971,9326.594869
3543.200861,76.609550,-74.020594,9400.615463
3543.201175,153.219100,-370.102971,9474.636058
3543.201489,153.219100,-0.000000,9548.656652
3543.201804,-153.219100,-222.061783,9252.574275
3543.202118,76.609550,-296.082377,9548.656652
3543.202432,612.876398,-74.020594,9696.697840
3543.202747,76.609550,-0.000000,9696.697840
3543.203061,0.000000,-0.000000,9770.718434
3543.203376,306.438199,-0.000000,9844.739029
3543.203690,383.047749,-74.020594,9474.636058
3543.204004,459.657299,-0.000000,9474.636058
3543.204319,0.000000,-0.000000,9696.697840
3543.204633,-306.438199,148.041188,9622.677246
3543.204947,76.609550,222.061783,9622.677246
3543.205262,0.000000,370.102971,9696.697840
3543.205576,306.438199,296.082377,9696.697840
3543.205890,0.000000,-0.000000,9326.594869
3543.206205,0.000000,444.123565,9696.697840
3543.206519,229.828649,444.123565,9918.759623
3543.206834,153.219100,444.123565,9030.512492
3543.207148,229.828649,592.164754,9548.656652
3543.207462,0.000000,148.041188,9548.656652
3543.207777,0.000000,222.061783,9548.656652
3543.208091,76.609550,296.082377,9696.697840
3543.208405,0.000000,-0.000000,9548.656652
3543.208720,612.876398,-0.000000,10066.800811
3543.209034,229.828649,296.082377,9474.636058
3543.209349,0.000000,370.102971,9474.636058
3543.209663,76.609550,296.082377,9622.677246
3543.209977,153.219100,296.082377,9548.656652
3543.210292,306.438199,222.061783,9548.656652
3543.210606,0.000000,-0.000000,9844.739029
3543.210920,229.828649,-0.000000,9844.739029
3543.211235,229.828649,-0.000000,9474.636058
3543.211549,229.828649,444.123565,9548.656652
3543.211863,459.657299,-74.020594,9770.718434
3543.212178,383.047749,-0.000000,9474.636058
3543.212492,76.609550,148.041188,9696.697840
3543.212807,0.000000,-0.000000,9696.697840
3543.213121,76.609550,-0.000000,9770.718434
3543.213435,306.438199,-0.000000,9918.759623
3543.213750,306.438199,-0.000000,9918.759623
3543.214064,153.219100,-0.000000,9548.656652
3543.214378,153.219100,222.061783,9474.636058
3543.214693,306.438199,-0.000000,9548.656652
3543.215007,383.047749,-0.000000,9918.759623
3543.215322,0.000000,-0.000000,9844.739029
3543.215636,-306.438199,-0.000000,9548.656652
3543.215950,0.000000,-0.000000,9326.594869
3543.216265,76.609550,296.082377,9844.739029
3543.216579,0.000000,-0.000000,9770.718434
3543.216893,76.609550,222.061783,9400.615463
3543.217208,229.828649,296.082377,9548.656652
3543.217522,0.000000,-0.000000,9474.636058
3543.217836,229.828649,222.061783,9326.594869
3543.218151,76.609550,-148.041188,9474.636058
3543.218465,-383.047749,-0.000000,9474.636058
3543.218780,0.000000,-74.020594,9474.636058
3543.219094,0.000000,-0.000000,9474.636058
3543.219408,153.219100,-74.020594,9770.718434
3543.219723,76.609550,222.061783,9400.615463
3543.220037,153.219100,222.061783,9030.512492
3543.220351,153.219100,-0.000000,9696.697840
3543.220666,153.219100,-0.000000,9252.574275
3543.220980,383.047749,-0.000000,9548.656652
3543.221295,306.438199,-148.041188,9696.697840
3543.221609,306.438199,-0.000000,9474.636058
3543.221923,383.047749,-0.000000,9474.636058
3543.222238,76.609550,296.082377,9326.594869
3543.222552,229.828649,-74.020594,9770.718434
3543.222866,153.219100,-148.041188,9548.656652
3543.223181,383.047749,-0.000000,9622.677246
3543.223495,306.438199,-0.000000,9326.594869
3543.223809,76.609550,-0.000000,9548.656652
3543.224124,383.047749,-0.000000,9918.759623
3543.224438,0.000000,-0.000000,9770.718434
3543.224753,0.000000,-0.000000,9918.759623
3543.225067,76.609550,148.041188,9622.677246
3543.225381,76.609550,-0.000000,9770.718434
3543.225696,229.828649,-74.020594,9918.759623
3543.226010,0.000000,-0.000000,9622.677246
3543.226324,0.000000,148.041188,9844.739029
3543.226639,0.000000,370.102971,9770.718434
3543.226953,76.609550,370.102971,9548.656652
3543.227268,76.609550,-0.000000,9770.718434
3543.227582,306.438199,-0.000000,9696.697840
3543.227896,0.000000,-0.000000,9770.718434
3543.228211,0.000000,148.041188,9622.677246
3543.228525,76.609550,370.102971,9622.677246
3543.228839,0.000000,296.082377,9770.718434
3543.229154,0.000000,222.061783,9548.656652
3543.229468,0.000000,518.144159,9474.636058
3543.229782,76.609550,296.082377,9474.636058
3543.230097,306.438199,-0.000000,9844.739029
3543.230411,153.219100,518.144159,9770.718434
3543.230725,0.000000,222.061783,9178.553681
3543.231040,76.609550,222.061783,9474.636058
3543.231354,0.000000,444.123565,9474.636058
3543.231668,229.828649,296.082377,9474.636058
3543.231982,76.609550,222.061783,9548.656652
3543.232296,689.485948,-0.000000,9252.574275
3543.232611,306.438199,-0.000000,9474.636058
3543.232925,229.828649,518.144159,9474.636058
3543.233239,153.219100,-0.000000,9622.677246
3543.233553,76.609550,-0.000000,9548.656652
3543.233867,766.095498,-222.061783,9770.718434
3543.234182,229.828649,-0.000000,9548.656652
3543.234496,76.609550,-0.000000,9622.677246
3543.234810,76.609550,222.061783,9770.718434
3543.235124,383.047749,-0.000000,9770.718434
3543.235438,459.657299,-0.000000,9696.697840
3543.235753,76.609550,-0.000000,9918.759623
3543.236067,306.438199,-0.000000,9696.697840
3543.236381,153.219100,-0.000000,9844.739029
3543.236695,229.828649,222.061783,9918.759623
3543.237009,0.000000,-0.000000,9622.677246
3543.237323,153.219100,-0.000000,9622.677246
3543.237638,306.438199,-0.000000,9622.677246
3543.237952,0.000000,74.020594,9622.677246
3543.238266,383.047749,-74.020594,9918.759623
3543.238580,459.657299,-0.000000,9992.780217
3543.238894,0.000000,74.020594,10140.821405
3543.239209,0.000000,370.102971,9548.656652
3543.239523,383.047749,444.123565,9400.615463
3543.239837,383.047749,814.226536,9178.553681
3543.240151,689.485948,814.226536,9030.512492
3543.240465,306.438199,370.102971,8882.471304
3543.240780,0.000000,-0.000000,9400.615463
3543.241094,306.438199,-222.061783,9622.677246
3543.241408,0.000000,148.041188,9548.656652
3543.241722,-919.314598,-0.000000,10140.821405
3543.242036,-76.609550,-74.020594,9992.780217
3543.242351,0.000000,-0.000000,9918.759623
3543.242665,0.000000,148.041188,9696.697840
3543.242979,229.828649,444.123565,9400.615463
3543.243293,689.485948,518.144159,9474.636058
3543.243607,536.266849,962.267725,9030.512492
3543.243922,842.705048,740.205942,9326.594869
3543.244236,1149.143247,518.144159,9178.553681
3543.244550,766.095498,592.164754,9252.574275
3543.244864,766.095498,444.123565,8956.491898
3543.245178,842.705048,222.061783,9474.636058
3543.245493,612.876398,-0.000000,9770.718434
3543.245807,306.438199,370.102971,9918.759623
3543.246121,76.609550,-0.000000,9992.780217
3543.246435,229.828649,-0.000000,9770.718434
3543.246749,153.219100,148.041188,9844.739029
3543.247064,383.047749,370.102971,9696.697840
3543.247378,459.657299,666.185348,9770.718434
3543.247692,766.095498,592.164754,9474.636058
3543.248006,689.485948,814.226536,9474.636058
3543.248320,766.095498,814.226536,9474.636058
3543.248634,612.876398,666.185348,9474.636058
3543.248949,766.095498,666.185348,9770.718434
3543.249263,689.485948,444.123565,9696.697840
3543.249577,459.657299,444.123565,10362.883188
3543.249891,306.438199,444.123565,9992.780217
3543.250205,153.219100,518.144159,9918.759623
3543.250520,0.000000,296.082377,9992.780217
3543.250834,153.219100,518.144159,9696.697840
3543.251148,0.000000,962.267725,9178.553681
3543.251462,612.876398,740.205942,9474.636058
3543.251776,-153.219100,-0.000000,9252.574275
3543.252091,76.609550,518.144159,9474.636058
3543.252405,76.609550,-0.000000,9474.636058
3543.252719,76.609550,-0.000000,9992.780217
3543.253033,76.609550,-0.000000,10214.842000
3543.253347,153.219100,296.082377,9992.780217
3543.253662,766.095498,740.205942,9770.718434
3543.253976,689.485948,1258.350101,9770.718434
3543.254290,995.924147,1258.350101,9178.553681
3543.254604,842.705048,1110.308913,9178.553681
3543.254918,766.095498,962.267725,8660.409521
3543.255233,536.266849,888.247130,8808.450710
3543.255547,536.266849,518.144159,8882.471304
3543.255861,612.876398,-0.000000,9252.574275
3543.256175,153.219100,-296.082377,9696.697840
3543.256489,-229.828649,-518.144159,10066.800811
3543.256804,-306.438199,-666.185348,10362.883188
3543.257118,-459.657299,-148.041188,10362.883188
3543.257432,0.000000,296.082377,10140.821405
3543.257746,-383.047749,592.164754,9844.739029
3543.258060,306.438199,666.185348,9474.636058
3543.258375,229.828649,740.205942,9400.615463
3543.258689,459.657299,814.226536,9178.553681
3543.259003,1072.533697,740.205942,9400.615463
3543.259317,612.876398,592.164754,9548.656652
3543.259631,536.266849,444.123565,9844.739029
3543.259946,153.219100,-0.000000,9326.594869
3543.260260,0.000000,-74.020594,9844.739029
3543.260574,0.000000,-296.082377,10510.924376
3543.260888,-919.314598,-444.123565,10214.842000
3543.261202,-536.266849,-518.144159,10214.842000
3543.261516,-612.876398,-148.041188,10066.800811
3543.261831,-383.047749,-0.000000,9474.636058
3543.262145,459.657299,148.041188,9252.574275
3543.262459,153.219100,222.061783,9178.553681
3543.262773,229.828649,-0.000000,9178.553681
3543.263087,229.828649,148.041188,8882.471304
3543.263402,459.657299,370.102971,9030.512492
3543.263716,766.095498,296.082377,9104.533087
3543.264030,383.047749,-74.020594,9326.594869
3543.264344,0.000000,-74.020594,9622.677246
3543.264658,0.000000,-148.041188,9696.697840
3543.264973,-229.828649,-148.041188,9992.780217
3543.265287,0.000000,-592.164754,9770.718434
3543.265601,-383.047749,-592.164754,9548.656652
3543.265915,-383.047749,-0.000000,9548.656652
3543.266229,-229.828649,-296.082377,9400.615463
3543.266544,153.219100,-518.144159,9474.636058
3543.266858,536.266849,-518.144159,9252.574275
3543.267172,766.095498,-370.102971,9252.574275
3543.267486,383.047749,-0.000000,9326.594869
3543.267800,306.438199,-222.061783,9104.533087
3543.268115,459.657299,-0.000000,9918.759623
3543.268429,689.485948,-74.020594,9474.636058
3543.268743,229.828649,-0.000000,9770.718434
3543.269057,76.609550,-222.061783,9992.780217
3543.269371,-306.438199,-148.041188,9622.677246
3543.269686,-306.438199,-148.041188,9474.636058
3543.270000,0.000000,-370.102971,9696.697840
3543.270314,0.000000,-296.082377,10140.821405
3543.270628,0.000000,-370.102971,9326.594869
3543.270942,153.219100,-592.164754,9252.574275
3543.271257,306.438199,-222.061783,9548.656652
3543.271571,0.000000,-148.041188,9400.615463
3543.271885,153.219100,-0.000000,9696.697840
3543.272199,76.609550,148.041188,9474.636058
3543.272513,0.000000,-0.000000,9326.594869
3543.272828,0.000000,-74.020594,8882.471304
3543.273142,-383.047749,518.144159,9844.739029
3543.273456,0.000000,-0.000000,9474.636058
3543.273770,0.000000,-74.020594,9326.594869
3543.274084,76.609550,-148.041188,9252.574275
3543.274398,229.828649,-0.000000,9326.594869
3543.274713,0.000000,-0.000000,9474.636058
3543.275027,0.000000,-0.000000,9474.636058
3543.275341,-153.219100,-0.000000,9474.636058
3543.275655,0.000000,222.061783,9622.677246
3543.275969,-153.219100,-0.000000,9622.677246
3543.276284,-383.047749,-0.000000,10066.800811
3543.276598,-306.438199,148.041188,10066.800811
3543.276912,0.000000,296.082377,9548.656652
3543.277226,153.219100,444.123565,9696.697840
3543.277540,459.657299,740.205942,9622.677246
3543.277855,842.705048,592.164754,9326.594869
3543.278169,383.047749,444.123565,9104.533087
3543.278483,536.266849,740.205942,8956.491898
3543.278797,689.485948,666.185348,9474.636058
3543.279111,689.485948,444.123565,9770.718434
3543.279426,229.828649,518.144159,9992.780217
3543.279740,459.657299,222.061783,10066.800811
3543.280054,-306.438199,148.041188,9918.759623
3543.280368,0.000000,666.185348,10288.862594
3543.280682,-306.438199,370.102971,10436.903782
3543.280997,153.219100,296.082377,10288.862594
3543.281311,153.219100,666.185348,9770.718434
3543.281625,536.266849,518.144159,9622.677246
3543.281939,919.314598,592.164754,9696.697840
3543.282253,306.438199,592.164754,9474.636058
3543.282568,766.095498,740.205942,9696.697840
3543.282882,383.047749,740.205942,9474.636058
3543.283196,459.657299,370.102971,9326.594869
3543.283510,153.219100,444.123565,9400.615463
3543.283824,0.000000,592.164754,10066.800811
3543.284139,229.828649,222.061783,10140.821405
3543.284453,0.000000,148.041188,9770.718434
3543.284767,0.000000,444.123565,9770.718434
3543.285081,229.828649,518.144159,9770.718434
3543.285395,229.828649,296.082377,9474.636058
3543.285709,536.266849,444.123565,9400.615463
3543.286024,153.219100,518.144159,9252.574275
3543.286338,919.314598,518.144159,9548.656652
3543.286652,536.266849,962.267725,8956.491898
3543.286966,306.438199,148.041188,8660.409521
3543.287280,0.000000,370.102971,9770.718434
3543.287595,0.000000,74.020594,9474.636058
3543.287909,0.000000,-74.020594,9844.739029
3543.288223,0.000000,444.123565,9918.759623
3543.288537,76.609550,-0.000000,9844.739029
3543.288851,76.609550,148.041188,9622.677246
3543.289166,153.219100,370.102971,9104.533087
3543.289480,306.438199,-0.000000,9474.636058
3543.289794,76.609550,-222.061783,9548.656652
3543.290108,383.047749,-0.000000,9474.636058
3543.290422,76.609550,-0.000000,9474.636058
3543.290737,76.609550,-0.000000,9474.636058
3543.291051,-306.438199,-0.000000,9622.677246
3543.291365,-689.485948,-148.041188,9622.677246
3543.291679,-536.266849,-370.102971,10510.924376
3543.291993,-689.485948,-148.041188,10288.862594
3543.292308,-306.438199,-74.020594,9474.636058
3543.292622,0.000000,-0.000000,9918.759623
3543.292936,-229.828649,-74.020594,10140.821405
3543.293250,0.000000,-0.000000,9622.677246
3543.293564,-229.828649,-74.020594,9400.615463
3543.293879,0.000000,-0.000000,9252.574275
3543.294193,229.828649,-0.000000,9326.594869
3543.294507,0.000000,-0.000000,9770.718434
3543.294821,0.000000,-74.020594,9548.656652
3543.295135,-229.828649,-296.082377,9622.677246
3543.295450,-76.609550,-74.020594,9622.677246
3543.295764,0.000000,-148.041188,9548.656652
3543.296078,0.000000,-444.123565,9696.697840
3543.296392,0.000000,-0.000000,9622.677246
3543.296706,0.000000,-74.020594,9326.594869
3543.297021,76.609550,-148.041188,9474.636058
3543.297335,-76.609550,-0.000000,9326.594869
3543.297649,153.219100,-222.061783,9030.512492
3543.297963,459.657299,-0.000000,8808.450710
3543.298277,229.828649,296.082377,9178.553681
3543.298591,-229.828649,-0.000000,9252.574275
3543.298906,76.609550,-296.082377,9400.615463
3543.299220,-229.828649,-444.123565,9844.739029
3543.299534,-306.438199,-518.144159,9992.780217
3543.299848,-306.438199,-222.061783,10140.821405
3543.300162,-536.266849,-444.123565,10362.883188
3543.300477,-229.828649,-148.041188,10288.862594
3543.300791,76.609550,-0.000000,10362.883188
3543.301105,76.609550,444.123565,9918.759623
3543.301419,612.876398,592.164754,9474.636058
3543.301733,1225.752797,444.123565,9030.512492
3543.302048,1149.143247,518.144159,8808.450710
3543.302362,1149.143247,592.164754,8734.430116
3543.302676,919.314598,-0.000000,8808.450710
3543.302990,689.485948,222.061783,9104.533087
3543.303304,689.485948,-444.123565,9548.656652
3543.303619,76.609550,-296.082377,9918.759623
3543.303933,-383.047749,-444.123565,10066.800811
3543.304247,-383.047749,-370.102971,10140.821405
3543.304561,-612.876398,-0.000000,10140.821405
3543.304875,0.000000,-296.082377,9474.636058
3543.305190,0.000000,148.041188,9548.656652
3543.305504,612.876398,814.226536,9474.636058
3543.305818,766.095498,814.226536,9252.574275
3543.306132,1072.533697,1110.308913,9104.533087
3543.306446,1455.581446,1184.329507,8660.409521
3543.306761,1225.752797,1184.329507,9104.533087
3543.307075,689.485948,962.267725,9474.636058
3543.307389,536.266849,666.185348,9400.615463
3543.307703,612.876398,518.144159,9992.780217
3543.308017,-229.828649,296.082377,9918.759623
3543.308332,-383.047749,-0.000000,9770.718434
3543.308646,-306.438199,296.082377,9696.697840
3543.308960,-383.047749,444.123565,9770.718434
3543.309274,-229.828649,370.102971,9474.636058
3543.309588,459.657299,740.205942,9474.636058
3543.309903,536.266849,962.267725,9400.615463
3543.310217,689.485948,1258.350101,9326.594869
3543.310531,612.876398,1184.329507,9326.594869
3543.310845,536.266849,1036.288319,9400.615463
3543.311159,995.924147,666.185348,9844.739029
3543.311473,536.266849,740.205942,10288.862594
3543.311788,0.000000,814.226536,10140.821405
3543.312102,-229.828649,370.102971,10288.862594
3543.312416,-612.876398,370.102971,10436.903782
3543.312730,-689.485948,222.061783,10214.842000
3543.313044,-459.657299,296.082377,10288.862594
3543.313359,-153.219100,222.061783,9844.739029
3543.313673,-306.438199,296.082377,9696.697840
3543.313987,0.000000,-0.000000,9548.656652
3543.314301,0.000000,-0.000000,9548.656652
3543.314615,0.000000,296.082377,9474.636058
3543.314930,0.000000,-148.041188,9474.636058
3543.315244,0.000000,-0.000000,9622.677246
3543.315558,0.000000,-74.020594,9696.697840
3543.315872,0.000000,-0.000000,9992.780217
3543.316186,-306.438199,-74.020594,9918.759623
3543.316501,-383.047749,-222.061783,9770.718434
3543.316815,-383.047749,-0.000000,9918.759623
3543.317129,0.000000,-296.082377,9474.636058
3543.317443,0.000000,-370.102971,9770.718434
3543.317757,0.000000,-296.082377,9696.697840
3543.318072,229.828649,-370.102971,9252.574275
3543.318386,306.438199,-518.144159,9326.594869
3543.318700,383.047749,-592.164754,9326.594869
3543.319014,229.828649,-370.102971,9474.636058
3543.319328,76.609550,-370.102971,9178.553681
3543.319643,0.000000,-518.144159,9104.533087
3543.319957,76.609550,-592.164754,9326.594869
3543.320271,0.000000,-444.123565,9030.512492
3543.320585,229.828649,-740.205942,9326.594869
3543.320899,383.047749,-444.123565,9474.636058
3543.321214,306.438199,-296.082377,9178.553681
3543.321528,229.828649,-370.102971,8956.491898
3543.321842,766.095498,-148.041188,9326.594869
3543.322156,383.047749,-444.123565,9326.594869
3543.322470,153.219100,-592.164754,9252.574275
3543.322784,0.000000,-518.144159,9622.677246
3543.323099,0.000000,-592.164754,9696.697840
3543.323413,-383.047749,-592.164754,10066.800811
3543.323727,-306.438199,-518.144159,10066.800811
3543.324041,153.219100,-296.082377,9918.759623
3543.324355,153.219100,-148.041188,9622.677246
3543.324670,383.047749,-0.000000,9474.636058
3543.324984,383.047749,296.082377,9770.718434
3543.325298,459.657299,-74.020594,9104.533087
3543.325612,536.266849,-0.000000,8956.491898
3543.325926,459.657299,-0.000000,8956.491898
3543.326241,383.047749,-370.102971,9178.553681
3543.326555,306.438199,-444.123565,10214.842000
3543.326869,-229.828649,-592.164754,9918.759623
3543.327183,-229.828649,-444.123565,9918.759623
3543.327497,-383.047749,-0.000000,10288.862594
3543.327812,0.000000,148.041188,9918.759623
3543.328126,536.266849,444.123565,9696.697840
3543.328440,76.609550,518.144159,9548.656652
3543.328754,229.828649,666.185348,9696.697840
3543.329068,766.095498,740.205942,9178.553681
3543.329383,842.705048,962.267725,9400.615463
3543.329697,459.657299,740.205942,9548.656652
3543.330011,306.438199,740.205942,9400.615463
3543.330325,383.047749,666.185348,9252.574275
3543.330639,0.000000,740.205942,9918.759623
3543.330954,0.000000,592.164754,9844.739029
3543.331268,76.609550,518.144159,9844.739029
3543.331582,0.000000,888.247130,9918.759623
3543.331896,0.000000,888.247130,9918.759623
3543.332210,0.000000,888.247130,9474.636058
3543.332524,0.000000,962.267725,9548.656652
3543.332838,689.485948,1406.391290,9696.697840
3543.333152,306.438199,1406.391290,9696.697840
3543.333466,76.609550,1406.391290,9696.697840
3543.333780,229.828649,1554.432478,9474.636058
3543.334095,459.657299,1184.329507,9770.718434
3543.334409,306.438199,1110.308913,10214.842000
3543.334723,0.000000,1036.288319,10066.800811
3543.335037,0.000000,962.267725,9992.780217
3543.335351,-153.219100,962.267725,9844.739029
3543.335665,0.000000,518.144159,10214.842000
3543.335979,-306.438199,666.185348,9992.780217
3543.336293,0.000000,740.205942,10140.821405
3543.336607,0.000000,666.185348,9844.739029
3543.336921,153.219100,370.102971,9474.636058
3543.337236,459.657299,370.102971,9918.759623
3543.337550,0.000000,518.144159,9770.718434
3543.337864,0.000000,370.102971,9474.636058
3543.338178,0.000000,-0.000000,9844.739029
3543.338492,0.000000,518.144159,9770.718434
3543.338806,76.609550,-0.000000,9918.759623
3543.339120,-229.828649,-0.000000,9770.718434
3543.339434,153.219100,-0.000000,9696.697840
3543.339748,0.000000,-0.000000,9326.594869
3543.340062,153.219100,-0.000000,9400.615463
3543.340377,-229.828649,-74.020594,10066.800811
3543.340691,76.609550,-0.000000,9400.615463
3543.341005,229.828649,-0.000000,9252.574275
3543.341319,229.828649,-222.061783,9326.594869
3543.341633,306.438199,-296.082377,9252.574275
3543.341947,459.657299,-148.041188,9474.636058
3543.342261,76.609550,-0.000000,9326.594869
3543.342575,306.438199,-0.000000,9474.636058
3543.342889,0.000000,-148.041188,9104.533087
3543.343203,153.219100,-74.020594,9104.533087
3543.343517,0.000000,-666.185348,9622.677246
3543.343832,229.828649,-444.123565,9400.615463
3543.344146,0.000000,-370.102971,9400.615463
3543.344460,0.000000,-444.123565,9326.594869
3543.344774,306.438199,-444.123565,9474.636058
3543.345088,153.219100,-0.000000,9474.636058
3543.345402,0.000000,-370.102971,9400.615463
3543.345716,-153.219100,-296.082377,9548.656652
3543.346030,-383.047749,-296.082377,9178.553681
3543.346344,-229.828649,-296.082377,9696.697840
3543.346658,-306.438199,-814.226536,9918.759623
3543.346973,-612.876398,-1036.288319,10140.821405
3543.347287,-766.095498,-962.267725,10510.924376
3543.347601,-689.485948,-814.226536,10584.944971
3543.347915,76.609550,-1036.288319,10584.944971
3543.348229,76.609550,-666.185348,10214.842000
3543.348543,229.828649,-148.041188,9326.594869
3543.348857,536.266849,-0.000000,9178.553681
3543.349171,612.876398,-0.000000,8734.430116
3543.349485,919.314598,-222.061783,8586.388927
3543.349799,919.314598,-370.102971,8438.347739
3543.350114,1072.533697,-592.164754,8882.471304
3543.350428,306.438199,-666.185348,9104.533087
3543.350742,0.000000,-592.164754,9326.594869
3543.351056,-459.657299,-962.267725,10436.903782
3543.351370,-612.876398,-814.226536,10288.862594
3543.351684,-536.266849,-518.144159,10140.821405
3543.351998,0.000000,-148.041188,9992.780217
3543.352312,0.000000,-0.000000,9548.656652
3543.352626,306.438199,518.144159,9474.636058
3543.352940,689.485948,444.123565,9326.594869
3543.353255,995.924147,962.267725,9178.553681
3543.353569,995.924147,1332.370696,8660.409521
3543.353883,995.924147,1332.370696,8882.471304
3543.354197,842.705048,1184.329507,9326.594869
3543.354511,229.828649,1036.288319,9696.697840
3543.354825,76.609550,370.102971,9696.697840
3543.355139,-536.266849,444.123565,9622.677246
3543.355453,-153.219100,222.061783,9992.780217
3543.355767,-229.828649,370.102971,10066.800811
3543.356081,-229.828649,592.164754,9918.759623
3543.356396,229.828649,740.205942,9918.759623
3543.356710,229.828649,1110.308913,9474.636058
3543.357024,459.657299,1258.350101,9400.615463
3543.357338,842.705048,1480.411884,9104.533087
3543.357652,842.705048,1554.432478,9178.553681
3543.357966,536.266849,1406.391290,9326.594869
3543.358280,536.266849,1110.308913,9474.636058
3543.358594,306.438199,962.267725,10214.842000
3543.358908,0.000000,814.226536,10584.944971
3543.359222,-306.438199,740.205942,10288.862594
3543.359536,-536.266849,592.164754,10584.944971
3543.359851,-459.657299,592.164754,10362.883188
3543.360165,76.609550,518.144159,10140.821405
3543.360479,0.000000,518.144159,10066.800811
3543.360793,-153.219100,666.185348,9622.677246
3543.361107,0.000000,740.205942,9474.636058
3543.361421,229.828649,666.185348,9548.656652
3543.361735,306.438199,370.102971,9918.759623
3543.362049,0.000000,444.123565,9622.677246
3543.362363,0.000000,444.123565,9696.697840
3543.362677,0.000000,148.041188,9844.739029
3543.362992,-306.438199,148.041188,10362.883188
3543.363306,0.000000,148.041188,10140.821405
3543.363620,-459.657299,-0.000000,10288.862594
3543.363934,-536.266849,-0.000000,9992.780217
3543.364248,-383.047749,296.082377,9474.636058
3543.364562,-229.828649,-0.000000,9918.759623
3543.364876,0.000000,-0.000000,9622.677246
3543.365190,153.219100,-148.041188,9474.636058
3543.365504,153.219100,-148.041188,9252.574275
3543.365818,0.000000,-222.061783,9326.594869
3543.366133,536.266849,-0.000000,9400.615463
3543.366447,306.438199,-222.061783,9030.512492
3543.366761,229.828649,-148.041188,9178.553681
3543.367075,0.000000,-148.041188,9178.553681
3543.367389,0.000000,-592.164754,9178.553681
3543.367703,229.828649,-148.041188,9548.656652
3543.368017,76.609550,-444.123565,9252.574275
3543.368331,76.609550,-370.102971,9474.636058
3543.368645,0.000000,-814.226536,9178.553681
3543.368959,0.000000,-814.226536,9104.533087
3543.369274,0.000000,-1110.308913,9326.594869
3543.369588,229.828649,-888.247130,9548.656652
3543.369902,0.000000,-814.226536,9400.615463
3543.370216,-229.828649,-814.226536,9474.636058
3543.370530,-229.828649,-592.164754,9844.739029
3543.370844,-153.219100,-962.267725,9622.677246
3543.371158,0.000000,-814.226536,9696.697840
3543.371472,153.219100,-444.123565,9474.636058
3543.371786,229.828649,-518.144159,9178.553681
3543.372100,842.705048,-74.020594,9104.533087
3543.372415,306.438199,-666.185348,9474.636058
3543.372729,612.876398,-814.226536,8956.491898
3543.373043,459.657299,-814.226536,8956.491898
3543.373357,383.047749,-666.185348,9326.594869
3543.373671,0.000000,-814.226536,9474.636058
3543.373985,229.828649,-1036.288319,9992.780217
3543.374299,76.609550,-740.205942,9992.780217
3543.374613,0.000000,-444.123565,10066.800811
3543.374927,-153.219100,-296.082377,9992.780217
3543.375241,0.000000,-0.000000,9844.739029
3543.375555,229.828649,-0.000000,9696.697840
3543.375870,459.657299,666.185348,9622.677246
3543.376184,459.657299,592.164754,9178.553681
3543.376498,766.095498,222.061783,9252.574275
3543.376812,919.314598,444.123565,9696.697840
3543.377126,842.705048,444.123565,9474.636058
3543.377440,306.438199,740.205942,9474.636058
3543.377754,229.828649,370.102971,9622.677246
3543.378068,0.000000,518.144159,9918.759623
3543.378382,-153.219100,666.185348,9992.780217
3543.378696,0.000000,592.164754,9696.697840
3543.379011,-383.047749,592.164754,9770.718434
3543.379325,-229.828649,814.226536,9548.656652
3543.379639,76.609550,740.205942,9548.656652
3543.379953,306.438199,962.267725,9252.574275
3543.380267,0.000000,1184.329507,9696.697840
3543.380581,536.266849,814.226536,9400.615463
3543.380895,76.609550,1258.350101,9252.574275
3543.381209,306.438199,1332.370696,9474.636058
3543.381523,306.438199,1258.350101,9770.718434
3543.381837,229.828649,1036.288319,9622.677246
3543.382152,0.000000,1110.308913,10140.821405
3543.382466,0.000000,1184.329507,10214.842000
3543.382780,-76.609550,1036.288319,10140.821405
3543.383094,-229.828649,740.205942,10214.842000
3543.383408,153.219100,444.123565,10140.821405
3543.383722,153.219100,888.247130,9992.780217
3543.384036,383.047749,888.247130,9548.656652
3543.384350,536.266849,1036.288319,9844.739029
3543.384664,459.657299,888.247130,9844.739029
3543.384978,459.657299,666.185348,9770.718434
3543.385293,383.047749,518.144159,9548.656652
3543.385607,153.219100,444.123565,9622.677246
3543.385921,76.609550,740.205942,9918.759623
3543.386235,153.219100,222.061783,9770.718434
3543.386549,229.828649,-0.000000,10066.800811
3543.386863,306.438199,-0.000000,9770.718434
3543.387177,-153.219100,370.102971,9696.697840
3543.387491,76.609550,666.185348,9622.677246
3543.387805,76.609550,444.123565,9844.739029
3543.388119,153.219100,222.061783,9918.759623
3543.388433,306.438199,370.102971,9400.615463
3543.388748,76.609550,222.061783,9474.636058
3543.389062,76.609550,296.082377,9696.697840
3543.389376,0.000000,-0.000000,9474.636058
3543.389690,153.219100,-0.000000,9696.697840
3543.390004,76.609550,74.020594,9622.677246
3543.390318,0.000000,-222.061783,9400.615463
3543.390632,229.828649,-222.061783,9030.512492
3543.390946,306.438199,-148.041188,9326.594869
3543.391260,0.000000,-296.082377,9474.636058
3543.391574,-153.219100,-296.082377,8956.491898
3543.391889,76.609550,-74.020594,8956.491898
3543.392203,0.000000,-74.020594,8956.491898
3543.392517,0.000000,-666.185348,8956.491898
3543.392831,0.000000,-222.061783,9252.574275
3543.393145,-612.876398,-444.123565,9178.553681
3543.393459,-229.828649,-518.144159,9622.677246
3543.393773,-459.657299,-1184.329507,9696.697840
3543.394087,-383.047749,-1332.370696,10288.862594
3543.394401,-919.314598,-1258.350101,10881.027347
3543.394715,-383.047749,-1036.288319,10288.862594
3543.395030,-459.657299,-592.164754,10288.862594
3543.395344,229.828649,-222.061783,9844.739029
3543.395658,229.828649,-148.041188,9326.594869
3543.395972,689.485948,-148.041188,8660.409521
3543.396286,1225.752797,-0.000000,8512.368333
3543.396600,536.266849,-0.000000,9178.553681
3543.396914,995.924147,-370.102971,8586.388927
3543.397228,842.705048,-666.185348,9326.594869
3543.397542,76.609550,-1332.370696,9474.636058
3543.397856,0.000000,-1258.350101,9844.739029
3543.398171,-229.828649,-1258.350101,9696.697840
3543.398485,-536.266849,-888.247130,10436.903782
3543.398799,-766.095498,-592.164754,10732.986159
3543.399113,-229.828649,-296.082377,9696.697840
3543.399427,383.047749,-0.000000,9474.636058
3543.399741,153.219100,296.082377,9548.656652
3543.400055,689.485948,592.164754,9326.594869
3543.400369,689.485948,666.185348,9178.553681
3543.400683,612.876398,666.185348,8808.450710
3543.400997,919.314598,962.267725,8956.491898
3543.401312,459.657299,814.226536,9104.533087
3543.401626,229.828649,592.164754,9326.594869
3543.401940,76.609550,296.082377,9844.739029
3543.402254,-153.219100,-0.000000,9548.656652
3543.402568,-459.657299,-0.000000,9548.656652
3543.402882,-459.657299,296.082377,9696.697840
3543.403196,-536.266849,-0.000000,9622.677246
3543.403510,0.000000,-0.000000,9400.615463
3543.403824,153.219100,888.247130,9252.574275
3543.404138,536.266849,962.267725,9178.553681
3543.404452,612.876398,1258.350101,9030.512492
3543.404767,842.705048,1406.391290,9326.594869
3543.405081,766.095498,1184.329507,9474.636058
3543.405395,1072.533697,962.267725,9770.718434
3543.405709,689.485948,1332.370696,9918.759623
3543.406023,153.219100,1184.329507,10140.821405
3543.406337,76.609550,1184.329507,10584.944971
3543.406651,0.000000,888.247130,10066.800811
3543.406965,-536.266849,666.185348,9548.656652
3543.407279,-306.438199,666.185348,10436.903782
3543.407593,-383.047749,740.205942,10214.842000
3543.407908,-153.219100,666.185348,9918.759623
3543.408222,0.000000,370.102971,9770.718434
3543.408536,-229.828649,148.041188,10066.800811
3543.408850,0.000000,666.185348,9696.697840
3543.409164,153.219100,962.267725,9844.739029
3543.409478,153.219100,666.185348,10584.944971
3543.409792,0.000000,962.267725,10140.821405
3543.410106,0.000000,666.185348,9770.718434
3543.410420,0.000000,666.185348,10214.842000
3543.410734,-383.047749,666.185348,10140.821405
3543.411049,-306.438199,444.123565,9844.739029
3543.411363,-306.438199,-0.000000,9622.677246
3543.411677,0.000000,-148.041188,9992.780217
3543.411991,0.000000,-0.000000,9474.636058
3543.412305,76.609550,-0.000000,9400.615463
3543.412619,229.828649,-74.020594,9474.636058
3543.412933,0.000000,-296.082377,9400.615463
3543.413247,76.609550,74.020594,9104.533087
3543.413561,153.219100,-74.020594,9326.594869
3543.413875,306.438199,-148.041188,9252.574275
3543.414190,536.266849,-74.020594,9178.553681
3543.414504,536.266849,-222.061783,9326.594869
3543.414818,612.876398,-592.164754,9104.533087
3543.415132,306.438199,-444.123565,8956.491898
3543.415446,306.438199,-666.185348,9252.574275
3543.415760,383.047749,-592.164754,9178.553681
3543.416074,612.876398,-444.123565,9326.594869
3543.416388,76.609550,-888.247130,8882.471304
3543.416702,153.219100,-666.185348,9178.553681
3543.417016,0.000000,-666.185348,9622.677246
3543.417331,0.000000,-888.247130,9474.636058
3543.417645,-76.609550,-888.247130,9400.615463
3543.417959,0.000000,-740.205942,9992.780217
3543.418273,76.609550,-592.164754,9918.759623
3543.418587,76.609550,-518.144159,9770.718434
3543.418901,229.828649,-370.102971,9474.636058
3543.419215,306.438199,-740.205942,9326.594869
3543.419529,536.266849,-370.102971,9252.574275
3543.419843,536.266849,-444.123565,9178.553681
3543.420157,612.876398,-740.205942,9474.636058
3543.420471,306.438199,-222.061783,9474.636058
3543.420786,0.000000,-666.185348,9252.574275
3543.421100,76.609550,-592.164754,9548.656652
3543.421414,-306.438199,-888.247130,10214.842000
3543.421728,-536.266849,-888.247130,10214.842000
3543.422042,-153.219100,-740.205942,9918.759623
3543.422356,0.000000,-518.144159,9696.697840
3543.422670,0.000000,-296.082377,9252.574275
3543.422984,383.047749,-0.000000,9548.656652
3543.423298,229.828649,-0.000000,9622.677246
3543.423612,459.657299,148.041188,9474.636058
3543.423927,229.828649,444.123565,9178.553681
3543.424241,536.266849,444.123565,9030.512492
3543.424555,536.266849,444.123565,9400.615463
3543.424869,306.438199,518.144159,9622.677246
3543.425183,153.219100,370.102971,9474.636058
3543.425497,153.219100,-0.000000,9474.636058
3543.425811,0.000000,444.123565,9696.697840
3543.426125,0.000000,370.102971,9992.780217
3543.426439,-153.219100,518.144159,9400.615463
3543.426753,-229.828649,592.164754,9474.636058
3543.427068,0.000000,666.185348,9326.594869
3543.427382,306.438199,666.185348,9548.656652
3543.427696,536.266849,1110.308913,9474.636058
3543.428010,612.876398,1406.391290,9252.574275
3543.428324,459.657299,1258.350101,9400.615463
3543.428638,306.438199,1406.391290,9474.636058
3543.428952,229.828649,1258.350101,9918.759623
3543.429266,153.219100,962.267725,10066.800811
3543.429580,0.000000,1258.350101,9992.780217
3543.429894,153.219100,1036.288319,9992.780217
3543.430209,383.047749,1036.288319,10140.821405
3543.430523,0.000000,1110.308913,10140.821405
3543.430837,0.000000,814.226536,9844.739029
3543.431151,153.219100,1110.308913,9992.780217
3543.431465,0.000000,814.226536,9548.656652
3543.431779,76.609550,962.267725,9548.656652
3543.432093,0.000000,962.267725,9844.739029
3543.432407,153.219100,888.247130,9992.780217
3543.432722,383.047749,888.247130,9770.718434
3543.433036,383.047749,592.164754,9770.718434
3543.433350,153.219100,814.226536,9696.697840
3543.433664,306.438199,444.123565,9770.718434
3543.433978,229.828649,518.144159,9844.739029
3543.434293,76.609550,370.102971,9770.718434
3543.434607,0.000000,666.185348,9770.718434
3543.434921,76.609550,592.164754,9622.677246
3543.435235,76.609550,148.041188,9548.656652
3543.435549,76.609550,666.185348,9844.739029
3543.435864,229.828649,222.061783,9474.636058
3543.436178,306.438199,-0.000000,9474.636058
3543.436492,306.438199,370.102971,9622.677246
3543.436806,459.657299,-74.020594,9474.636058
3543.437120,0.000000,-0.000000,9104.533087
3543.437435,153.219100,-74.020594,9030.512492
3543.437749,153.219100,-148.041188,9400.615463
3543.438063,536.266849,-148.041188,9548.656652
3543.438377,153.219100,-0.000000,9400.615463
3543.438691,76.609550,-0.000000,9400.615463
3543.439005,76.609550,-0.000000,9474.636058
3543.439320,0.000000,-0.000000,9326.594869
3543.439634,-383.047749,-296.082377,9104.533087
3543.439948,0.000000,-296.082377,9548.656652
3543.440262,0.000000,-296.082377,9400.615463
3543.440576,-306.438199,-444.123565,9326.594869
3543.440891,-536.266849,-666.185348,9696.697840
3543.441205,-689.485948,-1110.308913,10214.842000
3543.441519,-842.705048,-962.267725,10436.903782
3543.441833,-766.095498,-814.226536,10362.883188
3543.442147,-689.485948,-592.164754,10214.842000
3543.442462,0.000000,-370.102971,9770.718434
3543.442776,153.219100,-0.000000,9770.718434
3543.443090,383.047749,-74.020594,9178.553681
3543.443404,689.485948,-370.102971,8808.450710
3543.443718,995.924147,-296.082377,8512.368333
3543.444032,919.314598,-592.164754,8512.368333
3543.444347,1532.190996,-592.164754,8956.491898
3543.444661,383.047749,-1110.308913,9400.615463
3543.444975,0.000000,-1110.308913,9918.759623
3543.445289,-306.438199,-1110.308913,10140.821405
3543.445603,-536.266849,-814.226536,10140.821405
3543.445918,0.000000,-888.247130,10288.862594
3543.446232,153.219100,-592.164754,9992.780217
3543.446546,76.609550,-518.144159,9992.780217
3543.446860,306.438199,-0.000000,9548.656652
3543.447174,612.876398,-0.000000,9252.574275
3543.447489,612.876398,370.102971,9400.615463
3543.447803,995.924147,518.144159,8660.409521
3543.448117,995.924147,444.123565,8734.430116
3543.448431,919.314598,296.082377,9030.512492
3543.448745,612.876398,148.041188,9252.574275
3543.449059,306.438199,-222.061783,9918.759623
3543.449374,0.000000,-0.000000,9770.718434
3543.449688,-306.438199,-0.000000,10362.883188
3543.450002,-459.657299,-148.041188,9696.697840
3543.450316,-153.219100,222.061783,9696.697840
3543.450630,0.000000,444.123565,10140.821405
3543.450945,306.438199,666.185348,9474.636058
3543.451259,459.657299,1036.288319,9178.553681
3543.451573,536.266849,1258.350101,8882.471304
3543.451887,1149.143247,1258.350101,9030.512492
3543.452201,1149.143247,1332.370696,9252.574275
3543.452516,612.876398,1184.329507,9474.636058
3543.452830,0.000000,1184.329507,9844.739029
3543.453144,0.000000,1110.308913,9770.718434
3543.453458,-229.828649,1036.288319,10362.883188
3543.453772,-383.047749,814.226536,10362.883188
3543.454086,-536.266849,740.205942,10362.883188
3543.454401,-459.657299,814.226536,10362.883188
3543.454715,-306.438199,814.226536,10140.821405
3543.455029,0.000000,666.185348,10288.862594
3543.455343,-306.438199,666.185348,9474.636058
3543.455657,0.000000,814.226536,9326.594869
3543.455972,0.000000,888.247130,9178.553681
3543.456286,306.438199,888.247130,9770.718434
3543.456600,383.047749,518.144159,10066.800811
3543.456914,0.000000,444.123565,9992.780217
3543.457228,0.000000,518.144159,10140.821405
3543.457543,-306.438199,370.102971,10214.842000
3543.457857,0.000000,592.164754,10214.842000
3543.458171,0.000000,592.164754,10362.883188
3543.458485,-306.438199,222.061783,9696.697840
3543.458799,-229.828649,148.041188,9474.636058
3543.459113,0.000000,222.061783,9548.656652
3543.459428,306.438199,222.061783,9548.656652
3543.459742,612.876398,-222.061783,9696.697840
3543.460056,229.828649,-0.000000,9770.718434
3543.460370,0.000000,-0.000000,9992.780217
3543.460684,0.000000,-0.000000,9474.636058
3543.460999,153.219100,-222.061783,9252.574275
3543.461313,229.828649,-296.082377,9548.656652
3543.461627,0.000000,-0.000000,9474.636058
3543.461941,153.219100,-74.020594,9252.574275
3543.462255,0.000000,-222.061783,9252.574275
3543.462570,306.438199,-444.123565,9104.533087
3543.462884,229.828649,-296.082377,9622.677246
3543.463198,229.828649,-296.082377,8882.471304
3543.463512,229.828649,-518.144159,8956.491898
3543.463826,153.219100,-666.185348,8956.491898
3543.464140,229.828649,-444.123565,9400.615463
3543.464455,0.000000,-592.164754,9548.656652
3543.464769,-306.438199,-962.267725,9622.677246
3543.465083,0.000000,-666.185348,9844.739029
3543.465397,0.000000,-518.144159,9622.677246
3543.465711,0.000000,-740.205942,9474.636058
3543.466026,229.828649,-1036.288319,9104.533087
3543.466340,0.000000,-592.164754,8956.491898
3543.466654,229.828649,-592.164754,9178.553681
3543.466968,383.047749,-370.102971,8956.491898
3543.467282,459.657299,-962.267725,9104.533087
3543.467597,459.657299,-814.226536,9252.574275
3543.467911,0.000000,-888.247130,9474.636058
3543.468225,-229.828649,-962.267725,9400.615463
3543.468539,153.219100,-814.226536,9770.718434
3543.468853,0.000000,-518.144159,10214.842000
3543.469168,-229.828649,-814.226536,9770.718434
3543.469482,0.000000,-370.102971,9696.697840
3543.469796,76.609550,-296.082377,9622.677246
3543.470110,153.219100,-148.041188,9696.697840
3543.470424,76.609550,296.082377,9918.759623
3543.470738,536.266849,370.102971,9400.615463
3543.471053,306.438199,74.020594,9474.636058
3543.471367,153.219100,74.020594,9400.615463
3543.471681,306.438199,148.041188,9474.636058
3543.471995,459.657299,222.061783,9844.739029
3543.472309,153.219100,222.061783,9770.718434
3543.472624,0.000000,222.061783,9770.718434
3543.472938,-229.828649,74.020594,9548.656652
3543.473252,-306.438199,518.144159,9918.759623
3543.473566,-306.438199,666.185348,9770.718434
3543.473880,153.219100,814.226536,9696.697840
3543.474195,0.000000,962.267725,9548.656652
3543.474509,76.609550,1036.288319,9252.574275
3543.474823,229.828649,1036.288319,9474.636058
3543.475137,153.219100,1258.350101,9474.636058
3543.475451,306.438199,1184.329507,9548.656652
3543.475765,76.609550,1258.350101,9622.677246
3543.476080,153.219100,1184.329507,9770.718434
3543.476394,0.000000,1184.329507,9992.780217
3543.476708,0.000000,1184.329507,9548.656652
3543.477022,-306.438199,814.226536,9474.636058
3543.477336,0.000000,888.247130,9770.718434
3543.477651,0.000000,1036.288319,9696.697840
3543.477965,0.000000,740.205942,9770.718434
3543.478279,0.000000,962.267725,9770.718434
3543.478593,229.828649,962.267725,9696.697840
3543.478907,306.438199,814.226536,9400.615463
3543.479222,383.047749,888.247130,9178.553681
3543.479536,383.047749,814.226536,10140.821405
3543.479850,229.828649,740.205942,10066.800811
3543.480164,76.609550,592.164754,9844.739029
3543.480478,0.000000,444.123565,9918.759623
3543.480792,229.828649,370.102971,9770.718434
3543.481107,76.609550,592.164754,10066.800811
3543.481421,0.000000,518.144159,10066.800811
3543.481735,383.047749,148.041188,10066.800811
3543.482049,383.047749,370.102971,9770.718434
3543.482363,612.876398,296.082377,9622.677246
3543.482678,536.266849,296.082377,9770.718434
3543.482992,383.047749,666.185348,9918.759623
3543.483306,383.047749,592.164754,9474.636058
3543.483620,229.828649,518.144159,9474.636058
3543.483934,153.219100,-0.000000,9622.677246
3543.484249,306.438199,-0.000000,9474.636058
3543.484563,76.609550,-0.000000,9474.636058
3543.484877,0.000000,-74.020594,9548.656652
3543.485191,153.219100,-0.000000,9474.636058
3543.485505,0.000000,-148.041188,9474.636058
3543.485819,76.609550,-74.020594,9622.677246
3543.486134,0.000000,-74.020594,9622.677246
3543.486448,0.000000,-0.000000,9030.512492
3543.486762,0.000000,-74.020594,8808.450710
3543.487076,-229.828649,-370.102971,9474.636058
3543.487390,-306.438199,-0.000000,9104.533087
3543.487705,-689.485948,-666.185348,9178.553681
3543.488019,-459.657299,-888.247130,9474.636058
3543.488333,-459.657299,-518.144159,10140.821405
3543.488647,-459.657299,-814.226536,10140.821405
3543.488961,-689.485948,-888.247130,10140.821405
3543.489276,0.000000,-740.205942,10066.800811
3543.489590,153.219100,-296.082377,9548.656652
3543.489904,153.219100,-0.000000,8882.471304
3543.490218,995.924147,-148.041188,8808.450710
3543.490532,766.095498,-74.020594,9104.533087
3543.490846,919.314598,-222.061783,8438.347739
3543.491161,919.314598,-518.144159,8438.347739
3543.491475,459.657299,-1184.329507,8956.491898
3543.491789,383.047749,-1406.391290,9474.636058
3543.492103,0.000000,-1258.350101,9918.759623
3543.492417,-383.047749,-1184.329507,10436.903782
3543.492732,-536.266849,-1184.329507,10288.862594
3543.493046,0.000000,-962.267725,10436.903782
3543.493360,0.000000,-444.123565,10288.862594
3543.493674,383.047749,-74.020594,10066.800811
3543.493988,306.438199,-0.000000,9622.677246
3543.494303,612.876398,222.061783,9178.553681
3543.494617,1378.971896,-0.000000,9178.553681
3543.494931,919.314598,666.185348,9252.574275
3543.495245,842.705048,518.144159,9178.553681
3543.495559,842.705048,296.082377,9474.636058
3543.495873,689.485948,-0.000000,9400.615463
3543.496188,76.609550,-74.020594,9252.574275
3543.496502,-536.266849,-148.041188,9918.759623
3543.496816,-229.828649,-74.020594,10436.903782
3543.497130,-459.657299,-148.041188,9844.739029
3543.497444,-229.828649,222.061783,9474.636058
3543.497759,0.000000,-296.082377,9548.656652
3543.498073,153.219100,740.205942,9474.636058
3543.498387,536.266849,1036.288319,8808.450710
3543.498701,536.266849,1258.350101,8512.368333
3543.499015,689.485948,1332.370696,8956.491898
3543.499330,536.266849,1406.391290,9178.553681
3543.499644,0.000000,1258.350101,9548.656652
3543.499958,229.828649,1110.308913,9548.656652
3543.500272,229.828649,1184.329507,9844.739029
3543.500586,0.000000,1036.288319,9918.759623
3543.500901,0.000000,592.164754,10362.883188
3543.501215,-383.047749,814.226536,10584.944971
3543.501529,-153.219100,814.226536,9844.739029
3543.501843,-306.438199,740.205942,9548.656652
3543.502157,536.266849,814.226536,9696.697840
3543.502471,153.219100,888.247130,9918.759623
3543.502786,-306.438199,814.226536,9770.718434
3543.503100,0.000000,518.144159,9548.656652
3543.503414,153.219100,666.185348,9992.780217
3543.503728,153.219100,592.164754,10140.821405
3543.504042,536.266849,518.144159,10066.800811
3543.504357,0.000000,666.185348,10362.883188
3543.504671,-536.266849,222.061783,10140.821405
3543.504985,-229.828649,666.185348,10066.800811
3543.505299,-229.828649,592.164754,10288.862594
3543.505613,0.000000,518.144159,9696.697840
3543.505928,0.000000,518.144159,10214.842000
3543.506242,0.000000,222.061783,9844.739029
3543.506556,76.609550,-0.000000,9770.718434
3543.506870,229.828649,222.061783,9844.739029
3543.507184,0.000000,-0.000000,9696.697840
3543.507498,0.000000,-0.000000,9770.718434
3543.507813,-229.828649,-0.000000,9474.636058
3543.508127,-76.609550,-0.000000,9474.636058
3543.508441,229.828649,-0.000000,9474.636058
3543.508755,306.438199,222.061783,9622.677246
3543.509069,153.219100,-0.000000,9326.594869
3543.509384,-229.828649,-0.000000,8882.471304
3543.509698,229.828649,-0.000000,9326.594869
3543.510012,842.705048,-666.185348,8956.491898
3543.510326,76.609550,-370.102971,9030.512492
3543.510640,153.219100,-444.123565,9104.533087
3543.510955,153.219100,-444.123565,9326.594869
3543.511269,0.000000,-518.144159,9326.594869
3543.511583,0.000000,-592.164754,9104.533087
3543.511897,76.609550,-962.267725,9474.636058
3543.512211,0.000000,-814.226536,9622.677246
3543.512525,76.609550,-518.144159,9548.656652
3543.512840,306.438199,-518.144159,9400.615463
3543.513154,306.438199,-666.185348,9326.594869
3543.513468,612.876398,-222.061783,8882.471304
3543.513782,536.266849,-444.123565,8882.471304
3543.514096,766.095498,-370.102971,8882.471304
3543.514411,842.705048,-592.164754,9252.574275
3543.514725,612.876398,-962.267725,9326.594869
3543.515039,229.828649,-962.267725,9844.739029
3543.515353,0.000000,-888.247130,10066.800811
3543.515667,-459.657299,-1184.329507,9918.759623
3543.515982,-383.047749,-666.185348,10140.821405
3543.516296,0.000000,-1036.288319,10140.821405
3543.516610,0.000000,-370.102971,10584.944971
3543.516924,0.000000,-148.041188,9696.697840
3543.517238,383.047749,-296.082377,9474.636058
3543.517552,383.047749,-296.082377,9918.759623
3543.517867,459.657299,222.061783,9548.656652
3543.518181,459.657299,-0.000000,9622.677246
3543.518495,689.485948,-0.000000,9474.636058
3543.518809,229.828649,-0.000000,9474.636058
3543.519123,612.876398,222.061783,9474.636058
3543.519438,229.828649,222.061783,9770.718434
3543.519752,0.000000,-0.000000,10066.800811
3543.520066,-306.438199,-0.000000,9474.636058
3543.520380,-536.266849,444.123565,9548.656652
3543.520694,0.000000,370.102971,9548.656652
3543.521009,-153.219100,518.144159,9622.677246
3543.521323,229.828649,740.205942,9104.533087
3543.521637,229.828649,888.247130,9104.533087
3543.521951,229.828649,888.247130,9474.636058
3543.522265,536.266849,814.226536,9178.553681
3543.522579,306.438199,1110.308913,9474.636058
3543.522894,229.828649,1184.329507,9918.759623
3543.523208,0.000000,1184.329507,9474.636058
3543.523522,0.000000,962.267725,9548.656652
3543.523836,0.000000,962.267725,9770.718434
3543.524150,0.000000,1036.288319,10140.821405
3543.524465,0.000000,740.205942,9992.780217
3543.524779,0.000000,740.205942,9622.677246
3543.525093,153.219100,814.226536,9992.780217
3543.525407,153.219100,962.267725,9770.718434
3543.525721,229.828649,740.205942,9696.697840
3543.526036,0.000000,962.267725,9622.677246
3543.526350,306.438199,888.247130,9918.759623
3543.526664,229.828649,888.247130,9770.718434
3543.526978,0.000000,666.185348,9696.697840
3543.527292,153.219100,518.144159,10584.944971
3543.527606,76.609550,740.205942,9992.780217
3543.527921,0.000000,740.205942,9918.759623
3543.528235,306.438199,370.102971,10658.965565
3543.528549,0.000000,740.205942,10362.883188
3543.528863,76.609550,-0.000000,10066.800811
3543.529177,0.000000,296.082377,9548.656652
3543.529492,459.657299,296.082377,9474.636058
3543.529806,459.657299,370.102971,9326.594869
3543.530120,0.000000,74.020594,9252.574275
3543.530434,76.609550,444.123565,9918.759623
3543.530748,0.000000,-0.000000,9400.615463
3543.531063,229.828649,444.123565,9622.677246
3543.531377,76.609550,-0.000000,9400.615463
3543.531691,76.609550,-74.020594,9474.636058
3543.532005,0.000000,148.041188,9548.656652
3543.532318,76.609550,-0.000000,9326.594869
3543.532632,306.438199,-0.000000,9622.677246
3543.532946,153.219100,222.061783,9326.594869
3543.533260,76.609550,-0.000000,9326.594869
3543.533574,0.000000,-0.000000,9252.574275
3543.533889,-153.219100,-0.000000,8956.491898
3543.534203,-153.219100,-0.000000,9326.594869
3543.534517,0.000000,-148.041188,9178.553681
3543.534831,-229.828649,-518.144159,9326.594869
3543.535145,-612.876398,-888.247130,9474.636058
3543.535460,-536.266849,-888.247130,9992.780217
3543.535774,-536.266849,-1036.288319,10362.883188
3543.536088,-612.876398,-888.247130,10436.903782
3543.536402,0.000000,-222.061783,10436.903782
3543.536716,0.000000,-222.061783,9770.718434
3543.537030,0.000000,-0.000000,9252.574275
3543.537345,842.705048,-0.000000,9178.553681
3543.537659,919.314598,370.102971,9178.553681
3543.537973,1072.533697,-74.020594,9030.512492
3543.538287,1072.533697,-0.000000,8808.450710
3543.538601,919.314598,-592.164754,8808.450710
3543.538915,383.047749,-962.267725,9474.636058
3543.539230,-306.438199,-1184.329507,9770.718434
3543.539544,-383.047749,-1480.411884,10214.842000
3543.539858,-766.095498,-1332.370696,10362.883188
3543.540172,-536.266849,-1036.288319,10288.862594
3543.540486,-689.485948,-740.205942,10066.800811
3543.540801,-536.266849,-370.102971,9918.759623
3543.541115,76.609550,-0.000000,9992.780217
3543.541429,383.047749,148.041188,9326.594869
3543.541743,689.485948,666.185348,8882.471304
3543.542057,919.314598,666.185348,9030.512492
3543.542371,1072.533697,444.123565,8808.450710
3543.542686,1072.533697,814.226536,9178.553681
3543.543000,612.876398,222.061783,9326.594869
3543.543314,0.000000,-0.000000,9622.677246
3543.543628,0.000000,-74.020594,9548.656652
3543.543942,-536.266849,-222.061783,10066.800811
3543.544257,-612.876398,-222.061783,10214.842000
3543.544571,-459.657299,-148.041188,9844.739029
3543.544885,229.828649,-0.000000,9474.636058
3543.545199,0.000000,592.164754,9770.718434
3543.545513,612.876398,1036.288319,9178.553681
3543.545827,842.705048,1184.329507,8734.430116
3543.546142,919.314598,1480.411884,8734.430116
3543.546456,1072.533697,1406.391290,9178.553681
3543.546770,229.828649,1332.370696,9252.574275
3543.547084,459.657299,1036.288319,9548.656652
3543.547398,306.438199,1036.288319,10140.821405
3543.547712,0.000000,962.267725,10288.862594
3543.548027,-153.219100,740.205942,10510.924376
3543.548341,-459.657299,666.185348,10436.903782
3543.548655,-459.657299,518.144159,10732.986159
3543.548969,-459.657299,740.205942,10140.821405
3543.549283,-536.266849,666.185348,9474.636058
3543.549598,-383.047749,888.247130,9474.636058
3543.549912,0.000000,444.123565,9474.636058
3543.550226,306.438199,888.247130,9474.636058
3543.550540,153.219100,666.185348,9548.656652
3543.550854,153.219100,666.185348,9918.759623
3543.551168,153.219100,592.164754,9918.759623
3543.551483,0.000000,444.123565,10066.800811
3543.551797,0.000000,444.123565,10214.842000
3543.552111,-536.266849,444.123565,10066.800811
3543.552425,-229.828649,518.144159,10140.821405
3543.552739,-689.485948,370.102971,9622.677246
3543.553054,0.000000,222.061783,9622.677246
3543.553368,-76.609550,-0.000000,9548.656652
3543.553682,0.000000,-0.000000,9770.718434
3543.553996,153.219100,-74.020594,9548.656652
3543.554310,383.047749,-148.041188,9474.636058
3543.554624,0.000000,-148.041188,9474.636058
3543.554939,76.609550,-0.000000,9474.636058
3543.555253,153.219100,-0.000000,9326.594869
3543.555567,306.438199,-0.000000,8956.491898
3543.555881,842.705048,-0.000000,9548.656652
3543.556195,459.657299,-0.000000,9252.574275
3543.556509,229.828649,-0.000000,8808.450710
3543.556824,76.609550,-0.000000,9178.553681
3543.557138,153.219100,-370.102971,8882.471304
3543.557452,0.000000,-74.020594,9548.656652
3543.557766,459.657299,-296.082377,9178.553681
3543.558080,0.000000,-592.164754,9474.636058
3543.558395,0.000000,-666.185348,9400.615463
3543.558709,0.000000,-518.144159,9622.677246
3543.559023,-153.219100,-592.164754,9992.780217
3543.559337,0.000000,-888.247130,10214.842000
3543.559651,153.219100,-222.061783,10214.842000
3543.559965,383.047749,-148.041188,9104.533087
3543.560280,229.828649,-148.041188,9030.512492
3543.560594,383.047749,-0.000000,9104.533087
3543.560908,536.266849,-370.102971,9030.512492
3543.561222,459.657299,-518.144159,8660.409521
3543.561536,459.657299,-740.205942,8808.450710
3543.561851,306.438199,-962.267725,9104.533087
3543.562165,383.047749,-814.226536,9696.697840
3543.562479,76.609550,-1110.308913,9918.759623
3543.562793,-383.047749,-1184.329507,9918.759623
3543.563107,-536.266849,-666.185348,9918.759623
3543.563421,-306.438199,-592.164754,9918.759623
3543.563736,0.000000,-148.041188,10140.821405
3543.564050,612.876398,-74.020594,9548.656652
3543.564364,306.438199,-74.020594,9400.615463
3543.564678,306.438199,-0.000000,9326.594869
3543.564992,536.266849,148.041188,9178.553681
3543.565306,612.876398,296.082377,9400.615463
3543.565621,842.705048,-0.000000,9326.594869
3543.565935,689.485948,-0.000000,9104.533087
3543.566249,153.219100,148.041188,9622.677246
3543.566563,153.219100,-0.000000,9992.780217
3543.566877,689.485948,-0.000000,9696.697840
3543.567192,0.000000,-0.000000,9918.759623
3543.567506,-306.438199,444.123565,9622.677246
3543.567820,-229.828649,370.102971,9474.636058
3543.568134,76.609550,444.123565,9770.718434
3543.568448,0.000000,592.164754,9844.739029
3543.568762,383.047749,740.205942,9400.615463
3543.569077,153.219100,814.226536,9400.615463
3543.569391,153.219100,1184.329507,9474.636058
3543.569705,383.047749,1036.288319,9622.677246
3543.570019,0.000000,1406.391290,9696.697840
3543.570333,0.000000,1110.308913,9696.697840
3543.570648,0.000000,1184.329507,9548.656652
3543.570962,0.000000,962.267725,9696.697840
3543.571276,0.000000,1036.288319,10066.800811
3543.571590,-229.828649,740.205942,9992.780217
3543.571904,-306.438199,592.164754,10066.800811
3543.572218,0.000000,740.205942,9474.636058
3543.572533,0.000000,592.164754,9770.718434
3543.572847,0.000000,814.226536,9622.677246
3543.573161,459.657299,592.164754,9548.656652
3543.573475,76.609550,666.185348,9548.656652
3543.573789,153.219100,888.247130,9770.718434
3543.574103,76.609550,666.185348,9474.636058
3543.574418,76.609550,592.164754,9770.718434
3543.574732,76.609550,814.226536,10066.800811
3543.575046,153.219100,592.164754,10362.883188
3543.575360,0.000000,518.144159,9918.759623
3543.575674,0.000000,370.102971,9918.759623
3543.575989,76.609550,518.144159,9622.677246
3543.576303,153.219100,-0.000000,9696.697840
3543.576617,306.438199,296.082377,9918.759623
3543.576931,153.219100,-0.000000,9474.636058
3543.577245,383.047749,296.082377,9622.677246
3543.577559,229.828649,370.102971,9474.636058
3543.577874,229.828649,592.164754,9548.656652
3543.578188,76.609550,148.041188,9548.656652
3543.578502,0.000000,-0.000000,9326.594869
3543.578816,383.047749,-0.000000,9548.656652
3543.579130,229.828649,-0.000000,9918.759623
3543.579445,76.609550,222.061783,9474.636058
3543.579759,229.828649,-0.000000,9770.718434
3543.580073,76.609550,-0.000000,9474.636058
3543.580387,76.609550,-148.041188,9474.636058
3543.580701,0.000000,-148.041188,9252.574275
3543.581015,-689.485948,592.164754,9326.594869
3543.581330,76.609550,296.082377,9400.615463
3543.581644,-229.828649,-0.000000,8808.450710
3543.581958,-153.219100,-444.123565,9400.615463
3543.582272,-459.657299,-740.205942,9770.718434
3543.582586,-995.924147,-1332.370696,9992.780217
3543.582900,-766.095498,-962.267725,10288.862594
3543.583215,-459.657299,-888.247130,10436.903782
3543.583529,0.000000,-740.205942,10288.862594
3543.583843,0.000000,-222.061783,9844.739029
3543.584157,0.000000,-0.000000,9474.636058
3543.584471,919.314598,74.020594,9030.512492
3543.584786,995.924147,74.020594,8808.450710
3543.585100,1302.362347,-148.041188,8586.388927
3543.585414,842.705048,-592.164754,8512.368333
3543.585728,1225.752797,-814.226536,8956.491898
3543.586042,306.438199,-1332.370696,9400.615463
3543.586356,0.000000,-962.267725,10140.821405
3543.586671,-306.438199,-888.247130,10066.800811
3543.586985,-459.657299,-1258.350101,9622.677246
3543.587299,-229.828649,-1184.329507,10066.800811
3543.587613,-383.047749,-962.267725,9770.718434
3543.587927,76.609550,-444.123565,9622.677246
3543.588242,306.438199,-296.082377,9474.636058
3543.588556,383.047749,-0.000000,9474.636058
3543.588870,612.876398,-0.000000,9474.636058
3543.589184,842.705048,518.144159,8660.409521
3543.589498,1149.143247,592.164754,8882.471304
3543.589812,919.314598,592.164754,9474.636058
3543.590127,229.828649,518.144159,9696.697840
3543.590441,459.657299,-74.020594,9992.780217
3543.590755,-153.219100,-0.000000,9696.697840
3543.591069,-306.438199,-0.000000,10140.821405
3543.591383,-536.266849,-74.020594,9918.759623
3543.591697,-536.266849,148.041188,10066.800811
3543.592012,0.000000,296.082377,9696.697840
3543.592326,76.609550,814.226536,9252.574275
3543.592640,459.657299,888.247130,9104.533087
3543.592954,766.095498,1184.329507,8956.491898
3543.593268,459.657299,1036.288319,8808.450710
3543.593583,383.047749,1184.329507,9178.553681
3543.593897,229.828649,1332.370696,9326.594869
3543.594211,76.609550,888.247130,9770.718434
3543.594525,0.000000,1036.288319,9992.780217
3543.594839,-76.609550,444.123565,10510.924376
3543.595153,-612.876398,962.267725,10436.903782
3543.595468,-536.266849,740.205942,10362.883188
3543.595782,-383.047749,740.205942,10140.821405
3543.596096,-383.047749,666.185348,9992.780217
3543.596410,0.000000,666.185348,9622.677246
3543.596724,0.000000,740.205942,9326.594869
3543.597039,229.828649,888.247130,9474.636058
3543.597353,306.438199,888.247130,10066.800811
3543.597667,76.609550,814.226536,9474.636058
3543.597981,229.828649,592.164754,9696.697840
3543.598295,153.219100,444.123565,10066.800811
3543.598609,-153.219100,666.185348,10362.883188
3543.598924,0.000000,592.164754,10436.903782
3543.599238,0.000000,296.082377,10214.842000
3543.599552,0.000000,814.226536,10732.986159
3543.599866,-76.609550,444.123565,9548.656652
3543.600180,0.000000,592.164754,9252.574275
3543.600495,0.000000,296.082377,9918.759623
3543.600809,0.000000,296.082377,9918.759623
3543.601123,76.609550,148.041188,9622.677246
3543.601437,0.000000,222.061783,9844.739029
3543.601751,76.609550,-0.000000,9770.718434
3543.602065,0.000000,222.061783,9696.697840
3543.602380,76.609550,148.041188,9622.677246
3543.602694,306.438199,222.061783,9696.697840
3543.603008,306.438199,148.041188,9104.533087
3543.603322,153.219100,-0.000000,8956.491898
3543.603636,153.219100,-0.000000,9474.636058
3543.603950,612.876398,-444.123565,9104.533087
3543.604265,0.000000,-370.102971,9252.574275
3543.604579,0.000000,-296.082377,9252.574275
3543.604893,0.000000,-296.082377,9326.594869
3543.605207,76.609550,-444.123565,9252.574275
3543.605521,76.609550,-666.185348,9252.574275
3543.605836,0.000000,-444.123565,9474.636058
3543.606150,-229.828649,-518.144159,9622.677246
3543.606464,0.000000,-222.061783,9474.636058
3543.606778,0.000000,-444.123565,9548.656652
3543.607092,229.828649,-444.123565,9622.677246
3543.607406,306.438199,-592.164754,8882.471304
3543.607721,383.047749,-222.061783,9104.533087
3543.608035,459.657299,-592.164754,9400.615463
3543.608349,766.095498,-666.185348,8882.471304
3543.608663,229.828649,-814.226536,8956.491898
3543.608977,383.047749,-666.185348,9178.553681
3543.609292,306.438199,-666.185348,9474.636058
3543.609606,153.219100,-962.267725,9770.718434
3543.609920,76.609550,-888.247130,9770.718434
3543.610234,0.000000,-666.185348,10214.842000
3543.610548,76.609550,-518.144159,9844.739029
3543.610862,0.000000,-444.123565,9474.636058
3543.611177,153.219100,-148.041188,9770.718434
3543.611491,153.219100,-74.020594,10066.800811
3543.611805,76.609550,-74.020594,9696.697840
3543.612119,383.047749,222.061783,9622.677246
3543.612433,536.266849,-0.000000,9548.656652
3543.612747,612.876398,-0.000000,9622.677246
3543.613062,306.438199,296.082377,9770.718434
3543.613376,229.828649,370.102971,9696.697840
3543.613690,0.000000,296.082377,9622.677246
3543.614004,0.000000,296.082377,9770.718434
3543.614318,0.000000,370.102971,10066.800811
3543.614633,0.000000,370.102971,9770.718434
3543.614947,0.000000,666.185348,9622.677246
3543.615261,0.000000,444.123565,9474.636058
3543.615575,76.609550,444.123565,9400.615463
3543.615889,306.438199,1036.288319,9474.636058
3543.616203,0.000000,666.185348,9326.594869
3543.616518,153.219100,666.185348,9400.615463
3543.616832,76.609550,1036.288319,9474.636058
3543.617146,229.828649,962.267725,9548.656652
3543.617460,306.438199,814.226536,9474.636058
3543.617774,76.609550,888.247130,9770.718434
3543.618089,-306.438199,1036.288319,9474.636058
3543.618403,0.000000,888.247130,9548.656652
3543.618717,0.000000,666.185348,9992.780217
3543.619031,0.000000,962.267725,9992.780217
3543.619345,229.828649,666.185348,9696.697840
3543.619659,229.828649,888.247130,9696.697840
3543.619974,76.609550,666.185348,9770.718434
3543.620288,0.000000,1036.288319,9770.718434
3543.620602,306.438199,740.205942,9770.718434
3543.620916,76.609550,518.144159,9992.780217
3543.621230,76.609550,740.205942,9844.739029
3543.621544,153.219100,740.205942,9696.697840
3543.621859,76.609550,518.144159,9844.739029
3543.622173,229.828649,518.144159,10362.883188
3543.622487,0.000000,296.082377,10140.821405
3543.622801,0.000000,148.041188,9696.697840
3543.623115,76.609550,666.185348,9770.718434
3543.623430,0.000000,666.185348,9770.718434
3543.623744,153.219100,592.164754,9992.780217
3543.624058,229.828649,518.144159,9770.718434
3543.624372,229.828649,444.123565,9400.615463
3543.624686,383.047749,222.061783,9548.656652
3543.625000,383.047749,296.082377,9548.656652
3543.625315,0.000000,-0.000000,9622.677246
3543.625629,0.000000,-0.000000,9400.615463
3543.625943,-153.219100,-0.000000,9178.553681
3543.626257,153.219100,-74.020594,9696.697840
3543.626571,76.609550,-0.000000,9992.780217
3543.626886,0.000000,-148.041188,9252.574275
3543.627200,383.047749,-74.020594,9326.594869
3543.627514,76.609550,148.041188,9252.574275
3543.627828,459.657299,-74.020594,9252.574275
3543.628142,153.219100,-148.041188,9104.533087
3543.628456,0.000000,-0.000000,8956.491898
3543.628771,0.000000,-148.041188,8882.471304
3543.629085,-306.438199,-222.061783,8808.450710
3543.629399,-459.657299,-740.205942,9770.718434
3543.629713,-459.657299,-1036.288319,10362.883188
3543.630027,-612.876398,-1110.308913,10214.842000
3543.630341,-689.485948,-1036.288319,10288.862594
3543.630656,-383.047749,-666.185348,10140.821405
3543.630970,383.047749,-222.061783,10140.821405
3543.631284,383.047749,-0.000000,9844.739029
3543.631598,536.266849,-0.000000,9252.574275
3543.631912,1072.533697,296.082377,8438.347739
3543.632227,1378.971896,222.061783,8068.244768
3543.632541,919.314598,-222.061783,8660.409521
3543.632855,842.705048,-740.205942,8660.409521
3543.633169,383.047749,-888.247130,9400.615463
3543.633483,-306.438199,-1110.308913,9696.697840
3543.633797,-306.438199,-1258.350101,10214.842000
3543.634112,-612.876398,-1110.308913,10510.924376
3543.634426,-1302.362347,-814.226536,10732.986159
3543.634740,-383.047749,-592.164754,10288.862594
3543.635054,76.609550,-148.041188,9918.759623
3543.635368,306.438199,-0.000000,9696.697840
3543.635683,612.876398,222.061783,9326.594869
3543.635997,1149.143247,592.164754,8808.450710
3543.636311,995.924147,814.226536,9030.512492
3543.636625,1378.971896,814.226536,8956.491898
3543.636939,995.924147,592.164754,9030.512492
3543.637253,536.266849,296.082377,9548.656652
3543.637568,0.000000,222.061783,9548.656652
3543.637882,-459.657299,-0.000000,9696.697840
3543.638196,-536.266849,-74.020594,10066.800811
3543.638510,-689.485948,-74.020594,9992.780217
3543.638824,-229.828649,-74.020594,9770.718434
3543.639138,229.828649,370.102971,9474.636058
3543.639452,76.609550,592.164754,9252.574275
3543.639766,536.266849,1110.308913,8734.430116
3543.640080,612.876398,1480.411884,9030.512492
3543.640395,995.924147,1258.350101,9252.574275
3543.640709,612.876398,1702.473667,9030.512492
3543.641023,919.314598,1184.329507,9400.615463
3543.641337,383.047749,814.226536,9252.574275
3543.641651,459.657299,962.267725,9992.780217
3543.641965,0.000000,666.185348,10140.821405
3543.642279,0.000000,666.185348,10288.862594
3543.642593,-306.438199,444.123565,10066.800811
3543.642907,-536.266849,666.185348,10066.800811
3543.643221,-229.828649,592.164754,10140.821405
3543.643535,0.000000,592.164754,10140.821405
3543.643849,459.657299,518.144159,9548.656652
3543.644163,0.000000,592.164754,9474.636058
3543.644477,383.047749,814.226536,9918.759623
3543.644791,229.828649,888.247130,10066.800811
3543.645105,0.000000,666.185348,10066.800811
3543.645419,153.219100,666.185348,10140.821405
3543.645733,0.000000,666.185348,9992.780217
3543.646047,0.000000,592.164754,10066.800811
3543.646361,-383.047749,518.144159,10288.862594
3543.646675,-306.438199,592.164754,10140.821405
3543.646989,-229.828649,444.123565,10140.821405
3543.647303,-536.266849,296.082377,9992.780217
3543.647618,-229.828649,-0.000000,9770.718434
3543.647932,0.000000,-0.000000,9770.718434
3543.648246,-459.657299,-0.000000,9992.780217
3543.648560,-306.438199,-0.000000,9400.615463
3543.648874,76.609550,-0.000000,9474.636058
3543.649188,153.219100,-0.000000,9252.574275
3543.649502,306.438199,222.061783,9326.594869
3543.649816,459.657299,296.082377,9548.656652
3543.650130,76.609550,-0.000000,8882.471304
3543.650444,383.047749,296.082377,9104.533087
3543.650758,383.047749,-0.000000,9178.553681
3543.651072,383.047749,-296.082377,9400.615463
3543.651386,689.485948,-666.185348,9030.512492
3543.651700,229.828649,-296.082377,9178.553681
3543.652014,153.219100,-370.102971,9252.574275
3543.652328,76.609550,-296.082377,9326.594869
3543.652642,306.438199,-518.144159,9400.615463
3543.652956,76.609550,-740.205942,9548.656652
3543.653270,0.000000,-740.205942,9400.615463
3543.653584,0.000000,-518.144159,9696.697840
3543.653898,-306.438199,-444.123565,9548.656652
3543.654212,306.438199,-444.123565,9770.718434
3543.654527,153.219100,-296.082377,9474.636058
3543.654841,459.657299,-296.082377,8956.491898
3543.655155,689.485948,-148.041188,9178.553681
3543.655469,689.485948,-222.061783,9252.574275
3543.655783,1302.362347,-518.144159,9104.533087
3543.656097,536.266849,-740.205942,9252.574275
3543.656411,76.609550,-592.164754,9474.636058
3543.656725,0.000000,-518.144159,9622.677246
3543.657039,0.000000,-740.205942,9918.759623
3543.657353,229.828649,-888.247130,10140.821405
3543.657667,-612.876398,-888.247130,9918.759623
3543.657981,-383.047749,-592.164754,9770.718434
3543.658295,76.609550,-370.102971,9474.636058
3543.658609,76.609550,-148.041188,9548.656652
3543.658923,229.828649,-0.000000,9696.697840
3543.659237,383.047749,-148.041188,9030.512492
3543.659551,612.876398,444.123565,9474.636058
3543.659865,919.314598,370.102971,9474.636058
3543.660179,306.438199,296.082377,9474.636058
3543.660493,229.828649,148.041188,9548.656652
3543.660807,229.828649,-0.000000,9474.636058
3543.661121,76.609550,222.061783,9696.697840
3543.661435,0.000000,222.061783,9992.780217
3543.661750,-459.657299,222.061783,9770.718434
3543.662064,0.000000,296.082377,9696.697840
3543.662378,-306.438199,370.102971,9474.636058
3543.662692,612.876398,518.144159,9548.656652
3543.663006,536.266849,666.185348,9696.697840
3543.663320,383.047749,888.247130,9474.636058
3543.663634,153.219100,814.226536,9326.594869
3543.663948,0.000000,1332.370696,9474.636058
3543.664262,229.828649,1184.329507,9548.656652
3543.664576,76.609550,1036.288319,9548.656652
3543.664890,76.609550,1110.308913,9918.759623
3543.665204,0.000000,814.226536,9844.739029
3543.665518,-153.219100,814.226536,9696.697840
3543.665832,-306.438199,962.267725,10214.842000
3543.666146,0.000000,888.247130,10436.903782
3543.666460,0.000000,814.226536,9992.780217
3543.666774,153.219100,962.267725,9548.656652
3543.667088,76.609550,666.185348,9400.615463
3543.667402,229.828649,814.226536,9918.759623
3543.667716,229.828649,888.247130,9622.677246
3543.668030,229.828649,888.247130,9548.656652
3543.668344,0.000000,740.205942,9770.718434
3543.668658,306.438199,814.226536,9844.739029
3543.668973,153.219100,592.164754,9548.656652
3543.669287,306.438199,666.185348,9992.780217
3543.669601,153.219100,518.144159,10288.862594
3543.669915,0.000000,444.123565,9770.718434
3543.670229,-229.828649,370.102971,9696.697840
3543.670543,0.000000,370.102971,9622.677246
3543.670857,76.609550,444.123565,9548.656652
3543.671171,459.657299,444.123565,9622.677246
3543.671485,229.828649,296.082377,9770.718434
3543.671799,306.438199,-74.020594,9474.636058
3543.672113,766.095498,370.102971,9400.615463
3543.672427,383.047749,222.061783,9400.615463
3543.672741,306.438199,-0.000000,9622.677246
3543.673055,459.657299,-0.000000,9326.594869
3543.673369,0.000000,-0.000000,9474.636058
3543.673683,229.828649,-0.000000,9548.656652
3543.673997,0.000000,-0.000000,9548.656652
3543.674311,76.609550,-0.000000,9474.636058
3543.674625,-229.828649,-74.020594,9548.656652
3543.674939,229.828649,-0.000000,9770.718434
3543.675253,76.609550,-0.000000,9178.553681
3543.675567,153.219100,-0.000000,9030.512492
3543.675881,0.000000,-0.000000,9178.553681
3543.676196,0.000000,-222.061783,9252.574275
3543.676510,-306.438199,-518.144159,9474.636058
3543.676824,-612.876398,-888.247130,10288.862594
3543.677138,-689.485948,-1110.308913,10732.986159
3543.677452,-842.705048,-666.185348,10436.903782
3543.677766,-459.657299,-740.205942,9918.759623
3543.678080,0.000000,-592.164754,10066.800811
3543.678394,229.828649,-0.000000,9622.677246
3543.678708,689.485948,-0.000000,9104.533087
3543.679022,612.876398,-74.020594,8882.471304
3543.679336,766.095498,-518.144159,8660.409521
3543.679650,919.314598,-370.102971,8290.306550
3543.679964,919.314598,-592.164754,8512.368333
3543.680278,383.047749,-962.267725,9474.636058
3543.680592,0.000000,-1184.329507,9474.636058
3543.680906,-153.219100,-1258.350101,9844.739029
3543.681220,-536.266849,-1110.308913,10658.965565
3543.681534,-459.657299,-1036.288319,10362.883188
3543.681848,-383.047749,-444.123565,10362.883188
3543.682162,0.000000,-296.082377,9770.718434
3543.682476,229.828649,-222.061783,9622.677246
3543.682790,766.095498,-0.000000,9326.594869
3543.683104,1225.752797,444.123565,9104.533087
3543.683419,995.924147,518.144159,8882.471304
3543.683733,1072.533697,444.123565,8660.409521
3543.684047,919.314598,222.061783,8956.491898
3543.684361,689.485948,148.041188,9104.533087
3543.684675,76.609550,296.082377,9622.677246
3543.684989,0.000000,-0.000000,9992.780217
3543.685303,-536.266849,-148.041188,9992.780217
3543.685617,-689.485948,-74.020594,10214.842000
3543.685931,-229.828649,296.082377,9696.697840
3543.686245,76.609550,518.144159,9770.718434
3543.686559,229.828649,740.205942,9622.677246
3543.686873,459.657299,1036.288319,9400.615463
3543.687187,612.876398,1110.308913,9252.574275
3543.687501,612.876398,1480.411884,9104.533087
3543.687815,995.924147,1406.391290,9474.636058
3543.688129,612.876398,1184.329507,9474.636058
3543.688443,229.828649,1258.350101,9326.594869
3543.688757,76.609550,740.205942,10140.821405
3543.689071,-306.438199,740.205942,10362.883188
3543.689385,-383.047749,592.164754,10658.965565
3543.689699,-842.705048,666.185348,10214.842000
3543.690013,-459.657299,592.164754,10288.862594
3543.690328,-229.828649,666.185348,9918.759623
3543.690642,76.609550,740.205942,9622.677246
3543.690956,-229.828649,370.102971,9696.697840
3543.691270,0.000000,666.185348,9622.677246
3543.691584,0.000000,814.226536,9474.636058
3543.691898,76.609550,592.164754,9844.739029
3543.692212,383.047749,814.226536,10214.842000
3543.692526,76.609550,444.123565,10214.842000
3543.692840,0.000000,444.123565,9992.780217
3543.693154,0.000000,518.144159,10214.842000
3543.693468,-229.828649,666.185348,10140.821405
3543.693782,-229.828649,444.123565,10214.842000
3543.694096,-383.047749,148.041188,10066.800811
3543.694410,0.000000,444.123565,9696.697840
3543.694724,0.000000,-0.000000,9770.718434
3543.695038,0.000000,-0.000000,9918.759623
3543.695352,153.219100,370.102971,9770.718434
3543.695666,76.609550,148.041188,9622.677246
3543.695980,0.000000,222.061783,9474.636058
3543.696294,153.219100,-0.000000,9474.636058
3543.696608,459.657299,-0.000000,9474.636058
3543.696922,153.219100,-0.000000,9474.636058
3543.697236,306.438199,222.061783,9474.636058
3543.697551,76.609550,-222.061783,9326.594869
3543.697865,76.609550,-74.020594,9326.594869
3543.698179,306.438199,-148.041188,9252.574275
3543.698493,76.609550,-222.061783,9400.615463
3543.698807,306.438199,-222.061783,9104.533087
3543.699121,0.000000,-74.020594,8882.471304
3543.699435,-153.219100,-222.061783,9178.553681
3543.699749,0.000000,-592.164754,9252.574275
3543.700063,0.000000,-518.144159,9770.718434
3543.700377,-306.438199,-962.267725,9696.697840
3543.700691,-153.219100,-592.164754,9548.656652
3543.701005,0.000000,-518.144159,9918.759623
3543.701319,153.219100,-370.102971,9696.697840
3543.701633,383.047749,-370.102971,9326.594869
3543.701947,229.828649,-444.123565,9178.553681
3543.702261,459.657299,-296.082377,9030.512492
3543.702575,689.485948,-296.082377,8882.471304
3543.702889,612.876398,-740.205942,8808.450710
3543.703203,306.438199,-740.205942,9326.594869
3543.703517,153.219100,-888.247130,9474.636058
3543.703831,0.000000,-888.247130,9844.739029
3543.704145,0.000000,-888.247130,10066.800811
3543.704459,-383.047749,-888.247130,10066.800811
3543.704774,-153.219100,-814.226536,10140.821405
3543.705088,0.000000,-592.164754,9770.718434
3543.705402,153.219100,-592.164754,9474.636058
3543.705716,459.657299,-296.082377,9474.636058
3543.706030,689.485948,-0.000000,9326.594869
3543.706344,919.314598,370.102971,9474.636058
3543.706658,919.314598,370.102971,9252.574275
3543.706972,536.266849,-0.000000,9326.594869
3543.707286,459.657299,222.061783,9622.677246
3543.707600,229.828649,296.082377,10140.821405
3543.707914,229.828649,222.061783,9622.677246
3543.708228,229.828649,-148.041188,9918.759623
3543.708542,0.000000,444.123565,10066.800811
3543.708856,-306.438199,296.082377,10214.842000
3543.709170,0.000000,296.082377,9918.759623
3543.709484,0.000000,444.123565,9622.677246
3543.709798,612.876398,740.205942,9400.615463
3543.710112,0.000000,814.226536,8956.491898
3543.710426,0.000000,1036.288319,9548.656652
3543.710740,153.219100,1110.308913,9474.636058
3543.711054,229.828649,1184.329507,9548.656652
3543.711368,76.609550,666.185348,9474.636058
3543.711682,0.000000,1258.350101,9696.697840
3543.711997,0.000000,1036.288319,10214.842000
3543.712311,-153.219100,740.205942,9770.718434
3543.712625,-383.047749,740.205942,9844.739029
3543.712939,-536.266849,518.144159,10066.800811
3543.713253,76.609550,814.226536,9770.718434
3543.713567,0.000000,740.205942,9696.697840
3543.713881,0.000000,666.185348,9622.677246
3543.714195,153.219100,740.205942,9548.656652
3543.714509,76.609550,666.185348,9770.718434
3543.714823,229.828649,962.267725,9474.636058
3543.715137,229.828649,888.247130,9770.718434
3543.715451,459.657299,666.185348,9696.697840
3543.715765,459.657299,518.144159,9844.739029
3543.716079,612.876398,444.123565,9992.780217
3543.716393,459.657299,370.102971,9918.759623
3543.716707,76.609550,666.185348,9918.759623
3543.717021,153.219100,444.123565,9918.759623
3543.717335,306.438199,740.205942,10066.800811
3543.717649,76.609550,296.082377,9400.615463
3543.717963,153.219100,370.102971,9548.656652
3543.718277,459.657299,222.061783,9992.780217
3543.718591,459.657299,444.123565,9474.636058
3543.718906,0.000000,296.082377,9770.718434
3543.719220,459.657299,-0.000000,9474.636058
3543.719534,306.438199,222.061783,9696.697840
3543.719848,306.438199,222.061783,9474.636058
3543.720162,76.609550,370.102971,9474.636058
3543.720476,76.609550,296.082377,9696.697840
3543.720790,229.828649,-222.061783,8808.450710
3543.721104,76.609550,-0.000000,9326.594869
3543.721418,76.609550,-0.000000,9474.636058
3543.721732,0.000000,-222.061783,9400.615463
3543.722046,-229.828649,-74.020594,9252.574275
3543.722360,76.609550,-444.123565,9030.512492
3543.722674,-459.657299,-296.082377,9326.594869
3543.722988,-459.657299,-296.082377,9400.615463
3543.723302,-459.657299,-518.144159,9474.636058
3543.723616,-612.876398,-888.247130,9696.697840
3543.723930,-689.485948,-666.185348,9770.718434
3543.724244,-842.705048,-740.205942,10362.883188
3543.724558,-766.095498,-814.226536,10362.883188
3543.724872,-306.438199,-740.205942,10140.821405
3543.725186,0.000000,-518.144159,10214.842000
3543.725500,612.876398,-222.061783,9548.656652
3543.725814,383.047749,-0.000000,9474.636058
3543.726129,612.876398,-0.000000,9104.533087
3543.726443,1072.533697,-222.061783,8438.347739
3543.726757,689.485948,-444.123565,8364.327145
3543.727071,842.705048,-592.164754,9030.512492
3543.727385,689.485948,-1036.288319,9474.636058
3543.727699,153.219100,-1258.350101,9844.739029
3543.728013,-229.828649,-1554.432478,10362.883188
3543.728327,-229.828649,-1110.308913,10288.862594
3543.728641,-459.657299,-1110.308913,10066.800811
3543.728955,-306.438199,-888.247130,10658.965565
3543.729269,0.000000,-444.123565,9992.780217
3543.729583,0.000000,-0.000000,9696.697840
3543.729897,612.876398,148.041188,9252.574275
3543.730211,919.314598,296.082377,9178.553681
3543.730525,919.314598,444.123565,8956.491898
3543.730839,995.924147,444.123565,8808.450710
3543.731153,689.485948,444.123565,9474.636058
3543.731467,766.095498,222.061783,9326.594869
3543.731781,0.000000,148.041188,9622.677246
3543.732095,-536.266849,-148.041188,9770.718434
3543.732409,-306.438199,-222.061783,9844.739029
3543.732723,-536.266849,-0.000000,9696.697840
3543.733037,-459.657299,-0.000000,10140.821405
3543.733351,-229.828649,370.102971,9622.677246
3543.733665,0.000000,592.164754,9326.594869
3543.733979,306.438199,888.247130,9030.512492
3543.734293,842.705048,1184.329507,9178.553681
3543.734607,842.705048,1258.350101,9178.553681
3543.734921,1072.533697,1628.453072,8808.450710
3543.735235,536.266849,1406.391290,9104.533087
3543.735549,766.095498,1406.391290,9474.636058
3543.735863,0.000000,888.247130,9474.636058
3543.736177,0.000000,1258.350101,9918.759623
3543.736491,0.000000,814.226536,10510.924376
3543.736805,-536.266849,592.164754,10066.800811
3543.737119,-459.657299,518.144159,9992.780217
3543.737433,0.000000,592.164754,10140.821405
3543.737747,-612.876398,370.102971,10066.800811
3543.738061,0.000000,740.205942,9918.759623
3543.738375,153.219100,814.226536,10140.821405
3543.738689,153.219100,592.164754,9918.759623
3543.739003,153.219100,962.267725,9622.677246
3543.739317,383.047749,1036.288319,9992.780217
3543.739631,76.609550,888.247130,10214.842000
3543.739945,229.828649,740.205942,10214.842000
3543.740259,0.000000,592.164754,10362.883188
3543.740573,-383.047749,592.164754,10288.862594
3543.740887,-536.266849,666.185348,10436.903782
3543.741201,-383.047749,148.041188,10214.842000
3543.741515,-536.266849,370.102971,10214.842000
3543.741829,-383.047749,222.061783,9992.780217
3543.742143,0.000000,296.082377,9548.656652
3543.742457,76.609550,-0.000000,9992.780217
3543.742771,153.219100,296.082377,9474.636058
3543.743085,76.609550,148.041188,9474.636058
3543.743399,306.438199,222.061783,9548.656652
3543.743713,229.828649,222.061783,9474.636058
3543.744027,306.438199,-74.020594,9326.594869
3543.744341,306.438199,444.123565,9104.533087
3543.744655,76.609550,-0.000000,9252.574275
3543.744969,76.609550,-74.020594,9400.615463
3543.745283,76.609550,-0.000000,9252.574275
3543.745597,76.609550,-518.144159,9178.553681
3543.745911,76.609550,-222.061783,8956.491898
3543.746225,0.000000,-592.164754,8734.430116
3543.746539,459.657299,-370.102971,9030.512492
3543.746853,612.876398,-592.164754,9178.553681
3543.747167,459.657299,-444.123565,9474.636058
3543.747481,0.000000,-888.247130,9474.636058
3543.747795,0.000000,-592.164754,9474.636058
3543.748109,-229.828649,-888.247130,9622.677246
3543.748423,229.828649,-592.164754,9474.636058
3543.748737,306.438199,-592.164754,9326.594869
3543.749051,459.657299,-592.164754,9400.615463
3543.749365,1532.190996,-518.144159,9400.615463
3543.749679,383.047749,-518.144159,8882.471304
3543.749993,689.485948,-444.123565,8734.430116
3543.750307,459.657299,-666.185348,9252.574275
3543.750621,153.219100,-666.185348,9696.697840
3543.750935,306.438199,-1110.308913,9918.759623
3543.751249,0.000000,-1036.288319,9548.656652
3543.751563,0.000000,-740.205942,9992.780217
3543.751877,0.000000,-370.102971,10288.862594
3543.752191,-153.219100,-370.102971,9992.780217
3543.752505,612.876398,-296.082377,9844.739029
3543.752819,229.828649,-296.082377,9252.574275
3543.753133,459.657299,-0.000000,9474.636058
3543.753447,612.876398,296.082377,9252.574275
3543.753761,383.047749,148.041188,9474.636058
3543.754075,383.047749,-0.000000,9474.636058
3543.754389,306.438199,-0.000000,9474.636058
3543.754703,229.828649,-0.000000,9622.677246
3543.755017,153.219100,370.102971,9770.718434
3543.755331,76.609550,370.102971,9696.697840
3543.755645,-229.828649,-0.000000,9548.656652
3543.755959,0.000000,222.061783,9178.553681
3543.756273,0.000000,222.061783,9474.636058
3543.756587,0.000000,370.102971,9696.697840
3543.756901,153.219100,666.185348,9474.636058
3543.757215,383.047749,888.247130,9178.553681
3543.757529,383.047749,1110.308913,8882.471304
3543.757843,229.828649,1110.308913,9696.697840
3543.758157,306.438199,888.247130,9548.656652
3543.758471,842.705048,1184.329507,9696.697840
3543.758785,229.828649,1036.288319,9400.615463
3543.759099,229.828649,1110.308913,9622.677246
3543.759413,153.219100,1184.329507,10214.842000
3543.759727,0.000000,962.267725,9844.739029
3543.760041,0.000000,592.164754,10362.883188
3543.760355,153.219100,1110.308913,10288.862594
3543.760669,383.047749,1406.391290,9770.718434
3543.760983,0.000000,888.247130,9992.780217
3543.761297,229.828649,1036.288319,9770.718434
3543.761611,459.657299,444.123565,9992.780217
3543.761925,153.219100,592.164754,9696.697840
3543.762239,153.219100,740.205942,9770.718434
3543.762553,153.219100,814.226536,10140.821405
3543.762867,229.828649,740.205942,10066.800811
3543.763181,0.000000,814.226536,10214.842000
3543.763495,0.000000,666.185348,10066.800811
3543.763809,229.828649,814.226536,10436.903782
3543.764123,229.828649,518.144159,10140.821405
3543.764437,383.047749,592.164754,9770.718434
3543.764751,0.000000,444.123565,9992.780217
3543.765065,76.609550,370.102971,9622.677246
3543.765379,383.047749,370.102971,9548.656652
3543.765693,76.609550,444.123565,9548.656652
3543.766007,76.609550,370.102971,9400.615463
3543.766321,766.095498,-0.000000,9622.677246
3543.766635,153.219100,370.102971,9474.636058
3543.766949,0.000000,-0.000000,9252.574275
3543.767263,0.000000,-0.000000,9474.636058
3543.767577,0.000000,148.041188,9474.636058
3543.767891,-153.219100,148.041188,9474.636058
3543.768205,0.000000,-0.000000,9104.533087
3543.768519,0.000000,-0.000000,9474.636058
3543.768833,0.000000,-74.020594,9770.718434
3543.769147,76.609550,-0.000000,9252.574275
3543.769461,-153.219100,296.082377,9178.553681
3543.769775,-229.828649,-222.061783,9030.512492
3543.770089,-229.828649,-518.144159,9252.574275
3543.770403,-306.438199,-444.123565,9548.656652
3543.770717,-459.657299,-888.247130,9548.656652
3543.771031,-459.657299,-1332.370696,9844.739029
3543.771345,-383.047749,-888.247130,10288.862594
3543.771659,-536.266849,-888.247130,10214.842000
3543.771973,-306.438199,-518.144159,10510.924376
3543.772287,0.000000,-370.102971,9918.759623
3543.772601,153.219100,-296.082377,9474.636058
3543.772915,612.876398,-148.041188,9104.533087
3543.773229,766.095498,-0.000000,8956.491898
3543.773543,919.314598,-0.000000,8808.450710
3543.773857,919.314598,-444.123565,8660.409521
3543.774171,1072.533697,-814.226536,8808.450710
3543.774485,612.876398,-1110.308913,9400.615463
3543.774799,459.657299,-962.267725,9844.739029
3543.775113,0.000000,-1258.350101,10362.883188
3543.775427,-612.876398,-1406.391290,10140.821405
3543.775741,-612.876398,-1258.350101,10362.883188
3543.776055,-229.828649,-888.247130,10362.883188
3543.776369,76.609550,-296.082377,9918.759623
3543.776683,153.219100,-148.041188,9474.636058
3543.776997,383.047749,-0.000000,8882.471304
3543.777311,766.095498,-0.000000,8882.471304
3543.777625,1072.533697,444.123565,8882.471304
3543.777939,1149.143247,444.123565,8956.491898
3543.778253,995.924147,444.123565,8956.491898
3543.778567,689.485948,-0.000000,9104.533087
3543.778881,689.485948,222.061783,9326.594869
3543.779195,-229.828649,-0.000000,9844.739029
3543.779509,-842.705048,-592.164754,10066.800811
3543.779823,-383.047749,-148.041188,10140.821405
3543.780137,-612.876398,-74.020594,9548.656652
3543.780451,0.000000,-74.020594,9622.677246
3543.780765,76.609550,666.185348,9474.636058
3543.781079,306.438199,1110.308913,9400.615463
3543.781393,689.485948,1184.329507,9104.533087
3543.781707,919.314598,1258.350101,8808.450710
3543.782021,1149.143247,1184.329507,9178.553681
3543.782335,689.485948,1332.370696,9178.553681
3543.782649,536.266849,1406.391290,9622.677246
3543.782963,76.609550,1110.308913,10140.821405
3543.783277,0.000000,888.247130,10140.821405
3543.783591,-153.219100,962.267725,10510.924376
3543.783905,-459.657299,814.226536,10658.965565
3543.784219,-459.657299,740.205942,10584.944971
3543.784533,-612.876398,740.205942,10066.800811
3543.784847,-229.828649,370.102971,9844.739029
3543.785161,-306.438199,962.267725,10066.800811
3543.785475,-229.828649,814.226536,9696.697840
3543.785789,0.000000,962.267725,9918.759623
3543.786103,0.000000,888.247130,10140.821405
3543.786417,76.609550,592.164754,9696.697840
3543.786731,0.000000,592.164754,9770.718434
3543.787045,0.000000,740.205942,10362.883188
3543.787359,-383.047749,740.205942,10436.903782
3543.787673,-536.266849,444.123565,9622.677246
3543.787987,-612.876398,740.205942,9770.718434
3543.788301,-459.657299,740.205942,10214.842000
3543.788615,-306.438199,592.164754,9474.636058
3543.788929,-153.219100,518.144159,9918.759623
3543.789243,0.000000,148.041188,9696.697840
3543.789557,383.047749,370.102971,9770.718434
3543.789871,229.828649,-0.000000,9474.636058
3543.790185,229.828649,-0.000000,9548.656652
3543.790499,153.219100,-0.000000,9770.718434
3543.790813,153.219100,-148.041188,9104.533087
3543.791127,153.219100,-0.000000,9326.594869
3543.791441,153.219100,-0.000000,9474.636058
3543.791755,536.266849,222.061783,9178.553681
3543.792069,459.657299,-74.020594,9104.533087
3543.792383,306.438199,-148.041188,9178.553681
3543.792697,459.657299,-444.123565,9400.615463
3543.793010,306.438199,-370.102971,9400.615463
3543.793324,0.000000,-518.144159,9326.594869
3543.793638,383.047749,-296.082377,9400.615463
3543.793952,459.657299,-740.205942,9178.553681
3543.794266,306.438199,-370.102971,9548.656652
3543.794580,306.438199,-370.102971,9622.677246
3543.794894,0.000000,-518.144159,9844.739029
3543.795208,0.000000,-370.102971,9622.677246
3543.795522,536.266849,-370.102971,9548.656652
3543.795836,0.000000,-370.102971,9548.656652
3543.796150,153.219100,-370.102971,9252.574275
3543.796464,306.438199,-592.164754,9178.553681
3543.796778,536.266849,-592.164754,9178.553681
3543.797092,536.266849,-888.247130,9252.574275
3543.797406,76.609550,-1184.329507,8956.491898
3543.797720,306.438199,-592.164754,9400.615463
3543.798034,-153.219100,-1110.308913,9844.739029
3543.798348,0.000000,-962.267725,9474.636058
3543.798662,0.000000,-888.247130,9474.636058
3543.798976,-383.047749,-740.205942,9770.718434
3543.799290,0.000000,-592.164754,9992.780217
3543.799604,0.000000,-148.041188,9770.718434
3543.799918,229.828649,-148.041188,9548.656652
3543.800232,459.657299,-444.123565,9696.697840
3543.800546,536.266849,-74.020594,9326.594869
3543.800860,383.047749,-0.000000,9252.574275
3543.801174,536.266849,-0.000000,9696.697840
3543.801488,306.438199,296.082377,9326.594869
3543.801802,306.438199,-0.000000,9400.615463
3543.802116,153.219100,-0.000000,9474.636058
3543.802430,76.609550,296.082377,9770.718434
3543.802744,0.000000,296.082377,9474.636058
3543.803058,-229.828649,-0.000000,9326.594869
3543.803372,0.000000,518.144159,9770.718434
3543.803686,-383.047749,518.144159,9918.759623
3543.804000,0.000000,740.205942,9474.636058
3543.804314,153.219100,814.226536,9474.636058
3543.804628,76.609550,962.267725,9326.594869
3543.804942,306.438199,962.267725,9474.636058
3543.805256,306.438199,1332.370696,9548.656652
3543.805570,0.000000,1110.308913,9622.677246
3543.805884,0.000000,962.267725,9548.656652
3543.806198,0.000000,1258.350101,9474.636058
3543.806512,-306.438199,666.185348,9918.759623
3543.806826,-306.438199,814.226536,10362.883188
3543.807140,-459.657299,518.144159,10214.842000
3543.807454,0.000000,444.123565,9844.739029
3543.807768,153.219100,666.185348,9770.718434
3543.808082,229.828649,740.205942,9400.615463
3543.808396,306.438199,1036.288319,9474.636058
3543.808710,229.828649,888.247130,9770.718434
3543.809024,229.828649,814.226536,9696.697840
3543.809338,383.047749,962.267725,9326.594869
3543.809652,76.609550,1184.329507,9548.656652
3543.809966,229.828649,592.164754,9696.697840
3543.810280,459.657299,518.144159,10140.821405
3543.810594,229.828649,444.123565,9770.718434
3543.810908,153.219100,148.041188,10436.903782
3543.811222,76.609550,296.082377,9992.780217
3543.811536,76.609550,296.082377,9622.677246
3543.811850,0.000000,518.144159,10066.800811
3543.812164,383.047749,666.185348,9474.636058
3543.812478,229.828649,444.123565,9326.594869
3543.812792,612.876398,222.061783,9400.615463
3543.813106,536.266849,296.082377,9326.594869
3543.813420,229.828649,370.102971,9474.636058
3543.813734,76.609550,444.123565,9474.636058
3543.814048,153.219100,-0.000000,9622.677246
3543.814362,76.609550,-0.000000,9622.677246
3543.814676,153.219100,222.061783,9770.718434
3543.814990,153.219100,-0.000000,9696.697840
3543.815304,0.000000,-0.000000,9474.636058
3543.815618,306.438199,-74.020594,9400.615463
3543.815932,76.609550,-0.000000,9400.615463
3543.816246,229.828649,-0.000000,9622.677246
3543.816560,-229.828649,-296.082377,9474.636058
3543.816874,-306.438199,-0.000000,9030.512492
3543.817188,-153.219100,-0.000000,8956.491898
3543.817502,-229.828649,-74.020594,9474.636058
3543.817816,-383.047749,-592.164754,9844.739029
3543.818130,-1225.752797,-1258.350101,10288.862594
3543.818444,-766.095498,-1258.350101,10066.800811
3543.818758,-459.657299,-1036.288319,10288.862594
3543.819072,-383.047749,-518.144159,10288.862594
3543.819386,0.000000,-518.144159,9918.759623
3543.819700,0.000000,-0.000000,9918.759623
3543.820014,76.609550,-74.020594,9400.615463
3543.820328,1149.143247,222.061783,8734.430116
3543.820642,842.705048,-74.020594,8586.388927
3543.820956,1072.533697,-370.102971,8734.430116
3543.821270,1072.533697,-888.247130,8438.347739
3543.821584,689.485948,-1184.329507,9030.512492
3543.821898,306.438199,-1110.308913,9548.656652
3543.822212,0.000000,-1332.370696,9548.656652
3543.822526,-536.266849,-1184.329507,10214.842000
3543.822840,-612.876398,-1110.308913,9918.759623
3543.823154,-306.438199,-740.205942,10214.842000
3543.823468,0.000000,-148.041188,10066.800811
3543.823782,76.609550,-0.000000,9622.677246
3543.824096,612.876398,-0.000000,9474.636058
3543.824410,766.095498,-0.000000,9178.553681
3543.824724,842.705048,296.082377,8956.491898
3543.825038,842.705048,518.144159,9178.553681
3543.825352,995.924147,592.164754,9326.594869
3543.825666,919.314598,370.102971,9104.533087
3543.825980,306.438199,-0.000000,8956.491898
3543.826294,-306.438199,-0.000000,9770.718434
3543.826608,-536.266849,-0.000000,9918.759623
3543.826922,-766.095498,-148.041188,9918.759623
3543.827236,-383.047749,-0.000000,10140.821405
3543.827550,-229.828649,444.123565,10066.800811
3543.827864,0.000000,518.144159,9326.594869
3543.828178,76.609550,740.205942,9400.615463
3543.828492,383.047749,1184.329507,9474.636058
3543.828806,459.657299,1406.391290,9104.533087
3543.829120,612.876398,1776.494261,8882.471304
3543.829434,536.266849,1332.370696,9252.574275
3543.829748,766.095498,1258.350101,9622.677246
3543.830062,229.828649,1258.350101,9770.718434
3543.830376,306.438199,814.226536,9992.780217
3543.830690,-383.047749,888.247130,10436.903782
3543.831004,-383.047749,962.267725,10362.883188
3543.831318,-306.438199,814.226536,10214.842000
3543.831632,-306.438199,740.205942,10436.903782
3543.831946,0.000000,444.123565,10066.800811
3543.832260,76.609550,888.247130,9622.677246
3543.832574,0.000000,888.247130,9622.677246
3543.832888,229.828649,888.247130,9548.656652
3543.833202,306.438199,666.185348,9252.574275
3543.833516,612.876398,592.164754,9844.739029
3543.833830,0.000000,814.226536,9770.718434
3543.834144,153.219100,592.164754,10066.800811
3543.834458,0.000000,518.144159,10362.883188
3543.834772,-229.828649,518.144159,10436.903782
3543.835086,-766.095498,296.082377,10510.924376
3543.835400,-459.657299,370.102971,9992.780217
3543.835714,0.000000,444.123565,10066.800811
3543.836028,76.609550,296.082377,10288.862594
3543.836342,0.000000,518.144159,9622.677246
3543.836656,0.000000,518.144159,9622.677246
3543.836970,153.219100,222.061783,9474.636058
3543.837284,76.609550,222.061783,9770.718434
3543.837598,153.219100,-0.000000,9474.636058
3543.837912,0.000000,-74.020594,9474.636058
3543.838226,383.047749,-0.000000,9252.574275
3543.838540,0.000000,148.041188,8956.491898
3543.838854,306.438199,-0.000000,9326.594869
3543.839168,-229.828649,-222.061783,9474.636058
3543.839482,0.000000,-148.041188,9252.574275
3543.839796,229.828649,-222.061783,8882.471304
3543.840110,0.000000,-148.041188,9252.574275
3543.840424,153.219100,-296.082377,9474.636058
3543.840738,153.219100,-370.102971,9104.533087
3543.841052,0.000000,-518.144159,9104.533087
3543.841366,306.438199,-370.102971,9770.718434
3543.841680,0.000000,-666.185348,9474.636058
3543.841994,-383.047749,-370.102971,9770.718434
3543.842308,0.000000,-444.123565,9844.739029
3543.842622,0.000000,-814.226536,9770.718434
3543.842936,153.219100,-444.123565,9252.574275
3543.843251,306.438199,-222.061783,9178.553681
3543.843565,383.047749,-222.061783,9326.594869
3543.843879,306.438199,-518.144159,8956.491898
3543.844193,306.438199,-518.144159,8808.450710
3543.844507,0.000000,-962.267725,8660.409521
3543.844821,153.219100,-1110.308913,9326.594869
3543.845135,306.438199,-740.205942,9622.677246
3543.845449,153.219100,-814.226536,10066.800811
3543.845763,-229.828649,-592.164754,10288.862594
3543.846077,0.000000,-444.123565,9844.739029
3543.846391,0.000000,-370.102971,9844.739029
3543.846705,229.828649,-296.082377,9992.780217
3543.847019,383.047749,-592.164754,9474.636058
3543.847333,76.609550,-0.000000,9696.697840
3543.847647,383.047749,-0.000000,9474.636058
3543.847961,536.266849,222.061783,9622.677246
3543.848275,536.266849,296.082377,9252.574275
3543.848589,306.438199,296.082377,9474.636058
3543.848903,76.609550,-0.000000,9696.697840
3543.849217,0.000000,-0.000000,9622.677246
3543.849531,76.609550,222.061783,9622.677246
3543.849845,-229.828649,222.061783,9992.780217
3543.850159,-306.438199,222.061783,10066.800811
3543.850473,-153.219100,370.102971,9622.677246
3543.850787,0.000000,444.123565,9474.636058
3543.851101,229.828649,444.123565,9474.636058
3543.851415,76.609550,888.247130,9770.718434
3543.851729,153.219100,814.226536,9400.615463
3543.852043,229.828649,1110.308913,9474.636058
3543.852357,536.266849,1406.391290,9622.677246
3543.852671,536.266849,1110.308913,9474.636058
3543.852985,0.000000,814.226536,9474.636058
3543.853299,153.219100,1184.329507,9474.636058
3543.853613,0.000000,1036.288319,9844.739029
3543.853927,0.000000,1036.288319,9770.718434
3543.854241,383.047749,666.185348,10140.821405
3543.854555,536.266849,666.185348,9844.739029
3543.854869,0.000000,370.102971,10288.862594
3543.855183,0.000000,592.164754,9992.780217
3543.855497,0.000000,740.205942,9918.759623
3543.855811,383.047749,814.226536,9844.739029
3543.856125,229.828649,962.267725,9622.677246
3543.856439,459.657299,814.226536,9770.718434
3543.856753,612.876398,814.226536,9548.656652
3543.857067,536.266849,592.164754,9178.553681
3543.857381,383.047749,814.226536,9696.697840
3543.857696,306.438199,814.226536,10066.800811
3543.858010,0.000000,370.102971,9992.780217
3543.858324,-306.438199,370.102971,9770.718434
3543.858638,0.000000,148.041188,9992.780217
3543.858952,0.000000,296.082377,9770.718434
3543.859266,229.828649,518.144159,9844.739029
3543.859580,229.828649,444.123565,10066.800811
3543.859894,153.219100,444.123565,9548.656652
3543.860208,229.828649,518.144159,9622.677246
3543.860522,229.828649,666.185348,9844.739029
3543.860836,306.438199,-148.041188,9178.553681
3543.861150,76.609550,-0.000000,9326.594869
3543.861464,153.219100,222.061783,9474.636058
3543.861778,0.000000,-0.000000,9400.615463
3543.862092,0.000000,222.061783,9400.615463
3543.862406,153.219100,-148.041188,9326.594869
3543.862720,0.000000,-148.041188,9474.636058
3543.863034,0.000000,-74.020594,9474.636058
3543.863348,0.000000,-74.020594,9400.615463
3543.863662,76.609550,-222.061783,9030.512492
3543.863976,0.000000,-222.061783,8734.430116
3543.864290,0.000000,-444.123565,8512.368333
3543.864604,-383.047749,-222.061783,9178.553681
3543.864918,-459.657299,-666.185348,9696.697840
3543.865232,-459.657299,-888.247130,9844.739029
3543.865546,-459.657299,-888.247130,10288.862594
3543.865860,-612.876398,-666.185348,10066.800811
3543.866174,-536.266849,-666.185348,10066.800811
3543.866488,0.000000,-444.123565,10436.903782
3543.866802,383.047749,-74.020594,9844.739029
3543.867116,689.485948,-0.000000,9252.574275
3543.867430,766.095498,222.061783,8734.430116
3543.867744,995.924147,-0.000000,8364.327145
3543.868058,1072.533697,-370.102971,8364.327145
3543.868372,1149.143247,-740.205942,8956.491898
3543.868686,536.266849,-1036.288319,9474.636058
3543.869000,0.000000,-1332.370696,9474.636058
3543.869314,-306.438199,-1554.432478,10066.800811
3543.869628,-536.266849,-1110.308913,10362.883188
3543.869942,-383.047749,-962.267725,10584.944971
3543.870256,0.000000,-518.144159,10214.842000
3543.870570,0.000000,-296.082377,9992.780217
3543.870884,229.828649,-74.020594,9770.718434
3543.871198,536.266849,370.102971,9474.636058
3543.871512,1225.752797,74.020594,8808.450710
3543.871827,1149.143247,370.102971,8808.450710
3543.872141,1149.143247,222.061783,8808.450710
3543.872455,766.095498,222.061783,9104.533087
3543.872769,919.314598,370.102971,9474.636058
3543.873083,0.000000,-0.000000,9548.656652
3543.873397,0.000000,-0.000000,9844.739029
3543.873711,-229.828649,-0.000000,9770.718434
3543.874025,-459.657299,-74.020594,10066.800811
3543.874339,-229.828649,-0.000000,9622.677246
3543.874653,-612.876398,222.061783,9770.718434
3543.874967,0.000000,592.164754,9400.615463
3543.875281,612.876398,1036.288319,9252.574275
3543.875595,689.485948,888.247130,8808.450710
3543.875909,1302.362347,1332.370696,8734.430116
3543.876223,842.705048,1480.411884,9030.512492
3543.876537,689.485948,1406.391290,9178.553681
3543.876851,383.047749,1406.391290,9696.697840
3543.877165,0.000000,1036.288319,10140.821405
3543.877479,-153.219100,1110.308913,10288.862594
3543.877793,-383.047749,592.164754,10510.924376
3543.878107,-612.876398,740.205942,10288.862594
3543.878421,-612.876398,740.205942,10140.821405
3543.878735,-383.047749,666.185348,9918.759623
3543.879049,-459.657299,740.205942,10066.800811
3543.879363,0.000000,592.164754,9474.636058
3543.879677,-229.828649,740.205942,9474.636058
3543.879991,0.000000,888.247130,9770.718434
3543.880305,459.657299,888.247130,9844.739029
3543.880619,0.000000,962.267725,9992.780217
3543.880933,153.219100,666.185348,9696.697840
3543.881247,-229.828649,740.205942,10066.800811
3543.881561,-229.828649,888.247130,10288.862594
3543.881875,-229.828649,962.267725,10436.903782
3543.882189,-459.657299,666.185348,10362.883188
3543.882503,-459.657299,592.164754,10214.842000
3543.882817,-229.828649,148.041188,9844.739029
3543.883131,-459.657299,-0.000000,9918.759623
3543.883445,-229.828649,-0.000000,9992.780217
3543.883759,229.828649,148.041188,9548.656652
3543.884073,0.000000,-0.000000,9474.636058
3543.884387,306.438199,370.102971,9474.636058
3543.884701,306.438199,-0.000000,9474.636058
3543.885015,536.266849,296.082377,9104.533087
3543.885329,306.438199,-0.000000,9696.697840
3543.885643,383.047749,444.123565,9178.553681
3543.885957,229.828649,-0.000000,9178.553681
3543.886272,459.657299,-74.020594,9474.636058
3543.886586,229.828649,-222.061783,9474.636058
3543.886900,306.438199,-666.185348,9474.636058
3543.887214,306.438199,-296.082377,9252.574275
3543.887528,229.828649,-370.102971,9104.533087
3543.887842,76.609550,-444.123565,9326.594869
3543.888156,76.609550,-888.247130,9474.636058
3543.888470,0.000000,-1036.288319,9030.512492
3543.888784,0.000000,-296.082377,9474.636058
3543.889098,0.000000,-296.082377,9918.759623
3543.889412,0.000000,-370.102971,9622.677246
3543.889726,383.047749,-592.164754,9474.636058
3543.890040,229.828649,-444.123565,9400.615463
3543.890354,383.047749,-222.061783,8956.491898
3543.890668,536.266849,-296.082377,8956.491898
3543.890982,536.266849,-296.082377,9252.574275
3543.891296,306.438199,-1036.288319,9252.574275
3543.891610,383.047749,-592.164754,9030.512492
3543.891924,0.000000,-740.205942,9400.615463
3543.892238,76.609550,-1110.308913,9622.677246
3543.892552,0.000000,-666.185348,9844.739029
3543.892866,-229.828649,-1036.288319,10066.800811
3543.893180,-153.219100,-888.247130,9770.718434
3543.893494,0.000000,-592.164754,9918.759623
3543.893808,0.000000,-444.123565,9696.697840
3543.894122,229.828649,-148.041188,9696.697840
3543.894436,383.047749,-296.082377,9474.636058
3543.894750,229.828649,-222.061783,9326.594869
3543.895064,153.219100,296.082377,9252.574275
3543.895378,383.047749,148.041188,9474.636058
3543.895692,536.266849,-0.000000,9474.636058
3543.896006,536.266849,-74.020594,9622.677246
3543.896320,0.000000,-0.000000,9548.656652
3543.896634,153.219100,444.123565,9548.656652
3543.896948,0.000000,-0.000000,9474.636058
3543.897262,-766.095498,-0.000000,9918.759623
3543.897576,-536.266849,148.041188,10362.883188
3543.897890,0.000000,444.123565,9400.615463
3543.898204,0.000000,518.144159,9400.615463
3543.898518,536.266849,1036.288319,9474.636058
3543.898832,383.047749,1036.288319,9474.636058
3543.899146,229.828649,888.247130,9030.512492
3543.899460,459.657299,1184.329507,8956.491898
3543.899774,306.438199,1184.329507,9696.697840
3543.900088,306.438199,1184.329507,9548.656652
3543.900402,459.657299,1258.350101,10214.842000
3543.900717,-383.047749,740.205942,9992.780217
3543.901031,-229.828649,814.226536,9918.759623
3543.901345,0.000000,962.267725,10362.883188
3543.901659,0.000000,1110.308913,10140.821405
3543.901973,0.000000,888.247130,10436.903782
3543.902287,229.828649,1036.288319,9844.739029
3543.902601,76.609550,740.205942,9474.636058
3543.902915,229.828649,814.226536,9696.697840
3543.903229,536.266849,1036.288319,9992.780217
3543.903543,306.438199,962.267725,9622.677246
3543.903857,153.219100,814.226536,9696.697840
3543.904171,76.609550,666.185348,9548.656652
3543.904485,0.000000,148.041188,9474.636058
3543.904799,229.828649,740.205942,10214.842000
3543.905113,76.609550,444.123565,10288.862594
3543.905427,0.000000,444.123565,9844.739029
3543.905741,0.000000,518.144159,9696.697840
3543.906055,842.705048,-0.000000,9844.739029
3543.906369,229.828649,740.205942,9474.636058
3543.906683,383.047749,444.123565,9474.636058
3543.906997,153.219100,444.123565,9474.636058
