#time,accel_x,accel_y,accel_z
4213.717638,76.609550,222.061783,9474.636058
4213.717953,76.609550,-0.000000,9178.553681
4213.718269,612.876398,-0.000000,9696.697840
4213.718584,383.047749,518.144159,9622.677246
4213.718899,153.219100,370.102971,9474.636058
4213.719215,306.438199,222.061783,9918.759623
4213.719530,76.609550,222.061783,9326.594869
4213.719845,229.828649,-74.020594,9400.615463
4213.720161,76.609550,-74.020594,9770.718434
4213.720476,76.609550,-0.000000,9548.656652
4213.720791,306.438199,-0.000000,9474.636058
4213.721107,229.828649,-0.000000,9474.636058
4213.721422,536.266849,-0.000000,9696.697840
4213.721738,76.609550,222.061783,9696.697840
4213.722053,536.266849,518.144159,9326.594869
4213.722368,229.828649,370.102971,9548.656652
4213.722684,0.000000,-0.000000,9548.656652
4213.722999,229.828649,-222.061783,9844.739029
4213.723314,0.000000,148.041188,9622.677246
4213.723630,0.000000,222.061783,9696.697840
4213.723945,0.000000,370.102971,9770.718434
4213.724260,76.609550,296.082377,9474.636058
4213.724576,-153.219100,-0.000000,9918.759623
4213.724891,229.828649,148.041188,9770.718434
4213.725207,0.000000,74.020594,9326.594869
4213.725522,0.000000,74.020594,9622.677246
4213.725837,0.000000,370.102971,9622.677246
4213.726153,229.828649,-0.000000,10140.821405
4213.726468,0.000000,148.041188,9622.677246
4213.726783,0.000000,-0.000000,9474.636058
4213.727099,76.609550,-0.000000,9400.615463
4213.727414,306.438199,-0.000000,9548.656652
4213.727730,0.000000,-0.000000,9696.697840
4213.728045,0.000000,-0.000000,9622.677246
4213.728360,0.000000,148.041188,9548.656652
4213.728676,76.609550,222.061783,9474.636058
4213.728991,153.219100,-0.000000,9548.656652
4213.729306,0.000000,-0.000000,9622.677246
4213.729622,153.219100,-0.000000,9548.656652
4213.729937,76.609550,-0.000000,9548.656652
4213.730252,0.000000,-0.000000,9696.697840
4213.730568,0.000000,-0.000000,9104.533087
4213.730883,153.219100,-0.000000,9622.677246
4213.731199,0.000000,-0.000000,9696.697840
4213.731514,229.828649,-0.000000,9770.718434
4213.731829,229.828649,-0.000000,9474.636058
4213.732145,842.705048,-0.000000,9844.739029
4213.732460,153.219100,222.061783,9770.718434
4213.732775,76.609550,296.082377,9474.636058
4213.733091,229.828649,-0.000000,9474.636058
4213.733406,76.609550,148.041188,9918.759623
4213.733721,153.219100,-0.000000,9844.739029
4213.734037,0.000000,222.061783,9696.697840
4213.734352,0.000000,148.041188,9770.718434
4213.734668,229.828649,-0.000000,9622.677246
4213.734983,153.219100,-0.000000,9474.636058
4213.735298,0.000000,-0.000000,9178.553681
4213.735614,76.609550,148.041188,9548.656652
4213.735929,76.609550,518.144159,9622.677246
4213.736244,0.000000,148.041188,9548.656652
4213.736560,153.219100,-0.000000,9474.636058
4213.736875,0.000000,222.061783,9844.739029
4213.737191,0.000000,222.061783,9770.718434
4213.737506,76.609550,-0.000000,9474.636058
4213.737821,0.000000,222.061783,9326.594869
4213.738137,-153.219100,222.061783,9474.636058
4213.738452,153.219100,-74.020594,9918.759623
4213.738767,0.000000,-0.000000,9992.780217
4213.739083,0.000000,-0.000000,9622.677246
4213.739398,0.000000,-0.000000,9400.615463
4213.739713,0.000000,-148.041188,9844.739029
4213.740029,0.000000,296.082377,9696.697840
4213.740344,306.438199,-0.000000,9252.574275
4213.740660,383.047749,-0.000000,9474.636058
4213.740975,153.219100,-0.000000,9548.656652
4213.741290,0.000000,444.123565,9474.636058
4213.741606,-153.219100,370.102971,9326.594869
4213.741921,-153.219100,296.082377,9548.656652
4213.742236,0.000000,-0.000000,9474.636058
4213.742552,-383.047749,518.144159,9252.574275
4213.742867,-229.828649,-0.000000,9622.677246
4213.743182,-842.705048,518.144159,9770.718434
4213.743498,-919.314598,518.144159,9400.615463
4213.743813,-612.876398,296.082377,9474.636058
4213.744129,-689.485948,444.123565,9474.636058
4213.744444,0.000000,518.144159,9770.718434
4213.744759,-612.876398,666.185348,9548.656652
4213.745075,-612.876398,962.267725,9770.718434
4213.745390,-383.047749,1110.308913,9326.594869
4213.745705,-689.485948,1036.288319,9474.636058
4213.746021,-1072.533697,1036.288319,9326.594869
4213.746336,-1532.190996,1036.288319,9030.512492
4213.746652,-1608.800546,1406.391290,9178.553681
4213.746967,-1991.848295,1110.308913,9326.594869
4213.747282,-2145.067394,1258.350101,9548.656652
4213.747598,-2681.334243,1036.288319,9770.718434
4213.747913,-2911.162892,1332.370696,9474.636058
4213.748228,-2987.772442,1258.350101,9770.718434
4213.748544,-3064.381992,1628.453072,10066.800811
4213.748859,-2834.553343,1850.514855,9622.677246
4213.749174,-2834.553343,1998.556043,9326.594869
4213.749490,-3064.381992,2146.597232,9548.656652
4213.749805,-2681.334243,2738.761985,9474.636058
4213.750121,-2451.505594,2738.761985,9252.574275
4213.750436,-2374.896044,2738.761985,9252.574275
4213.750751,-2221.676944,3108.864956,9474.636058
4213.751067,-2451.505594,2960.823768,9474.636058
4213.751382,-2451.505594,2442.679609,9474.636058
4213.751697,-2374.896044,2590.720797,10214.842000
4213.752013,-2145.067394,2442.679609,10362.883188
4213.752328,-2145.067394,2146.597232,9918.759623
4213.752643,-1608.800546,2368.659014,9844.739029
4213.752959,-1302.362347,2516.700203,9548.656652
4213.753274,-1608.800546,2590.720797,9104.533087
4213.753590,-842.705048,3552.988522,9252.574275
4213.753905,-995.924147,3923.091493,8882.471304
4213.754220,-995.924147,4367.215058,8586.388927
4213.754536,-995.924147,3997.112087,8438.347739
4213.754851,-1838.629195,3404.947333,9474.636058
4213.755166,-2374.896044,3108.864956,10362.883188
4213.755482,-2757.943793,2886.803174,10881.027347
4213.755797,-2528.115143,2590.720797,11399.171507
4213.756113,-2987.772442,2072.576638,11251.130318
4213.756428,-2681.334243,2960.823768,11473.192101
4213.756743,-2221.676944,3478.967927,10807.006753
4213.757059,-2068.457845,4145.153275,10066.800811
4213.757374,-1762.019645,4663.297435,9400.615463
4213.757689,-1378.971896,4737.318029,8660.409521
4213.758005,-1762.019645,4441.235652,9030.512492
4213.758320,-2068.457845,3997.112087,8660.409521
4213.758635,-2374.896044,3552.988522,9178.553681
4213.758951,-2528.115143,2812.782580,9918.759623
4213.759266,-2298.286494,1924.535449,10658.965565
4213.759582,-2604.724693,1702.473667,11251.130318
4213.759897,-2604.724693,1554.432478,11103.089130
4213.760212,-1915.238745,1998.556043,11029.068536
4213.760528,-1149.143247,2220.617826,10732.986159
4213.760843,-306.438199,2072.576638,9622.677246
4213.761158,76.609550,2960.823768,8882.471304
4213.761474,383.047749,3330.926739,8512.368333
4213.761789,536.266849,3849.070898,7994.224174
4213.762104,229.828649,3478.967927,7550.100608
4213.762420,0.000000,3478.967927,7846.182985
4213.762735,-1608.800546,2664.741391,8734.430116
4213.763051,-2374.896044,2220.617826,9326.594869
4213.763366,-3600.648841,1332.370696,9844.739029
4213.763681,-4290.134789,592.164754,10881.027347
4213.763997,-4596.572988,74.020594,11473.192101
4213.764312,-4213.525239,-0.000000,11547.212695
4213.764627,-4136.915689,296.082377,11473.192101
4213.764943,-3370.820191,888.247130,11251.130318
4213.765258,-2604.724693,1184.329507,10510.924376
4213.765573,-383.047749,2220.617826,9844.739029
4213.765889,153.219100,2664.741391,9474.636058
4213.766204,842.705048,3552.988522,8660.409521
4213.766520,536.266849,3478.967927,8364.327145
4213.766835,153.219100,2886.803174,7550.100608
4213.767150,-689.485948,2368.659014,7624.121203
4213.767466,-1608.800546,2220.617826,7772.162391
4213.767781,-2604.724693,592.164754,8364.327145
4213.768096,-3753.867940,-0.000000,8808.450710
4213.768412,-4903.011187,-370.102971,9252.574275
4213.768727,-4903.011187,-1628.453072,11473.192101
4213.769043,-5592.497135,-1036.288319,10658.965565
4213.769358,-5286.058936,-1036.288319,11769.274478
4213.769673,-3830.477490,-962.267725,11917.315666
4213.769989,-2145.067394,-518.144159,12213.398043
4213.770304,0.000000,1184.329507,10658.965565
4213.770619,1762.019645,2368.659014,9178.553681
4213.770935,2451.505594,4885.359217,7105.977043
4213.771250,2604.724693,5847.626942,6661.853478
4213.771565,2221.676944,6439.791695,4959.379811
4213.771881,1149.143247,5403.503377,5181.441594
4213.772196,-842.705048,4441.235652,5847.626942
4213.772512,-3217.601092,2220.617826,8216.285956
4213.772827,-5515.887586,-1110.308913,10881.027347
4213.773142,-6511.811733,-3849.070898,12805.562797
4213.773458,-7277.907231,-4737.318029,13397.727550
4213.773773,-7201.297681,-4515.256246,14804.118840
4213.774088,-5362.668486,-3108.864956,14063.912898
4213.774404,-3294.210641,-74.020594,11399.171507
4213.774719,0.000000,3627.009116,8068.244768
4213.775034,2298.286494,6735.874072,6291.750507
4213.775350,3140.991542,9992.780217,4367.215058
4213.775665,2681.334243,10288.862594,3849.070898
4213.775981,1838.629195,8882.471304,4663.297435
4213.776296,0.000000,6069.688724,7550.100608
4213.776611,-1608.800546,3330.926739,10807.006753
4213.776927,-3600.648841,-814.226536,13693.809927
4213.777242,-5439.278036,-2812.782580,15322.262999
4213.777557,-5592.497135,-3182.885551,16284.530724
4213.777873,-4903.011187,-2368.659014,13841.851115
4213.778188,-3830.477490,-740.205942,11029.068536
4213.778504,-2145.067394,2590.720797,10140.821405
4213.778819,-1302.362347,5477.523971,7920.203579
4213.779134,0.000000,7254.018232,4737.318029
4213.779450,1072.533697,7550.100608,4737.318029
4213.779765,153.219100,7402.059420,5551.544565
4213.780080,-1378.971896,5329.482782,7846.182985
4213.780396,-1991.848295,2812.782580,9400.615463
4213.780711,-2298.286494,1258.350101,11473.192101
4213.781026,-1991.848295,370.102971,12361.439231
4213.781342,-3064.381992,444.123565,13545.768739
4213.781657,-3600.648841,962.267725,12953.603985
4213.781973,-3524.039291,1332.370696,12509.480420
4213.782288,-3064.381992,3182.885551,10955.047942
4213.782603,-3217.601092,3849.070898,8882.471304
4213.782919,-3294.210641,3552.988522,8438.347739
4213.783234,-2068.457845,3701.029710,7624.121203
4213.783549,-1532.190996,3627.009116,7179.997637
4213.783865,-1532.190996,3997.112087,7550.100608
4213.784180,-2221.676944,3404.947333,9474.636058
4213.784495,-2145.067394,2738.761985,10140.821405
4213.784811,-2604.724693,1924.535449,11621.233289
4213.785126,-2221.676944,1332.370696,11473.192101
4213.785442,-1991.848295,222.061783,11473.192101
4213.785757,-995.924147,-0.000000,10510.924376
4213.786072,-1302.362347,1850.514855,9326.594869
4213.786388,-1915.238745,3627.009116,8586.388927
4213.786703,-1302.362347,4293.194464,7402.059420
4213.787018,-1302.362347,5255.462188,7179.997637
4213.787334,-2145.067394,5477.523971,7698.141797
4213.787649,-3064.381992,3182.885551,8956.491898
4213.787965,-3064.381992,1332.370696,10140.821405
4213.788280,-2834.553343,-0.000000,11547.212695
4213.788595,-2834.553343,-962.267725,12213.398043
4213.788911,-2604.724693,-1258.350101,13027.624579
4213.789226,-1455.581446,-0.000000,12657.521608
4213.789541,-919.314598,1776.494261,10658.965565
4213.789856,536.266849,3256.906145,8586.388927
4213.790172,1991.848295,4293.194464,6883.915261
4213.790487,1532.190996,4885.359217,6069.688724
4213.790802,766.095498,4737.318029,5625.565159
4213.791118,-536.266849,3627.009116,6217.729913
4213.791433,-2681.334243,2960.823768,7476.080014
4213.791748,-3447.429741,518.144159,9474.636058
4213.792063,-3370.820191,-1258.350101,11399.171507
4213.792379,-3753.867940,-2220.617826,12435.459826
4213.792694,-3753.867940,-2368.659014,13471.748144
4213.793009,-3983.696590,-2072.576638,13841.851115
4213.793324,-3830.477490,-370.102971,12509.480420
4213.793640,-3370.820191,1850.514855,11473.192101
4213.793955,-766.095498,3330.926739,9252.574275
4213.794270,229.828649,4367.215058,6883.915261
4213.794586,1838.629195,4811.338623,5699.585753
4213.794901,1225.752797,3997.112087,6513.812290
4213.795216,-766.095498,4515.256246,6513.812290
4213.795531,-2374.896044,2960.823768,8216.285956
4213.795847,-2221.676944,1184.329507,9622.677246
4213.796162,-2374.896044,-740.205942,11177.109724
4213.796477,-2374.896044,-2368.659014,11991.336260
4213.796792,-3217.601092,-3478.967927,13101.645173
4213.797108,-4903.011187,-1850.514855,12731.542202
4213.797423,-4519.963438,-222.061783,11769.274478
4213.797738,-2911.162892,1110.308913,9992.780217
4213.798054,-766.095498,3330.926739,7624.121203
4213.798369,995.924147,3552.988522,7624.121203
4213.798684,1302.362347,4145.153275,7031.956449
4213.798999,-153.219100,4737.318029,7328.038826
4213.799315,153.219100,4219.173869,8512.368333
4213.799630,689.485948,3330.926739,9474.636058
4213.799945,689.485948,1850.514855,10362.883188
4213.800260,1149.143247,-222.061783,11251.130318
4213.800576,0.000000,-1258.350101,11695.253884
4213.800891,-2145.067394,-592.164754,11843.295072
4213.801206,-2451.505594,444.123565,9844.739029
4213.801522,-1915.238745,1850.514855,8882.471304
4213.801837,-1072.533697,2442.679609,7624.121203
4213.802152,-536.266849,1480.411884,7550.100608
4213.802467,-1762.019645,1998.556043,7624.121203
4213.802783,-2604.724693,1480.411884,8808.450710
4213.803098,-2068.457845,1480.411884,10214.842000
4213.803413,-842.705048,1850.514855,10584.944971
4213.803728,536.266849,370.102971,11251.130318
4213.804044,842.705048,-0.000000,11991.336260
4213.804359,-536.266849,296.082377,11695.253884
4213.804674,153.219100,888.247130,10881.027347
4213.804990,1685.410096,1998.556043,9992.780217
4213.805305,1915.238745,3256.906145,8438.347739
4213.805620,2145.067394,2664.741391,7402.059420
4213.805935,536.266849,2442.679609,7105.977043
4213.806251,-1302.362347,1110.308913,8142.265362
4213.806566,-1149.143247,-444.123565,8882.471304
4213.806881,-1455.581446,-740.205942,9844.739029
4213.807196,-1302.362347,-2368.659014,11473.192101
4213.807512,-1762.019645,-2442.679609,12139.377449
4213.807827,-2451.505594,-1628.453072,11103.089130
4213.808142,-1762.019645,-1628.453072,11843.295072
4213.808458,0.000000,-222.061783,10807.006753
4213.808773,1762.019645,740.205942,9696.697840
4213.809088,2604.724693,2442.679609,7994.224174
4213.809403,1302.362347,3701.029710,7105.977043
4213.809719,842.705048,3627.009116,7179.997637
4213.810034,1225.752797,3256.906145,7846.182985
4213.810349,995.924147,2368.659014,8808.450710
4213.810664,919.314598,444.123565,9992.780217
4213.810980,-1685.410096,-592.164754,10066.800811
4213.811295,-2987.772442,-1850.514855,10881.027347
4213.811610,-2528.115143,-2516.700203,11917.315666
4213.811926,-1991.848295,-3256.906145,12065.356855
4213.812241,-383.047749,-2960.823768,11177.109724
4213.812556,-689.485948,-1924.535449,10214.842000
4213.812871,-919.314598,444.123565,8438.347739
4213.813187,229.828649,2072.576638,7328.038826
4213.813502,1608.800546,2812.782580,6735.874072
4213.813817,2528.115143,2368.659014,7476.080014
4213.814132,2911.162892,1406.391290,7254.018232
4213.814448,1915.238745,1036.288319,8068.244768
4213.814763,459.657299,-74.020594,8956.491898
4213.815078,766.095498,-666.185348,10288.862594
4213.815394,1149.143247,-1702.473667,10658.965565
4213.815709,842.705048,-3034.844362,11695.253884
4213.816024,383.047749,-2368.659014,11769.274478
4213.816339,-1225.752797,-1850.514855,10066.800811
4213.816655,-153.219100,-666.185348,9474.636058
4213.816970,306.438199,-0.000000,9474.636058
4213.817285,1149.143247,-0.000000,9030.512492
4213.817600,1455.581446,222.061783,7698.141797
4213.817916,0.000000,666.185348,7772.162391
4213.818231,153.219100,-148.041188,8734.430116
4213.818546,612.876398,-444.123565,9474.636058
4213.818862,1915.238745,-1258.350101,9918.759623
4213.819177,995.924147,-2368.659014,11177.109724
4213.819492,536.266849,-888.247130,11251.130318
4213.819807,153.219100,-518.144159,9622.677246
4213.820123,76.609550,-740.205942,10881.027347
4213.820438,612.876398,-0.000000,9992.780217
4213.820753,383.047749,-666.185348,9474.636058
4213.821069,-306.438199,518.144159,8364.327145
4213.821384,-1915.238745,518.144159,8660.409521
4213.821699,-1455.581446,148.041188,8586.388927
4213.822014,-842.705048,-444.123565,9918.759623
4213.822330,-766.095498,-1036.288319,10955.047942
4213.822645,-1072.533697,-2072.576638,11769.274478
4213.822960,-1915.238745,-666.185348,11325.150913
4213.823275,-1378.971896,-1184.329507,11325.150913
4213.823591,766.095498,-296.082377,10955.047942
4213.823906,1608.800546,-74.020594,10140.821405
4213.824221,2221.676944,296.082377,8808.450710
4213.824537,1149.143247,1850.514855,7846.182985
4213.824852,766.095498,2220.617826,7328.038826
4213.825167,995.924147,2294.638420,6587.832884
4213.825482,919.314598,1406.391290,7550.100608
4213.825798,1532.190996,-592.164754,8512.368333
4213.826113,-536.266849,-962.267725,9474.636058
4213.826428,-1838.629195,-1628.453072,10584.944971
4213.826743,-1225.752797,-2220.617826,11251.130318
4213.827059,-766.095498,-1480.411884,11177.109724
4213.827374,536.266849,-1776.494261,11251.130318
4213.827689,689.485948,-222.061783,9918.759623
4213.828005,76.609550,1184.329507,9030.512492
4213.828320,1225.752797,1628.453072,8290.306550
4213.828635,2068.457845,3404.947333,7254.018232
4213.828950,2528.115143,3478.967927,7846.182985
4213.829266,2145.067394,1702.473667,8290.306550
4213.829581,689.485948,1184.329507,8660.409521
4213.829896,0.000000,814.226536,9548.656652
4213.830211,-383.047749,-0.000000,11103.089130
4213.830527,0.000000,-444.123565,11991.336260
4213.830842,-229.828649,-1406.391290,11991.336260
4213.831157,-1149.143247,-1850.514855,11473.192101
4213.831473,-1378.971896,-148.041188,10362.883188
4213.831788,-383.047749,592.164754,9400.615463
4213.832103,536.266849,1406.391290,8734.430116
4213.832418,1762.019645,1628.453072,8586.388927
4213.832734,1991.848295,1702.473667,8660.409521
4213.833049,612.876398,2368.659014,7994.224174
4213.833364,306.438199,1998.556043,8956.491898
4213.833679,459.657299,2146.597232,10288.862594
4213.833995,612.876398,222.061783,11103.089130
4213.834310,919.314598,-666.185348,11621.233289
4213.834625,-612.876398,-518.144159,11251.130318
4213.834941,-1455.581446,-148.041188,10881.027347
4213.835256,-612.876398,370.102971,11029.068536
4213.835571,-229.828649,1406.391290,10140.821405
4213.835886,306.438199,814.226536,9474.636058
4213.836202,-229.828649,1554.432478,8660.409521
4213.836517,-995.924147,1258.350101,8586.388927
4213.836832,-689.485948,1702.473667,8512.368333
4213.837147,76.609550,1332.370696,9326.594869
4213.837463,229.828649,-74.020594,9770.718434
4213.837778,-306.438199,-370.102971,10510.924376
4213.838093,-1762.019645,296.082377,10066.800811
4213.838409,-1608.800546,-592.164754,10066.800811
4213.838724,-1072.533697,-0.000000,9992.780217
4213.839039,153.219100,-0.000000,9770.718434
4213.839354,0.000000,-0.000000,9548.656652
4213.839670,-1225.752797,518.144159,9104.533087
4213.839985,-1532.190996,370.102971,8660.409521
4213.840300,-612.876398,592.164754,8734.430116
4213.840615,229.828649,296.082377,9474.636058
4213.840931,612.876398,-1110.308913,9770.718434
4213.841246,-229.828649,-592.164754,10066.800811
4213.841561,-1378.971896,-222.061783,9622.677246
4213.841877,-459.657299,-666.185348,9844.739029
4213.842192,536.266849,-222.061783,9770.718434
4213.842507,1685.410096,-1332.370696,9770.718434
4213.842822,1455.581446,-1406.391290,9770.718434
4213.843138,459.657299,-296.082377,9030.512492
4213.843453,689.485948,222.061783,8068.244768
4213.843768,1378.971896,518.144159,8808.450710
4213.844083,1991.848295,888.247130,8512.368333
4213.844399,1991.848295,-444.123565,9030.512492
4213.844714,306.438199,-222.061783,8882.471304
4213.845029,-306.438199,-444.123565,9696.697840
4213.845345,0.000000,-148.041188,9548.656652
4213.845660,842.705048,-1480.411884,10436.903782
4213.845975,995.924147,-2146.597232,10658.965565
4213.846290,153.219100,-1036.288319,10140.821405
4213.846606,-459.657299,-444.123565,9030.512492
4213.846921,383.047749,-222.061783,9474.636058
4213.847236,1915.238745,592.164754,9252.574275
4213.847551,2451.505594,222.061783,9104.533087
4213.847867,1455.581446,518.144159,9326.594869
4213.848182,383.047749,888.247130,9326.594869
4213.848497,383.047749,444.123565,9104.533087
4213.848813,842.705048,-0.000000,9252.574275
4213.849128,1685.410096,-888.247130,9918.759623
4213.849443,919.314598,-1258.350101,10066.800811
4213.849758,-536.266849,-814.226536,10140.821405
4213.850074,-995.924147,-962.267725,9474.636058
4213.850389,-229.828649,-592.164754,9844.739029
4213.850704,536.266849,-518.144159,10732.986159
4213.851019,995.924147,-518.144159,9252.574275
4213.851335,536.266849,-0.000000,9548.656652
4213.851650,-306.438199,1406.391290,7846.182985
4213.851965,229.828649,1554.432478,8586.388927
4213.852281,612.876398,1924.535449,8660.409521
4213.852596,1072.533697,592.164754,9474.636058
4213.852911,229.828649,370.102971,10288.862594
4213.853226,-1225.752797,-0.000000,10066.800811
4213.853542,-1915.238745,-0.000000,10362.883188
4213.853857,-1225.752797,-0.000000,11399.171507
4213.854172,-612.876398,-148.041188,11103.089130
4213.854487,-689.485948,-666.185348,10658.965565
4213.854803,-1532.190996,148.041188,10362.883188
4213.855118,-2221.676944,1332.370696,9400.615463
4213.855433,-1455.581446,1702.473667,9104.533087
4213.855749,-306.438199,1776.494261,8734.430116
4213.856064,0.000000,518.144159,9030.512492
4213.856379,-229.828649,444.123565,9474.636058
4213.856694,-2145.067394,296.082377,8956.491898
4213.857010,-1685.410096,-148.041188,10436.903782
4213.857325,-306.438199,-0.000000,10584.944971
4213.857640,229.828649,-370.102971,10584.944971
4213.857956,76.609550,-740.205942,10658.965565
4213.858271,-1149.143247,814.226536,9696.697840
4213.858586,-1072.533697,1036.288319,9844.739029
4213.858901,229.828649,1332.370696,9252.574275
4213.859217,1225.752797,1776.494261,8882.471304
4213.859532,1149.143247,740.205942,9104.533087
4213.859847,0.000000,1184.329507,8216.285956
4213.860162,-612.876398,1184.329507,8882.471304
4213.860478,229.828649,962.267725,9178.553681
4213.860793,766.095498,222.061783,10140.821405
4213.861108,1608.800546,-888.247130,10362.883188
4213.861424,1302.362347,-148.041188,10362.883188
4213.861739,-153.219100,962.267725,9474.636058
4213.862054,153.219100,1110.308913,8882.471304
4213.862369,1225.752797,1406.391290,9326.594869
4213.862685,2221.676944,1480.411884,9252.574275
4213.863000,1608.800546,740.205942,8734.430116
4213.863315,153.219100,1184.329507,9030.512492
4213.863630,-153.219100,814.226536,9474.636058
4213.863946,229.828649,444.123565,9992.780217
4213.864261,842.705048,-222.061783,10584.944971
4213.864576,612.876398,-1480.411884,10955.047942
4213.864892,153.219100,-666.185348,11251.130318
4213.865207,153.219100,-0.000000,9992.780217
4213.865522,919.314598,518.144159,9918.759623
4213.865837,1762.019645,1480.411884,9474.636058
4213.866153,2451.505594,666.185348,9400.615463
4213.866468,2374.896044,962.267725,8882.471304
4213.866783,1532.190996,962.267725,8586.388927
4213.867098,919.314598,888.247130,8660.409521
4213.867414,1455.581446,518.144159,9400.615463
4213.867729,1608.800546,-518.144159,10510.924376
4213.868044,919.314598,-1110.308913,10658.965565
4213.868360,-919.314598,-962.267725,9770.718434
4213.868675,-842.705048,-1258.350101,10658.965565
4213.868990,-766.095498,-1110.308913,10658.965565
4213.869305,0.000000,-740.205942,10584.944971
4213.869621,383.047749,-444.123565,10214.842000
4213.869936,-612.876398,296.082377,9474.636058
4213.870251,-1225.752797,666.185348,8882.471304
4213.870566,76.609550,740.205942,9178.553681
4213.870882,0.000000,814.226536,9696.697840
4213.871197,459.657299,444.123565,9770.718434
4213.871512,-229.828649,222.061783,9696.697840
4213.871828,-1532.190996,-0.000000,9474.636058
4213.872143,-1149.143247,-370.102971,10214.842000
4213.872458,-766.095498,-814.226536,9992.780217
4213.872773,-459.657299,-1258.350101,10140.821405
4213.873089,-995.924147,-1554.432478,9992.780217
4213.873404,-2221.676944,-592.164754,9400.615463
4213.873719,-1838.629195,-666.185348,9178.553681
4213.874034,-1072.533697,-222.061783,9252.574275
4213.874350,0.000000,-296.082377,9400.615463
4213.874665,459.657299,-740.205942,9252.574275
4213.874980,-689.485948,-148.041188,8956.491898
4213.875296,-1378.971896,-148.041188,8882.471304
4213.875611,-919.314598,-0.000000,9548.656652
4213.875926,536.266849,-0.000000,10066.800811
4213.876241,995.924147,-518.144159,10066.800811
4213.876557,0.000000,-222.061783,9696.697840
4213.876872,-1608.800546,-148.041188,9696.697840
4213.877187,-919.314598,222.061783,9474.636058
4213.877502,0.000000,666.185348,9474.636058
4213.877818,1072.533697,-666.185348,9474.636058
4213.878133,306.438199,-1776.494261,9474.636058
4213.878448,-919.314598,-592.164754,8956.491898
4213.878764,-1685.410096,-148.041188,8290.306550
4213.879079,-612.876398,-370.102971,9178.553681
4213.879394,1455.581446,-370.102971,9252.574275
4213.879709,1302.362347,-740.205942,9622.677246
4213.880025,995.924147,-888.247130,9252.574275
4213.880340,0.000000,-148.041188,8956.491898
4213.880655,459.657299,518.144159,9104.533087
4213.880970,2221.676944,962.267725,9696.697840
4213.881286,2145.067394,592.164754,9178.553681
4213.881601,1455.581446,444.123565,9104.533087
4213.881916,612.876398,1036.288319,9030.512492
4213.882232,995.924147,592.164754,9252.574275
4213.882547,1378.971896,1036.288319,9918.759623
4213.882862,1532.190996,-0.000000,10214.842000
4213.883177,842.705048,-518.144159,10881.027347
4213.883493,0.000000,-0.000000,9770.718434
4213.883808,-459.657299,148.041188,10214.842000
4213.884123,842.705048,370.102971,10214.842000
4213.884438,1225.752797,888.247130,10288.862594
4213.884754,1915.238745,370.102971,10066.800811
4213.885069,842.705048,1036.288319,9178.553681
4213.885384,612.876398,1110.308913,8956.491898
4213.885700,995.924147,1628.453072,8808.450710
4213.886015,1532.190996,1406.391290,9622.677246
4213.886330,1685.410096,1184.329507,9844.739029
4213.886645,306.438199,1036.288319,9844.739029
4213.886961,-612.876398,1184.329507,9548.656652
4213.887276,-1225.752797,296.082377,10436.903782
4213.887591,-689.485948,370.102971,10362.883188
4213.887906,0.000000,-148.041188,11103.089130
4213.888222,-383.047749,-518.144159,10732.986159
4213.888537,-995.924147,296.082377,9918.759623
4213.888852,-1608.800546,1184.329507,9474.636058
4213.889168,-536.266849,1406.391290,8956.491898
4213.889483,153.219100,1332.370696,9918.759623
4213.889798,306.438199,296.082377,9696.697840
4213.890113,-536.266849,444.123565,9178.553681
4213.890429,-1225.752797,222.061783,9104.533087
4213.890744,-1072.533697,-0.000000,9992.780217
4213.891059,-229.828649,-148.041188,9770.718434
4213.891375,306.438199,-740.205942,9770.718434
4213.891690,-383.047749,-592.164754,9918.759623
4213.892005,-1915.238745,-666.185348,9252.574275
4213.892320,-1685.410096,-148.041188,8956.491898
4213.892636,-383.047749,-0.000000,9326.594869
4213.892951,383.047749,-0.000000,9622.677246
4213.893266,0.000000,-592.164754,8956.491898
4213.893582,-1072.533697,-0.000000,8882.471304
4213.893897,-1762.019645,370.102971,9474.636058
4213.894212,-459.657299,592.164754,9474.636058
4213.894527,766.095498,666.185348,9696.697840
4213.894843,459.657299,-74.020594,9770.718434
4213.895158,-689.485948,-74.020594,10140.821405
4213.895473,-1455.581446,-0.000000,8808.450710
4213.895789,-306.438199,-518.144159,9474.636058
4213.896104,229.828649,444.123565,9622.677246
4213.896419,536.266849,-592.164754,9474.636058
4213.896734,0.000000,-222.061783,9252.574275
4213.897050,-995.924147,-0.000000,8660.409521
4213.897365,-153.219100,-296.082377,8956.491898
4213.897680,842.705048,-0.000000,9104.533087
4213.897996,1225.752797,-222.061783,9474.636058
4213.898311,919.314598,-888.247130,9474.636058
4213.898626,306.438199,222.061783,9696.697840
4213.898941,0.000000,-148.041188,9474.636058
4213.899257,1378.971896,-0.000000,9252.574275
4213.899572,1685.410096,148.041188,9992.780217
4213.899887,1838.629195,-444.123565,9474.636058
4213.900203,1302.362347,518.144159,9474.636058
4213.900518,229.828649,1406.391290,8882.471304
4213.900833,689.485948,296.082377,9326.594869
4213.901148,1608.800546,592.164754,10288.862594
4213.901464,1915.238745,-0.000000,10362.883188
4213.901779,1149.143247,-592.164754,9622.677246
4213.902094,-76.609550,-370.102971,9622.677246
4213.902410,153.219100,-296.082377,10732.986159
4213.902725,459.657299,-0.000000,10140.821405
4213.903040,1225.752797,-148.041188,10362.883188
4213.903355,842.705048,-296.082377,10362.883188
4213.903671,0.000000,-0.000000,9548.656652
4213.903986,76.609550,962.267725,9326.594869
4213.904301,766.095498,1036.288319,9770.718434
4213.904617,1378.971896,740.205942,9548.656652
4213.904932,1455.581446,-0.000000,9400.615463
4213.905247,229.828649,444.123565,8882.471304
4213.905562,-842.705048,740.205942,9326.594869
4213.905878,-306.438199,592.164754,9622.677246
4213.906193,0.000000,518.144159,10140.821405
4213.906508,0.000000,-814.226536,10362.883188
4213.906824,-919.314598,-592.164754,10436.903782
4213.907139,-2298.286494,-1036.288319,9770.718434
4213.907454,-1608.800546,-296.082377,10066.800811
4213.907769,-1072.533697,222.061783,9992.780217
4213.908085,0.000000,-148.041188,9474.636058
4213.908400,229.828649,-370.102971,9918.759623
4213.908715,-689.485948,444.123565,9474.636058
4213.909031,-689.485948,666.185348,9030.512492
4213.909346,-306.438199,1036.288319,9474.636058
4213.909661,536.266849,1184.329507,9326.594869
4213.909976,919.314598,-74.020594,9770.718434
4213.910292,-842.705048,-0.000000,8956.491898
4213.910607,-1838.629195,-0.000000,8512.368333
4213.910922,-1072.533697,-0.000000,9548.656652
4213.911237,-229.828649,296.082377,9400.615463
4213.911553,0.000000,-666.185348,9992.780217
4213.911868,-842.705048,-148.041188,9252.574275
4213.912183,-2145.067394,148.041188,8660.409521
4213.912499,-1378.971896,222.061783,9474.636058
4213.912814,-383.047749,888.247130,8882.471304
4213.913129,229.828649,814.226536,9918.759623
4213.913444,-229.828649,-296.082377,10214.842000
4213.913760,-842.705048,296.082377,9400.615463
4213.914075,-1072.533697,296.082377,9474.636058
4213.914390,306.438199,740.205942,9770.718434
4213.914706,995.924147,518.144159,9992.780217
4213.915021,1608.800546,-0.000000,10214.842000
4213.915336,383.047749,444.123565,9992.780217
4213.915651,-536.266849,1258.350101,8660.409521
4213.915967,76.609550,666.185348,9178.553681
4213.916282,1302.362347,888.247130,9474.636058
4213.916597,1608.800546,-0.000000,9992.780217
4213.916913,1072.533697,-1036.288319,9918.759623
4213.917228,-153.219100,-222.061783,9400.615463
4213.917543,383.047749,-296.082377,10436.903782
4213.917858,842.705048,962.267725,9400.615463
4213.918174,1915.238745,296.082377,10584.944971
4213.918489,2221.676944,-444.123565,10362.883188
4213.918804,1378.971896,-0.000000,9474.636058
4213.919120,689.485948,814.226536,8808.450710
4213.919435,995.924147,740.205942,9104.533087
4213.919750,1685.410096,1332.370696,9770.718434
4213.920065,1378.971896,814.226536,9548.656652
4213.920381,689.485948,-0.000000,9474.636058
4213.920696,-612.876398,-222.061783,9622.677246
4213.921011,-229.828649,-518.144159,10732.986159
4213.921327,459.657299,-0.000000,10658.965565
4213.921642,459.657299,-296.082377,10066.800811
4213.921957,-153.219100,-888.247130,10584.944971
4213.922272,-1302.362347,-0.000000,9770.718434
4213.922588,-383.047749,296.082377,9474.636058
4213.922903,536.266849,888.247130,9474.636058
4213.923218,1225.752797,962.267725,9104.533087
4213.923534,995.924147,222.061783,9252.574275
4213.923849,-153.219100,1036.288319,8808.450710
4213.924164,-919.314598,148.041188,9178.553681
4213.924479,-153.219100,-148.041188,10066.800811
4213.924795,306.438199,-370.102971,9844.739029
4213.925110,766.095498,-1036.288319,10214.842000
4213.925425,-536.266849,-592.164754,9548.656652
4213.925741,-1608.800546,-0.000000,9622.677246
4213.926056,-1225.752797,-518.144159,9992.780217
4213.926371,-153.219100,666.185348,10066.800811
4213.926686,306.438199,-666.185348,10066.800811
4213.927002,153.219100,-740.205942,9548.656652
4213.927317,-612.876398,444.123565,9104.533087
4213.927632,-995.924147,592.164754,9030.512492
4213.927948,0.000000,592.164754,9178.553681
4213.928263,536.266849,370.102971,9030.512492
4213.928578,229.828649,-370.102971,9178.553681
4213.928893,-842.705048,-296.082377,9400.615463
4213.929209,-1455.581446,-666.185348,8956.491898
4213.929524,-766.095498,-444.123565,9474.636058
4213.929839,0.000000,-592.164754,9696.697840
4213.930155,-229.828649,-1036.288319,9622.677246
4213.930470,-1225.752797,-814.226536,9696.697840
4213.930785,-1762.019645,222.061783,9178.553681
4213.931100,-383.047749,-74.020594,9474.636058
4213.931416,459.657299,1036.288319,9178.553681
4213.931731,842.705048,370.102971,9474.636058
4213.932046,689.485948,444.123565,9696.697840
4213.932362,-459.657299,666.185348,8956.491898
4213.932677,76.609550,444.123565,9474.636058
4213.932992,1072.533697,222.061783,9548.656652
4213.933307,1455.581446,518.144159,9844.739029
4213.933623,1072.533697,-222.061783,9696.697840
4213.933938,0.000000,518.144159,9400.615463
4213.934253,0.000000,370.102971,9622.677246
4213.934569,536.266849,814.226536,9400.615463
4213.934884,1072.533697,444.123565,9770.718434
4213.935199,1149.143247,-370.102971,10066.800811
4213.935514,459.657299,-0.000000,9770.718434
4213.935830,229.828649,592.164754,9400.615463
4213.936145,842.705048,888.247130,9326.594869
4213.936460,1762.019645,1702.473667,9326.594869
4213.936776,1608.800546,1036.288319,9696.697840
4213.937091,842.705048,888.247130,9696.697840
4213.937406,0.000000,1554.432478,9548.656652
4213.937721,0.000000,1184.329507,9474.636058
4213.938037,229.828649,1184.329507,9992.780217
4213.938352,459.657299,370.102971,9918.759623
4213.938667,306.438199,-370.102971,10436.903782
4213.938983,-842.705048,-814.226536,10362.883188
4213.939298,-1608.800546,148.041188,10140.821405
4213.939613,-689.485948,888.247130,10288.862594
4213.939928,0.000000,1184.329507,10288.862594
4213.940244,0.000000,-74.020594,9918.759623
4213.940559,0.000000,-222.061783,10807.006753
4213.940874,-1225.752797,222.061783,9474.636058
4213.941190,-842.705048,-0.000000,9918.759623
4213.941505,306.438199,814.226536,10214.842000
4213.941820,1378.971896,-0.000000,9770.718434
4213.942135,995.924147,-74.020594,9770.718434
4213.942451,-306.438199,-0.000000,9400.615463
4213.942766,-229.828649,-592.164754,9622.677246
4213.943081,-153.219100,444.123565,9252.574275
4213.943397,1149.143247,-0.000000,9252.574275
4213.943712,1072.533697,-592.164754,9770.718434
4213.944027,-459.657299,-74.020594,8438.347739
4213.944342,-1072.533697,-592.164754,9030.512492
4213.944658,-689.485948,-296.082377,9918.759623
4213.944973,0.000000,-148.041188,10288.862594
4213.945288,0.000000,-962.267725,9992.780217
4213.945604,-995.924147,-148.041188,9992.780217
4213.945919,-1302.362347,-0.000000,9326.594869
4213.946234,-689.485948,592.164754,9548.656652
4213.946549,76.609550,740.205942,9252.574275
4213.946865,995.924147,-0.000000,9474.636058
4213.947180,536.266849,-0.000000,9326.594869
4213.947495,-842.705048,740.205942,8956.491898
4213.947811,-306.438199,666.185348,9178.553681
4213.948126,153.219100,1110.308913,9474.636058
4213.948441,1072.533697,74.020594,9548.656652
4213.948756,1225.752797,-1036.288319,10066.800811
4213.949072,-766.095498,-518.144159,9326.594869
4213.949387,-536.266849,-592.164754,9474.636058
4213.949702,0.000000,666.185348,9326.594869
4213.950018,612.876398,-0.000000,9474.636058
4213.950333,1608.800546,-814.226536,10214.842000
4213.950648,766.095498,-296.082377,8956.491898
4213.950963,-459.657299,296.082377,9104.533087
4213.951279,612.876398,666.185348,9104.533087
4213.951594,919.314598,814.226536,9474.636058
4213.951909,1225.752797,296.082377,10066.800811
4213.952225,919.314598,-74.020594,10140.821405
4213.952540,-229.828649,-0.000000,9474.636058
4213.952855,229.828649,-1036.288319,9548.656652
4213.953170,306.438199,222.061783,9844.739029
4213.953486,536.266849,-0.000000,10214.842000
4213.953801,153.219100,-740.205942,10288.862594
4213.954116,-919.314598,-0.000000,9992.780217
4213.954432,-1072.533697,-222.061783,8808.450710
4213.954747,-383.047749,296.082377,10066.800811
4213.955062,0.000000,222.061783,10288.862594
4213.955377,153.219100,-518.144159,10362.883188
4213.955693,-383.047749,-370.102971,10140.821405
4213.956008,-689.485948,-296.082377,9844.739029
4213.956323,-229.828649,-0.000000,10214.842000
4213.956639,0.000000,740.205942,10066.800811
4213.956954,612.876398,-0.000000,9474.636058
4213.957269,766.095498,-0.000000,9844.739029
4213.957584,0.000000,666.185348,9326.594869
4213.957900,-383.047749,666.185348,8956.491898
4213.958215,383.047749,1702.473667,8882.471304
4213.958530,919.314598,1036.288319,8808.450710
4213.958845,689.485948,-888.247130,10066.800811
4213.959161,-383.047749,148.041188,9548.656652
4213.959476,-1149.143247,-0.000000,9622.677246
4213.959791,-536.266849,-0.000000,9992.780217
4213.960107,459.657299,962.267725,9992.780217
4213.960422,919.314598,592.164754,10214.842000
4213.960737,459.657299,740.205942,9252.574275
4213.961052,-153.219100,740.205942,9252.574275
4213.961368,306.438199,814.226536,9252.574275
4213.961683,995.924147,1628.453072,8956.491898
4213.961998,1762.019645,814.226536,9252.574275
4213.962314,536.266849,592.164754,9178.553681
4213.962629,-612.876398,888.247130,8808.450710
4213.962944,-459.657299,148.041188,9178.553681
4213.963259,383.047749,-222.061783,9252.574275
4213.963575,459.657299,-74.020594,9548.656652
4213.963890,383.047749,-1258.350101,9770.718434
4213.964205,-612.876398,-0.000000,9474.636058
4213.964521,-1072.533697,-74.020594,9326.594869
4213.964836,0.000000,-0.000000,9844.739029
4213.965151,919.314598,444.123565,10214.842000
4213.965466,1378.971896,-74.020594,9770.718434
4213.965782,842.705048,-148.041188,9992.780217
4213.966097,76.609550,888.247130,9252.574275
4213.966412,689.485948,518.144159,9992.780217
4213.966728,1455.581446,888.247130,9548.656652
4213.967043,1532.190996,-148.041188,10288.862594
4213.967358,919.314598,-444.123565,10140.821405
4213.967673,0.000000,-74.020594,10288.862594
4213.967989,0.000000,-0.000000,10288.862594
4213.968304,383.047749,-74.020594,9770.718434
4213.968619,1302.362347,-444.123565,10288.862594
4213.968935,1072.533697,-1036.288319,10436.903782
4213.969250,-536.266849,296.082377,9326.594869
4213.969565,-536.266849,296.082377,8956.491898
4213.969880,229.828649,592.164754,9474.636058
4213.970196,919.314598,740.205942,9696.697840
4213.970511,919.314598,444.123565,9474.636058
4213.970826,-229.828649,296.082377,9696.697840
4213.971142,-1302.362347,518.144159,9548.656652
4213.971457,-689.485948,296.082377,9474.636058
4213.971772,-229.828649,-0.000000,9770.718434
4213.972087,0.000000,-444.123565,9992.780217
4213.972403,-459.657299,-222.061783,10066.800811
4213.972718,-1991.848295,-0.000000,9030.512492
4213.973033,-1915.238745,-0.000000,9104.533087
4213.973349,-842.705048,222.061783,9400.615463
4213.973664,-383.047749,-0.000000,8512.368333
4213.973979,76.609550,-1480.411884,9548.656652
4213.974294,-459.657299,-222.061783,8586.388927
4213.974610,-1685.410096,-370.102971,8734.430116
4213.974925,-459.657299,-0.000000,8882.471304
4213.975240,0.000000,222.061783,9474.636058
4213.975556,919.314598,-296.082377,9622.677246
4213.975871,306.438199,-148.041188,9326.594869
4213.976186,-766.095498,148.041188,8364.327145
4213.976501,-306.438199,-222.061783,9104.533087
4213.976817,229.828649,148.041188,8956.491898
4213.977132,919.314598,-370.102971,9326.594869
4213.977447,0.000000,-666.185348,9548.656652
4213.977763,-919.314598,444.123565,8882.471304
4213.978078,-842.705048,-222.061783,9548.656652
4213.978393,0.000000,-74.020594,10214.842000
4213.978708,536.266849,-666.185348,10807.006753
4213.979024,536.266849,-444.123565,10510.924376
4213.979339,-612.876398,518.144159,10288.862594
4213.979654,-919.314598,1184.329507,9474.636058
4213.979970,612.876398,444.123565,9918.759623
4213.980285,1762.019645,740.205942,9400.615463
4213.980600,2068.457845,222.061783,10214.842000
4213.980915,689.485948,1480.411884,9178.553681
4213.981231,0.000000,888.247130,9400.615463
4213.981546,689.485948,814.226536,9918.759623
4213.981861,1455.581446,1332.370696,9548.656652
4213.982177,2221.676944,370.102971,9770.718434
4213.982492,1225.752797,-222.061783,10214.842000
4213.982807,0.000000,888.247130,9770.718434
4213.983122,306.438199,148.041188,9918.759623
4213.983438,612.876398,740.205942,9918.759623
4213.983753,1072.533697,888.247130,10214.842000
4213.984068,1072.533697,-222.061783,10658.965565
4213.984384,0.000000,666.185348,9992.780217
4213.984699,-459.657299,1036.288319,9696.697840
4213.985014,459.657299,1258.350101,9474.636058
4213.985329,842.705048,1110.308913,10066.800811
4213.985645,1302.362347,222.061783,10140.821405
4213.985960,766.095498,444.123565,10066.800811
4213.986275,0.000000,518.144159,9252.574275
4213.986591,459.657299,740.205942,9030.512492
4213.986906,459.657299,1110.308913,9474.636058
4213.987221,612.876398,-0.000000,9992.780217
4213.987536,0.000000,-0.000000,9844.739029
4213.987852,-1378.971896,222.061783,9030.512492
4213.988167,-1455.581446,-592.164754,9992.780217
4213.988483,-766.095498,518.144159,9992.780217
4213.988798,-459.657299,-740.205942,9770.718434
4213.989114,-536.266849,-1258.350101,10140.821405
4213.989429,-1915.238745,-666.185348,10510.924376
4213.989745,-1532.190996,-0.000000,8882.471304
4213.990060,0.000000,666.185348,9252.574275
4213.990376,306.438199,1110.308913,9030.512492
4213.990691,459.657299,-0.000000,10140.821405
4213.991007,-153.219100,370.102971,8734.430116
4213.991322,-1532.190996,-296.082377,8734.430116
4213.991638,-919.314598,-148.041188,9918.759623
4213.991953,-306.438199,222.061783,9770.718434
4213.992269,0.000000,-666.185348,9992.780217
4213.992584,0.000000,-1628.453072,9622.677246
4213.992900,-1455.581446,-814.226536,9252.574275
4213.993215,-1762.019645,-1036.288319,9326.594869
4213.993531,-689.485948,-0.000000,9474.636058
4213.993846,459.657299,74.020594,9326.594869
4213.994162,842.705048,-444.123565,9178.553681
4213.994477,153.219100,-148.041188,8660.409521
4213.994793,-842.705048,-148.041188,8956.491898
4213.995108,0.000000,-296.082377,9178.553681
4213.995423,766.095498,-74.020594,9622.677246
4213.995739,1378.971896,-518.144159,9030.512492
4213.996054,612.876398,666.185348,9104.533087
4213.996370,-612.876398,-0.000000,8586.388927
4213.996685,-383.047749,-296.082377,8956.491898
4213.997001,383.047749,-0.000000,9622.677246
4213.997316,995.924147,-370.102971,9104.533087
4213.997632,536.266849,-814.226536,9992.780217
4213.997947,-459.657299,-222.061783,9474.636058
4213.998263,-383.047749,-370.102971,9030.512492
4213.998578,536.266849,-0.000000,9326.594869
4213.998894,1455.581446,592.164754,9474.636058
4213.999209,1915.238745,148.041188,9622.677246
4213.999525,995.924147,888.247130,9696.697840
4213.999840,459.657299,1332.370696,8734.430116
4214.000156,1608.800546,962.267725,9104.533087
4214.000471,2145.067394,740.205942,9474.636058
4214.000787,2298.286494,-444.123565,10214.842000
4214.001102,1302.362347,444.123565,9992.780217
4214.001418,0.000000,-74.020594,9474.636058
4214.001733,306.438199,-0.000000,9844.739029
4214.002049,842.705048,666.185348,9918.759623
4214.002364,1302.362347,-222.061783,10658.965565
4214.002680,612.876398,-666.185348,10584.944971
4214.002995,-536.266849,518.144159,9918.759623
4214.003311,-536.266849,666.185348,10214.842000
4214.003626,1072.533697,962.267725,9844.739029
4214.003941,1072.533697,1406.391290,10881.027347
4214.004257,1302.362347,518.144159,10140.821405
4214.004572,0.000000,1110.308913,10214.842000
4214.004888,-689.485948,1110.308913,9770.718434
4214.005203,383.047749,1480.411884,9992.780217
4214.005519,76.609550,1036.288319,9918.759623
4214.005834,229.828649,-148.041188,10214.842000
4214.006150,-536.266849,-148.041188,9918.759623
4214.006465,-1532.190996,-0.000000,9252.574275
4214.006781,-842.705048,-666.185348,9696.697840
4214.007096,-536.266849,518.144159,9474.636058
4214.007412,-229.828649,-0.000000,9326.594869
4214.007727,-459.657299,-0.000000,9770.718434
4214.008043,-459.657299,518.144159,9326.594869
4214.008358,-383.047749,444.123565,9326.594869
4214.008674,-459.657299,444.123565,9548.656652
4214.008989,306.438199,370.102971,10066.800811
4214.009305,153.219100,-370.102971,9992.780217
4214.009620,-612.876398,592.164754,9474.636058
4214.009936,-1072.533697,148.041188,8956.491898
4214.010251,-842.705048,666.185348,9474.636058
4214.010567,612.876398,666.185348,9622.677246
4214.010882,306.438199,-518.144159,9474.636058
4214.011198,-536.266849,-222.061783,9622.677246
4214.011513,-1991.848295,-296.082377,8734.430116
4214.011829,-1762.019645,-666.185348,9178.553681
4214.012144,0.000000,-148.041188,9622.677246
4214.012460,842.705048,-1332.370696,10214.842000
4214.012775,536.266849,-296.082377,8956.491898
4214.013090,-766.095498,-0.000000,8586.388927
4214.013406,-536.266849,740.205942,8290.306550
4214.013721,153.219100,814.226536,9326.594869
4214.014037,995.924147,1110.308913,9030.512492
4214.014352,1072.533697,-444.123565,9770.718434
4214.014668,229.828649,-0.000000,9178.553681
4214.014983,-459.657299,-296.082377,9474.636058
4214.015299,0.000000,-0.000000,9622.677246
4214.015614,383.047749,-74.020594,10362.883188
4214.015930,995.924147,-518.144159,11029.068536
4214.016245,612.876398,-296.082377,10066.800811
4214.016561,-612.876398,-148.041188,10066.800811
4214.016876,229.828649,-148.041188,9474.636058
4214.017192,1302.362347,296.082377,9474.636058
4214.017507,2068.457845,-74.020594,9548.656652
4214.017823,1915.238745,296.082377,9696.697840
4214.018138,229.828649,296.082377,9030.512492
4214.018454,459.657299,-370.102971,9474.636058
4214.018769,1455.581446,592.164754,9770.718434
4214.019085,2068.457845,-0.000000,9992.780217
4214.019400,1915.238745,-370.102971,9844.739029
4214.019716,689.485948,370.102971,10066.800811
4214.020031,0.000000,296.082377,8956.491898
4214.020347,536.266849,296.082377,8956.491898
4214.020662,1149.143247,74.020594,10288.862594
4214.020978,1608.800546,-814.226536,10584.944971
4214.021293,383.047749,-0.000000,10066.800811
4214.021609,-1378.971896,222.061783,9696.697840
4214.021924,-1455.581446,-0.000000,9770.718434
4214.022239,76.609550,444.123565,10140.821405
4214.022555,612.876398,-0.000000,10436.903782
4214.022870,229.828649,-518.144159,10214.842000
4214.023186,-995.924147,666.185348,9178.553681
4214.023501,-995.924147,444.123565,9178.553681
4214.023817,-306.438199,1036.288319,9548.656652
4214.024132,76.609550,1110.308913,9474.636058
4214.024448,153.219100,-666.185348,9844.739029
4214.024763,-536.266849,-0.000000,8956.491898
4214.025079,-1915.238745,370.102971,9326.594869
4214.025394,-1225.752797,592.164754,9178.553681
4214.025710,-536.266849,444.123565,9918.759623
4214.026025,-153.219100,-666.185348,10066.800811
4214.026341,-459.657299,-666.185348,9696.697840
4214.026656,-1532.190996,-0.000000,9696.697840
4214.026972,-766.095498,-0.000000,9326.594869
4214.027287,-459.657299,1184.329507,9178.553681
4214.027603,153.219100,888.247130,9696.697840
4214.027918,459.657299,296.082377,9696.697840
4214.028234,-612.876398,-0.000000,8956.491898
4214.028549,-766.095498,222.061783,9252.574275
4214.028865,-229.828649,962.267725,9474.636058
4214.029180,229.828649,962.267725,9474.636058
4214.029496,306.438199,222.061783,9770.718434
4214.029811,-459.657299,518.144159,8882.471304
4214.030127,-1149.143247,-0.000000,9104.533087
4214.030442,0.000000,148.041188,9252.574275
4214.030757,306.438199,740.205942,9548.656652
4214.031073,689.485948,-148.041188,9622.677246
4214.031388,0.000000,-222.061783,9696.697840
4214.031704,-1225.752797,296.082377,9252.574275
4214.032019,-459.657299,-148.041188,10066.800811
4214.032335,153.219100,888.247130,9918.759623
4214.032650,995.924147,-0.000000,9992.780217
4214.032966,1072.533697,-296.082377,10066.800811
4214.033281,383.047749,444.123565,9622.677246
4214.033597,76.609550,-74.020594,9622.677246
4214.033912,919.314598,962.267725,9696.697840
4214.034228,1455.581446,370.102971,10140.821405
4214.034543,1915.238745,-444.123565,10214.842000
4214.034859,919.314598,148.041188,9326.594869
4214.035174,0.000000,-0.000000,9178.553681
4214.035490,536.266849,-0.000000,9622.677246
4214.035805,1378.971896,222.061783,9992.780217
4214.036121,1838.629195,-148.041188,10140.821405
4214.036436,842.705048,-370.102971,9992.780217
4214.036752,0.000000,518.144159,9622.677246
4214.037067,306.438199,444.123565,9622.677246
4214.037383,1225.752797,1184.329507,9548.656652
4214.037698,1991.848295,814.226536,10362.883188
4214.038014,1149.143247,-0.000000,9474.636058
4214.038329,0.000000,518.144159,9474.636058
4214.038645,-612.876398,444.123565,9400.615463
4214.038960,0.000000,222.061783,9548.656652
4214.039276,842.705048,-0.000000,9548.656652
4214.039591,536.266849,-296.082377,10510.924376
4214.039906,-536.266849,-0.000000,9622.677246
4214.040222,-1072.533697,-148.041188,8956.491898
4214.040537,-612.876398,296.082377,8882.471304
4214.040853,76.609550,-148.041188,9548.656652
4214.041168,612.876398,-296.082377,9844.739029
4214.041484,536.266849,-222.061783,9326.594869
4214.041799,-1302.362347,-0.000000,9252.574275
4214.042115,-842.705048,-0.000000,9030.512492
4214.042430,0.000000,148.041188,9696.697840
4214.042746,306.438199,-296.082377,10658.965565
4214.043061,459.657299,-370.102971,10288.862594
4214.043377,-689.485948,-444.123565,9548.656652
4214.043692,-1225.752797,-592.164754,9400.615463
4214.044008,-306.438199,296.082377,9474.636058
4214.044323,383.047749,-0.000000,9770.718434
4214.044639,383.047749,-1258.350101,9474.636058
4214.044954,0.000000,-814.226536,9770.718434
4214.045270,-995.924147,-222.061783,8808.450710
4214.045585,-459.657299,-0.000000,9474.636058
4214.045901,306.438199,222.061783,9844.739029
4214.046216,766.095498,-222.061783,9696.697840
4214.046532,-153.219100,-592.164754,9844.739029
4214.046847,-995.924147,-0.000000,9326.594869
4214.047163,-459.657299,-222.061783,9474.636058
4214.047478,229.828649,370.102971,9474.636058
4214.047794,306.438199,592.164754,9474.636058
4214.048109,689.485948,-0.000000,9992.780217
4214.048425,-306.438199,148.041188,9622.677246
4214.048740,-612.876398,296.082377,9178.553681
4214.049055,76.609550,740.205942,9326.594869
4214.049371,1072.533697,296.082377,9548.656652
4214.049686,919.314598,-0.000000,9548.656652
4214.050002,306.438199,-0.000000,9252.574275
4214.050317,-459.657299,-0.000000,8586.388927
4214.050633,229.828649,-74.020594,9326.594869
4214.050948,1532.190996,370.102971,8882.471304
4214.051264,1685.410096,-0.000000,9326.594869
4214.051579,1455.581446,370.102971,8882.471304
4214.051895,-76.609550,1110.308913,8660.409521
4214.052210,0.000000,444.123565,9178.553681
4214.052526,1225.752797,666.185348,9474.636058
4214.052841,1838.629195,-0.000000,9326.594869
4214.053157,1072.533697,-518.144159,9992.780217
4214.053472,-383.047749,-0.000000,9622.677246
4214.053788,-612.876398,592.164754,9844.739029
4214.054103,76.609550,888.247130,9918.759623
4214.054419,766.095498,814.226536,11103.089130
4214.054734,995.924147,148.041188,10362.883188
4214.055050,229.828649,222.061783,10140.821405
4214.055365,-919.314598,814.226536,9918.759623
4214.055681,-306.438199,370.102971,9770.718434
4214.055996,919.314598,518.144159,10066.800811
4214.056312,1225.752797,296.082377,10140.821405
4214.056627,76.609550,-0.000000,10214.842000
4214.056943,-459.657299,444.123565,9326.594869
4214.057258,-383.047749,-74.020594,9548.656652
4214.057574,536.266849,1406.391290,9770.718434
4214.057889,1149.143247,148.041188,10288.862594
4214.058204,383.047749,-370.102971,10214.842000
4214.058520,-919.314598,370.102971,9548.656652
4214.058835,-1225.752797,-370.102971,9474.636058
4214.059151,-766.095498,-148.041188,10066.800811
4214.059466,-306.438199,-0.000000,11103.089130
4214.059782,-612.876398,-370.102971,10066.800811
4214.060097,-1149.143247,-0.000000,9696.697840
4214.060413,-536.266849,-0.000000,9474.636058
4214.060728,-689.485948,814.226536,9474.636058
4214.061044,0.000000,962.267725,9474.636058
4214.061359,689.485948,-0.000000,9252.574275
4214.061675,306.438199,-296.082377,9178.553681
4214.061990,-612.876398,222.061783,8586.388927
4214.062306,-766.095498,-0.000000,8734.430116
4214.062621,0.000000,444.123565,8956.491898
4214.062937,383.047749,-0.000000,9548.656652
4214.063252,-229.828649,-296.082377,9326.594869
4214.063568,-1455.581446,-222.061783,8512.368333
4214.063883,-1072.533697,-666.185348,9326.594869
4214.064199,-536.266849,-74.020594,9178.553681
4214.064514,76.609550,222.061783,9770.718434
4214.064830,689.485948,-444.123565,9548.656652
4214.065145,689.485948,-0.000000,8956.491898
4214.065461,76.609550,222.061783,9104.533087
4214.065776,842.705048,444.123565,8808.450710
4214.066092,1915.238745,1184.329507,9400.615463
4214.066407,2145.067394,518.144159,9326.594869
4214.066722,1149.143247,-0.000000,8882.471304
4214.067038,0.000000,148.041188,9326.594869
4214.067353,0.000000,-0.000000,9474.636058
4214.067669,766.095498,-296.082377,9918.759623
4214.067984,1225.752797,-444.123565,9918.759623
4214.068300,612.876398,-1184.329507,9474.636058
4214.068615,-229.828649,-222.061783,9326.594869
4214.068931,-995.924147,-666.185348,10214.842000
4214.069246,0.000000,-0.000000,10732.986159
4214.069562,1608.800546,666.185348,10658.965565
4214.069877,1532.190996,222.061783,9622.677246
4214.070193,1072.533697,518.144159,9400.615463
4214.070508,0.000000,592.164754,9104.533087
4214.070824,536.266849,888.247130,9326.594869
4214.071139,766.095498,1036.288319,9622.677246
4214.071455,1149.143247,666.185348,10436.903782
4214.071770,153.219100,-0.000000,10140.821405
4214.072086,-1149.143247,148.041188,8882.471304
4214.072401,-1378.971896,-296.082377,9918.759623
4214.072717,-919.314598,-592.164754,9918.759623
4214.073032,-306.438199,-888.247130,10436.903782
4214.073348,-766.095498,-1184.329507,10510.924376
4214.073663,-1991.848295,-296.082377,9474.636058
4214.073979,-1608.800546,-296.082377,9400.615463
4214.074294,-612.876398,444.123565,9104.533087
4214.074610,612.876398,592.164754,9326.594869
4214.074925,919.314598,444.123565,8882.471304
4214.075241,76.609550,814.226536,8142.265362
4214.075556,-536.266849,740.205942,8660.409521
4214.075871,153.219100,814.226536,9104.533087
4214.076187,536.266849,888.247130,9918.759623
4214.076502,612.876398,296.082377,9844.739029
4214.076818,0.000000,-296.082377,9918.759623
4214.077133,-1302.362347,-222.061783,9548.656652
4214.077449,-1302.362347,-148.041188,9252.574275
4214.077764,-536.266849,888.247130,9770.718434
4214.078080,153.219100,148.041188,9474.636058
4214.078395,0.000000,-0.000000,9844.739029
4214.078711,0.000000,-0.000000,9252.574275
4214.079026,-995.924147,-296.082377,9474.636058
4214.079342,0.000000,1036.288319,8956.491898
4214.079657,1378.971896,814.226536,9474.636058
4214.079973,1302.362347,-0.000000,9918.759623
4214.080288,229.828649,592.164754,9474.636058
4214.080604,-842.705048,814.226536,9326.594869
4214.080919,-766.095498,444.123565,9844.739029
4214.081235,0.000000,1406.391290,10066.800811
4214.081550,1149.143247,-74.020594,10510.924376
4214.081866,383.047749,-0.000000,10436.903782
4214.082181,-459.657299,370.102971,9918.759623
4214.082497,-306.438199,296.082377,10214.842000
4214.082812,153.219100,592.164754,9918.759623
4214.083128,1302.362347,518.144159,9992.780217
4214.083443,1149.143247,-370.102971,9622.677246
4214.083759,842.705048,444.123565,9326.594869
4214.084074,459.657299,444.123565,8956.491898
4214.084390,995.924147,666.185348,8882.471304
4214.084705,1608.800546,-74.020594,9992.780217
4214.085020,1838.629195,-148.041188,9400.615463
4214.085336,1149.143247,296.082377,9474.636058
4214.085651,-153.219100,370.102971,8734.430116
4214.085967,0.000000,-148.041188,10066.800811
4214.086282,995.924147,-296.082377,10362.883188
4214.086598,1455.581446,-0.000000,10288.862594
4214.086913,612.876398,518.144159,9770.718434
4214.087229,-689.485948,444.123565,9178.553681
4214.087544,0.000000,-148.041188,10140.821405
4214.087860,459.657299,592.164754,9178.553681
4214.088175,689.485948,592.164754,9918.759623
4214.088491,612.876398,370.102971,9474.636058
4214.088806,-459.657299,-0.000000,9252.574275
4214.089122,-995.924147,-148.041188,9178.553681
4214.089437,-536.266849,-296.082377,9252.574275
4214.089753,0.000000,-0.000000,9474.636058
4214.090068,0.000000,-1332.370696,9770.718434
4214.090384,-842.705048,-370.102971,9474.636058
4214.090699,-1685.410096,-814.226536,9104.533087
4214.091015,-1072.533697,-592.164754,9622.677246
4214.091330,0.000000,-74.020594,9326.594869
4214.091646,229.828649,-888.247130,9844.739029
4214.091962,-383.047749,-740.205942,9474.636058
4214.092277,-1149.143247,-370.102971,9770.718434
4214.092593,-1225.752797,-148.041188,9326.594869
4214.092908,0.000000,-296.082377,9326.594869
4214.093224,919.314598,-370.102971,9844.739029
4214.093539,536.266849,-1036.288319,9474.636058
4214.093855,-459.657299,-0.000000,8956.491898
4214.094170,-536.266849,-518.144159,8808.450710
4214.094486,306.438199,222.061783,8882.471304
4214.094801,919.314598,-0.000000,9474.636058
4214.095117,995.924147,-444.123565,8956.491898
4214.095432,0.000000,-74.020594,8882.471304
4214.095748,-536.266849,-148.041188,8808.450710
4214.096063,0.000000,-740.205942,9252.574275
4214.096379,306.438199,-0.000000,9696.697840
4214.096694,459.657299,-222.061783,9992.780217
4214.097010,0.000000,-370.102971,9474.636058
4214.097325,0.000000,-148.041188,9252.574275
4214.097641,-306.438199,296.082377,9474.636058
4214.097956,-383.047749,814.226536,9844.739029
4214.098272,459.657299,-0.000000,9696.697840
4214.098587,459.657299,740.205942,9622.677246
4214.098903,0.000000,814.226536,9548.656652
4214.099218,-459.657299,592.164754,9326.594869
4214.099534,0.000000,962.267725,9548.656652
4214.099850,995.924147,888.247130,10066.800811
4214.100165,536.266849,148.041188,10214.842000
4214.100481,153.219100,296.082377,9844.739029
4214.100796,-536.266849,518.144159,9400.615463
4214.101112,229.828649,-0.000000,9770.718434
4214.101427,995.924147,592.164754,9696.697840
4214.101743,1072.533697,-148.041188,10140.821405
4214.102058,842.705048,370.102971,9474.636058
4214.102374,-306.438199,666.185348,9548.656652
4214.102689,-306.438199,370.102971,9622.677246
4214.103005,689.485948,888.247130,9622.677246
4214.103320,1455.581446,444.123565,10140.821405
4214.103636,2068.457845,-74.020594,9918.759623
4214.103951,536.266849,1332.370696,9474.636058
4214.104267,229.828649,888.247130,9696.697840
4214.104582,229.828649,1332.370696,9178.553681
4214.104898,1072.533697,1406.391290,9770.718434
4214.105213,1225.752797,592.164754,9992.780217
4214.105529,0.000000,592.164754,9474.636058
4214.105844,-1378.971896,592.164754,9400.615463
4214.106160,-1072.533697,74.020594,9622.677246
4214.106475,-689.485948,444.123565,10584.944971
4214.106791,76.609550,-666.185348,10658.965565
4214.107106,-689.485948,-222.061783,9992.780217
4214.107422,-1378.971896,-0.000000,9548.656652
4214.107738,-995.924147,-0.000000,9474.636058
4214.108053,0.000000,1332.370696,9474.636058
4214.108369,766.095498,888.247130,9474.636058
4214.108684,689.485948,1036.288319,9474.636058
4214.109000,-689.485948,962.267725,8956.491898
4214.109315,-1302.362347,-0.000000,9252.574275
4214.109631,-536.266849,666.185348,9918.759623
4214.109946,0.000000,-0.000000,10140.821405
4214.110262,383.047749,-962.267725,10436.903782
4214.110577,0.000000,-0.000000,10288.862594
4214.110893,-1149.143247,-148.041188,9474.636058
4214.111208,-689.485948,-222.061783,9622.677246
4214.111524,459.657299,444.123565,9622.677246
4214.111839,1225.752797,-222.061783,9844.739029
4214.112155,306.438199,-296.082377,9400.615463
4214.112470,-459.657299,666.185348,7920.203579
4214.112786,-306.438199,-296.082377,9252.574275
4214.113101,0.000000,222.061783,8882.471304
4214.113417,689.485948,-444.123565,9770.718434
4214.113732,229.828649,-444.123565,9696.697840
4214.114048,-689.485948,-370.102971,9548.656652
4214.114363,-766.095498,-518.144159,8956.491898
4214.114679,-459.657299,-1036.288319,10140.821405
4214.114995,689.485948,-148.041188,9696.697840
4214.115310,1149.143247,-444.123565,9474.636058
4214.115626,0.000000,-0.000000,9326.594869
4214.115941,0.000000,-148.041188,8956.491898
4214.116257,383.047749,222.061783,8882.471304
4214.116572,1378.971896,592.164754,9252.574275
4214.116888,1072.533697,-74.020594,9696.697840
4214.117203,766.095498,-814.226536,9770.718434
4214.117519,76.609550,-296.082377,8956.491898
4214.117834,229.828649,-1036.288319,8956.491898
4214.118150,229.828649,-222.061783,9844.739029
4214.118465,1225.752797,-222.061783,9770.718434
4214.118781,1225.752797,-962.267725,9622.677246
4214.119096,459.657299,-0.000000,9548.656652
4214.119412,-229.828649,-370.102971,9104.533087
4214.119727,383.047749,-0.000000,9104.533087
4214.120043,766.095498,148.041188,9548.656652
4214.120358,1455.581446,-74.020594,10362.883188
4214.120674,612.876398,-0.000000,10214.842000
4214.120989,-459.657299,-0.000000,9474.636058
4214.121305,76.609550,-0.000000,10140.821405
4214.121620,995.924147,1036.288319,9474.636058
4214.121936,1532.190996,-0.000000,10140.821405
4214.122251,1072.533697,-0.000000,9696.697840
4214.122567,-153.219100,-0.000000,9474.636058
4214.122883,-995.924147,-0.000000,9474.636058
4214.123198,-536.266849,518.144159,9770.718434
4214.123514,0.000000,-0.000000,9770.718434
4214.123829,0.000000,-370.102971,10140.821405
4214.124145,-689.485948,-74.020594,9474.636058
4214.124460,-1378.971896,-296.082377,9548.656652
4214.124776,-842.705048,370.102971,9770.718434
4214.125091,153.219100,666.185348,9696.697840
4214.125407,766.095498,296.082377,10066.800811
4214.125722,-153.219100,740.205942,9474.636058
4214.126038,-1378.971896,888.247130,8734.430116
4214.126353,-536.266849,666.185348,9696.697840
4214.126669,0.000000,1332.370696,9918.759623
4214.126984,1149.143247,-0.000000,9030.512492
4214.127300,0.000000,-0.000000,9400.615463
4214.127615,-1302.362347,296.082377,9252.574275
4214.127931,-1225.752797,222.061783,9178.553681
4214.128246,-306.438199,1036.288319,8734.430116
4214.128562,536.266849,222.061783,9474.636058
4214.128877,536.266849,222.061783,9622.677246
4214.129193,-306.438199,814.226536,9030.512492
4214.129508,-536.266849,518.144159,9474.636058
4214.129824,229.828649,740.205942,9326.594869
4214.130139,919.314598,1036.288319,9844.739029
4214.130455,919.314598,740.205942,9918.759623
4214.130771,306.438199,1554.432478,9400.615463
4214.131086,-689.485948,888.247130,9178.553681
4214.131402,153.219100,518.144159,9770.718434
4214.131717,919.314598,1332.370696,9474.636058
4214.132033,689.485948,444.123565,10510.924376
4214.132348,306.438199,-0.000000,10214.842000
4214.132664,-229.828649,1184.329507,9474.636058
4214.132979,153.219100,888.247130,9474.636058
4214.133295,612.876398,666.185348,10140.821405
4214.133610,1378.971896,444.123565,10214.842000
4214.133926,1838.629195,-0.000000,10214.842000
4214.134241,919.314598,1110.308913,9400.615463
4214.134557,383.047749,592.164754,9326.594869
4214.134872,383.047749,592.164754,9474.636058
4214.135188,1455.581446,-0.000000,9918.759623
4214.135503,1532.190996,-814.226536,10436.903782
4214.135819,689.485948,-148.041188,9918.759623
4214.136134,-536.266849,-0.000000,9696.697840
4214.136450,-306.438199,-0.000000,10288.862594
4214.136765,76.609550,-0.000000,10807.006753
4214.137081,766.095498,-592.164754,10955.047942
4214.137396,383.047749,-370.102971,10214.842000
4214.137712,-229.828649,-296.082377,9548.656652
4214.138028,229.828649,-962.267725,9548.656652
4214.138343,689.485948,296.082377,9104.533087
4214.138659,1532.190996,296.082377,9030.512492
4214.138974,1149.143247,-222.061783,9474.636058
4214.139290,0.000000,-0.000000,9030.512492
4214.139605,-459.657299,-296.082377,8364.327145
4214.139921,-306.438199,-148.041188,8808.450710
4214.140236,0.000000,-370.102971,9474.636058
4214.140552,0.000000,-1702.473667,9770.718434
4214.140867,-689.485948,-814.226536,9326.594869
4214.141183,-1838.629195,-1332.370696,9474.636058
4214.141498,-1838.629195,-1332.370696,9844.739029
4214.141814,-612.876398,-370.102971,9178.553681
4214.142129,459.657299,-296.082377,8808.450710
4214.142445,0.000000,-0.000000,9104.533087
4214.142760,-1302.362347,666.185348,8142.265362
4214.143076,-1225.752797,-444.123565,9178.553681
4214.143391,-153.219100,740.205942,9104.533087
4214.143707,689.485948,-0.000000,9326.594869
4214.144022,459.657299,-592.164754,9770.718434
4214.144338,-306.438199,-296.082377,9104.533087
4214.144653,-1072.533697,-814.226536,8808.450710
4214.144969,-842.705048,-0.000000,9918.759623
4214.145284,-383.047749,-0.000000,9696.697840
4214.145600,-153.219100,-962.267725,9474.636058
4214.145916,-306.438199,-148.041188,9178.553681
4214.146231,-919.314598,-0.000000,8882.471304
4214.146547,-383.047749,-74.020594,9178.553681
4214.146862,306.438199,666.185348,9622.677246
4214.147178,919.314598,962.267725,9622.677246
4214.147493,536.266849,592.164754,9400.615463
4214.147809,-612.876398,1036.288319,9474.636058
4214.148124,-306.438199,592.164754,10066.800811
4214.148440,76.609550,814.226536,9844.739029
4214.148755,459.657299,814.226536,10732.986159
4214.149071,766.095498,666.185348,10288.862594
4214.149386,0.000000,1110.308913,9918.759623
4214.149702,-306.438199,1036.288319,9474.636058
4214.150017,536.266849,370.102971,10807.006753
4214.150333,842.705048,444.123565,10066.800811
4214.150648,1685.410096,-0.000000,10436.903782
4214.150964,842.705048,814.226536,9474.636058
4214.151279,0.000000,962.267725,9474.636058
4214.151595,766.095498,962.267725,9030.512492
4214.151910,1225.752797,666.185348,10066.800811
4214.152226,2221.676944,740.205942,9918.759623
4214.152541,1762.019645,666.185348,10066.800811
4214.152857,689.485948,1702.473667,9104.533087
4214.153172,76.609550,592.164754,9770.718434
4214.153488,1072.533697,962.267725,10066.800811
4214.153804,2068.457845,814.226536,10658.965565
4214.154119,1762.019645,592.164754,9474.636058
4214.154435,536.266849,666.185348,9992.780217
4214.154750,-229.828649,518.144159,9474.636058
4214.155066,153.219100,962.267725,9474.636058
4214.155381,612.876398,1332.370696,9992.780217
4214.155697,842.705048,370.102971,9918.759623
4214.156012,0.000000,222.061783,9104.533087
4214.156328,-995.924147,-370.102971,9400.615463
4214.156643,-1149.143247,-740.205942,9844.739029
4214.156959,-1072.533697,-0.000000,10140.821405
4214.157274,0.000000,-296.082377,9844.739029
4214.157590,0.000000,-296.082377,9696.697840
4214.157905,-1072.533697,666.185348,8956.491898
4214.158221,-1149.143247,222.061783,9104.533087
4214.158536,-919.314598,-0.000000,8956.491898
4214.158852,-229.828649,-74.020594,9696.697840
4214.159167,-306.438199,-370.102971,9844.739029
4214.159483,-1302.362347,518.144159,8956.491898
4214.159798,-1532.190996,-0.000000,9474.636058
4214.160114,-919.314598,-370.102971,9770.718434
4214.160429,0.000000,-74.020594,9918.759623
4214.160745,919.314598,-592.164754,10658.965565
4214.161061,229.828649,-518.144159,10140.821405
4214.161376,-919.314598,370.102971,9252.574275
4214.161692,-995.924147,444.123565,9178.553681
4214.162007,459.657299,-222.061783,8290.306550
4214.162323,1455.581446,-370.102971,9770.718434
4214.162638,689.485948,-518.144159,8586.388927
4214.162954,0.000000,-666.185348,8290.306550
4214.163269,-1302.362347,-740.205942,9548.656652
4214.163585,-76.609550,-444.123565,9474.636058
4214.163900,306.438199,-296.082377,10214.842000
4214.164216,383.047749,-0.000000,10066.800811
4214.164531,-383.047749,-74.020594,9030.512492
4214.164847,-842.705048,-222.061783,9474.636058
4214.165162,-383.047749,-222.061783,9622.677246
4214.165478,-306.438199,518.144159,9622.677246
4214.165793,612.876398,-0.000000,10214.842000
4214.166109,229.828649,370.102971,9622.677246
4214.166424,-229.828649,222.061783,9474.636058
4214.166740,0.000000,-0.000000,9548.656652
4214.167055,153.219100,222.061783,9696.697840
4214.167371,1532.190996,-296.082377,10510.924376
4214.167686,766.095498,-296.082377,10066.800811
4214.168002,306.438199,-0.000000,9400.615463
4214.168317,229.828649,-814.226536,8660.409521
4214.168633,842.705048,-444.123565,9474.636058
4214.168949,689.485948,-296.082377,10214.842000
4214.169264,1302.362347,-444.123565,9474.636058
4214.169580,306.438199,-0.000000,9400.615463
4214.169895,459.657299,-148.041188,9326.594869
4214.170211,995.924147,-0.000000,9474.636058
4214.170526,1532.190996,740.205942,9178.553681
4214.170842,2068.457845,-444.123565,10066.800811
4214.171157,1838.629195,740.205942,9548.656652
4214.171473,612.876398,518.144159,9104.533087
4214.171788,995.924147,666.185348,9326.594869
4214.172104,1378.971896,1258.350101,9548.656652
4214.172419,2068.457845,370.102971,9178.553681
4214.172735,1302.362347,-74.020594,9178.553681
4214.173050,-536.266849,814.226536,9326.594869
4214.173366,-1455.581446,-370.102971,10066.800811
4214.173681,-919.314598,-444.123565,9696.697840
4214.173997,0.000000,-592.164754,10362.883188
4214.174312,-459.657299,-740.205942,10214.842000
4214.174628,-842.705048,-74.020594,9326.594869
4214.174943,-1532.190996,-74.020594,9474.636058
4214.175259,-612.876398,888.247130,9770.718434
4214.175574,76.609550,1258.350101,8882.471304
4214.175890,689.485948,1480.411884,9474.636058
4214.176205,0.000000,1258.350101,9326.594869
4214.176521,-1072.533697,814.226536,9252.574275
4214.176837,0.000000,370.102971,9622.677246
4214.177152,-536.266849,444.123565,9548.656652
4214.177468,0.000000,222.061783,10214.842000
4214.177783,-383.047749,-148.041188,9770.718434
4214.178099,-1225.752797,666.185348,9844.739029
4214.178414,-2068.457845,-370.102971,9918.759623
4214.178730,-1072.533697,-74.020594,9770.718434
4214.179045,0.000000,-74.020594,9326.594869
4214.179361,306.438199,-0.000000,9474.636058
4214.179676,-383.047749,888.247130,9844.739029
4214.179992,-919.314598,814.226536,9104.533087
4214.180307,0.000000,370.102971,9104.533087
4214.180623,689.485948,888.247130,9474.636058
4214.180938,1149.143247,518.144159,9844.739029
4214.181254,612.876398,1036.288319,9178.553681
4214.181569,-689.485948,962.267725,9400.615463
4214.181885,-459.657299,-0.000000,9844.739029
4214.182200,0.000000,888.247130,9844.739029
4214.182516,153.219100,-296.082377,10288.862594
4214.182831,-153.219100,-740.205942,10807.006753
4214.183147,-1378.971896,222.061783,9548.656652
4214.183462,-1225.752797,-148.041188,9992.780217
4214.183778,-153.219100,444.123565,10362.883188
4214.184094,919.314598,-0.000000,10436.903782
4214.184409,1149.143247,-296.082377,9992.780217
4214.184725,612.876398,888.247130,9326.594869
4214.185040,689.485948,814.226536,9030.512492
4214.185356,1608.800546,1110.308913,9474.636058
4214.185671,1608.800546,1258.350101,9030.512492
4214.185987,2451.505594,-148.041188,9770.718434
4214.186302,1455.581446,222.061783,9548.656652
4214.186618,0.000000,-0.000000,9474.636058
4214.186933,-153.219100,-296.082377,9992.780217
4214.187249,153.219100,-0.000000,10066.800811
4214.187564,842.705048,-740.205942,10362.883188
4214.187880,919.314598,-370.102971,9992.780217
4214.188195,229.828649,222.061783,9696.697840
4214.188511,0.000000,444.123565,9104.533087
4214.188826,766.095498,148.041188,9474.636058
4214.189142,2221.676944,-0.000000,9326.594869
4214.189457,1762.019645,296.082377,9104.533087
4214.189773,536.266849,592.164754,8364.327145
4214.190088,0.000000,370.102971,8734.430116
4214.190404,0.000000,-0.000000,9696.697840
4214.190719,-153.219100,-1036.288319,10288.862594
4214.191035,459.657299,-962.267725,10362.883188
4214.191350,-153.219100,-666.185348,9474.636058
4214.191665,-1455.581446,-962.267725,9474.636058
4214.191981,-1072.533697,-1184.329507,10214.842000
4214.192296,-1149.143247,370.102971,9326.594869
4214.192612,-383.047749,-814.226536,9770.718434
4214.192927,76.609550,-444.123565,9918.759623
4214.193243,-995.924147,740.205942,8956.491898
4214.193558,-1455.581446,-222.061783,8882.471304
4214.193873,-383.047749,-0.000000,9474.636058
4214.194189,0.000000,-74.020594,9844.739029
4214.194504,766.095498,-666.185348,9770.718434
4214.194820,0.000000,-0.000000,8956.491898
4214.195135,-919.314598,-0.000000,9400.615463
4214.195451,-766.095498,-0.000000,10140.821405
4214.195766,0.000000,666.185348,9400.615463
4214.196082,612.876398,-74.020594,9548.656652
4214.196397,76.609550,-0.000000,9474.636058
4214.196712,-995.924147,-370.102971,9474.636058
4214.197028,-766.095498,-740.205942,9474.636058
4214.197343,-766.095498,-0.000000,9844.739029
4214.197659,459.657299,-740.205942,10214.842000
4214.197974,459.657299,-518.144159,9696.697840
4214.198290,-153.219100,1036.288319,8216.285956
4214.198605,-306.438199,296.082377,8734.430116
4214.198920,689.485948,814.226536,9030.512492
4214.199236,1608.800546,962.267725,9326.594869
4214.199551,1149.143247,-0.000000,9696.697840
4214.199867,383.047749,1036.288319,9474.636058
4214.200182,-459.657299,666.185348,9548.656652
4214.200498,0.000000,814.226536,9326.594869
4214.200813,383.047749,222.061783,10584.944971
4214.201129,1149.143247,-0.000000,10214.842000
4214.201444,229.828649,-148.041188,10288.862594
4214.201759,-383.047749,444.123565,9548.656652
4214.202075,-459.657299,444.123565,9770.718434
4214.202390,689.485948,666.185348,9992.780217
4214.202706,1455.581446,370.102971,10140.821405
4214.203021,1915.238745,666.185348,9474.636058
4214.203337,689.485948,1258.350101,8956.491898
4214.203652,536.266849,-0.000000,9178.553681
4214.203967,1378.971896,740.205942,9992.780217
4214.204283,919.314598,1184.329507,9992.780217
4214.204598,1302.362347,-74.020594,9326.594869
4214.204914,766.095498,888.247130,9622.677246
4214.205229,76.609550,-0.000000,9474.636058
4214.205545,229.828649,-0.000000,9474.636058
4214.205860,229.828649,740.205942,10288.862594
4214.206176,306.438199,148.041188,10362.883188
4214.206491,229.828649,-0.000000,10362.883188
4214.206806,-995.924147,814.226536,9696.697840
4214.207122,-689.485948,-0.000000,10436.903782
4214.207437,0.000000,888.247130,10584.944971
4214.207753,-153.219100,370.102971,10288.862594
4214.208068,306.438199,-0.000000,9844.739029
4214.208384,-459.657299,666.185348,9400.615463
4214.208699,0.000000,148.041188,9178.553681
4214.209014,229.828649,888.247130,9474.636058
4214.209330,689.485948,666.185348,9474.636058
4214.209645,1302.362347,148.041188,9474.636058
4214.209961,229.828649,666.185348,8660.409521
4214.210276,-536.266849,-74.020594,8882.471304
4214.210592,-995.924147,-444.123565,9326.594869
4214.210907,-459.657299,-444.123565,9178.553681
4214.211223,229.828649,-1184.329507,10584.944971
4214.211538,-459.657299,-518.144159,9548.656652
4214.211853,-1532.190996,-74.020594,9178.553681
4214.212169,-1685.410096,-814.226536,10066.800811
4214.212484,-536.266849,-518.144159,9178.553681
4214.212800,383.047749,-222.061783,11029.068536
4214.213115,689.485948,444.123565,9474.636058
4214.213431,0.000000,444.123565,8586.388927
4214.213746,-612.876398,370.102971,9844.739029
4214.214061,153.219100,518.144159,8216.285956
4214.214377,766.095498,-0.000000,9104.533087
4214.214692,1149.143247,-74.020594,10510.924376
4214.215008,-536.266849,-222.061783,9030.512492
4214.215323,-1532.190996,-444.123565,9474.636058
4214.215639,-612.876398,-592.164754,9400.615463
4214.215954,153.219100,-518.144159,8956.491898
4214.216270,612.876398,-1406.391290,9622.677246
4214.216585,459.657299,-666.185348,9474.636058
4214.216900,-229.828649,-0.000000,8734.430116
4214.217216,-459.657299,-296.082377,9696.697840
4214.217531,459.657299,888.247130,9474.636058
4214.217847,1302.362347,296.082377,9548.656652
4214.218162,1455.581446,-74.020594,10214.842000
4214.218478,383.047749,518.144159,9918.759623
4214.218793,306.438199,-296.082377,9326.594869
4214.219108,1072.533697,222.061783,9918.759623
4214.219424,919.314598,962.267725,9770.718434
4214.219739,1685.410096,222.061783,9696.697840
4214.220055,612.876398,666.185348,9474.636058
4214.220370,-383.047749,-74.020594,9548.656652
4214.220686,229.828649,-518.144159,9548.656652
4214.221001,766.095498,-592.164754,9992.780217
4214.221317,153.219100,-814.226536,10362.883188
4214.221632,229.828649,-74.020594,9770.718434
4214.221947,-689.485948,-0.000000,9326.594869
4214.222263,-229.828649,-592.164754,9474.636058
4214.222578,459.657299,814.226536,9178.553681
4214.222894,1149.143247,74.020594,9844.739029
4214.223209,1302.362347,888.247130,9252.574275
4214.223525,0.000000,888.247130,8660.409521
4214.223840,-1072.533697,222.061783,9252.574275
4214.224155,-766.095498,148.041188,9844.739029
4214.224471,76.609550,-0.000000,10362.883188
4214.224786,76.609550,-296.082377,10288.862594
4214.225102,-536.266849,-0.000000,10066.800811
4214.225417,-1302.362347,296.082377,9474.636058
4214.225733,-1149.143247,-148.041188,9844.739029
4214.226048,-229.828649,518.144159,9548.656652
4214.226364,383.047749,-222.061783,10510.924376
4214.226679,689.485948,-0.000000,8734.430116
4214.226994,-229.828649,148.041188,9104.533087
4214.227310,-459.657299,-0.000000,9252.574275
4214.227625,383.047749,-0.000000,9326.594869
4214.227941,689.485948,666.185348,9770.718434
4214.228256,766.095498,592.164754,9548.656652
4214.228572,153.219100,592.164754,8660.409521
4214.228887,-459.657299,-0.000000,9548.656652
4214.229202,-76.609550,-0.000000,9474.636058
4214.229518,0.000000,-148.041188,9696.697840
4214.229833,612.876398,-74.020594,10288.862594
4214.230149,-229.828649,814.226536,9104.533087
4214.230464,-1072.533697,814.226536,9548.656652
4214.230780,-842.705048,888.247130,9622.677246
4214.231095,0.000000,666.185348,9548.656652
4214.231411,383.047749,296.082377,10140.821405
4214.231726,0.000000,888.247130,9400.615463
4214.232041,-536.266849,888.247130,9696.697840
4214.232357,-689.485948,296.082377,9622.677246
4214.232672,229.828649,370.102971,8956.491898
4214.232988,459.657299,-222.061783,9696.697840
4214.233303,612.876398,-0.000000,9844.739029
4214.233619,0.000000,1036.288319,9474.636058
4214.233934,-612.876398,-0.000000,9474.636058
4214.234249,0.000000,444.123565,9474.636058
4214.234565,766.095498,-0.000000,9622.677246
4214.234880,1455.581446,-370.102971,9918.759623
4214.235196,842.705048,518.144159,9548.656652
4214.235511,229.828649,-0.000000,9474.636058
4214.235827,1072.533697,444.123565,9548.656652
4214.236142,1991.848295,370.102971,9770.718434
4214.236458,2221.676944,-74.020594,9622.677246
4214.236773,1838.629195,444.123565,9474.636058
4214.237088,0.000000,666.185348,9400.615463
4214.237404,689.485948,-74.020594,9992.780217
4214.237719,536.266849,370.102971,9696.697840
4214.238035,919.314598,-592.164754,10288.862594
4214.238350,995.924147,-444.123565,9548.656652
4214.238666,76.609550,370.102971,9178.553681
4214.238981,-229.828649,-222.061783,9844.739029
4214.239296,229.828649,222.061783,9918.759623
4214.239612,76.609550,444.123565,10288.862594
4214.239927,306.438199,-592.164754,9770.718434
4214.240243,-306.438199,296.082377,9696.697840
4214.240558,-1302.362347,518.144159,8956.491898
4214.240874,-842.705048,-222.061783,9252.574275
4214.241189,-306.438199,-148.041188,10362.883188
4214.241505,0.000000,-962.267725,9992.780217
4214.241820,-1149.143247,-0.000000,9474.636058
4214.242135,-1915.238745,370.102971,9104.533087
4214.242451,-1762.019645,-0.000000,10066.800811
4214.242766,-1149.143247,-0.000000,9696.697840
4214.243082,0.000000,-0.000000,10066.800811
4214.243397,-229.828649,-370.102971,9474.636058
4214.243713,-1072.533697,296.082377,9104.533087
4214.244028,-1225.752797,-222.061783,9252.574275
4214.244343,-536.266849,222.061783,9770.718434
4214.244659,76.609550,222.061783,9326.594869
4214.244974,536.266849,-148.041188,9030.512492
4214.245290,536.266849,148.041188,9030.512492
4214.245605,-536.266849,444.123565,9030.512492
4214.245921,-306.438199,518.144159,8956.491898
4214.246236,689.485948,518.144159,9178.553681
4214.246552,1149.143247,-444.123565,9770.718434
4214.246867,536.266849,-888.247130,10140.821405
4214.247182,-995.924147,-222.061783,9548.656652
4214.247498,-1149.143247,-1184.329507,9918.759623
4214.247813,153.219100,-222.061783,9918.759623
4214.248129,1378.971896,-296.082377,10584.944971
4214.248444,1302.362347,370.102971,9622.677246
4214.248760,0.000000,1332.370696,8956.491898
4214.249075,459.657299,222.061783,8586.388927
4214.249390,1455.581446,518.144159,8808.450710
4214.249706,1532.190996,962.267725,8956.491898
4214.250021,1685.410096,-518.144159,9252.574275
4214.250337,306.438199,-0.000000,9548.656652
4214.250652,-842.705048,-1036.288319,9770.718434
4214.250968,-383.047749,-1258.350101,10140.821405
4214.251283,0.000000,-0.000000,10584.944971
4214.251599,536.266849,-518.144159,10288.862594
4214.251914,459.657299,-0.000000,10510.924376
4214.252229,0.000000,444.123565,9548.656652
4214.252545,0.000000,1110.308913,9474.636058
4214.252860,536.266849,1332.370696,9622.677246
4214.253176,1302.362347,444.123565,9770.718434
4214.253491,1685.410096,740.205942,9548.656652
4214.253807,995.924147,1332.370696,9030.512492
4214.254122,0.000000,444.123565,9548.656652
4214.254437,459.657299,666.185348,9844.739029
4214.254753,689.485948,888.247130,9696.697840
4214.255068,919.314598,-444.123565,9918.759623
4214.255384,612.876398,-0.000000,9548.656652
4214.255699,-536.266849,222.061783,8660.409521
4214.256015,-612.876398,-148.041188,9178.553681
4214.256330,-306.438199,222.061783,9400.615463
4214.256646,0.000000,222.061783,9622.677246
4214.256961,-689.485948,962.267725,9474.636058
4214.257276,-1072.533697,888.247130,9474.636058
4214.257592,-995.924147,518.144159,9770.718434
4214.257907,-995.924147,592.164754,9770.718434
4214.258223,0.000000,222.061783,10140.821405
4214.258538,0.000000,-0.000000,10066.800811
4214.258854,-1072.533697,1110.308913,9474.636058
4214.259169,-1149.143247,444.123565,9622.677246
4214.259484,-1225.752797,296.082377,9474.636058
4214.259800,0.000000,370.102971,9696.697840
4214.260115,-612.876398,-296.082377,10288.862594
4214.260431,-995.924147,-0.000000,9474.636058
4214.260746,-1608.800546,-74.020594,9326.594869
4214.261062,-1302.362347,-222.061783,9918.759623
4214.261377,-766.095498,-148.041188,9992.780217
4214.261693,0.000000,-962.267725,10362.883188
4214.262008,153.219100,-148.041188,9696.697840
4214.262323,-306.438199,518.144159,9326.594869
4214.262639,-383.047749,-148.041188,9474.636058
4214.262954,689.485948,740.205942,9474.636058
4214.263270,1302.362347,962.267725,9548.656652
4214.263585,1378.971896,444.123565,9252.574275
4214.263901,689.485948,1110.308913,8808.450710
4214.264216,-536.266849,518.144159,8734.430116
4214.264531,0.000000,296.082377,9326.594869
4214.264847,919.314598,-0.000000,9474.636058
4214.265162,1225.752797,-592.164754,10066.800811
4214.265478,306.438199,-148.041188,9844.739029
4214.265793,-383.047749,-148.041188,9400.615463
4214.266109,-612.876398,-666.185348,9696.697840
4214.266424,612.876398,74.020594,9918.759623
4214.266740,1225.752797,-592.164754,9400.615463
4214.267055,1455.581446,370.102971,8660.409521
4214.267370,612.876398,1110.308913,8512.368333
4214.267686,306.438199,1036.288319,9030.512492
4214.268001,766.095498,888.247130,9030.512492
4214.268317,919.314598,-0.000000,9252.574275
4214.268632,1149.143247,-592.164754,10436.903782
4214.268948,383.047749,-148.041188,9844.739029
4214.269263,-383.047749,-74.020594,9770.718434
4214.269578,153.219100,-0.000000,9918.759623
4214.269894,306.438199,-296.082377,10362.883188
4214.270209,1302.362347,-592.164754,10362.883188
4214.270525,842.705048,814.226536,10066.800811
4214.270840,-306.438199,296.082377,9918.759623
4214.271156,76.609550,-222.061783,9844.739029
4214.271471,689.485948,74.020594,9548.656652
4214.271787,1149.143247,-518.144159,10436.903782
4214.272102,689.485948,-518.144159,9770.718434
4214.272417,229.828649,-148.041188,9696.697840
4214.272733,306.438199,-222.061783,9474.636058
4214.273048,842.705048,814.226536,9326.594869
4214.273364,842.705048,-0.000000,9696.697840
4214.273679,76.609550,-74.020594,10066.800811
4214.273995,-842.705048,814.226536,9104.533087
4214.274310,-1225.752797,-148.041188,9474.636058
4214.274625,-919.314598,-222.061783,9548.656652
4214.274941,-306.438199,-888.247130,10140.821405
4214.275256,0.000000,-666.185348,10214.842000
4214.275572,-689.485948,-0.000000,9844.739029
4214.275887,-1762.019645,666.185348,9178.553681
4214.276203,-1149.143247,-0.000000,9474.636058
4214.276518,153.219100,1184.329507,9400.615463
4214.276833,306.438199,444.123565,9252.574275
4214.277149,0.000000,-0.000000,8956.491898
4214.277464,-842.705048,740.205942,8512.368333
4214.277780,-1302.362347,-370.102971,9252.574275
4214.278095,-995.924147,-0.000000,9400.615463
4214.278411,-383.047749,-370.102971,9696.697840
4214.278726,0.000000,-592.164754,9474.636058
4214.279042,-536.266849,296.082377,9104.533087
4214.279357,-766.095498,-0.000000,9548.656652
4214.279672,-1225.752797,-148.041188,9622.677246
4214.279988,0.000000,-0.000000,9326.594869
4214.280303,689.485948,-74.020594,9104.533087
4214.280619,689.485948,666.185348,9326.594869
4214.280934,0.000000,1036.288319,8512.368333
4214.281250,153.219100,370.102971,9770.718434
4214.281565,766.095498,592.164754,9918.759623
4214.281880,1149.143247,296.082377,9548.656652
4214.282196,766.095498,740.205942,9252.574275
4214.282511,0.000000,1702.473667,9252.574275
4214.282827,-383.047749,962.267725,9474.636058
4214.283142,229.828649,666.185348,9474.636058
4214.283458,766.095498,-0.000000,9696.697840
4214.283773,1302.362347,-0.000000,10584.944971
4214.284089,459.657299,1554.432478,9252.574275
4214.284404,76.609550,888.247130,9918.759623
4214.284719,76.609550,888.247130,10362.883188
4214.285035,1225.752797,-222.061783,10584.944971
4214.285350,1149.143247,-592.164754,10955.047942
4214.285666,995.924147,-0.000000,10288.862594
4214.285981,459.657299,-222.061783,9548.656652
4214.286297,1149.143247,518.144159,9474.636058
4214.286612,2221.676944,1332.370696,9104.533087
4214.286927,2681.334243,148.041188,9326.594869
4214.287243,2451.505594,444.123565,9252.574275
4214.287558,919.314598,666.185348,9178.553681
4214.287874,306.438199,222.061783,9178.553681
4214.288189,536.266849,962.267725,9918.759623
4214.288505,536.266849,-148.041188,10214.842000
4214.288820,689.485948,-666.185348,10140.821405
4214.289136,0.000000,-296.082377,10288.862594
4214.289451,-919.314598,-296.082377,9400.615463
4214.289766,-689.485948,370.102971,9770.718434
4214.290082,0.000000,296.082377,9474.636058
4214.290397,766.095498,-296.082377,10510.924376
4214.290713,0.000000,518.144159,9400.615463
4214.291028,-1225.752797,-0.000000,8438.347739
4214.291343,-766.095498,-370.102971,9252.574275
4214.291659,-536.266849,518.144159,9992.780217
4214.291974,-383.047749,-518.144159,9696.697840
4214.292289,-306.438199,-0.000000,9474.636058
4214.292605,-1378.971896,296.082377,9104.533087
4214.292920,-1608.800546,-222.061783,9474.636058
4214.293235,-842.705048,-0.000000,9622.677246
4214.293551,-383.047749,-740.205942,9548.656652
4214.293866,-383.047749,-888.247130,9918.759623
4214.294182,-1225.752797,370.102971,9178.553681
4214.294497,-1838.629195,-0.000000,9548.656652
4214.294812,-919.314598,-0.000000,9918.759623
4214.295128,-306.438199,444.123565,10066.800811
4214.295443,0.000000,-222.061783,9696.697840
4214.295758,-153.219100,-0.000000,9548.656652
4214.296074,-766.095498,-0.000000,9474.636058
4214.296389,-689.485948,-0.000000,9622.677246
4214.296704,-306.438199,-0.000000,9770.718434
4214.297020,842.705048,-666.185348,9918.759623
4214.297335,842.705048,-296.082377,9548.656652
4214.297650,0.000000,148.041188,8882.471304
4214.297966,0.000000,-296.082377,9178.553681
4214.298281,229.828649,222.061783,9474.636058
4214.298596,612.876398,-222.061783,9696.697840
4214.298912,995.924147,-222.061783,9548.656652
4214.299227,306.438199,592.164754,8882.471304
4214.299543,0.000000,-962.267725,9400.615463
4214.299858,612.876398,-0.000000,9252.574275
4214.300173,1378.971896,222.061783,9252.574275
4214.300489,2221.676944,-518.144159,9844.739029
4214.300804,1149.143247,-0.000000,9622.677246
4214.301119,383.047749,-0.000000,9178.553681
4214.301435,459.657299,-0.000000,9326.594869
4214.301750,1149.143247,296.082377,9622.677246
4214.302065,1762.019645,-592.164754,9844.739029
4214.302381,1685.410096,-740.205942,9696.697840
4214.302696,459.657299,222.061783,9400.615463
4214.303011,612.876398,-666.185348,9474.636058
4214.303327,1302.362347,370.102971,9770.718434
4214.303642,2221.676944,-222.061783,9770.718434
4214.303957,2911.162892,-518.144159,9252.574275
4214.304273,1991.848295,518.144159,9104.533087
4214.304588,919.314598,-0.000000,9104.533087
4214.304904,1302.362347,444.123565,9548.656652
4214.305219,1532.190996,814.226536,9400.615463
4214.305534,1762.019645,296.082377,9474.636058
4214.305850,536.266849,444.123565,9474.636058
4214.306165,-612.876398,592.164754,9252.574275
4214.306480,-842.705048,148.041188,9770.718434
4214.306796,-383.047749,814.226536,10066.800811
4214.307111,-536.266849,-444.123565,10510.924376
4214.307426,-612.876398,-0.000000,10436.903782
4214.307742,-1991.848295,666.185348,9770.718434
4214.308057,-2221.676944,-0.000000,9474.636058
4214.308372,-1455.581446,444.123565,9622.677246
4214.308688,-842.705048,814.226536,9844.739029
4214.309003,-842.705048,-0.000000,10066.800811
4214.309318,-2068.457845,962.267725,9474.636058
4214.309634,-2374.896044,666.185348,9474.636058
4214.309949,-1378.971896,-0.000000,9770.718434
4214.310265,-1072.533697,444.123565,10066.800811
4214.310580,-612.876398,-592.164754,10066.800811
4214.310895,-1225.752797,296.082377,9918.759623
4214.311211,-1532.190996,444.123565,10214.842000
4214.311526,-1302.362347,-666.185348,9844.739029
4214.311841,-383.047749,666.185348,9252.574275
4214.312157,76.609550,-666.185348,9918.759623
4214.312472,459.657299,-222.061783,9622.677246
4214.312787,-612.876398,592.164754,9252.574275
4214.313103,-842.705048,518.144159,8956.491898
4214.313418,0.000000,666.185348,9474.636058
4214.313733,306.438199,518.144159,9178.553681
4214.314049,766.095498,-74.020594,9474.636058
4214.314364,459.657299,666.185348,8808.450710
4214.314679,-536.266849,296.082377,8956.491898
4214.314995,0.000000,-0.000000,9696.697840
4214.315310,536.266849,740.205942,9548.656652
4214.315625,1072.533697,-222.061783,10584.944971
4214.315941,842.705048,444.123565,9548.656652
4214.316256,229.828649,592.164754,9178.553681
4214.316572,0.000000,814.226536,9548.656652
4214.316887,842.705048,1702.473667,8808.450710
4214.317202,1302.362347,888.247130,9474.636058
4214.317518,1532.190996,740.205942,9326.594869
4214.317833,0.000000,222.061783,8882.471304
4214.318148,153.219100,370.102971,9992.780217
4214.318464,536.266849,370.102971,10288.862594
4214.318779,1455.581446,-370.102971,9918.759623
4214.319094,1685.410096,-592.164754,10658.965565
4214.319410,689.485948,444.123565,9548.656652
4214.319725,153.219100,296.082377,9696.697840
4214.320040,919.314598,666.185348,9844.739029
4214.320356,1378.971896,740.205942,9474.636058
4214.320671,1532.190996,-0.000000,9696.697840
4214.320986,2298.286494,296.082377,9770.718434
4214.321302,459.657299,222.061783,9326.594869
4214.321617,842.705048,-444.123565,9696.697840
4214.321933,1378.971896,-0.000000,9770.718434
4214.322248,1455.581446,-666.185348,10288.862594
4214.322563,1072.533697,-148.041188,10658.965565
4214.322879,153.219100,-0.000000,9622.677246
4214.323194,0.000000,-74.020594,9252.574275
4214.323509,306.438199,222.061783,9622.677246
4214.323825,689.485948,222.061783,9030.512492
4214.324140,459.657299,-740.205942,9252.574275
4214.324455,0.000000,148.041188,9770.718434
4214.324771,-1302.362347,-222.061783,9696.697840
4214.325086,-919.314598,-370.102971,9178.553681
4214.325401,-306.438199,-74.020594,9918.759623
4214.325717,-536.266849,-740.205942,10066.800811
4214.326032,-766.095498,-740.205942,10140.821405
4214.326347,-1455.581446,-296.082377,9400.615463
4214.326663,-1991.848295,-518.144159,9548.656652
4214.326978,-1302.362347,-0.000000,9030.512492
4214.327294,0.000000,-1554.432478,9770.718434
4214.327609,-919.314598,-740.205942,9696.697840
4214.327924,-1838.629195,740.205942,9400.615463
4214.328240,-1838.629195,296.082377,9252.574275
4214.328555,-1455.581446,666.185348,9474.636058
4214.328870,0.000000,-518.144159,9622.677246
4214.329186,-229.828649,-888.247130,9918.759623
4214.329501,-995.924147,-0.000000,9400.615463
4214.329816,-1225.752797,-74.020594,8956.491898
4214.330132,-536.266849,148.041188,9548.656652
4214.330447,612.876398,518.144159,9474.636058
4214.330762,0.000000,-592.164754,9696.697840
4214.331078,0.000000,518.144159,9770.718434
4214.331393,-459.657299,-0.000000,9252.574275
4214.331708,0.000000,-148.041188,9474.636058
4214.332024,306.438199,518.144159,9770.718434
4214.332339,995.924147,-444.123565,9474.636058
4214.332655,1072.533697,-0.000000,9474.636058
4214.332970,842.705048,814.226536,9104.533087
4214.333285,459.657299,592.164754,9474.636058
4214.333601,766.095498,1554.432478,9474.636058
4214.333916,1838.629195,962.267725,9030.512492
4214.334231,2221.676944,-0.000000,9474.636058
4214.334547,1072.533697,962.267725,9030.512492
4214.334862,76.609550,222.061783,9326.594869
4214.335177,766.095498,-148.041188,9770.718434
4214.335493,842.705048,-0.000000,10584.944971
4214.335808,1608.800546,-518.144159,10510.924376
4214.336123,1532.190996,-296.082377,9770.718434
4214.336439,766.095498,-222.061783,9992.780217
4214.336754,1149.143247,-74.020594,11251.130318
4214.337069,1532.190996,1110.308913,10214.842000
4214.337385,2451.505594,592.164754,10584.944971
4214.337700,2834.553343,-222.061783,10362.883188
4214.338016,2528.115143,444.123565,9474.636058
4214.338331,2451.505594,-222.061783,9252.574275
4214.338646,1685.410096,1332.370696,10214.842000
4214.338962,2987.772442,-74.020594,9474.636058
4214.339277,3907.087040,-518.144159,10066.800811
4214.339592,2374.896044,740.205942,9474.636058
4214.339908,153.219100,-888.247130,9474.636058
4214.340223,689.485948,-1258.350101,10066.800811
4214.340538,919.314598,-1480.411884,9844.739029
4214.340854,1072.533697,-1850.514855,9696.697840
4214.341169,1532.190996,-1554.432478,10584.944971
4214.341484,76.609550,-1184.329507,9474.636058
4214.341800,0.000000,-814.226536,9696.697840
4214.342115,383.047749,-740.205942,9770.718434
4214.342430,1378.971896,-888.247130,9252.574275
4214.342746,2068.457845,-962.267725,9474.636058
4214.343061,1915.238745,-666.185348,9400.615463
4214.343377,306.438199,-592.164754,9178.553681
4214.343692,153.219100,-1776.494261,9844.739029
4214.344007,689.485948,-2368.659014,10362.883188
4214.344323,1302.362347,-2442.679609,9474.636058
4214.344638,1762.019645,-2738.761985,9770.718434
4214.344953,1225.752797,-2368.659014,9474.636058
4214.345269,0.000000,-2738.761985,9178.553681
4214.345584,153.219100,-2886.803174,10066.800811
4214.345899,766.095498,-3034.844362,9474.636058
4214.346215,1608.800546,-2812.782580,8364.327145
4214.346530,2451.505594,-2442.679609,9030.512492
4214.346845,1991.848295,-2072.576638,8808.450710
4214.347161,919.314598,-1998.556043,8586.388927
4214.347476,689.485948,-2738.761985,9326.594869
4214.347791,1149.143247,-2812.782580,9474.636058
4214.348107,2374.896044,-2516.700203,8808.450710
4214.348422,2451.505594,-2960.823768,9030.512492
4214.348738,1685.410096,-2516.700203,9770.718434
4214.349053,153.219100,-2516.700203,10214.842000
4214.349368,76.609550,-2738.761985,10362.883188
4214.349684,1762.019645,-2886.803174,10066.800811
4214.349999,2528.115143,-2664.741391,9622.677246
4214.350314,2757.943793,-2072.576638,8216.285956
4214.350630,2757.943793,-2590.720797,9622.677246
4214.350945,2145.067394,-2442.679609,9696.697840
4214.351260,1991.848295,-2738.761985,9548.656652
4214.351576,2451.505594,-2812.782580,8734.430116
4214.351891,3830.477490,-2442.679609,8808.450710
4214.352206,4519.963438,-2294.638420,8882.471304
4214.352522,3677.258390,-2590.720797,9030.512492
4214.352837,3370.820191,-1998.556043,9178.553681
4214.353152,2528.115143,-2220.617826,9548.656652
4214.353468,2145.067394,-2368.659014,9178.553681
4214.353783,2528.115143,-2442.679609,9474.636058
4214.354098,3217.601092,-2960.823768,9178.553681
4214.354414,4060.306139,-2738.761985,9030.512492
4214.354729,3753.867940,-2590.720797,9400.615463
4214.355045,2757.943793,-2516.700203,9770.718434
4214.355360,2681.334243,-1850.514855,10140.821405
4214.355675,2528.115143,-1036.288319,9474.636058
4214.355991,3294.210641,-1184.329507,9400.615463
4214.356306,4290.134789,-1406.391290,9178.553681
4214.356621,4290.134789,-1702.473667,9326.594869
4214.356937,3524.039291,-2072.576638,9622.677246
4214.357252,2681.334243,-1332.370696,9992.780217
4214.357567,2757.943793,-1258.350101,10288.862594
4214.357883,2757.943793,-1110.308913,9992.780217
4214.358198,3217.601092,-1406.391290,10436.903782
4214.358513,3140.991542,-1924.535449,10066.800811
4214.358829,2681.334243,-2368.659014,9474.636058
4214.359144,1991.848295,-1776.494261,9992.780217
4214.359459,1608.800546,-1480.411884,9770.718434
4214.359775,1378.971896,-1258.350101,10214.842000
4214.360090,2221.676944,-1110.308913,9918.759623
4214.360406,1915.238745,-1628.453072,9844.739029
4214.360721,1378.971896,-1998.556043,10362.883188
4214.361036,1072.533697,-1850.514855,10140.821405
4214.361352,919.314598,-2220.617826,9918.759623
4214.361667,919.314598,-1406.391290,9918.759623
4214.361982,1225.752797,-1628.453072,9400.615463
4214.362298,1149.143247,-1184.329507,9400.615463
4214.362613,1149.143247,-1110.308913,9548.656652
4214.362928,689.485948,-1110.308913,10362.883188
4214.363244,-153.219100,-1924.535449,10584.944971
4214.363559,76.609550,-2072.576638,9992.780217
4214.363874,229.828649,-2516.700203,9918.759623
4214.364190,689.485948,-2886.803174,9548.656652
4214.364505,1225.752797,-2294.638420,9474.636058
4214.364820,1838.629195,-1258.350101,9252.574275
4214.365136,1149.143247,-1036.288319,8660.409521
4214.365451,1225.752797,-592.164754,8586.388927
4214.365767,1225.752797,-888.247130,8956.491898
4214.366082,1302.362347,-1110.308913,9474.636058
4214.366397,1455.581446,-2368.659014,10140.821405
4214.366713,1302.362347,-2664.741391,9696.697840
4214.367028,1762.019645,-2812.782580,9400.615463
4214.367343,1991.848295,-2146.597232,9474.636058
4214.367659,2145.067394,-1110.308913,8734.430116
4214.367974,2145.067394,-148.041188,8586.388927
4214.368289,2068.457845,296.082377,8364.327145
4214.368605,1991.848295,-370.102971,8734.430116
4214.368920,1608.800546,-1036.288319,9696.697840
4214.369235,1455.581446,-1776.494261,10214.842000
4214.369551,2145.067394,-4071.132681,11177.109724
4214.369866,2451.505594,-3330.926739,11251.130318
4214.370181,3140.991542,-3552.988522,10881.027347
4214.370497,3753.867940,-2590.720797,10362.883188
4214.370812,4519.963438,-740.205942,8808.450710
4214.371128,4673.182538,296.082377,7846.182985
4214.371443,4366.744339,962.267725,8068.244768
4214.371758,4060.306139,74.020594,7624.121203
4214.372074,3217.601092,-962.267725,8808.450710
4214.372389,2987.772442,-2368.659014,9918.759623
4214.372704,2987.772442,-4737.318029,11251.130318
4214.373020,2757.943793,-4811.338623,11843.295072
4214.373335,3064.381992,-5107.421000,12657.521608
4214.373650,3983.696590,-3923.091493,11843.295072
4214.373966,4213.525239,-2664.741391,10807.006753
4214.374281,4366.744339,-1332.370696,9104.533087
4214.374596,4519.963438,-296.082377,7624.121203
4214.374912,4366.744339,296.082377,6587.832884
4214.375227,3600.648841,592.164754,6513.812290
4214.375542,2451.505594,-0.000000,7624.121203
4214.375858,1762.019645,-1850.514855,9178.553681
4214.376173,766.095498,-3034.844362,10732.986159
4214.376489,383.047749,-4737.318029,12657.521608
4214.376804,76.609550,-5107.421000,13767.830521
4214.377119,919.314598,-5255.462188,14211.954086
4214.377435,2528.115143,-4959.379811,13027.624579
4214.377750,4366.744339,-3256.906145,10732.986159
4214.378065,4903.011187,-1480.411884,8586.388927
4214.378381,4979.620737,592.164754,6143.709319
4214.378696,4596.572988,1702.473667,5033.400406
4214.379011,3600.648841,888.247130,4145.153275
4214.379327,2221.676944,-74.020594,5181.441594
4214.379642,229.828649,-1110.308913,7105.977043
4214.379957,-1762.019645,-2368.659014,9030.512492
4214.380273,-2528.115143,-5255.462188,12213.398043
4214.380588,-2757.943793,-6439.791695,12583.501014
4214.380903,-2987.772442,-6439.791695,12953.603985
4214.381219,-2221.676944,-6069.688724,13619.789333
4214.381534,-766.095498,-4737.318029,13249.686362
4214.381850,995.924147,-2368.659014,12139.377449
4214.382165,2911.162892,370.102971,8956.491898
4214.382480,3600.648841,2442.679609,7402.059420
4214.382796,3983.696590,3034.844362,7031.956449
4214.383111,4596.572988,2368.659014,6809.894666
4214.383426,4060.306139,1702.473667,6809.894666
4214.383742,3217.601092,-0.000000,7994.224174
4214.384057,2145.067394,-2146.597232,9178.553681
4214.384372,995.924147,-4811.338623,10510.924376
4214.384688,306.438199,-5847.626942,11177.109724
4214.385003,-842.705048,-6365.771101,11621.233289
4214.385318,-1149.143247,-5995.668130,11177.109724
4214.385634,-459.657299,-4811.338623,10362.883188
4214.385949,383.047749,-2516.700203,9474.636058
4214.386264,1378.971896,-1332.370696,8216.285956
4214.386580,2451.505594,222.061783,7254.018232
4214.386895,2911.162892,814.226536,7105.977043
4214.387210,3677.258390,1480.411884,7402.059420
4214.387526,3677.258390,1184.329507,8216.285956
4214.387841,3907.087040,888.247130,9030.512492
4214.388157,3677.258390,-0.000000,10436.903782
4214.388472,3600.648841,-888.247130,11177.109724
4214.388787,2911.162892,-1850.514855,11547.212695
4214.389103,2145.067394,-2294.638420,11917.315666
4214.389418,1302.362347,-2516.700203,11399.171507
4214.389733,1455.581446,-2072.576638,10066.800811
4214.390049,1455.581446,-1850.514855,8882.471304
4214.390364,1762.019645,-1702.473667,9104.533087
4214.390679,1762.019645,-1110.308913,8586.388927
4214.390995,2221.676944,-740.205942,7846.182985
4214.391310,2757.943793,-222.061783,8438.347739
4214.391625,3370.820191,-0.000000,9400.615463
4214.391941,3447.429741,-296.082377,10066.800811
4214.392256,3447.429741,-888.247130,10436.903782
4214.392572,3677.258390,-888.247130,11177.109724
4214.392887,4213.525239,-962.267725,10955.047942
4214.393203,4136.915689,-666.185348,10362.883188
4214.393518,3370.820191,-444.123565,10214.842000
4214.393833,2681.334243,-222.061783,9474.636058
4214.394149,2145.067394,-296.082377,8882.471304
4214.394464,1762.019645,-814.226536,8660.409521
4214.394780,1455.581446,-1628.453072,9252.574275
4214.395095,306.438199,-2294.638420,9622.677246
4214.395411,536.266849,-2812.782580,9770.718434
4214.395726,-229.828649,-3256.906145,10362.883188
4214.396041,383.047749,-3552.988522,10881.027347
4214.396357,995.924147,-3404.947333,10584.944971
4214.396672,689.485948,-2368.659014,10436.903782
4214.396988,689.485948,-1258.350101,9622.677246
4214.397303,383.047749,-740.205942,8882.471304
4214.397618,842.705048,-444.123565,8882.471304
4214.397934,842.705048,-740.205942,8734.430116
4214.398249,612.876398,-814.226536,8808.450710
4214.398565,76.609550,-1110.308913,9104.533087
4214.398880,0.000000,-1850.514855,9918.759623
4214.399196,306.438199,-2368.659014,10658.965565
4214.399511,459.657299,-3256.906145,11251.130318
4214.399826,689.485948,-3330.926739,11547.212695
4214.400142,1149.143247,-3404.947333,10807.006753
4214.400457,1685.410096,-3034.844362,9992.780217
4214.400773,2145.067394,-2368.659014,8882.471304
4214.401088,2221.676944,-1554.432478,8586.388927
4214.401403,2757.943793,-1258.350101,7772.162391
4214.401719,3294.210641,-1036.288319,7624.121203
4214.402034,3600.648841,-1332.370696,7254.018232
4214.402350,3600.648841,-1628.453072,7846.182985
4214.402665,3677.258390,-2072.576638,8586.388927
4214.402981,2757.943793,-2442.679609,9770.718434
4214.403296,2834.553343,-3034.844362,10140.821405
4214.403611,3140.991542,-3701.029710,10584.944971
4214.403927,3217.601092,-3404.947333,10732.986159
4214.404242,3217.601092,-2960.823768,10658.965565
4214.404558,3140.991542,-2368.659014,10066.800811
4214.404873,3753.867940,-2072.576638,9770.718434
4214.405188,4519.963438,-1776.494261,9326.594869
4214.405504,4903.011187,-1850.514855,8956.491898
4214.405819,4903.011187,-1850.514855,9030.512492
4214.406135,4443.353888,-2146.597232,9030.512492
4214.406450,4443.353888,-2812.782580,9696.697840
4214.406766,4443.353888,-3108.864956,10066.800811
4214.407081,3753.867940,-3182.885551,10214.842000
4214.407396,2987.772442,-3404.947333,9992.780217
4214.407712,3217.601092,-3256.906145,10658.965565
4214.408027,2987.772442,-3256.906145,9844.739029
4214.408343,2604.724693,-3108.864956,9474.636058
4214.408658,2451.505594,-2960.823768,10140.821405
4214.408974,1915.238745,-2590.720797,10066.800811
4214.409289,2221.676944,-2738.761985,9770.718434
4214.409604,2451.505594,-2072.576638,9918.759623
4214.409920,2221.676944,-2072.576638,9918.759623
4214.410235,1991.848295,-1998.556043,10362.883188
4214.410551,1991.848295,-2146.597232,10436.903782
4214.410866,2221.676944,-2590.720797,10584.944971
4214.411181,2221.676944,-2442.679609,10510.924376
4214.411497,2221.676944,-2294.638420,10140.821405
4214.411812,2068.457845,-2368.659014,9326.594869
4214.412128,2374.896044,-2368.659014,9030.512492
4214.412443,2298.286494,-2368.659014,9104.533087
4214.412759,2221.676944,-2368.659014,7920.203579
4214.413074,1838.629195,-2294.638420,7920.203579
4214.413389,1072.533697,-1998.556043,7846.182985
4214.413705,612.876398,-2294.638420,7994.224174
4214.414020,153.219100,-1924.535449,7994.224174
4214.414336,-229.828649,-2072.576638,8290.306550
4214.414651,-919.314598,-1998.556043,8586.388927
4214.414966,-1072.533697,-2368.659014,9400.615463
4214.415282,-842.705048,-1924.535449,9770.718434
4214.415597,-766.095498,-1554.432478,9770.718434
4214.415913,-689.485948,-1110.308913,10066.800811
4214.416228,0.000000,-1184.329507,10732.986159
4214.416544,689.485948,-1258.350101,10732.986159
4214.416859,1302.362347,-1036.288319,10658.965565
4214.417174,2068.457845,-666.185348,10140.821405
4214.417490,2757.943793,-518.144159,9844.739029
4214.417805,3447.429741,-222.061783,9326.594869
4214.418121,3600.648841,-444.123565,8956.491898
4214.418436,2987.772442,-370.102971,8586.388927
4214.418751,2451.505594,-444.123565,8660.409521
4214.419067,2221.676944,-518.144159,8512.368333
4214.419382,1762.019645,-1554.432478,8290.306550
4214.419698,842.705048,-1924.535449,9178.553681
4214.420013,76.609550,-2368.659014,10066.800811
4214.420329,76.609550,-2812.782580,11029.068536
4214.420644,459.657299,-2960.823768,11991.336260
4214.420959,1532.190996,-2442.679609,12731.542202
4214.421275,2681.334243,-1924.535449,12953.603985
4214.421590,4213.525239,-1184.329507,11769.274478
4214.421906,5592.497135,148.041188,10510.924376
4214.422221,6281.983084,1184.329507,9474.636058
4214.422536,6128.763984,2442.679609,7772.162391
4214.422852,5669.106685,2590.720797,6809.894666
4214.423167,4826.401637,1924.535449,6587.832884
4214.423483,3217.601092,592.164754,7105.977043
4214.423798,1532.190996,-1184.329507,8882.471304
4214.424114,153.219100,-3330.926739,11251.130318
4214.424429,-306.438199,-5403.503377,13693.809927
4214.424744,-842.705048,-7031.956449,14656.077652
4214.425060,536.266849,-7328.038826,14434.015869
4214.425375,2757.943793,-5847.626942,13249.686362
4214.425691,4903.011187,-3034.844362,10510.924376
4214.426006,5898.935335,296.082377,7328.038826
4214.426322,6818.249932,2442.679609,5625.565159
4214.426637,7277.907231,3997.112087,3108.864956
4214.426952,6281.983084,3701.029710,2960.823768
4214.427268,4749.792088,2590.720797,4737.318029
4214.427583,2604.724693,-444.123565,8216.285956
4214.427899,612.876398,-4293.194464,10732.986159
4214.428214,-842.705048,-7476.080014,13767.830521
4214.428529,-1225.752797,-9104.533087,14508.036463
4214.428845,-536.266849,-9326.594869,14804.118840
4214.429160,306.438199,-7624.121203,13619.789333
4214.429476,1838.629195,-5181.441594,10658.965565
4214.429791,3524.039291,-1924.535449,7920.203579
4214.430107,4903.011187,1332.370696,5033.400406
4214.430422,4749.792088,2368.659014,4219.173869
4214.430737,4213.525239,1924.535449,4885.359217
4214.431053,3447.429741,-222.061783,6069.688724
4214.431368,2987.772442,-2072.576638,7624.121203
4214.431684,2528.115143,-3849.070898,10436.903782
4214.431999,995.924147,-5181.441594,11695.253884
4214.432314,153.219100,-6217.729913,12213.398043
4214.432630,0.000000,-5773.606348,12657.521608
4214.432945,-229.828649,-5625.565159,13027.624579
4214.433261,-306.438199,-3997.112087,11695.253884
4214.433576,-689.485948,-2590.720797,9548.656652
4214.433892,-229.828649,-1998.556043,8142.265362
4214.434207,383.047749,-1776.494261,7105.977043
4214.434522,689.485948,-962.267725,7105.977043
4214.434838,536.266849,-592.164754,6883.915261
4214.435153,919.314598,-444.123565,8512.368333
4214.435469,919.314598,-1184.329507,10362.883188
4214.435784,995.924147,-1702.473667,11473.192101
4214.436099,1225.752797,-2886.803174,12509.480420
4214.436415,1608.800546,-3849.070898,12879.583391
4214.436730,2298.286494,-4293.194464,11769.274478
4214.437046,2757.943793,-3701.029710,10362.883188
4214.437361,3217.601092,-1480.411884,8438.347739
4214.437677,3217.601092,222.061783,6809.894666
4214.437992,2374.896044,1110.308913,6217.729913
4214.438307,1455.581446,1258.350101,6883.915261
4214.438623,1762.019645,-148.041188,7772.162391
4214.438938,1072.533697,-1110.308913,8734.430116
4214.439254,612.876398,-2812.782580,9770.718434
4214.439569,1685.410096,-4441.235652,11547.212695
4214.439884,1915.238745,-4071.132681,12657.521608
4214.440200,2145.067394,-3108.864956,12657.521608
4214.440515,3064.381992,-1406.391290,12213.398043
4214.440831,4136.915689,296.082377,10584.944971
4214.441146,4979.620737,2220.617826,8586.388927
4214.441462,5745.716235,2368.659014,7550.100608
4214.441777,5592.497135,2294.638420,6883.915261
4214.442092,4443.353888,1850.514855,7254.018232
4214.442408,3140.991542,296.082377,8364.327145
4214.442723,2221.676944,-888.247130,9474.636058
4214.443039,1991.848295,-1924.535449,10362.883188
4214.443354,1838.629195,-3701.029710,11029.068536
4214.443670,2221.676944,-4737.318029,12139.377449
4214.443985,2451.505594,-4737.318029,12805.562797
4214.444300,1685.410096,-2886.803174,11917.315666
4214.444616,1302.362347,-1924.535449,11029.068536
4214.444931,2604.724693,-370.102971,9696.697840
4214.445247,4749.792088,222.061783,7476.080014
4214.445562,5592.497135,1036.288319,6735.874072
4214.445877,4903.011187,1554.432478,6809.894666
4214.446193,3140.991542,1258.350101,7105.977043
4214.446508,1532.190996,814.226536,8734.430116
4214.446824,1072.533697,-888.247130,9918.759623
4214.447139,612.876398,-2442.679609,11029.068536
4214.447455,1455.581446,-4515.256246,11843.295072
4214.447770,1072.533697,-4885.359217,11621.233289
4214.448085,-229.828649,-5181.441594,12287.418637
4214.448401,-1149.143247,-3849.070898,11843.295072
4214.448716,-766.095498,-1406.391290,9992.780217
4214.449032,1302.362347,-370.102971,7772.162391
4214.449347,3370.820191,-148.041188,6513.812290
4214.449662,3677.258390,814.226536,5699.585753
4214.449978,1838.629195,-0.000000,5773.606348
4214.450293,0.000000,-370.102971,7624.121203
4214.450609,-459.657299,-74.020594,8216.285956
4214.450924,-229.828649,-1702.473667,9622.677246
4214.451240,919.314598,-3701.029710,11103.089130
4214.451555,229.828649,-4219.173869,11695.253884
4214.451870,-1532.190996,-4515.256246,12879.583391
4214.452186,-2374.896044,-3478.967927,11843.295072
4214.452501,-2604.724693,-1628.453072,11325.150913
4214.452817,229.828649,-1036.288319,9548.656652
4214.453132,2374.896044,148.041188,8142.265362
4214.453447,2374.896044,1924.535449,6513.812290
4214.453763,1302.362347,962.267725,7179.997637
4214.454078,0.000000,740.205942,7698.141797
4214.454394,229.828649,-74.020594,8364.327145
4214.454709,995.924147,-962.267725,9622.677246
4214.455025,229.828649,-666.185348,10584.944971
4214.455340,-1532.190996,-2294.638420,12065.356855
4214.455655,-2528.115143,-3404.947333,13027.624579
4214.455971,-2451.505594,-3256.906145,12509.480420
4214.456286,-689.485948,-2590.720797,11991.336260
4214.456602,842.705048,-1036.288319,10584.944971
4214.456917,995.924147,592.164754,9252.574275
4214.457233,1072.533697,1850.514855,7772.162391
4214.457548,1378.971896,2294.638420,7031.956449
4214.457863,1685.410096,1998.556043,7179.997637
4214.458179,2834.553343,1110.308913,8438.347739
4214.458494,2987.772442,888.247130,9178.553681
4214.458810,1225.752797,148.041188,9474.636058
4214.459125,-306.438199,-888.247130,10955.047942
4214.459440,-689.485948,-1924.535449,11695.253884
4214.459756,459.657299,-3330.926739,12065.356855
4214.460071,1685.410096,-1628.453072,11399.171507
4214.460387,1149.143247,-666.185348,9992.780217
4214.460702,1225.752797,-0.000000,8438.347739
4214.461018,1378.971896,2220.617826,7328.038826
4214.461333,2298.286494,2072.576638,6735.874072
4214.461648,2987.772442,2738.761985,7254.018232
4214.461964,1532.190996,2368.659014,6957.935855
4214.462279,1225.752797,1184.329507,8216.285956
4214.462595,-383.047749,962.267725,10140.821405
4214.462910,-1455.581446,-296.082377,10807.006753
4214.463225,-383.047749,-1036.288319,12213.398043
4214.463541,-306.438199,-370.102971,11769.274478
4214.463856,-995.924147,-148.041188,11473.192101
4214.464172,-919.314598,740.205942,10658.965565
4214.464487,0.000000,1628.453072,10066.800811
4214.464803,612.876398,2368.659014,8808.450710
4214.465118,1149.143247,3478.967927,7772.162391
4214.465433,842.705048,2886.803174,7254.018232
4214.465749,-766.095498,2738.761985,8882.471304
4214.466064,-1455.581446,2368.659014,8956.491898
4214.466380,-1302.362347,-0.000000,10362.883188
4214.466695,-995.924147,-296.082377,11251.130318
4214.467010,-689.485948,-1406.391290,11843.295072
4214.467326,-2145.067394,-1554.432478,11621.233289
4214.467641,-2221.676944,-370.102971,11399.171507
4214.467957,-1455.581446,-0.000000,10807.006753
4214.468272,0.000000,888.247130,9548.656652
4214.468588,1378.971896,2442.679609,8438.347739
4214.468903,229.828649,1332.370696,7698.141797
4214.469218,-612.876398,2368.659014,7179.997637
4214.469534,-766.095498,1776.494261,7476.080014
4214.469849,-689.485948,222.061783,9326.594869
4214.470165,-536.266849,-0.000000,10214.842000
4214.470480,-1225.752797,-592.164754,10881.027347
4214.470795,-1685.410096,-1258.350101,11251.130318
4214.471111,-2221.676944,-888.247130,10658.965565
4214.471426,-1455.581446,-1332.370696,10955.047942
4214.471742,0.000000,-666.185348,10955.047942
4214.472057,383.047749,-0.000000,9400.615463
4214.472373,306.438199,1110.308913,8512.368333
4214.472688,766.095498,2294.638420,7254.018232
4214.473003,459.657299,2146.597232,6883.915261
4214.473319,995.924147,1628.453072,8364.327145
4214.473634,766.095498,888.247130,8586.388927
4214.473950,0.000000,-222.061783,9622.677246
4214.474265,-689.485948,-296.082377,10362.883188
4214.474581,-689.485948,-518.144159,10510.924376
4214.474896,-153.219100,-1998.556043,11399.171507
4214.475211,1608.800546,-2294.638420,12361.439231
4214.475527,383.047749,-296.082377,11325.150913
4214.475842,0.000000,-0.000000,9622.677246
4214.476158,766.095498,1184.329507,8734.430116
4214.476473,2068.457845,1702.473667,8216.285956
4214.476788,2757.943793,1628.453072,8438.347739
4214.477104,2528.115143,814.226536,7994.224174
4214.477419,1225.752797,-0.000000,9178.553681
4214.477735,306.438199,-148.041188,9400.615463
4214.478050,0.000000,-1110.308913,10066.800811
4214.478366,536.266849,-1850.514855,11547.212695
4214.478681,689.485948,-1850.514855,11473.192101
4214.478996,0.000000,-1998.556043,11029.068536
4214.479312,-306.438199,-962.267725,10288.862594
4214.479627,0.000000,-222.061783,9918.759623
4214.479943,612.876398,-148.041188,9178.553681
4214.480258,1072.533697,962.267725,8808.450710
4214.480573,459.657299,666.185348,7772.162391
4214.480889,0.000000,-0.000000,7994.224174
4214.481204,-306.438199,518.144159,8586.388927
4214.481520,306.438199,-444.123565,9474.636058
4214.481835,-229.828649,-1184.329507,9992.780217
4214.482151,-383.047749,-1036.288319,10288.862594
4214.482466,-1302.362347,-1554.432478,10436.903782
4214.482781,-1532.190996,-1110.308913,10214.842000
4214.483097,0.000000,-1406.391290,9992.780217
4214.483412,536.266849,-888.247130,10140.821405
4214.483728,536.266849,370.102971,8660.409521
4214.484043,0.000000,148.041188,7624.121203
4214.484358,-536.266849,888.247130,7994.224174
4214.484674,0.000000,962.267725,8142.265362
4214.484989,383.047749,1036.288319,8512.368333
4214.485305,612.876398,74.020594,8956.491898
4214.485620,0.000000,-666.185348,9918.759623
4214.485936,-1149.143247,-1110.308913,10732.986159
4214.486251,-1225.752797,-518.144159,10658.965565
4214.486566,-536.266849,-888.247130,10955.047942
4214.486882,612.876398,-148.041188,10881.027347
4214.487197,766.095498,814.226536,9548.656652
4214.487513,306.438199,1258.350101,9178.553681
4214.487828,-689.485948,1924.535449,8216.285956
4214.488143,0.000000,2442.679609,8512.368333
4214.488459,766.095498,1184.329507,9252.574275
4214.488774,842.705048,1554.432478,8956.491898
4214.489090,0.000000,-0.000000,9918.759623
4214.489405,-1685.410096,-0.000000,10288.862594
4214.489721,-995.924147,-74.020594,10732.986159
4214.490036,0.000000,-444.123565,11769.274478
4214.490351,76.609550,222.061783,10881.027347
4214.490667,306.438199,-74.020594,10510.924376
4214.490982,383.047749,222.061783,10288.862594
4214.491298,76.609550,1628.453072,9104.533087
4214.491613,919.314598,888.247130,8734.430116
4214.491929,1991.848295,1776.494261,8808.450710
4214.492244,1838.629195,1702.473667,8512.368333
4214.492557,306.438199,592.164754,8956.491898
4214.492873,-153.219100,888.247130,9474.636058
4214.493188,76.609550,-222.061783,9918.759623
4214.493504,689.485948,-962.267725,10807.006753
4214.493819,689.485948,-444.123565,10510.924376
4214.494135,0.000000,-962.267725,10658.965565
4214.494450,-153.219100,-518.144159,10288.862594
4214.494766,229.828649,-0.000000,9178.553681
4214.495081,842.705048,-0.000000,9400.615463
4214.495397,1072.533697,1406.391290,8882.471304
4214.495712,1149.143247,1110.308913,7994.224174
4214.496028,229.828649,1110.308913,8512.368333
4214.496343,0.000000,1554.432478,7772.162391
4214.496659,612.876398,-74.020594,9622.677246
4214.496974,842.705048,-0.000000,10362.883188
4214.497290,76.609550,-296.082377,10214.842000
4214.497605,-689.485948,-814.226536,10584.944971
4214.497921,-1378.971896,-222.061783,10510.924376
4214.498236,-1302.362347,-0.000000,10436.903782
4214.498551,0.000000,296.082377,10066.800811
4214.498867,153.219100,370.102971,9400.615463
4214.499182,0.000000,444.123565,9400.615463
4214.499498,-919.314598,1480.411884,8364.327145
4214.499813,-536.266849,962.267725,9178.553681
4214.500129,919.314598,518.144159,9400.615463
4214.500444,995.924147,-0.000000,9548.656652
4214.500760,459.657299,-370.102971,9622.677246
4214.501075,-536.266849,-666.185348,9918.759623
4214.501391,-919.314598,-444.123565,10066.800811
4214.501706,-612.876398,-1332.370696,10288.862594
4214.502022,842.705048,-1332.370696,9992.780217
4214.502337,459.657299,-962.267725,9178.553681
4214.502653,0.000000,-962.267725,8808.450710
4214.502968,-536.266849,-370.102971,9474.636058
4214.503284,76.609550,-444.123565,8882.471304
4214.503599,459.657299,-666.185348,9622.677246
4214.503915,766.095498,-0.000000,9178.553681
4214.504230,0.000000,-740.205942,9474.636058
4214.504546,-383.047749,-0.000000,8956.491898
4214.504861,-459.657299,-444.123565,9474.636058
4214.505176,842.705048,-1184.329507,10732.986159
4214.505492,1991.848295,-518.144159,9622.677246
4214.505807,1072.533697,-296.082377,9104.533087
4214.506123,0.000000,296.082377,9178.553681
4214.506438,76.609550,-296.082377,9326.594869
4214.506754,153.219100,-222.061783,9030.512492
4214.507069,153.219100,-444.123565,9252.574275
4214.507385,153.219100,-518.144159,9178.553681
4214.507700,-76.609550,-962.267725,9844.739029
4214.508016,-1762.019645,518.144159,9474.636058
4214.508331,-536.266849,-296.082377,9474.636058
4214.508647,383.047749,-444.123565,11251.130318
4214.508962,1072.533697,-148.041188,10807.006753
4214.509278,995.924147,-148.041188,10288.862594
4214.509593,459.657299,888.247130,9474.636058
4214.509909,306.438199,1110.308913,9030.512492
4214.510224,1455.581446,296.082377,9326.594869
4214.510540,2068.457845,814.226536,9474.636058
4214.510855,1225.752797,592.164754,8586.388927
4214.511171,0.000000,444.123565,8660.409521
4214.511486,-536.266849,888.247130,8734.430116
4214.511801,76.609550,-296.082377,9474.636058
4214.512117,0.000000,-666.185348,9918.759623
4214.512432,-153.219100,-814.226536,9844.739029
4214.512748,-689.485948,-1258.350101,9918.759623
4214.513063,-842.705048,-148.041188,9918.759623
4214.513379,-459.657299,518.144159,10140.821405
4214.513694,766.095498,740.205942,9696.697840
4214.514010,612.876398,1924.535449,9030.512492
4214.514325,383.047749,1258.350101,8734.430116
4214.514641,0.000000,1924.535449,8512.368333
4214.514956,0.000000,2368.659014,8438.347739
4214.515272,229.828649,1258.350101,9696.697840
4214.515587,383.047749,1036.288319,9992.780217
4214.515903,-536.266849,592.164754,10214.842000
4214.516218,-1532.190996,-0.000000,10066.800811
4214.516534,-2145.067394,-0.000000,10214.842000
4214.516849,-1608.800546,-1110.308913,11251.130318
4214.517165,76.609550,-888.247130,10658.965565
