#time,accel_x,accel_y,accel_z
3728.498008,1685.410096,1036.288319,9548.656652
3728.498323,2528.115143,1702.473667,9030.512492
3728.498637,2834.553343,2442.679609,8956.491898
3728.498952,3217.601092,2664.741391,8808.450710
3728.499267,3447.429741,2368.659014,8808.450710
3728.499581,3064.381992,2072.576638,8734.430116
3728.499896,2298.286494,1924.535449,9104.533087
3728.500211,1378.971896,962.267725,9252.574275
3728.500525,153.219100,-370.102971,9474.636058
3728.500840,76.609550,-1258.350101,10214.842000
3728.501155,-842.705048,-1480.411884,10066.800811
3728.501469,-1532.190996,-2294.638420,10140.821405
3728.501784,-1532.190996,-1998.556043,10066.800811
3728.502099,-1378.971896,-1628.453072,9696.697840
3728.502413,-995.924147,-888.247130,9252.574275
3728.502728,-459.657299,-518.144159,8586.388927
3728.503043,153.219100,-222.061783,8808.450710
3728.503357,536.266849,-148.041188,8882.471304
3728.503672,229.828649,518.144159,9104.533087
3728.503987,995.924147,370.102971,9474.636058
3728.504301,229.828649,-0.000000,8808.450710
3728.504616,383.047749,-296.082377,9548.656652
3728.504931,383.047749,-148.041188,9844.739029
3728.505245,76.609550,-370.102971,9474.636058
3728.505560,-229.828649,-666.185348,9696.697840
3728.505875,-383.047749,-1110.308913,9622.677246
3728.506189,-612.876398,-1332.370696,9770.718434
3728.506504,-689.485948,-1406.391290,9548.656652
3728.506818,-1149.143247,-1406.391290,9104.533087
3728.507133,0.000000,-1332.370696,9400.615463
3728.507448,-383.047749,-1554.432478,9548.656652
3728.507762,0.000000,-1332.370696,9548.656652
3728.508077,0.000000,-1110.308913,9326.594869
3728.508392,153.219100,-814.226536,9326.594869
3728.508706,383.047749,-222.061783,9622.677246
3728.509021,612.876398,296.082377,9474.636058
3728.509336,766.095498,148.041188,9696.697840
3728.509650,919.314598,-0.000000,9474.636058
3728.509965,919.314598,-0.000000,9400.615463
3728.510280,689.485948,-0.000000,8882.471304
3728.510594,536.266849,-0.000000,8734.430116
3728.510909,766.095498,-74.020594,9252.574275
3728.511224,306.438199,-370.102971,8956.491898
3728.511538,76.609550,-814.226536,9252.574275
3728.511853,0.000000,-518.144159,9252.574275
3728.512168,0.000000,-444.123565,9474.636058
3728.512482,0.000000,-0.000000,9474.636058
3728.512797,229.828649,518.144159,9252.574275
3728.513112,0.000000,740.205942,9104.533087
3728.513426,229.828649,888.247130,9178.553681
3728.513741,612.876398,1258.350101,8956.491898
3728.514056,1225.752797,1406.391290,9400.615463
3728.514370,919.314598,1406.391290,9326.594869
3728.514685,689.485948,1628.453072,9770.718434
3728.515000,383.047749,1332.370696,10066.800811
3728.515314,76.609550,1332.370696,10510.924376
3728.515629,153.219100,1036.288319,10362.883188
3728.515944,229.828649,1110.308913,10214.842000
3728.516258,-229.828649,1332.370696,10362.883188
3728.516573,0.000000,1184.329507,9474.636058
3728.516888,0.000000,1480.411884,9844.739029
3728.517202,0.000000,1110.308913,9844.739029
3728.517517,-459.657299,888.247130,9622.677246
3728.517831,-153.219100,814.226536,9844.739029
3728.518146,-306.438199,814.226536,10362.883188
3728.518461,0.000000,666.185348,10881.027347
3728.518775,0.000000,444.123565,10807.006753
3728.519090,-229.828649,666.185348,10658.965565
3728.519405,229.828649,888.247130,10807.006753
3728.519719,0.000000,1110.308913,10584.944971
3728.520034,459.657299,1258.350101,10436.903782
3728.520349,612.876398,1110.308913,9622.677246
3728.520663,536.266849,888.247130,9622.677246
3728.520978,306.438199,962.267725,9992.780217
3728.521293,-76.609550,592.164754,9844.739029
3728.521607,0.000000,-0.000000,10214.842000
3728.521922,-229.828649,-222.061783,10288.862594
3728.522237,0.000000,-370.102971,9992.780217
3728.522551,153.219100,-814.226536,9474.636058
3728.522866,-153.219100,-370.102971,9918.759623
3728.523181,0.000000,-518.144159,9844.739029
3728.523495,306.438199,-148.041188,9400.615463
3728.523810,306.438199,-0.000000,9400.615463
3728.524125,229.828649,444.123565,9400.615463
3728.524439,536.266849,296.082377,8882.471304
3728.524754,459.657299,-0.000000,9326.594869
3728.525069,153.219100,-0.000000,9326.594869
3728.525383,306.438199,-148.041188,9400.615463
3728.525698,842.705048,-444.123565,9252.574275
3728.526013,0.000000,-222.061783,9178.553681
3728.526327,0.000000,-222.061783,9030.512492
3728.526642,229.828649,-370.102971,9104.533087
3728.526957,0.000000,-370.102971,9104.533087
3728.527271,0.000000,-814.226536,9104.533087
3728.527586,0.000000,-444.123565,8882.471304
3728.527901,-153.219100,-592.164754,9104.533087
3728.528215,0.000000,-740.205942,9104.533087
3728.528530,0.000000,-592.164754,9104.533087
3728.528845,0.000000,-962.267725,9474.636058
3728.529159,-306.438199,-814.226536,9400.615463
3728.529474,0.000000,-1036.288319,9400.615463
3728.529788,153.219100,-370.102971,9548.656652
3728.530103,0.000000,-518.144159,9474.636058
3728.530418,153.219100,-296.082377,9474.636058
3728.530732,153.219100,-518.144159,9326.594869
3728.531047,153.219100,-518.144159,9474.636058
3728.531362,0.000000,-296.082377,9400.615463
3728.531676,-306.438199,-74.020594,9474.636058
3728.531991,0.000000,-444.123565,9548.656652
3728.532306,153.219100,-666.185348,9696.697840
3728.532620,-306.438199,-1036.288319,9696.697840
3728.532935,-459.657299,-666.185348,9844.739029
3728.533250,-383.047749,-740.205942,9622.677246
3728.533564,-153.219100,-592.164754,9622.677246
3728.533879,0.000000,-296.082377,9770.718434
3728.534194,0.000000,-296.082377,9844.739029
3728.534508,0.000000,-148.041188,9622.677246
3728.534823,-229.828649,-222.061783,9474.636058
3728.535138,0.000000,-0.000000,9918.759623
3728.535452,76.609550,518.144159,9474.636058
3728.535767,459.657299,296.082377,9548.656652
3728.536082,229.828649,-0.000000,9252.574275
3728.536396,459.657299,148.041188,9326.594869
3728.536711,306.438199,296.082377,9400.615463
3728.537025,153.219100,148.041188,9400.615463
3728.537340,153.219100,666.185348,9622.677246
3728.537654,229.828649,592.164754,9400.615463
3728.537969,383.047749,518.144159,9622.677246
3728.538283,0.000000,518.144159,9474.636058
3728.538598,383.047749,814.226536,9474.636058
3728.538912,0.000000,814.226536,9326.594869
3728.539226,153.219100,740.205942,9474.636058
3728.539541,153.219100,148.041188,9474.636058
3728.539855,229.828649,888.247130,9548.656652
3728.540170,76.609550,888.247130,9474.636058
3728.540484,76.609550,888.247130,9622.677246
3728.540799,76.609550,1110.308913,9622.677246
3728.541113,76.609550,1184.329507,9992.780217
3728.541428,536.266849,1184.329507,9622.677246
3728.541742,153.219100,888.247130,9548.656652
3728.542057,383.047749,1036.288319,9622.677246
3728.542371,0.000000,888.247130,9770.718434
3728.542686,0.000000,740.205942,9696.697840
3728.543000,153.219100,666.185348,9770.718434
3728.543314,0.000000,518.144159,9992.780217
3728.543629,0.000000,444.123565,10214.842000
3728.543943,-306.438199,370.102971,10436.903782
3728.544258,229.828649,222.061783,10732.986159
3728.544572,0.000000,518.144159,10140.821405
3728.544887,76.609550,444.123565,10140.821405
3728.545201,76.609550,518.144159,10066.800811
3728.545516,0.000000,296.082377,9696.697840
3728.545830,76.609550,518.144159,9992.780217
3728.546145,306.438199,370.102971,9844.739029
3728.546459,459.657299,444.123565,9844.739029
3728.546773,0.000000,-0.000000,9918.759623
3728.547088,229.828649,-0.000000,9844.739029
3728.547402,459.657299,296.082377,9992.780217
3728.547717,0.000000,-0.000000,9992.780217
3728.548031,76.609550,-148.041188,10140.821405
3728.548346,76.609550,370.102971,9548.656652
3728.548660,-383.047749,-0.000000,9474.636058
3728.548975,153.219100,-0.000000,9474.636058
3728.549289,76.609550,-0.000000,9326.594869
3728.549604,306.438199,-0.000000,9474.636058
3728.549918,153.219100,-0.000000,9326.594869
3728.550233,0.000000,-0.000000,9252.574275
3728.550547,0.000000,-370.102971,9104.533087
3728.550861,76.609550,148.041188,9104.533087
3728.551176,76.609550,222.061783,9252.574275
3728.551490,0.000000,-74.020594,8956.491898
3728.551805,383.047749,-74.020594,9030.512492
3728.552119,459.657299,-0.000000,9030.512492
3728.552434,383.047749,-74.020594,9178.553681
3728.552748,229.828649,-148.041188,9104.533087
3728.553063,76.609550,-148.041188,9252.574275
3728.553377,153.219100,-296.082377,9252.574275
3728.553692,153.219100,-148.041188,9474.636058
3728.554006,0.000000,-444.123565,9474.636058
3728.554321,0.000000,-518.144159,9178.553681
3728.554635,0.000000,-296.082377,9326.594869
3728.554949,0.000000,-370.102971,9696.697840
3728.555264,0.000000,-0.000000,9622.677246
3728.555578,153.219100,-0.000000,9844.739029
3728.555893,76.609550,-222.061783,9548.656652
3728.556207,229.828649,-148.041188,9696.697840
3728.556522,229.828649,-0.000000,10214.842000
3728.556836,383.047749,-0.000000,9918.759623
3728.557151,229.828649,-0.000000,10140.821405
3728.557465,76.609550,-0.000000,9918.759623
3728.557780,76.609550,-148.041188,9622.677246
3728.558094,76.609550,-0.000000,9844.739029
3728.558409,0.000000,-0.000000,9918.759623
3728.558723,0.000000,-0.000000,10288.862594
3728.559037,-153.219100,-0.000000,9770.718434
3728.559352,-383.047749,148.041188,9474.636058
3728.559666,0.000000,296.082377,9992.780217
3728.559981,0.000000,666.185348,10066.800811
3728.560295,153.219100,296.082377,9844.739029
3728.560610,-459.657299,518.144159,9696.697840
3728.560924,0.000000,370.102971,9474.636058
3728.561239,153.219100,740.205942,9696.697840
3728.561553,229.828649,666.185348,9622.677246
3728.561868,383.047749,592.164754,9770.718434
3728.562182,229.828649,444.123565,9622.677246
3728.562497,76.609550,518.144159,9474.636058
3728.562811,0.000000,740.205942,9474.636058
3728.563125,229.828649,444.123565,9696.697840
3728.563440,76.609550,592.164754,9622.677246
3728.563754,0.000000,740.205942,9622.677246
3728.564069,229.828649,518.144159,9696.697840
3728.564383,0.000000,666.185348,9474.636058
3728.564698,459.657299,370.102971,9548.656652
3728.565012,459.657299,444.123565,9474.636058
3728.565327,612.876398,888.247130,9474.636058
3728.565641,689.485948,666.185348,9474.636058
3728.565956,306.438199,592.164754,9548.656652
3728.566270,459.657299,444.123565,9696.697840
3728.566585,306.438199,814.226536,9474.636058
3728.566899,76.609550,296.082377,9622.677246
3728.567213,459.657299,814.226536,9918.759623
3728.567528,306.438199,222.061783,9844.739029
3728.567842,459.657299,222.061783,9992.780217
3728.568157,0.000000,-0.000000,9474.636058
3728.568471,153.219100,296.082377,9844.739029
3728.568786,229.828649,-0.000000,9548.656652
3728.569100,383.047749,296.082377,9770.718434
3728.569415,153.219100,-0.000000,9548.656652
3728.569729,76.609550,-0.000000,9474.636058
3728.570044,-229.828649,370.102971,9548.656652
3728.570358,0.000000,296.082377,9622.677246
3728.570672,0.000000,-0.000000,9844.739029
3728.570987,0.000000,-0.000000,9548.656652
3728.571301,229.828649,-370.102971,9548.656652
3728.571616,153.219100,-0.000000,9548.656652
3728.571930,76.609550,-74.020594,9400.615463
3728.572245,0.000000,-148.041188,9474.636058
3728.572559,0.000000,-296.082377,9474.636058
3728.572874,229.828649,-370.102971,9474.636058
3728.573188,-153.219100,-74.020594,9400.615463
3728.573503,306.438199,-370.102971,9178.553681
3728.573817,306.438199,-74.020594,9252.574275
3728.574132,0.000000,-222.061783,9474.636058
3728.574446,306.438199,-444.123565,9622.677246
3728.574760,0.000000,-370.102971,9252.574275
3728.575075,229.828649,-148.041188,9474.636058
3728.575389,229.828649,-0.000000,9104.533087
3728.575704,76.609550,-74.020594,8956.491898
3728.576018,229.828649,-222.061783,9252.574275
3728.576333,536.266849,-370.102971,9400.615463
3728.576647,459.657299,-0.000000,9252.574275
3728.576962,0.000000,-148.041188,9326.594869
3728.577276,229.828649,-0.000000,9400.615463
3728.577591,153.219100,-592.164754,9844.739029
3728.577905,306.438199,-0.000000,9178.553681
3728.578220,229.828649,-0.000000,9548.656652
3728.578534,306.438199,-74.020594,9770.718434
3728.578848,229.828649,-222.061783,9474.636058
3728.579163,76.609550,-74.020594,9326.594869
3728.579477,229.828649,-0.000000,9696.697840
3728.579792,306.438199,-0.000000,9548.656652
3728.580106,229.828649,-0.000000,9474.636058
3728.580421,229.828649,-0.000000,9474.636058
3728.580735,459.657299,-0.000000,9696.697840
3728.581050,229.828649,-0.000000,9474.636058
3728.581364,0.000000,222.061783,9696.697840
3728.581679,0.000000,222.061783,9548.656652
3728.581993,229.828649,-0.000000,9770.718434
3728.582308,0.000000,-74.020594,9548.656652
3728.582622,-383.047749,-0.000000,9844.739029
3728.582936,-229.828649,-0.000000,9918.759623
3728.583251,0.000000,-74.020594,9474.636058
3728.583565,0.000000,222.061783,9770.718434
3728.583880,-153.219100,-0.000000,10066.800811
3728.584194,153.219100,370.102971,9844.739029
3728.584509,383.047749,444.123565,9770.718434
3728.584823,153.219100,370.102971,9474.636058
3728.585138,306.438199,-0.000000,9844.739029
3728.585452,0.000000,-0.000000,9548.656652
3728.585767,-153.219100,-0.000000,10066.800811
3728.586081,-229.828649,148.041188,9918.759623
3728.586396,0.000000,-0.000000,9622.677246
3728.586710,0.000000,370.102971,9918.759623
3728.587024,0.000000,296.082377,9548.656652
3728.587339,0.000000,518.144159,9474.636058
3728.587653,383.047749,518.144159,9548.656652
3728.587968,0.000000,370.102971,9844.739029
3728.588282,76.609550,518.144159,10140.821405
3728.588597,153.219100,518.144159,9548.656652
3728.588911,-229.828649,296.082377,9474.636058
3728.589226,153.219100,370.102971,9770.718434
3728.589540,0.000000,370.102971,9918.759623
3728.589855,0.000000,370.102971,9696.697840
3728.590169,76.609550,444.123565,9770.718434
3728.590484,306.438199,148.041188,9474.636058
3728.590798,229.828649,370.102971,9696.697840
3728.591112,0.000000,444.123565,9548.656652
3728.591427,306.438199,518.144159,9770.718434
3728.591741,153.219100,444.123565,9474.636058
3728.592056,306.438199,-0.000000,9548.656652
3728.592370,76.609550,370.102971,9474.636058
3728.592685,0.000000,-0.000000,9474.636058
3728.592999,76.609550,222.061783,9474.636058
3728.593314,383.047749,-0.000000,9622.677246
3728.593628,153.219100,-0.000000,9622.677246
3728.593943,76.609550,222.061783,9474.636058
3728.594257,0.000000,148.041188,9474.636058
3728.594572,76.609550,-0.000000,9474.636058
3728.594886,229.828649,-0.000000,9474.636058
3728.595200,-153.219100,-0.000000,9548.656652
3728.595515,459.657299,222.061783,9326.594869
3728.595829,229.828649,-74.020594,9474.636058
3728.596144,0.000000,-0.000000,9252.574275
3728.596458,153.219100,-222.061783,9326.594869
3728.596773,0.000000,-0.000000,9770.718434
3728.597087,0.000000,-444.123565,9474.636058
3728.597402,0.000000,-296.082377,9178.553681
3728.597716,76.609550,-296.082377,9548.656652
3728.598031,76.609550,-222.061783,9622.677246
3728.598345,383.047749,-222.061783,9696.697840
3728.598659,0.000000,-222.061783,9696.697840
3728.598974,0.000000,-0.000000,9696.697840
3728.599288,0.000000,-0.000000,9474.636058
3728.599603,-612.876398,-222.061783,9178.553681
3728.599917,76.609550,-0.000000,9474.636058
3728.600232,229.828649,-0.000000,9622.677246
3728.600546,0.000000,-0.000000,9548.656652
3728.600861,0.000000,222.061783,9474.636058
3728.601175,306.438199,296.082377,9770.718434
3728.601490,0.000000,-148.041188,9548.656652
3728.601804,0.000000,148.041188,9918.759623
3728.602119,0.000000,222.061783,9696.697840
3728.602433,0.000000,-0.000000,9474.636058
3728.602747,306.438199,296.082377,9992.780217
3728.603062,229.828649,222.061783,9474.636058
3728.603376,0.000000,-0.000000,9252.574275
3728.603691,153.219100,444.123565,9622.677246
3728.604005,153.219100,222.061783,9474.636058
3728.604320,459.657299,-0.000000,9622.677246
3728.604634,0.000000,370.102971,9548.656652
3728.604949,-306.438199,-74.020594,9400.615463
3728.605263,76.609550,296.082377,9474.636058
3728.605578,229.828649,370.102971,9474.636058
3728.605892,76.609550,-0.000000,9474.636058
3728.606207,229.828649,222.061783,9474.636058
3728.606521,0.000000,296.082377,9400.615463
3728.606835,153.219100,-0.000000,9474.636058
3728.607150,229.828649,370.102971,9326.594869
3728.607464,229.828649,148.041188,9770.718434
3728.607779,153.219100,-148.041188,9844.739029
3728.608093,459.657299,-0.000000,9548.656652
3728.608408,0.000000,444.123565,9770.718434
3728.608722,0.000000,296.082377,9770.718434
3728.609037,459.657299,370.102971,9992.780217
3728.609351,0.000000,444.123565,9918.759623
3728.609666,0.000000,222.061783,9770.718434
3728.609980,229.828649,370.102971,9770.718434
3728.610295,306.438199,592.164754,9918.759623
3728.610609,153.219100,-0.000000,10288.862594
3728.610923,0.000000,296.082377,9844.739029
3728.611238,0.000000,444.123565,10066.800811
3728.611552,0.000000,444.123565,9918.759623
3728.611867,-306.438199,444.123565,9844.739029
3728.612181,153.219100,296.082377,9770.718434
3728.612496,76.609550,222.061783,9992.780217
3728.612810,0.000000,296.082377,9770.718434
3728.613125,76.609550,296.082377,9696.697840
3728.613439,0.000000,222.061783,9474.636058
3728.613754,0.000000,518.144159,9548.656652
3728.614068,-383.047749,74.020594,9548.656652
3728.614383,-306.438199,74.020594,9548.656652
3728.614697,229.828649,222.061783,9474.636058
3728.615011,0.000000,-222.061783,9400.615463
3728.615326,0.000000,-222.061783,9474.636058
3728.615640,76.609550,222.061783,9548.656652
3728.615955,0.000000,222.061783,9104.533087
3728.616269,0.000000,-0.000000,9326.594869
3728.616584,459.657299,-0.000000,9400.615463
3728.616898,383.047749,222.061783,9252.574275
3728.617213,153.219100,-0.000000,9178.553681
3728.617527,306.438199,-0.000000,9178.553681
3728.617842,383.047749,222.061783,9548.656652
3728.618156,0.000000,-0.000000,9326.594869
3728.618471,306.438199,-444.123565,9548.656652
3728.618785,229.828649,-148.041188,9844.739029
3728.619099,0.000000,-74.020594,9400.615463
3728.619414,229.828649,-0.000000,9474.636058
3728.619728,153.219100,-222.061783,9770.718434
3728.620043,306.438199,-370.102971,9548.656652
3728.620357,229.828649,-296.082377,9696.697840
3728.620672,-459.657299,-148.041188,9474.636058
3728.620986,306.438199,-0.000000,9622.677246
3728.621301,0.000000,-0.000000,9844.739029
3728.621615,383.047749,-296.082377,9696.697840
3728.621930,0.000000,-74.020594,9696.697840
3728.622244,76.609550,-74.020594,9474.636058
3728.622558,153.219100,-74.020594,9548.656652
3728.622873,153.219100,-0.000000,9770.718434
3728.623187,229.828649,-148.041188,9696.697840
3728.623502,0.000000,-148.041188,9548.656652
3728.623816,0.000000,-222.061783,9252.574275
3728.624131,153.219100,148.041188,9918.759623
3728.624445,153.219100,-0.000000,10066.800811
3728.624760,-766.095498,-0.000000,9622.677246
3728.625074,0.000000,-0.000000,9474.636058
3728.625389,-229.828649,-0.000000,9474.636058
3728.625703,0.000000,-0.000000,9326.594869
3728.626018,76.609550,-0.000000,9326.594869
3728.626332,153.219100,370.102971,9622.677246
3728.626646,0.000000,370.102971,9400.615463
3728.626961,0.000000,444.123565,9104.533087
3728.627275,229.828649,-0.000000,9326.594869
3728.627590,306.438199,296.082377,9252.574275
3728.627904,0.000000,-0.000000,9548.656652
3728.628219,0.000000,-0.000000,9178.553681
3728.628533,76.609550,222.061783,9696.697840
3728.628848,229.828649,-0.000000,9400.615463
3728.629162,229.828649,370.102971,9252.574275
3728.629477,153.219100,-0.000000,9696.697840
3728.629791,306.438199,222.061783,9548.656652
3728.630106,306.438199,-0.000000,9474.636058
3728.630420,536.266849,222.061783,9770.718434
3728.630734,229.828649,148.041188,9696.697840
3728.631049,536.266849,222.061783,9548.656652
3728.631363,229.828649,296.082377,9474.636058
3728.631678,306.438199,-0.000000,9844.739029
3728.631992,76.609550,444.123565,9770.718434
3728.632307,306.438199,148.041188,9992.780217
3728.632621,0.000000,-0.000000,9770.718434
3728.632936,0.000000,-0.000000,9622.677246
3728.633250,76.609550,222.061783,9992.780217
3728.633565,229.828649,222.061783,9992.780217
3728.633879,76.609550,148.041188,10362.883188
3728.634194,153.219100,-0.000000,9696.697840
3728.634508,0.000000,296.082377,9400.615463
3728.634822,76.609550,296.082377,9770.718434
3728.635137,76.609550,370.102971,9992.780217
3728.635451,229.828649,222.061783,9622.677246
3728.635766,0.000000,-0.000000,9844.739029
3728.636080,306.438199,666.185348,9696.697840
3728.636395,306.438199,222.061783,9400.615463
3728.636709,0.000000,-0.000000,9400.615463
3728.637024,76.609550,222.061783,9770.718434
3728.637338,0.000000,-0.000000,9844.739029
3728.637653,76.609550,148.041188,9326.594869
3728.637967,0.000000,296.082377,9400.615463
3728.638282,76.609550,-0.000000,9474.636058
3728.638596,306.438199,444.123565,9548.656652
3728.638911,383.047749,-0.000000,9326.594869
3728.639226,153.219100,-222.061783,9400.615463
3728.639540,153.219100,-0.000000,9474.636058
3728.639855,306.438199,-0.000000,9326.594869
3728.640169,76.609550,-0.000000,9252.574275
3728.640484,0.000000,222.061783,9622.677246
3728.640798,76.609550,-222.061783,9474.636058
3728.641113,229.828649,-0.000000,9474.636058
3728.641427,76.609550,-0.000000,9622.677246
3728.641742,229.828649,-0.000000,9400.615463
3728.642056,306.438199,-74.020594,9474.636058
3728.642371,0.000000,-0.000000,9770.718434
3728.642686,459.657299,-0.000000,9474.636058
3728.643000,229.828649,-0.000000,9844.739029
3728.643315,76.609550,-0.000000,9696.697840
3728.643629,229.828649,-0.000000,9474.636058
3728.643944,306.438199,-0.000000,9844.739029
3728.644258,229.828649,-0.000000,9622.677246
3728.644573,0.000000,-0.000000,9844.739029
3728.644887,0.000000,-148.041188,9992.780217
3728.645202,229.828649,-74.020594,9474.636058
3728.645516,229.828649,296.082377,9548.656652
3728.645831,153.219100,148.041188,9622.677246
3728.646146,76.609550,-0.000000,9844.739029
3728.646460,306.438199,-74.020594,10066.800811
3728.646775,612.876398,-0.000000,9918.759623
3728.647089,0.000000,148.041188,9696.697840
3728.647404,459.657299,296.082377,9770.718434
3728.647718,766.095498,444.123565,9548.656652
3728.648033,689.485948,592.164754,9474.636058
3728.648347,766.095498,222.061783,9326.594869
3728.648662,995.924147,962.267725,8734.430116
3728.648976,612.876398,592.164754,9252.574275
3728.649291,1072.533697,518.144159,9474.636058
3728.649606,689.485948,222.061783,9104.533087
3728.649920,842.705048,148.041188,9104.533087
3728.650235,612.876398,148.041188,9474.636058
3728.650549,766.095498,296.082377,9918.759623
3728.650864,383.047749,444.123565,10066.800811
3728.651178,766.095498,666.185348,9622.677246
3728.651493,1378.971896,1110.308913,10140.821405
3728.651807,1838.629195,1480.411884,9918.759623
3728.652122,2221.676944,1554.432478,9474.636058
3728.652436,2221.676944,1924.535449,9474.636058
3728.652751,2911.162892,1850.514855,9030.512492
3728.653066,2834.553343,2146.597232,8808.450710
3728.653380,3294.210641,2516.700203,9178.553681
3728.653695,3217.601092,2442.679609,8882.471304
3728.654009,2757.943793,2368.659014,8586.388927
3728.654324,2987.772442,2072.576638,8882.471304
3728.654638,2451.505594,962.267725,9474.636058
3728.654953,1991.848295,1258.350101,9918.759623
3728.655267,1608.800546,1332.370696,10436.903782
3728.655582,1608.800546,1628.453072,10584.944971
3728.655896,1915.238745,1850.514855,10807.006753
3728.656211,2528.115143,2664.741391,9992.780217
3728.656526,2987.772442,3182.885551,9474.636058
3728.656840,3294.210641,3701.029710,9474.636058
3728.657155,3217.601092,3923.091493,9104.533087
3728.657469,3983.696590,4145.153275,9030.512492
3728.657784,3753.867940,4219.173869,8956.491898
3728.658098,3983.696590,3997.112087,9548.656652
3728.658413,3677.258390,3701.029710,9918.759623
3728.658727,3064.381992,3256.906145,9918.759623
3728.659042,2374.896044,3182.885551,10510.924376
3728.659357,2221.676944,3404.947333,10362.883188
3728.659671,1838.629195,3256.906145,10214.842000
3728.659986,1915.238745,3330.926739,9992.780217
3728.660300,1838.629195,3108.864956,9548.656652
3728.660615,1838.629195,3330.926739,9178.553681
3728.660929,1762.019645,3330.926739,9104.533087
3728.661244,2145.067394,3478.967927,9548.656652
3728.661558,1915.238745,3478.967927,9844.739029
3728.661873,1915.238745,3627.009116,10066.800811
3728.662187,1915.238745,3552.988522,10658.965565
3728.662502,1685.410096,3701.029710,11029.068536
3728.662817,1608.800546,4219.173869,11177.109724
3728.663131,1838.629195,4145.153275,11177.109724
3728.663446,2604.724693,3849.070898,10436.903782
3728.663760,2451.505594,3923.091493,9548.656652
3728.664075,2681.334243,3997.112087,9178.553681
3728.664389,2528.115143,3627.009116,9252.574275
3728.664704,2604.724693,2886.803174,8660.409521
3728.665018,2298.286494,2368.659014,8882.471304
3728.665333,1915.238745,1924.535449,9474.636058
3728.665647,1455.581446,2220.617826,9844.739029
3728.665962,995.924147,1702.473667,9992.780217
3728.666277,766.095498,1628.453072,10140.821405
3728.666591,766.095498,1850.514855,10584.944971
3728.666906,1225.752797,2220.617826,9770.718434
3728.667220,1838.629195,2664.741391,9770.718434
3728.667535,1915.238745,2442.679609,8956.491898
3728.667849,2604.724693,2516.700203,8956.491898
3728.668164,2757.943793,2516.700203,8512.368333
3728.668478,2298.286494,2294.638420,8512.368333
3728.668793,2221.676944,1998.556043,9474.636058
3728.669107,2298.286494,1332.370696,9474.636058
3728.669422,1762.019645,962.267725,9918.759623
3728.669737,1302.362347,666.185348,10658.965565
3728.670051,919.314598,444.123565,10732.986159
3728.670366,1302.362347,-0.000000,10732.986159
3728.670680,1685.410096,888.247130,9992.780217
3728.670995,2221.676944,1110.308913,8956.491898
3728.671309,2528.115143,1850.514855,7994.224174
3728.671624,2757.943793,2220.617826,8142.265362
3728.671938,3217.601092,1702.473667,8364.327145
3728.672253,3294.210641,1480.411884,7846.182985
3728.672567,3370.820191,1332.370696,8438.347739
3728.672882,2451.505594,888.247130,9104.533087
3728.673197,2451.505594,-0.000000,10140.821405
3728.673511,2451.505594,-296.082377,11177.109724
3728.673826,1685.410096,-0.000000,11029.068536
3728.674140,1915.238745,296.082377,10955.047942
3728.674455,2145.067394,1036.288319,10066.800811
3728.674769,2528.115143,1924.535449,8364.327145
3728.675084,2681.334243,2146.597232,8882.471304
3728.675398,3294.210641,2738.761985,8068.244768
3728.675713,3753.867940,2812.782580,7402.059420
3728.676027,3600.648841,2294.638420,7772.162391
3728.676342,3064.381992,1702.473667,8660.409521
3728.676657,2451.505594,666.185348,9696.697840
3728.676971,1838.629195,-0.000000,10732.986159
3728.677286,842.705048,-518.144159,11843.295072
3728.677600,76.609550,-148.041188,12435.459826
3728.677915,0.000000,592.164754,11991.336260
3728.678229,153.219100,1480.411884,11473.192101
3728.678544,995.924147,2812.782580,10140.821405
3728.678858,1838.629195,3552.988522,8438.347739
3728.679173,2757.943793,3701.029710,7105.977043
3728.679488,3447.429741,3701.029710,7105.977043
3728.679802,3907.087040,3182.885551,7105.977043
3728.680117,3140.991542,2368.659014,7476.080014
3728.680431,1991.848295,1036.288319,9178.553681
3728.680746,689.485948,592.164754,11103.089130
3728.681060,-842.705048,-370.102971,12509.480420
3728.681375,-1991.848295,296.082377,13175.665768
3728.681689,-1915.238745,814.226536,12805.562797
3728.682004,-1608.800546,2146.597232,11843.295072
3728.682318,-919.314598,2738.761985,10584.944971
3728.682633,383.047749,3552.988522,8808.450710
3728.682948,1838.629195,3478.967927,7402.059420
3728.683262,2528.115143,3701.029710,6513.812290
3728.683577,3524.039291,2886.803174,7105.977043
3728.683891,2987.772442,2442.679609,7994.224174
3728.684206,1302.362347,1702.473667,9252.574275
3728.684520,612.876398,962.267725,10584.944971
3728.684835,-383.047749,-0.000000,12287.418637
3728.685149,-1378.971896,-148.041188,12657.521608
3728.685464,-2221.676944,592.164754,11991.336260
3728.685778,-2221.676944,1184.329507,10881.027347
3728.686093,-1378.971896,1924.535449,9918.759623
3728.686408,76.609550,2294.638420,8364.327145
3728.686722,1685.410096,2442.679609,7402.059420
3728.687037,2451.505594,1924.535449,7254.018232
3728.687351,2757.943793,1628.453072,8068.244768
3728.687666,2681.334243,1110.308913,9252.574275
3728.687980,2298.286494,814.226536,10140.821405
3728.688295,842.705048,370.102971,11251.130318
3728.688609,0.000000,-0.000000,11103.089130
3728.688924,-1072.533697,296.082377,11325.150913
3728.689238,-1149.143247,-0.000000,10955.047942
3728.689553,-459.657299,-444.123565,10362.883188
3728.689868,-766.095498,-222.061783,9770.718434
3728.690182,229.828649,-222.061783,9104.533087
3728.690497,306.438199,222.061783,8808.450710
3728.690811,1302.362347,444.123565,8808.450710
3728.691126,1991.848295,-0.000000,8808.450710
3728.691440,1991.848295,740.205942,8142.265362
3728.691755,1915.238745,-74.020594,8882.471304
3728.692069,1608.800546,-296.082377,9770.718434
3728.692384,612.876398,-1110.308913,10584.944971
3728.692698,536.266849,-1258.350101,10658.965565
3728.693013,76.609550,-888.247130,10362.883188
3728.693328,0.000000,-666.185348,10436.903782
3728.693642,306.438199,-0.000000,9770.718434
3728.693957,459.657299,740.205942,8438.347739
3728.694271,1149.143247,1110.308913,6957.935855
3728.694586,1455.581446,592.164754,6883.915261
3728.694900,1532.190996,-0.000000,7402.059420
3728.695215,1608.800546,-1406.391290,8438.347739
3728.695529,689.485948,-2368.659014,9696.697840
3728.695844,-383.047749,-2886.803174,10881.027347
3728.696158,-842.705048,-2442.679609,11917.315666
3728.696473,-1378.971896,-1776.494261,12139.377449
3728.696788,-1991.848295,-740.205942,11991.336260
3728.697102,-1991.848295,-0.000000,10807.006753
3728.697417,-1225.752797,1184.329507,8956.491898
3728.697731,0.000000,962.267725,8438.347739
3728.698046,229.828649,296.082377,8364.327145
3728.698360,842.705048,-296.082377,8364.327145
3728.698675,1072.533697,-1184.329507,8586.388927
3728.698989,766.095498,-1776.494261,9548.656652
3728.699304,153.219100,-1850.514855,10881.027347
3728.699619,-536.266849,-1776.494261,11473.192101
3728.699933,-1608.800546,-1110.308913,11103.089130
3728.700248,-2298.286494,-814.226536,10732.986159
3728.700562,-2145.067394,-814.226536,9770.718434
3728.700877,-1762.019645,-1184.329507,9326.594869
3728.701191,-1608.800546,-1332.370696,9104.533087
3728.701506,-995.924147,-1332.370696,8808.450710
3728.701820,-383.047749,-1036.288319,8586.388927
3728.702135,153.219100,-148.041188,9326.594869
3728.702449,842.705048,222.061783,9548.656652
3728.702764,919.314598,444.123565,9252.574275
3728.703079,919.314598,666.185348,8956.491898
3728.703393,536.266849,518.144159,9474.636058
3728.703708,689.485948,-740.205942,9548.656652
3728.704022,0.000000,-814.226536,10066.800811
3728.704337,-1225.752797,-740.205942,9844.739029
3728.704651,-1532.190996,-740.205942,9918.759623
3728.704966,-995.924147,-592.164754,10214.842000
3728.705280,-383.047749,-0.000000,9474.636058
3728.705595,0.000000,962.267725,9326.594869
3728.705909,229.828649,1480.411884,8512.368333
3728.706224,842.705048,1480.411884,7550.100608
3728.706539,1685.410096,814.226536,8068.244768
3728.706853,1762.019645,-148.041188,9326.594869
3728.707168,1608.800546,-444.123565,9474.636058
3728.707482,1149.143247,-74.020594,9770.718434
3728.707797,689.485948,666.185348,10066.800811
3728.708111,229.828649,1554.432478,10066.800811
3728.708426,383.047749,2294.638420,9918.759623
3728.708740,0.000000,2812.782580,9178.553681
3728.709055,0.000000,2590.720797,8734.430116
3728.709369,612.876398,1924.535449,8734.430116
3728.709684,1378.971896,296.082377,8956.491898
3728.709999,1378.971896,-444.123565,9622.677246
3728.710313,1225.752797,-666.185348,10436.903782
3728.710628,536.266849,148.041188,10881.027347
3728.710942,689.485948,518.144159,11251.130318
3728.711257,0.000000,1332.370696,11103.089130
3728.711571,0.000000,2146.597232,10066.800811
3728.711886,0.000000,2960.823768,9622.677246
3728.712200,76.609550,2664.741391,8956.491898
3728.712515,153.219100,1332.370696,9400.615463
3728.712829,1225.752797,444.123565,9474.636058
3728.713144,612.876398,-222.061783,9844.739029
3728.713459,612.876398,-0.000000,10288.862594
3728.713773,766.095498,592.164754,10658.965565
3728.714088,383.047749,962.267725,10807.006753
3728.714402,383.047749,1480.411884,10881.027347
3728.714717,0.000000,1628.453072,9104.533087
3728.715031,-612.876398,592.164754,9400.615463
3728.715346,-229.828649,222.061783,9622.677246
3728.715660,-383.047749,-296.082377,9548.656652
3728.715975,-689.485948,-296.082377,10362.883188
3728.716289,-919.314598,-222.061783,10510.924376
3728.716604,-459.657299,444.123565,10436.903782
3728.716919,-229.828649,1110.308913,9992.780217
3728.717233,153.219100,1554.432478,8956.491898
3728.717548,306.438199,1184.329507,8808.450710
3728.717862,153.219100,740.205942,8512.368333
3728.718177,612.876398,-148.041188,8660.409521
3728.718491,0.000000,-1036.288319,9252.574275
3728.718806,-229.828649,-1628.453072,9696.697840
3728.719120,-536.266849,-1110.308913,9992.780217
3728.719435,-842.705048,-518.144159,10288.862594
3728.719750,-1149.143247,-222.061783,10807.006753
3728.720064,-1149.143247,592.164754,9770.718434
3728.720379,-995.924147,1184.329507,8586.388927
3728.720693,-612.876398,444.123565,8290.306550
3728.721008,0.000000,-222.061783,8586.388927
3728.721322,459.657299,-1184.329507,8586.388927
3728.721637,612.876398,-2072.576638,8808.450710
3728.721951,459.657299,-1998.556043,9548.656652
3728.722266,229.828649,-1406.391290,10288.862594
3728.722580,0.000000,-518.144159,10362.883188
3728.722895,-536.266849,-0.000000,10362.883188
3728.723210,-842.705048,444.123565,9326.594869
3728.723524,-766.095498,-0.000000,8364.327145
3728.723839,-766.095498,-518.144159,8586.388927
3728.724153,459.657299,-814.226536,9400.615463
3728.724468,306.438199,-1480.411884,9474.636058
3728.724782,306.438199,-1850.514855,9104.533087
3728.725097,919.314598,-1554.432478,10288.862594
3728.725411,766.095498,-888.247130,10140.821405
3728.725726,689.485948,-222.061783,9622.677246
3728.726040,383.047749,-0.000000,9400.615463
3728.726355,229.828649,296.082377,8660.409521
3728.726670,0.000000,-0.000000,8438.347739
3728.726984,459.657299,-1406.391290,9548.656652
3728.727299,229.828649,-1628.453072,9992.780217
3728.727613,-306.438199,-1332.370696,9770.718434
3728.727928,0.000000,-1258.350101,10214.842000
3728.728242,383.047749,-296.082377,10510.924376
3728.728557,383.047749,370.102971,10214.842000
3728.728871,919.314598,592.164754,9770.718434
3728.729186,919.314598,1110.308913,8512.368333
3728.729500,1072.533697,814.226536,8364.327145
3728.729815,1685.410096,-148.041188,9548.656652
3728.730130,1225.752797,-296.082377,8882.471304
3728.730444,919.314598,-814.226536,9474.636058
3728.730759,229.828649,-444.123565,10214.842000
3728.731073,-153.219100,-0.000000,10584.944971
3728.731388,-459.657299,518.144159,10510.924376
3728.731702,-459.657299,1184.329507,9844.739029
3728.732017,-766.095498,1628.453072,9474.636058
3728.732331,-383.047749,1332.370696,8882.471304
3728.732646,459.657299,222.061783,8882.471304
3728.732960,842.705048,-740.205942,9400.615463
3728.733275,536.266849,-518.144159,9770.718434
3728.733590,306.438199,-0.000000,10288.862594
3728.733904,0.000000,814.226536,10881.027347
3728.734219,-153.219100,2072.576638,10584.944971
3728.734533,-229.828649,2590.720797,9622.677246
3728.734848,0.000000,2516.700203,8956.491898
3728.735162,-76.609550,1924.535449,8882.471304
3728.735477,0.000000,1036.288319,8956.491898
3728.735791,306.438199,-0.000000,9770.718434
3728.736106,153.219100,-74.020594,9770.718434
3728.736420,-229.828649,-0.000000,10066.800811
3728.736735,-229.828649,444.123565,9992.780217
3728.737050,-306.438199,666.185348,10732.986159
3728.737364,153.219100,1332.370696,10436.903782
3728.737679,-536.266849,1850.514855,9548.656652
3728.737995,-306.438199,2146.597232,9030.512492
3728.738309,-383.047749,1332.370696,9252.574275
3728.738624,459.657299,444.123565,9992.780217
3728.738939,383.047749,-296.082377,9548.656652
3728.739253,0.000000,-0.000000,10214.842000
3728.739568,0.000000,666.185348,11103.089130
3728.739883,0.000000,814.226536,10584.944971
3728.740197,459.657299,1480.411884,9918.759623
3728.740512,76.609550,1924.535449,9474.636058
3728.740826,0.000000,1332.370696,8734.430116
3728.741141,153.219100,1110.308913,8956.491898
3728.741456,0.000000,-0.000000,9252.574275
3728.741770,0.000000,-592.164754,9844.739029
3728.742085,0.000000,-444.123565,9918.759623
3728.742400,0.000000,-370.102971,10584.944971
3728.742714,0.000000,-0.000000,10881.027347
3728.743029,76.609550,444.123565,10140.821405
3728.743344,536.266849,1258.350101,9400.615463
3728.743658,612.876398,1702.473667,8512.368333
3728.743973,1302.362347,1184.329507,8438.347739
3728.744287,1608.800546,-0.000000,7846.182985
3728.744602,1455.581446,-666.185348,8882.471304
3728.744917,842.705048,-814.226536,9548.656652
3728.745231,536.266849,-814.226536,9992.780217
3728.745546,76.609550,-666.185348,10807.006753
3728.745861,0.000000,-0.000000,10658.965565
3728.746175,0.000000,222.061783,9696.697840
3728.746490,-306.438199,296.082377,8882.471304
3728.746804,0.000000,148.041188,8956.491898
3728.747119,459.657299,-518.144159,9400.615463
3728.747434,766.095498,-1332.370696,9252.574275
3728.747748,842.705048,-1332.370696,8808.450710
3728.748063,842.705048,-1110.308913,9696.697840
3728.748378,766.095498,-444.123565,10140.821405
3728.748692,536.266849,-0.000000,10214.842000
3728.749007,0.000000,814.226536,9918.759623
3728.749322,-306.438199,1110.308913,9548.656652
3728.749636,0.000000,-0.000000,8586.388927
3728.749951,229.828649,-296.082377,9030.512492
3728.750265,76.609550,-962.267725,9548.656652
3728.750580,0.000000,-1554.432478,9918.759623
3728.750895,0.000000,-1554.432478,10732.986159
3728.751209,-766.095498,-1480.411884,10288.862594
3728.751524,-383.047749,-444.123565,10362.883188
3728.751839,-306.438199,222.061783,9770.718434
3728.752153,-459.657299,962.267725,8734.430116
3728.752468,-766.095498,370.102971,8438.347739
3728.752782,-536.266849,-0.000000,8660.409521
3728.753097,-153.219100,-962.267725,9326.594869
3728.753412,-766.095498,-1850.514855,9844.739029
3728.753726,-995.924147,-1406.391290,10066.800811
3728.754041,-995.924147,-1110.308913,10658.965565
3728.754356,-919.314598,-444.123565,11251.130318
3728.754670,-612.876398,370.102971,10807.006753
3728.754985,-766.095498,1184.329507,9104.533087
3728.755300,-383.047749,1258.350101,7920.203579
3728.755614,383.047749,740.205942,8586.388927
3728.755929,612.876398,-444.123565,8290.306550
3728.756243,459.657299,-1110.308913,8660.409521
3728.756558,0.000000,-1110.308913,9474.636058
3728.756873,-842.705048,-666.185348,10066.800811
3728.757187,-306.438199,-1110.308913,10732.986159
3728.757502,-536.266849,592.164754,9992.780217
3728.757817,-766.095498,1480.411884,9770.718434
3728.758131,-306.438199,1110.308913,8734.430116
3728.758446,76.609550,740.205942,8512.368333
3728.758760,612.876398,-0.000000,9326.594869
3728.759075,766.095498,-518.144159,8808.450710
3728.759390,383.047749,-148.041188,9844.739029
3728.759704,536.266849,-74.020594,10066.800811
3728.760019,842.705048,592.164754,10732.986159
3728.760334,1149.143247,1258.350101,10214.842000
3728.760648,612.876398,1998.556043,9474.636058
3728.760963,459.657299,1924.535449,9252.574275
3728.761277,536.266849,1332.370696,9178.553681
3728.761592,1225.752797,444.123565,9326.594869
3728.761907,689.485948,-222.061783,9474.636058
3728.762221,766.095498,-740.205942,9400.615463
3728.762536,306.438199,-222.061783,9918.759623
3728.762851,536.266849,222.061783,10288.862594
3728.763165,383.047749,666.185348,10436.903782
3728.763480,383.047749,1110.308913,9696.697840
3728.763795,612.876398,1628.453072,8660.409521
3728.764109,229.828649,1702.473667,8882.471304
3728.764424,689.485948,518.144159,9622.677246
3728.764738,766.095498,-296.082377,9548.656652
3728.765053,0.000000,-444.123565,10436.903782
3728.765368,76.609550,-74.020594,10362.883188
3728.765682,0.000000,666.185348,10807.006753
3728.765997,306.438199,814.226536,10288.862594
3728.766312,-153.219100,962.267725,9548.656652
3728.766626,306.438199,1776.494261,8882.471304
3728.766941,0.000000,1332.370696,8512.368333
3728.767255,153.219100,518.144159,8808.450710
3728.767570,689.485948,-592.164754,9400.615463
3728.767885,0.000000,-740.205942,9326.594869
3728.768199,0.000000,-740.205942,9400.615463
3728.768514,-459.657299,-518.144159,10881.027347
3728.768829,-383.047749,-222.061783,10658.965565
3728.769143,-229.828649,666.185348,9770.718434
3728.769458,-383.047749,666.185348,9252.574275
3728.769773,-459.657299,740.205942,8660.409521
3728.770087,0.000000,592.164754,9030.512492
3728.770402,153.219100,-148.041188,9400.615463
3728.770716,-229.828649,-370.102971,9696.697840
3728.771031,-689.485948,-444.123565,9696.697840
3728.771346,-229.828649,-148.041188,10732.986159
3728.771660,-153.219100,-0.000000,10732.986159
3728.771975,-383.047749,592.164754,10658.965565
3728.772290,-612.876398,1406.391290,9474.636058
3728.772604,-689.485948,666.185348,8734.430116
3728.772919,-153.219100,666.185348,8882.471304
3728.773233,0.000000,-296.082377,8734.430116
3728.773548,-306.438199,-1258.350101,9400.615463
3728.773863,0.000000,-1110.308913,9474.636058
3728.774177,0.000000,-740.205942,10214.842000
3728.774492,-459.657299,-222.061783,10362.883188
3728.774807,-383.047749,296.082377,9770.718434
3728.775121,-459.657299,666.185348,9548.656652
3728.775436,-689.485948,444.123565,8512.368333
3728.775751,-229.828649,148.041188,8734.430116
3728.776065,229.828649,-666.185348,9030.512492
3728.776380,306.438199,-1184.329507,9548.656652
3728.776694,0.000000,-740.205942,9770.718434
3728.777009,229.828649,-740.205942,10214.842000
3728.777324,229.828649,-0.000000,10658.965565
3728.777638,612.876398,-0.000000,10510.924376
3728.777953,459.657299,666.185348,9918.759623
3728.778268,229.828649,592.164754,8734.430116
3728.778582,689.485948,518.144159,8290.306550
3728.778897,842.705048,-296.082377,8512.368333
3728.779211,766.095498,-1110.308913,9474.636058
3728.779526,536.266849,-1406.391290,9474.636058
3728.779841,76.609550,-962.267725,10066.800811
3728.780155,0.000000,-592.164754,10362.883188
3728.780470,229.828649,-0.000000,10584.944971
3728.780785,0.000000,592.164754,10140.821405
3728.781099,76.609550,814.226536,9326.594869
3728.781414,306.438199,518.144159,8660.409521
3728.781728,76.609550,-148.041188,8882.471304
3728.782043,1072.533697,-148.041188,9178.553681
3728.782358,689.485948,-222.061783,9696.697840
3728.782672,229.828649,-0.000000,10436.903782
3728.782987,0.000000,518.144159,10955.047942
3728.783302,-229.828649,444.123565,10807.006753
3728.783616,0.000000,592.164754,10436.903782
3728.783931,0.000000,1184.329507,9548.656652
3728.784246,0.000000,740.205942,8660.409521
3728.784560,229.828649,-0.000000,8882.471304
3728.784875,459.657299,-222.061783,9326.594869
3728.785189,459.657299,-296.082377,9474.636058
3728.785504,229.828649,-148.041188,9474.636058
3728.785819,76.609550,-148.041188,9992.780217
3728.786133,459.657299,444.123565,9918.759623
3728.786448,536.266849,1110.308913,9474.636058
3728.786763,0.000000,740.205942,8586.388927
3728.787077,0.000000,1036.288319,8660.409521
3728.787392,0.000000,962.267725,9104.533087
3728.787706,0.000000,-222.061783,8660.409521
3728.788021,153.219100,-444.123565,9400.615463
3728.788336,-229.828649,-444.123565,10288.862594
3728.788650,-459.657299,-666.185348,10436.903782
3728.788965,-383.047749,-0.000000,10584.944971
3728.789280,-612.876398,-0.000000,10807.006753
3728.789594,0.000000,1110.308913,9770.718434
3728.789909,-383.047749,1258.350101,9030.512492
3728.790224,0.000000,1110.308913,9030.512492
3728.790538,459.657299,296.082377,9178.553681
3728.790853,306.438199,-148.041188,9030.512492
3728.791167,612.876398,-592.164754,9474.636058
3728.791482,76.609550,-148.041188,9770.718434
3728.791797,0.000000,296.082377,10362.883188
3728.792111,0.000000,740.205942,10140.821405
3728.792426,0.000000,1110.308913,9696.697840
3728.792741,-536.266849,1480.411884,9326.594869
3728.793055,0.000000,814.226536,9030.512492
3728.793370,153.219100,-0.000000,9030.512492
3728.793684,306.438199,-592.164754,9696.697840
3728.793999,-153.219100,-1036.288319,9770.718434
3728.794314,-306.438199,-222.061783,9992.780217
3728.794628,0.000000,444.123565,11103.089130
3728.794943,153.219100,518.144159,11103.089130
3728.795258,383.047749,1258.350101,9918.759623
3728.795572,766.095498,1406.391290,8586.388927
3728.795887,459.657299,1258.350101,8808.450710
3728.796202,689.485948,962.267725,8882.471304
3728.796516,1302.362347,-296.082377,9104.533087
3728.796831,536.266849,-296.082377,9474.636058
3728.797145,842.705048,-74.020594,9474.636058
3728.797460,153.219100,-222.061783,9844.739029
3728.797775,459.657299,-0.000000,10436.903782
3728.798089,76.609550,444.123565,10362.883188
3728.798404,0.000000,444.123565,8808.450710
3728.798719,0.000000,296.082377,8438.347739
3728.799033,0.000000,-74.020594,9178.553681
3728.799348,0.000000,-592.164754,9400.615463
3728.799662,76.609550,-814.226536,9474.636058
3728.799977,306.438199,-888.247130,9992.780217
3728.800292,0.000000,-0.000000,10658.965565
3728.800606,536.266849,222.061783,10288.862594
3728.800921,306.438199,740.205942,10214.842000
3728.801236,306.438199,1258.350101,9030.512492
3728.801550,766.095498,1036.288319,8586.388927
3728.801865,1149.143247,370.102971,8586.388927
3728.802179,919.314598,-444.123565,9030.512492
3728.802494,536.266849,-296.082377,9696.697840
3728.802809,689.485948,-666.185348,9696.697840
3728.803123,-229.828649,-814.226536,10288.862594
3728.803438,0.000000,-444.123565,10807.006753
3728.803753,-306.438199,-0.000000,10288.862594
3728.804067,-536.266849,592.164754,9400.615463
3728.804382,-459.657299,222.061783,9030.512492
3728.804697,-689.485948,370.102971,8808.450710
3728.805011,306.438199,-444.123565,9030.512492
3728.805326,153.219100,-592.164754,9844.739029
3728.805640,536.266849,-370.102971,10288.862594
3728.805955,383.047749,-74.020594,10288.862594
3728.806270,383.047749,370.102971,10066.800811
3728.806584,0.000000,962.267725,10510.924376
3728.806899,-229.828649,1554.432478,9474.636058
3728.807214,-306.438199,1258.350101,8882.471304
3728.807528,-383.047749,370.102971,8290.306550
3728.807843,0.000000,-370.102971,8808.450710
3728.808157,-459.657299,-814.226536,8956.491898
3728.808472,-536.266849,-1036.288319,9326.594869
3728.808787,-536.266849,-962.267725,10510.924376
3728.809101,-612.876398,-518.144159,10510.924376
3728.809416,0.000000,222.061783,9844.739029
3728.809731,-383.047749,1110.308913,9474.636058
3728.810045,-306.438199,1110.308913,9030.512492
3728.810360,0.000000,1258.350101,8586.388927
3728.810675,383.047749,592.164754,8734.430116
3728.810989,612.876398,-222.061783,9104.533087
3728.811304,153.219100,-592.164754,9770.718434
3728.811618,76.609550,-518.144159,10140.821405
3728.811933,0.000000,-74.020594,11103.089130
3728.812248,-536.266849,-0.000000,11029.068536
3728.812562,-306.438199,740.205942,10658.965565
3728.812877,-383.047749,888.247130,9622.677246
3728.813192,0.000000,518.144159,9400.615463
3728.813506,153.219100,-518.144159,9178.553681
3728.813821,689.485948,-888.247130,9400.615463
3728.814135,306.438199,-666.185348,9622.677246
3728.814450,766.095498,-296.082377,9548.656652
3728.814765,766.095498,-0.000000,10436.903782
3728.815079,995.924147,148.041188,10214.842000
3728.815394,995.924147,740.205942,9622.677246
3728.815709,383.047749,1628.453072,8586.388927
3728.816023,1072.533697,1184.329507,8660.409521
3728.816338,612.876398,296.082377,9178.553681
3728.816653,612.876398,-518.144159,9548.656652
3728.816967,0.000000,-888.247130,9770.718434
3728.817282,-229.828649,-1036.288319,10066.800811
3728.817596,-306.438199,-444.123565,10881.027347
3728.817911,0.000000,-148.041188,11103.089130
3728.818226,-459.657299,444.123565,10140.821405
3728.818540,0.000000,1110.308913,9178.553681
3728.818855,0.000000,1258.350101,8586.388927
3728.819170,383.047749,888.247130,8512.368333
3728.819484,842.705048,-148.041188,8882.471304
3728.819799,995.924147,-666.185348,9178.553681
3728.820113,459.657299,-370.102971,9326.594869
3728.820428,76.609550,-0.000000,10066.800811
3728.820743,383.047749,296.082377,10436.903782
3728.821057,0.000000,444.123565,10214.842000
3728.821372,0.000000,962.267725,9030.512492
3728.821687,0.000000,814.226536,8734.430116
3728.822001,-306.438199,-0.000000,8512.368333
3728.822316,0.000000,-666.185348,9400.615463
3728.822630,0.000000,-1184.329507,9622.677246
3728.822945,-383.047749,-888.247130,9622.677246
3728.823260,-383.047749,-666.185348,10214.842000
3728.823574,-306.438199,-296.082377,10881.027347
3728.823889,-153.219100,592.164754,10807.006753
3728.824204,0.000000,1258.350101,9474.636058
3728.824518,-383.047749,1554.432478,8734.430116
3728.824833,153.219100,814.226536,8364.327145
3728.825148,306.438199,-0.000000,9400.615463
3728.825462,306.438199,-888.247130,9844.739029
3728.825777,229.828649,-740.205942,9696.697840
3728.826091,0.000000,-370.102971,10066.800811
3728.826406,0.000000,370.102971,10584.944971
3728.826721,0.000000,370.102971,10584.944971
3728.827035,-306.438199,444.123565,9696.697840
3728.827350,-153.219100,888.247130,8882.471304
3728.827665,0.000000,888.247130,8512.368333
3728.827979,383.047749,222.061783,8586.388927
3728.828294,306.438199,-222.061783,9178.553681
3728.828608,-229.828649,-444.123565,9844.739029
3728.828923,-153.219100,-222.061783,9844.739029
3728.829238,0.000000,296.082377,10214.842000
3728.829552,153.219100,296.082377,10510.924376
3728.829867,0.000000,962.267725,9992.780217
3728.830182,0.000000,1258.350101,9030.512492
3728.830496,-153.219100,962.267725,8586.388927
3728.830811,153.219100,666.185348,9400.615463
3728.831126,383.047749,-74.020594,9474.636058
3728.831440,383.047749,-592.164754,9622.677246
3728.831755,153.219100,-444.123565,9770.718434
3728.832069,229.828649,-0.000000,10140.821405
3728.832384,0.000000,296.082377,10288.862594
3728.832699,459.657299,1036.288319,9622.677246
3728.833013,0.000000,1406.391290,8956.491898
3728.833328,459.657299,1036.288319,8364.327145
3728.833643,536.266849,-0.000000,8734.430116
3728.833957,1302.362347,-518.144159,9252.574275
3728.834272,766.095498,-444.123565,8956.491898
3728.834586,153.219100,-444.123565,9844.739029
3728.834901,0.000000,-296.082377,10510.924376
3728.835216,0.000000,-0.000000,10955.047942
3728.835530,0.000000,666.185348,10214.842000
3728.835845,76.609550,1110.308913,9548.656652
3728.836160,-153.219100,1184.329507,9474.636058
3728.836474,0.000000,1110.308913,9252.574275
3728.836789,229.828649,-0.000000,9548.656652
3728.837104,153.219100,-518.144159,9548.656652
3728.837418,76.609550,-666.185348,9992.780217
3728.837733,0.000000,-370.102971,10436.903782
3728.838047,153.219100,148.041188,10510.924376
3728.838362,229.828649,666.185348,10584.944971
3728.838677,-153.219100,962.267725,9326.594869
3728.838991,0.000000,1406.391290,8660.409521
3728.839306,-153.219100,740.205942,8882.471304
3728.839620,0.000000,-222.061783,8956.491898
3728.839935,0.000000,-1184.329507,9474.636058
3728.840249,-229.828649,-1036.288319,9696.697840
3728.840564,-383.047749,-814.226536,10288.862594
3728.840878,-383.047749,-592.164754,10955.047942
3728.841193,-536.266849,-0.000000,11103.089130
3728.841507,-459.657299,814.226536,10288.862594
3728.841822,0.000000,1258.350101,8882.471304
3728.842136,76.609550,814.226536,8882.471304
3728.842451,536.266849,148.041188,8734.430116
3728.842765,689.485948,-518.144159,9326.594869
3728.843080,0.000000,-962.267725,9178.553681
3728.843394,153.219100,-1036.288319,9770.718434
3728.843709,612.876398,-666.185348,11029.068536
3728.844023,229.828649,-0.000000,10214.842000
3728.844338,0.000000,518.144159,9474.636058
3728.844652,0.000000,888.247130,8734.430116
3728.844967,536.266849,296.082377,7846.182985
3728.845281,1149.143247,-74.020594,8512.368333
3728.845596,1149.143247,-666.185348,9104.533087
3728.845910,766.095498,-1480.411884,9252.574275
3728.846225,383.047749,-666.185348,9474.636058
3728.846539,459.657299,-518.144159,9844.739029
3728.846854,383.047749,-148.041188,10732.986159
3728.847168,306.438199,444.123565,9992.780217
3728.847483,-229.828649,1110.308913,9474.636058
3728.847797,-229.828649,444.123565,8660.409521
3728.848112,76.609550,-148.041188,9178.553681
3728.848426,153.219100,-666.185348,9326.594869
3728.848741,76.609550,-666.185348,9548.656652
3728.849055,0.000000,-518.144159,10510.924376
3728.849370,229.828649,-74.020594,10658.965565
3728.849684,229.828649,592.164754,10658.965565
3728.849999,0.000000,962.267725,10288.862594
3728.850313,76.609550,1184.329507,9400.615463
3728.850628,76.609550,1258.350101,8734.430116
3728.850942,0.000000,-0.000000,8660.409521
3728.851257,459.657299,-518.144159,9326.594869
3728.851571,306.438199,-740.205942,9252.574275
3728.851886,-229.828649,-814.226536,9770.718434
3728.852200,76.609550,-592.164754,10288.862594
3728.852515,-229.828649,296.082377,10955.047942
3728.852829,-229.828649,888.247130,10436.903782
3728.853144,0.000000,1480.411884,9326.594869
3728.853459,-229.828649,1332.370696,8882.471304
3728.853773,229.828649,740.205942,8438.347739
3728.854088,383.047749,-0.000000,9178.553681
3728.854402,76.609550,-148.041188,10362.883188
3728.854717,0.000000,-370.102971,9770.718434
3728.855031,153.219100,296.082377,10214.842000
3728.855346,153.219100,222.061783,10584.944971
3728.855660,612.876398,1036.288319,10362.883188
3728.855975,612.876398,1406.391290,9326.594869
3728.856289,0.000000,1258.350101,8882.471304
3728.856604,76.609550,888.247130,8956.491898
3728.856918,536.266849,-0.000000,9104.533087
3728.857233,459.657299,-518.144159,9178.553681
3728.857547,0.000000,-518.144159,9992.780217
3728.857862,0.000000,-296.082377,10584.944971
3728.858176,0.000000,518.144159,10510.924376
3728.858491,0.000000,518.144159,10214.842000
3728.858805,0.000000,962.267725,10510.924376
3728.859120,0.000000,1776.494261,8882.471304
3728.859434,153.219100,1332.370696,8808.450710
3728.859749,383.047749,444.123565,9326.594869
3728.860063,153.219100,-444.123565,9548.656652
3728.860378,153.219100,-296.082377,9992.780217
3728.860692,-229.828649,222.061783,10288.862594
3728.861007,76.609550,-0.000000,11103.089130
3728.861321,229.828649,-0.000000,10807.006753
3728.861636,0.000000,962.267725,10214.842000
3728.861950,0.000000,1406.391290,8882.471304
3728.862265,-229.828649,1258.350101,8142.265362
3728.862579,76.609550,444.123565,8808.450710
3728.862894,306.438199,-592.164754,9104.533087
3728.863208,383.047749,-1036.288319,9548.656652
3728.863523,383.047749,-962.267725,9696.697840
3728.863837,0.000000,-370.102971,10066.800811
3728.864152,229.828649,296.082377,10510.924376
3728.864466,76.609550,814.226536,9918.759623
3728.864781,-229.828649,1628.453072,8882.471304
3728.865095,76.609550,1480.411884,8808.450710
3728.865410,459.657299,-0.000000,9326.594869
3728.865724,1225.752797,-296.082377,8956.491898
3728.866039,229.828649,-1258.350101,9474.636058
3728.866353,153.219100,-1036.288319,9918.759623
3728.866668,229.828649,-444.123565,10584.944971
3728.866982,229.828649,-74.020594,10732.986159
3728.867297,459.657299,-74.020594,10658.965565
3728.867611,0.000000,814.226536,9252.574275
3728.867926,153.219100,962.267725,8290.306550
3728.868240,306.438199,-0.000000,8290.306550
3728.868555,306.438199,-814.226536,9178.553681
3728.868870,153.219100,-1924.535449,9326.594869
3728.869184,-536.266849,-1628.453072,9696.697840
3728.869499,-612.876398,-1110.308913,10436.903782
3728.869813,0.000000,-592.164754,11251.130318
3728.870128,0.000000,444.123565,10288.862594
3728.870442,0.000000,888.247130,9548.656652
3728.870757,153.219100,962.267725,8808.450710
3728.871071,76.609550,592.164754,8586.388927
3728.871386,459.657299,-518.144159,9178.553681
3728.871700,689.485948,-962.267725,9548.656652
3728.872015,76.609550,-1406.391290,9548.656652
3728.872329,0.000000,-740.205942,10288.862594
3728.872644,0.000000,-222.061783,10510.924376
3728.872958,153.219100,740.205942,10288.862594
3728.873273,383.047749,1036.288319,9252.574275
3728.873587,229.828649,888.247130,8364.327145
3728.873902,76.609550,740.205942,8438.347739
3728.874216,842.705048,-0.000000,8734.430116
3728.874531,383.047749,-666.185348,8586.388927
3728.874845,0.000000,-1036.288319,9400.615463
3728.875160,-229.828649,-592.164754,10066.800811
3728.875474,0.000000,-444.123565,10214.842000
3728.875789,0.000000,-0.000000,10362.883188
3728.876103,-383.047749,1110.308913,9696.697840
3728.876418,-306.438199,1258.350101,8586.388927
3728.876732,-306.438199,814.226536,8438.347739
3728.877047,0.000000,296.082377,9104.533087
3728.877361,0.000000,-296.082377,9474.636058
3728.877676,-383.047749,-444.123565,10066.800811
3728.877990,-995.924147,-592.164754,10066.800811
3728.878305,-919.314598,-222.061783,10732.986159
3728.878619,-459.657299,666.185348,11029.068536
3728.878934,-459.657299,1184.329507,9992.780217
3728.879248,-689.485948,1258.350101,9326.594869
3728.879563,-919.314598,1406.391290,9030.512492
3728.879877,-306.438199,666.185348,9030.512492
3728.880192,-459.657299,-148.041188,9622.677246
3728.880506,0.000000,-444.123565,9918.759623
3728.880821,0.000000,-296.082377,10510.924376
3728.881135,0.000000,-74.020594,10510.924376
3728.881450,0.000000,222.061783,10658.965565
3728.881764,383.047749,1184.329507,9992.780217
3728.882079,306.438199,1702.473667,9178.553681
3728.882393,229.828649,1554.432478,8586.388927
3728.882708,689.485948,444.123565,8808.450710
3728.883022,766.095498,-0.000000,8734.430116
3728.883337,689.485948,-814.226536,9400.615463
3728.883651,612.876398,-592.164754,10066.800811
3728.883966,306.438199,-148.041188,10658.965565
3728.884281,229.828649,518.144159,10362.883188
3728.884595,689.485948,1406.391290,10214.842000
3728.884910,-153.219100,1924.535449,9474.636058
3728.885224,459.657299,1776.494261,8660.409521
3728.885539,842.705048,1110.308913,8882.471304
3728.885853,995.924147,-0.000000,9178.553681
3728.886168,995.924147,-444.123565,9696.697840
3728.886482,612.876398,-592.164754,9918.759623
3728.886797,229.828649,-296.082377,10584.944971
3728.887111,0.000000,-0.000000,11103.089130
3728.887426,76.609550,666.185348,9992.780217
3728.887740,612.876398,1036.288319,9400.615463
3728.888055,689.485948,1184.329507,8660.409521
3728.888369,842.705048,888.247130,8660.409521
3728.888684,995.924147,-370.102971,8512.368333
3728.888998,766.095498,-592.164754,8956.491898
3728.889313,153.219100,-1258.350101,9770.718434
3728.889627,229.828649,-222.061783,10214.842000
3728.889942,459.657299,-0.000000,10658.965565
3728.890256,153.219100,444.123565,10436.903782
3728.890571,0.000000,888.247130,9252.574275
3728.890885,-153.219100,1110.308913,9030.512492
3728.891200,-229.828649,666.185348,9252.574275
3728.891514,229.828649,-222.061783,9474.636058
3728.891829,0.000000,-888.247130,9474.636058
3728.892143,-459.657299,-1258.350101,10214.842000
3728.892458,-919.314598,-666.185348,10807.006753
3728.892772,-383.047749,-74.020594,10658.965565
3728.893087,0.000000,370.102971,10658.965565
3728.893401,-229.828649,740.205942,9696.697840
3728.893716,0.000000,1184.329507,8660.409521
3728.894030,0.000000,814.226536,7994.224174
3728.894345,383.047749,-0.000000,8808.450710
3728.894659,229.828649,-518.144159,9548.656652
3728.894974,-459.657299,-1184.329507,9474.636058
3728.895288,-612.876398,-962.267725,9696.697840
3728.895603,-766.095498,-518.144159,10436.903782
3728.895917,-842.705048,-74.020594,10584.944971
3728.896232,-995.924147,666.185348,9992.780217
3728.896546,-1225.752797,740.205942,8882.471304
3728.896861,-689.485948,592.164754,9474.636058
3728.897175,153.219100,-74.020594,9326.594869
3728.897490,0.000000,-962.267725,9474.636058
3728.897804,-153.219100,-1258.350101,9770.718434
3728.898119,-459.657299,-592.164754,9770.718434
3728.898433,76.609550,-0.000000,10288.862594
3728.898748,229.828649,222.061783,10732.986159
3728.899062,383.047749,1258.350101,9770.718434
3728.899377,306.438199,1184.329507,8586.388927
3728.899691,76.609550,518.144159,7920.203579
3728.900006,229.828649,-148.041188,8734.430116
3728.900321,306.438199,-1110.308913,9474.636058
3728.900635,0.000000,-1702.473667,9326.594869
3728.900950,76.609550,-1628.453072,9696.697840
3728.901264,229.828649,-814.226536,10140.821405
3728.901579,306.438199,-370.102971,10362.883188
3728.901893,536.266849,296.082377,10214.842000
3728.902208,153.219100,666.185348,9252.574275
3728.902522,229.828649,592.164754,8586.388927
3728.902837,766.095498,296.082377,8512.368333
3728.903151,842.705048,-518.144159,9400.615463
3728.903466,842.705048,-592.164754,9622.677246
3728.903780,842.705048,-518.144159,9770.718434
3728.904095,536.266849,-148.041188,10214.842000
3728.904409,919.314598,222.061783,10732.986159
3728.904724,689.485948,666.185348,9770.718434
3728.905038,766.095498,1110.308913,8882.471304
3728.905353,459.657299,1184.329507,8512.368333
3728.905667,306.438199,518.144159,8364.327145
3728.905982,612.876398,-74.020594,8882.471304
3728.906296,536.266849,-666.185348,9030.512492
3728.906611,76.609550,-888.247130,9918.759623
3728.906925,0.000000,-222.061783,10510.924376
3728.907240,0.000000,-0.000000,10807.006753
3728.907554,0.000000,740.205942,10510.924376
3728.907869,76.609550,1332.370696,9622.677246
3728.908183,306.438199,1554.432478,8364.327145
3728.908498,-153.219100,1554.432478,8956.491898
3728.908812,383.047749,962.267725,9178.553681
3728.909127,229.828649,296.082377,9252.574275
3728.909441,-153.219100,296.082377,9992.780217
3728.909756,-153.219100,-0.000000,10807.006753
3728.910070,0.000000,592.164754,11177.109724
3728.910385,-306.438199,666.185348,10584.944971
3728.910699,-229.828649,1480.411884,10362.883188
3728.911014,-689.485948,1110.308913,9400.615463
3728.911328,-306.438199,1036.288319,9326.594869
3728.911643,0.000000,148.041188,9474.636058
3728.911957,383.047749,-222.061783,9474.636058
3728.912272,306.438199,-370.102971,9696.697840
3728.912586,76.609550,-74.020594,9918.759623
3728.912901,-229.828649,-0.000000,10362.883188
3728.913215,306.438199,666.185348,10214.842000
3728.913530,306.438199,1332.370696,9474.636058
3728.913844,76.609550,1406.391290,8512.368333
3728.914159,0.000000,1554.432478,9252.574275
3728.914473,-153.219100,666.185348,9326.594869
3728.914788,-229.828649,-296.082377,9548.656652
3728.915102,-459.657299,-962.267725,9992.780217
3728.915417,-766.095498,-740.205942,10510.924376
3728.915732,-459.657299,-148.041188,10807.006753
3728.916046,-383.047749,-222.061783,11177.109724
3728.916361,-536.266849,666.185348,11029.068536
3728.916675,0.000000,1184.329507,9474.636058
3728.916990,0.000000,1702.473667,7846.182985
3728.917304,459.657299,666.185348,8512.368333
3728.917619,1149.143247,-0.000000,8956.491898
3728.917933,1225.752797,-296.082377,8734.430116
3728.918248,689.485948,-888.247130,9104.533087
3728.918562,459.657299,-296.082377,9770.718434
3728.918877,459.657299,-148.041188,10510.924376
3728.919191,-229.828649,222.061783,9548.656652
3728.919506,0.000000,814.226536,9104.533087
3728.919820,-383.047749,740.205942,8586.388927
3728.920135,0.000000,518.144159,8660.409521
3728.920449,229.828649,-444.123565,9400.615463
3728.920764,0.000000,-1184.329507,9474.636058
3728.921078,-229.828649,-1110.308913,9844.739029
3728.921393,0.000000,-666.185348,10362.883188
3728.921707,153.219100,-0.000000,10732.986159
3728.922022,306.438199,740.205942,10658.965565
3728.922336,459.657299,814.226536,9252.574275
3728.922651,153.219100,1036.288319,8512.368333
3728.922965,459.657299,444.123565,8512.368333
3728.923280,842.705048,-0.000000,9030.512492
3728.923594,459.657299,-740.205942,9474.636058
3728.923909,0.000000,-1184.329507,9844.739029
3728.924223,-153.219100,-1036.288319,10362.883188
3728.924538,76.609550,-1036.288319,10510.924376
3728.924852,-153.219100,-518.144159,10658.965565
3728.925167,-229.828649,444.123565,9770.718434
3728.925481,-459.657299,814.226536,9178.553681
3728.925796,0.000000,444.123565,8808.450710
3728.926110,383.047749,-0.000000,9178.553681
3728.926425,536.266849,-370.102971,9474.636058
3728.926739,536.266849,-1258.350101,9474.636058
3728.927054,76.609550,-592.164754,10214.842000
3728.927368,0.000000,-370.102971,11103.089130
3728.927683,306.438199,-0.000000,10881.027347
3728.927997,229.828649,814.226536,10288.862594
3728.928312,612.876398,888.247130,9104.533087
3728.928626,459.657299,444.123565,8586.388927
3728.928941,459.657299,-0.000000,8512.368333
3728.929255,919.314598,-370.102971,9474.636058
3728.929570,229.828649,-666.185348,9474.636058
3728.929884,459.657299,-444.123565,10066.800811
3728.930199,459.657299,-148.041188,10140.821405
3728.930513,383.047749,-0.000000,9992.780217
3728.930828,689.485948,1110.308913,9400.615463
3728.931143,229.828649,1628.453072,8734.430116
3728.931457,612.876398,1258.350101,8438.347739
3728.931772,153.219100,370.102971,8512.368333
3728.932086,76.609550,-0.000000,9104.533087
3728.932401,-229.828649,-592.164754,9474.636058
3728.932715,-229.828649,-666.185348,10140.821405
3728.933030,0.000000,-74.020594,10732.986159
3728.933344,-306.438199,370.102971,11029.068536
3728.933659,-459.657299,888.247130,10658.965565
3728.933973,-612.876398,1110.308913,9548.656652
3728.934288,-383.047749,1332.370696,8734.430116
3728.934602,-306.438199,814.226536,9030.512492
3728.934917,76.609550,-0.000000,9474.636058
3728.935231,306.438199,-74.020594,9030.512492
3728.935546,153.219100,-222.061783,9548.656652
3728.935860,153.219100,-444.123565,10066.800811
3728.936175,0.000000,-296.082377,10658.965565
3728.936489,0.000000,814.226536,9696.697840
3728.936804,0.000000,1258.350101,9030.512492
3728.937118,-536.266849,1110.308913,9178.553681
3728.937433,-459.657299,518.144159,8734.430116
3728.937747,0.000000,-592.164754,8956.491898
3728.938062,-229.828649,-814.226536,9622.677246
3728.938376,-612.876398,-1036.288319,10362.883188
3728.938691,-536.266849,-222.061783,10807.006753
3728.939005,-306.438199,370.102971,11177.109724
3728.939320,0.000000,592.164754,11029.068536
3728.939634,612.876398,1480.411884,9622.677246
3728.939949,536.266849,1702.473667,8882.471304
3728.940264,766.095498,1554.432478,8882.471304
3728.940578,1302.362347,444.123565,8512.368333
3728.940893,1302.362347,-74.020594,9104.533087
3728.941207,995.924147,-296.082377,8956.491898
3728.941522,1149.143247,-370.102971,9770.718434
3728.941837,459.657299,-370.102971,9844.739029
3728.942151,459.657299,-0.000000,10140.821405
3728.942466,229.828649,740.205942,9548.656652
3728.942780,0.000000,814.226536,8290.306550
3728.943095,0.000000,814.226536,8142.265362
3728.943410,153.219100,-0.000000,9474.636058
3728.943724,-229.828649,-444.123565,9696.697840
3728.944039,-229.828649,-888.247130,9696.697840
3728.944353,0.000000,-296.082377,10584.944971
3728.944668,0.000000,-0.000000,11547.212695
3728.944983,229.828649,518.144159,11251.130318
3728.945297,383.047749,1924.535449,10214.842000
3728.945612,536.266849,1850.514855,9252.574275
3728.945926,689.485948,1628.453072,8808.450710
3728.946241,995.924147,814.226536,8882.471304
3728.946556,1149.143247,-0.000000,9030.512492
3728.946870,459.657299,-814.226536,9178.553681
3728.947185,153.219100,-1258.350101,9844.739029
3728.947499,0.000000,-1110.308913,10510.924376
3728.947814,-536.266849,-1258.350101,11103.089130
3728.948129,-383.047749,-444.123565,10140.821405
3728.948443,-536.266849,-0.000000,8882.471304
3728.948758,-459.657299,296.082377,8438.347739
3728.949072,0.000000,-0.000000,8586.388927
3728.949387,229.828649,-444.123565,8882.471304
3728.949702,459.657299,-888.247130,9400.615463
3728.950016,0.000000,-518.144159,9918.759623
3728.950331,0.000000,-0.000000,10362.883188
3728.950645,229.828649,518.144159,10732.986159
3728.950960,76.609550,1036.288319,10510.924376
3728.951275,-229.828649,888.247130,9474.636058
3728.951589,-306.438199,740.205942,9030.512492
3728.951904,0.000000,370.102971,8734.430116
3728.952218,612.876398,-222.061783,8956.491898
3728.952533,76.609550,-1258.350101,9178.553681
3728.952848,-229.828649,-1036.288319,9696.697840
3728.953162,0.000000,-1258.350101,9992.780217
3728.953477,0.000000,-888.247130,10214.842000
3728.953791,0.000000,-0.000000,9622.677246
3728.954106,0.000000,740.205942,9548.656652
3728.954421,-536.266849,962.267725,8512.368333
3728.954735,306.438199,814.226536,7920.203579
3728.955050,383.047749,-0.000000,8734.430116
3728.955364,459.657299,-296.082377,9104.533087
3728.955679,0.000000,-296.082377,9770.718434
3728.955994,0.000000,-444.123565,10288.862594
3728.956308,0.000000,-0.000000,10881.027347
3728.956623,306.438199,592.164754,11029.068536
3728.956937,-153.219100,1036.288319,10362.883188
3728.957252,-536.266849,1332.370696,9326.594869
3728.957567,459.657299,444.123565,9474.636058
3728.957881,383.047749,-222.061783,9030.512492
3728.958196,536.266849,-740.205942,9104.533087
3728.958510,612.876398,-1110.308913,9474.636058
3728.958825,229.828649,-740.205942,9918.759623
3728.959140,459.657299,-0.000000,9992.780217
3728.959454,153.219100,444.123565,9622.677246
3728.959769,459.657299,1184.329507,9400.615463
3728.960083,689.485948,1110.308913,8364.327145
3728.960398,612.876398,814.226536,8216.285956
3728.960713,1072.533697,-0.000000,8734.430116
3728.961027,229.828649,-666.185348,9622.677246
3728.961342,76.609550,-666.185348,10510.924376
3728.961656,0.000000,-444.123565,10955.047942
3728.961971,-153.219100,-0.000000,11399.171507
3728.962286,76.609550,740.205942,10807.006753
3728.962600,0.000000,1258.350101,10066.800811
3728.962915,-229.828649,1110.308913,9178.553681
3728.963229,76.609550,1554.432478,9104.533087
3728.963544,153.219100,592.164754,9400.615463
3728.963859,536.266849,-0.000000,9104.533087
3728.964173,459.657299,-370.102971,9326.594869
3728.964488,383.047749,-222.061783,9770.718434
3728.964802,0.000000,-444.123565,10510.924376
3728.965117,612.876398,370.102971,10658.965565
3728.965431,306.438199,1036.288319,9992.780217
3728.965746,0.000000,1702.473667,8808.450710
3728.966061,306.438199,1702.473667,8290.306550
3728.966375,459.657299,814.226536,8438.347739
3728.966690,76.609550,-518.144159,9252.574275
3728.967004,0.000000,-888.247130,9548.656652
3728.967319,-306.438199,-740.205942,9696.697840
3728.967634,-153.219100,-148.041188,10732.986159
3728.967948,-153.219100,148.041188,11103.089130
3728.968263,0.000000,740.205942,10510.924376
3728.968577,0.000000,1480.411884,9474.636058
3728.968892,0.000000,740.205942,9030.512492
3728.969207,76.609550,370.102971,8808.450710
3728.969521,306.438199,-148.041188,8956.491898
3728.969836,0.000000,-518.144159,9326.594869
3728.970150,0.000000,-740.205942,9696.697840
3728.970465,76.609550,-814.226536,10140.821405
3728.970780,536.266849,-148.041188,10584.944971
3728.971094,153.219100,-0.000000,9918.759623
3728.971409,0.000000,888.247130,9030.512492
3728.971723,0.000000,1258.350101,8142.265362
3728.972038,153.219100,666.185348,8068.244768
3728.972353,536.266849,-666.185348,9104.533087
3728.972667,76.609550,-1110.308913,9622.677246
3728.972982,-76.609550,-1258.350101,9696.697840
3728.973296,-229.828649,-740.205942,10362.883188
3728.973611,76.609550,-222.061783,11177.109724
3728.973926,229.828649,592.164754,10584.944971
3728.974240,76.609550,1480.411884,9474.636058
3728.974555,153.219100,1406.391290,8438.347739
3728.974869,0.000000,1258.350101,8142.265362
3728.975184,536.266849,444.123565,8882.471304
3728.975499,1225.752797,-222.061783,9474.636058
3728.975813,306.438199,-222.061783,9474.636058
3728.976128,76.609550,-370.102971,10066.800811
3728.976442,153.219100,-444.123565,10436.903782
3728.976757,153.219100,814.226536,10510.924376
3728.977072,0.000000,1258.350101,9844.739029
3728.977386,76.609550,1184.329507,8882.471304
3728.977701,0.000000,1110.308913,7994.224174
3728.978015,229.828649,296.082377,8142.265362
3728.978330,229.828649,-222.061783,9104.533087
3728.978645,-153.219100,-962.267725,10066.800811
3728.978959,-459.657299,-1036.288319,10584.944971
3728.979274,-383.047749,-148.041188,11029.068536
3728.979588,0.000000,518.144159,11029.068536
3728.979903,153.219100,962.267725,10436.903782
3728.980218,306.438199,1036.288319,8808.450710
3728.980532,-229.828649,1110.308913,8808.450710
3728.980847,229.828649,444.123565,8882.471304
3728.981161,229.828649,-0.000000,9030.512492
3728.981476,536.266849,-1036.288319,9252.574275
3728.981791,689.485948,-962.267725,10066.800811
3728.982105,0.000000,-222.061783,10510.924376
3728.982420,76.609550,-0.000000,10881.027347
3728.982734,0.000000,370.102971,9992.780217
3728.983049,76.609550,592.164754,9178.553681
3728.983364,0.000000,444.123565,8808.450710
3728.983678,0.000000,-0.000000,8882.471304
3728.983993,229.828649,-740.205942,9178.553681
3728.984307,76.609550,-1406.391290,9474.636058
3728.984622,0.000000,-1036.288319,10066.800811
3728.984937,153.219100,-444.123565,10658.965565
3728.985251,-229.828649,370.102971,10584.944971
3728.985566,306.438199,1036.288319,10066.800811
3728.985880,306.438199,1480.411884,9474.636058
3728.986195,689.485948,1332.370696,8808.450710
3728.986510,612.876398,1036.288319,8734.430116
3728.986824,536.266849,-0.000000,8882.471304
3728.987139,689.485948,-740.205942,9326.594869
3728.987453,383.047749,-1184.329507,9844.739029
3728.987768,306.438199,-370.102971,10066.800811
3728.988083,306.438199,-370.102971,10658.965565
3728.988397,229.828649,370.102971,9992.780217
3728.988712,0.000000,1110.308913,8956.491898
3728.989026,0.000000,814.226536,8216.285956
3728.989341,-153.219100,296.082377,8808.450710
3728.989656,0.000000,-148.041188,8882.471304
3728.989970,153.219100,-666.185348,9178.553681
3728.990285,153.219100,-814.226536,9474.636058
3728.990599,153.219100,-666.185348,9992.780217
3728.990914,76.609550,296.082377,10510.924376
3728.991229,76.609550,740.205942,10584.944971
3728.991543,-306.438199,1184.329507,9992.780217
3728.991858,0.000000,1480.411884,8512.368333
3728.992172,153.219100,1036.288319,8512.368333
3728.992487,76.609550,-74.020594,9178.553681
3728.992802,0.000000,-740.205942,9622.677246
3728.993116,76.609550,-1110.308913,9844.739029
3728.993431,-383.047749,-888.247130,10362.883188
3728.993745,-229.828649,-444.123565,10658.965565
3728.994060,-229.828649,-0.000000,10807.006753
3728.994375,76.609550,444.123565,10140.821405
3728.994689,76.609550,1184.329507,9252.574275
3728.995004,0.000000,962.267725,8216.285956
3728.995318,689.485948,222.061783,8660.409521
3728.995633,536.266849,-370.102971,9400.615463
3728.995948,0.000000,-814.226536,9474.636058
3728.996262,76.609550,-148.041188,9770.718434
3728.996577,306.438199,-148.041188,10436.903782
3728.996891,153.219100,740.205942,11029.068536
3728.997206,153.219100,1110.308913,10732.986159
3728.997520,0.000000,1258.350101,9252.574275
3728.997835,76.609550,962.267725,8808.450710
3728.998150,383.047749,592.164754,9104.533087
3728.998464,689.485948,-148.041188,9178.553681
3728.998779,383.047749,-666.185348,9844.739029
3728.999093,76.609550,-444.123565,10140.821405
3728.999408,0.000000,-0.000000,10288.862594
3728.999723,306.438199,296.082377,10288.862594
3729.000037,306.438199,518.144159,10214.842000
3729.000352,536.266849,1258.350101,9178.553681
3729.000666,306.438199,962.267725,8364.327145
3729.000981,383.047749,296.082377,8438.347739
3729.001296,536.266849,-74.020594,8808.450710
3729.001610,612.876398,-888.247130,9326.594869
3729.001925,153.219100,-1184.329507,9548.656652
3729.002239,153.219100,-222.061783,10066.800811
3729.002554,536.266849,518.144159,10140.821405
3729.002869,536.266849,666.185348,9992.780217
3729.003183,459.657299,1184.329507,9252.574275
3729.003498,459.657299,1036.288319,8512.368333
3729.003812,612.876398,888.247130,7994.224174
3729.004127,766.095498,-222.061783,9178.553681
3729.004442,766.095498,-814.226536,9770.718434
3729.004756,0.000000,-1036.288319,9474.636058
3729.005071,0.000000,-740.205942,10288.862594
3729.005385,0.000000,-74.020594,10658.965565
3729.005700,0.000000,-0.000000,10584.944971
3729.006015,-459.657299,518.144159,9548.656652
3729.006329,0.000000,1036.288319,9252.574275
3729.006644,-306.438199,888.247130,9104.533087
3729.006958,0.000000,-0.000000,9104.533087
3729.007273,0.000000,-518.144159,9474.636058
3729.007588,0.000000,-592.164754,9918.759623
3729.007902,0.000000,-444.123565,10436.903782
3729.008217,0.000000,-0.000000,10881.027347
3729.008531,-306.438199,222.061783,10436.903782
3729.008846,-612.876398,1110.308913,9696.697840
3729.009161,-612.876398,1184.329507,8808.450710
3729.009475,-536.266849,740.205942,8734.430116
3729.009790,-689.485948,148.041188,9252.574275
3729.010104,-995.924147,-148.041188,9548.656652
3729.010419,-995.924147,-888.247130,10066.800811
3729.010734,-766.095498,-666.185348,10955.047942
3729.011048,-919.314598,-74.020594,11251.130318
3729.011363,-612.876398,740.205942,11177.109724
3729.011677,0.000000,1184.329507,10362.883188
3729.011992,76.609550,1480.411884,9252.574275
3729.012307,383.047749,1406.391290,8586.388927
3729.012621,536.266849,444.123565,8956.491898
3729.012936,536.266849,-296.082377,8808.450710
3729.013250,0.000000,-518.144159,9400.615463
3729.013565,0.000000,-740.205942,9548.656652
3729.013880,76.609550,-518.144159,10436.903782
3729.014194,153.219100,-370.102971,10436.903782
3729.014509,153.219100,-0.000000,9770.718434
3729.014823,76.609550,148.041188,8808.450710
3729.015138,0.000000,518.144159,8808.450710
3729.015453,612.876398,518.144159,8956.491898
3729.015767,919.314598,-222.061783,8808.450710
3729.016082,919.314598,-888.247130,9400.615463
3729.016396,995.924147,-888.247130,9622.677246
3729.016711,842.705048,-444.123565,10288.862594
3729.017026,689.485948,148.041188,10436.903782
3729.017340,766.095498,1036.288319,9992.780217
3729.017655,842.705048,1332.370696,9474.636058
3729.017969,842.705048,518.144159,8512.368333
3729.018284,1149.143247,-222.061783,8660.409521
3729.018599,919.314598,-592.164754,9178.553681
3729.018913,459.657299,-1110.308913,9400.615463
3729.019228,536.266849,-1036.288319,10066.800811
3729.019542,459.657299,-518.144159,10214.842000
3729.019857,383.047749,-222.061783,10288.862594
3729.020172,0.000000,370.102971,9918.759623
3729.020486,229.828649,888.247130,9326.594869
3729.020801,0.000000,1480.411884,8512.368333
3729.021115,76.609550,888.247130,8142.265362
3729.021430,383.047749,370.102971,9030.512492
3729.021745,459.657299,-296.082377,9326.594869
3729.022059,76.609550,-888.247130,9548.656652
3729.022374,0.000000,-222.061783,10436.903782
3729.022688,-229.828649,-148.041188,11251.130318
3729.023003,153.219100,962.267725,10510.924376
3729.023318,-153.219100,1554.432478,9474.636058
3729.023632,-459.657299,962.267725,8882.471304
3729.023947,0.000000,592.164754,8808.450710
3729.024261,0.000000,-0.000000,8512.368333
3729.024576,0.000000,-444.123565,9326.594869
3729.024891,-459.657299,-592.164754,9770.718434
3729.025205,-459.657299,-370.102971,10288.862594
3729.025520,-459.657299,-74.020594,10362.883188
3729.025834,0.000000,74.020594,10658.965565
3729.026149,0.000000,888.247130,10362.883188
3729.026464,0.000000,1036.288319,8586.388927
3729.026778,-383.047749,1110.308913,8660.409521
3729.027093,306.438199,814.226536,8512.368333
3729.027407,229.828649,518.144159,9252.574275
3729.027722,76.609550,-296.082377,9696.697840
3729.028037,0.000000,-518.144159,10436.903782
3729.028351,-306.438199,-296.082377,11325.150913
3729.028666,-689.485948,222.061783,11177.109724
3729.028980,0.000000,1110.308913,9992.780217
3729.029295,0.000000,1480.411884,9474.636058
3729.029610,-229.828649,1480.411884,9030.512492
3729.029924,153.219100,592.164754,8956.491898
3729.030239,153.219100,-296.082377,9178.553681
3729.030553,306.438199,-666.185348,9400.615463
3729.030868,0.000000,-148.041188,10066.800811
3729.031182,0.000000,-0.000000,10732.986159
3729.031497,536.266849,-0.000000,10732.986159
3729.031812,459.657299,962.267725,10288.862594
3729.032126,383.047749,1554.432478,8808.450710
3729.032441,383.047749,1554.432478,8438.347739
3729.032755,689.485948,1036.288319,8586.388927
3729.033070,919.314598,296.082377,9178.553681
3729.033385,306.438199,-592.164754,9178.553681
3729.033699,459.657299,-888.247130,9622.677246
3729.034014,153.219100,-370.102971,10288.862594
3729.034328,153.219100,-0.000000,10436.903782
3729.034643,459.657299,370.102971,9844.739029
3729.034958,0.000000,962.267725,8956.491898
3729.035272,229.828649,1036.288319,8438.347739
3729.035587,229.828649,518.144159,8512.368333
3729.035901,689.485948,-370.102971,8882.471304
3729.036216,0.000000,-962.267725,9178.553681
3729.036531,76.609550,-888.247130,9696.697840
3729.036845,153.219100,-592.164754,10807.006753
3729.037160,153.219100,-148.041188,10881.027347
3729.037474,383.047749,444.123565,10214.842000
3729.037789,459.657299,1110.308913,9326.594869
3729.038104,76.609550,814.226536,8512.368333
3729.038418,536.266849,444.123565,8660.409521
3729.038733,536.266849,-0.000000,9104.533087
3729.039047,153.219100,-740.205942,9400.615463
3729.039362,153.219100,-814.226536,9770.718434
3729.039677,-306.438199,-666.185348,9918.759623
3729.039991,0.000000,-74.020594,10881.027347
3729.040306,0.000000,-222.061783,10881.027347
3729.040620,-459.657299,370.102971,9696.697840
3729.040935,-689.485948,740.205942,9104.533087
3729.041249,-536.266849,1036.288319,8512.368333
3729.041564,-383.047749,148.041188,9178.553681
3729.041878,-459.657299,-518.144159,9992.780217
3729.042193,-306.438199,-1184.329507,10066.800811
3729.042508,-536.266849,-370.102971,10584.944971
3729.042822,-306.438199,-296.082377,11251.130318
3729.043137,0.000000,370.102971,10584.944971
3729.043451,153.219100,444.123565,10140.821405
3729.043766,-76.609550,1110.308913,8586.388927
3729.044080,229.828649,888.247130,8068.244768
3729.044395,766.095498,222.061783,8882.471304
3729.044709,612.876398,-0.000000,8808.450710
3729.045024,306.438199,-444.123565,8956.491898
3729.045339,-536.266849,-518.144159,9326.594869
3729.045653,-612.876398,-740.205942,10066.800811
3729.045968,0.000000,-814.226536,10732.986159
3729.046282,-689.485948,370.102971,9992.780217
3729.046597,-689.485948,666.185348,9326.594869
3729.046911,-383.047749,666.185348,8956.491898
3729.047226,0.000000,222.061783,9030.512492
3729.047540,383.047749,-592.164754,9474.636058
3729.047855,0.000000,-1036.288319,9992.780217
3729.048169,76.609550,-740.205942,9844.739029
3729.048484,306.438199,148.041188,9992.780217
3729.048799,612.876398,592.164754,10362.883188
3729.049113,689.485948,814.226536,9992.780217
3729.049428,306.438199,1110.308913,8956.491898
3729.049742,459.657299,518.144159,8290.306550
3729.050057,919.314598,-0.000000,8364.327145
3729.050371,919.314598,-370.102971,9622.677246
3729.050686,536.266849,-814.226536,9400.615463
3729.051000,0.000000,-962.267725,10066.800811
3729.051315,153.219100,-666.185348,10436.903782
3729.051630,0.000000,-740.205942,10658.965565
3729.051944,383.047749,222.061783,10362.883188
3729.052259,76.609550,1184.329507,9548.656652
3729.052573,0.000000,1554.432478,8660.409521
3729.052888,383.047749,1110.308913,8586.388927
3729.053202,766.095498,296.082377,9104.533087
3729.053517,919.314598,-74.020594,9548.656652
3729.053831,383.047749,-740.205942,9696.697840
3729.054146,153.219100,-0.000000,10955.047942
3729.054460,383.047749,370.102971,11177.109724
3729.054775,76.609550,518.144159,9918.759623
3729.055090,0.000000,592.164754,9474.636058
3729.055404,153.219100,962.267725,8808.450710
3729.055719,306.438199,666.185348,8364.327145
3729.056033,383.047749,-0.000000,8364.327145
3729.056348,229.828649,-444.123565,9178.553681
3729.056662,229.828649,-888.247130,9622.677246
3729.056977,-229.828649,-518.144159,9918.759623
3729.057291,306.438199,-0.000000,10584.944971
3729.057606,612.876398,666.185348,10362.883188
3729.057920,536.266849,1480.411884,9474.636058
3729.058235,76.609550,1406.391290,8586.388927
3729.058550,0.000000,962.267725,8438.347739
3729.058864,306.438199,370.102971,9178.553681
3729.059179,153.219100,-222.061783,9252.574275
3729.059493,153.219100,-1036.288319,10140.821405
3729.059808,0.000000,-888.247130,10807.006753
3729.060122,-536.266849,-148.041188,10881.027347
3729.060437,-383.047749,148.041188,11103.089130
3729.060751,-383.047749,1110.308913,9696.697840
3729.061066,-306.438199,1554.432478,9178.553681
3729.061381,0.000000,1184.329507,8364.327145
3729.061695,153.219100,296.082377,8734.430116
3729.062010,459.657299,-0.000000,9104.533087
3729.062324,-536.266849,-148.041188,9474.636058
3729.062639,-229.828649,-148.041188,9770.718434
3729.062953,0.000000,-0.000000,10510.924376
3729.063268,0.000000,370.102971,10732.986159
3729.063582,0.000000,814.226536,9992.780217
3729.063897,-383.047749,666.185348,9400.615463
3729.064211,-459.657299,814.226536,8882.471304
3729.064526,-612.876398,740.205942,9252.574275
3729.064841,-306.438199,-0.000000,9844.739029
3729.065155,-306.438199,-444.123565,10066.800811
3729.065470,-229.828649,-592.164754,10584.944971
3729.065784,0.000000,-518.144159,10362.883188
3729.066099,153.219100,-148.041188,10658.965565
3729.066413,383.047749,518.144159,10584.944971
3729.066728,76.609550,1036.288319,9178.553681
3729.067042,536.266849,1258.350101,8216.285956
3729.067357,689.485948,666.185348,8660.409521
3729.067672,995.924147,-148.041188,8660.409521
3729.067986,459.657299,-962.267725,9252.574275
3729.068301,842.705048,-814.226536,9474.636058
3729.068615,383.047749,-888.247130,10288.862594
3729.068930,229.828649,-666.185348,10066.800811
3729.069244,306.438199,-74.020594,10288.862594
3729.069559,536.266849,518.144159,9400.615463
3729.069873,153.219100,222.061783,8660.409521
3729.070188,842.705048,592.164754,8586.388927
3729.070502,1072.533697,-0.000000,8882.471304
3729.070817,842.705048,-518.144159,9326.594869
3729.071132,229.828649,-592.164754,9548.656652
3729.071446,153.219100,-592.164754,9992.780217
3729.071761,612.876398,-518.144159,10584.944971
3729.072075,383.047749,222.061783,10807.006753
3729.072390,306.438199,1110.308913,9770.718434
3729.072704,153.219100,962.267725,8808.450710
3729.073019,766.095498,740.205942,8586.388927
3729.073333,229.828649,-370.102971,8882.471304
3729.073648,76.609550,-814.226536,9400.615463
3729.073963,-153.219100,-1258.350101,9918.759623
3729.074277,-459.657299,-1184.329507,9548.656652
3729.074592,-383.047749,-666.185348,10584.944971
3729.074906,76.609550,222.061783,10732.986159
3729.075221,0.000000,740.205942,9326.594869
3729.075535,-229.828649,1258.350101,9030.512492
3729.075850,766.095498,1110.308913,8438.347739
3729.076164,153.219100,370.102971,9178.553681
3729.076479,0.000000,-0.000000,8882.471304
3729.076793,-306.438199,-592.164754,9400.615463
3729.077108,-689.485948,-814.226536,10510.924376
3729.077423,-612.876398,-296.082377,11177.109724
3729.077737,0.000000,-0.000000,10584.944971
3729.078052,-459.657299,962.267725,10362.883188
3729.078366,-306.438199,1554.432478,9474.636058
3729.078681,0.000000,962.267725,8586.388927
3729.078995,459.657299,740.205942,9104.533087
3729.079310,306.438199,222.061783,9474.636058
3729.079624,0.000000,-370.102971,9474.636058
3729.079939,0.000000,-666.185348,9844.739029
3729.080253,0.000000,-222.061783,10436.903782
3729.080568,229.828649,296.082377,10214.842000
3729.080883,383.047749,888.247130,9622.677246
3729.081197,153.219100,1480.411884,8882.471304
3729.081512,153.219100,1258.350101,8734.430116
3729.081826,0.000000,814.226536,9400.615463
3729.082141,0.000000,-444.123565,9326.594869
3729.082455,-306.438199,-296.082377,9992.780217
3729.082770,-689.485948,-518.144159,10881.027347
3729.083084,-153.219100,-74.020594,11251.130318
3729.083399,-153.219100,-0.000000,11769.274478
3729.083714,-306.438199,-0.000000,11399.171507
3729.084028,0.000000,1258.350101,9918.759623
3729.084343,459.657299,1406.391290,8956.491898
3729.084657,1072.533697,1332.370696,9178.553681
3729.084972,1302.362347,592.164754,9030.512492
3729.085286,1149.143247,-0.000000,8586.388927
3729.085601,1149.143247,-518.144159,8808.450710
3729.085915,612.876398,-518.144159,9474.636058
3729.086230,612.876398,-296.082377,10362.883188
3729.086544,306.438199,148.041188,9696.697840
3729.086859,536.266849,370.102971,9030.512492
3729.087174,229.828649,592.164754,8586.388927
3729.087488,0.000000,222.061783,8734.430116
3729.087803,229.828649,-444.123565,9178.553681
3729.088117,0.000000,-1036.288319,9548.656652
3729.088432,229.828649,-1110.308913,9918.759623
3729.088746,306.438199,-296.082377,10362.883188
3729.089061,459.657299,518.144159,10658.965565
3729.089375,919.314598,1110.308913,10362.883188
3729.089690,766.095498,1480.411884,9178.553681
3729.090005,842.705048,1332.370696,7920.203579
3729.090319,842.705048,1258.350101,8068.244768
3729.090634,1149.143247,222.061783,8512.368333
3729.090948,536.266849,-592.164754,8956.491898
3729.091263,0.000000,-1036.288319,9178.553681
3729.091577,0.000000,-888.247130,9770.718434
3729.091892,-536.266849,-962.267725,10362.883188
3729.092206,-536.266849,-74.020594,10436.903782
3729.092521,-459.657299,592.164754,9992.780217
3729.092835,-689.485948,740.205942,8882.471304
3729.093150,-383.047749,518.144159,8438.347739
3729.093465,-306.438199,518.144159,9178.553681
3729.093779,153.219100,296.082377,9474.636058
3729.094094,-153.219100,-0.000000,10140.821405
3729.094408,0.000000,-0.000000,11029.068536
3729.094723,0.000000,-0.000000,11029.068536
3729.095037,-306.438199,592.164754,11251.130318
3729.095352,-536.266849,962.267725,10288.862594
3729.095666,0.000000,1184.329507,9696.697840
3729.095981,-229.828649,1406.391290,9104.533087
3729.096296,-536.266849,296.082377,8956.491898
3729.096610,-229.828649,-444.123565,9474.636058
3729.096925,-689.485948,-1184.329507,9918.759623
3729.097239,-766.095498,-962.267725,9622.677246
3729.097554,-459.657299,-814.226536,10362.883188
3729.097868,153.219100,-666.185348,10584.944971
3729.098183,0.000000,-0.000000,10066.800811
3729.098497,-536.266849,814.226536,9178.553681
3729.098812,0.000000,814.226536,8438.347739
3729.099126,76.609550,444.123565,9104.533087
3729.099441,0.000000,-148.041188,9178.553681
3729.099756,229.828649,-296.082377,9770.718434
3729.100070,-153.219100,-592.164754,10066.800811
3729.100385,0.000000,-518.144159,10658.965565
3729.100699,306.438199,-444.123565,10732.986159
3729.101014,0.000000,148.041188,10510.924376
3729.101328,-229.828649,740.205942,9770.718434
3729.101643,-229.828649,518.144159,8364.327145
3729.101957,306.438199,222.061783,8364.327145
3729.102272,536.266849,-666.185348,8364.327145
3729.102586,919.314598,-1036.288319,9252.574275
3729.102901,306.438199,-1184.329507,9474.636058
3729.103216,536.266849,-666.185348,9918.759623
3729.103530,842.705048,-518.144159,10066.800811
3729.103845,1378.971896,222.061783,9548.656652
3729.104159,689.485948,666.185348,9178.553681
3729.104474,995.924147,666.185348,8364.327145
3729.104788,689.485948,444.123565,8068.244768
3729.105103,995.924147,-0.000000,8512.368333
3729.105417,229.828649,-666.185348,8660.409521
3729.105732,153.219100,-888.247130,9696.697840
3729.106047,-153.219100,-666.185348,10214.842000
3729.106361,229.828649,-0.000000,10658.965565
3729.106676,153.219100,-0.000000,11251.130318
3729.106990,383.047749,888.247130,9918.759623
3729.107305,0.000000,1110.308913,9178.553681
3729.107619,76.609550,1184.329507,8364.327145
3729.107934,919.314598,-0.000000,9104.533087
3729.108248,383.047749,-370.102971,8882.471304
3729.108563,383.047749,-1110.308913,8586.388927
3729.108877,0.000000,-962.267725,9770.718434
3729.109192,0.000000,-0.000000,10288.862594
3729.109507,229.828649,370.102971,10362.883188
3729.109821,-153.219100,888.247130,9844.739029
3729.110136,-383.047749,1406.391290,8808.450710
3729.110450,-306.438199,1184.329507,8882.471304
3729.110765,-229.828649,-0.000000,9030.512492
3729.111079,-306.438199,-74.020594,9474.636058
3729.111394,-459.657299,-666.185348,9548.656652
3729.111708,-383.047749,-592.164754,10584.944971
3729.112023,-306.438199,444.123565,11177.109724
3729.112338,-306.438199,444.123565,10955.047942
3729.112652,0.000000,1258.350101,10214.842000
3729.112967,-306.438199,1332.370696,9474.636058
3729.113281,306.438199,1258.350101,8808.450710
3729.113596,459.657299,888.247130,9252.574275
3729.113910,536.266849,-0.000000,9326.594869
3729.114225,76.609550,-518.144159,9844.739029
3729.114539,0.000000,-296.082377,9622.677246
3729.114854,0.000000,-0.000000,10214.842000
3729.115168,536.266849,518.144159,10584.944971
3729.115483,76.609550,666.185348,10584.944971
3729.115798,-689.485948,888.247130,9474.636058
3729.116112,-229.828649,1184.329507,8512.368333
3729.116427,0.000000,592.164754,8956.491898
3729.116741,76.609550,-148.041188,9326.594869
3729.117056,153.219100,-370.102971,9474.636058
3729.117370,536.266849,-518.144159,9918.759623
3729.117685,0.000000,-222.061783,10584.944971
3729.117999,153.219100,-0.000000,10436.903782
3729.118314,0.000000,1184.329507,10436.903782
3729.118629,0.000000,1258.350101,9326.594869
3729.118943,153.219100,1332.370696,8956.491898
3729.119258,612.876398,740.205942,8586.388927
3729.119572,306.438199,-592.164754,9178.553681
3729.119887,76.609550,-1110.308913,9696.697840
3729.120201,0.000000,-962.267725,9622.677246
3729.120516,0.000000,-1036.288319,9992.780217
3729.120830,306.438199,-148.041188,10510.924376
3729.121145,536.266849,666.185348,9918.759623
3729.121459,612.876398,888.247130,8808.450710
3729.121774,612.876398,1036.288319,7994.224174
3729.122089,689.485948,1036.288319,7846.182985
3729.122403,919.314598,-0.000000,8586.388927
3729.122718,459.657299,-444.123565,9104.533087
3729.123032,153.219100,-1036.288319,9622.677246
3729.123347,306.438199,-1332.370696,9992.780217
3729.123661,229.828649,-592.164754,10955.047942
3729.123976,229.828649,444.123565,10881.027347
3729.124290,0.000000,740.205942,9696.697840
3729.124605,76.609550,1184.329507,9400.615463
3729.124919,689.485948,444.123565,9178.553681
3729.125234,842.705048,148.041188,9326.594869
3729.125549,459.657299,-296.082377,9474.636058
3729.125863,229.828649,-666.185348,9474.636058
3729.126178,76.609550,-444.123565,10362.883188
3729.126492,383.047749,-0.000000,10881.027347
3729.126807,153.219100,666.185348,10436.903782
3729.127121,459.657299,740.205942,9844.739029
3729.127436,383.047749,1480.411884,8956.491898
3729.127750,306.438199,888.247130,8438.347739
3729.128065,-306.438199,814.226536,8882.471304
3729.128380,-306.438199,-592.164754,9548.656652
3729.128694,-383.047749,-1406.391290,9918.759623
3729.129009,-689.485948,-1332.370696,10214.842000
3729.129323,-612.876398,-888.247130,10732.986159
3729.129638,-995.924147,-296.082377,11029.068536
3729.129952,-612.876398,888.247130,10436.903782
3729.130267,-383.047749,1258.350101,9770.718434
3729.130581,0.000000,1036.288319,9178.553681
3729.130896,459.657299,814.226536,8956.491898
3729.131210,1149.143247,-0.000000,9178.553681
3729.131525,612.876398,-222.061783,9474.636058
3729.131840,306.438199,-296.082377,9474.636058
3729.132154,306.438199,-0.000000,10140.821405
3729.132469,459.657299,296.082377,10510.924376
3729.132783,76.609550,592.164754,9844.739029
3729.133098,0.000000,518.144159,8808.450710
3729.133412,-306.438199,370.102971,8290.306550
3729.133727,-153.219100,148.041188,8290.306550
3729.134041,-229.828649,-814.226536,8882.471304
3729.134356,-383.047749,-1850.514855,9474.636058
3729.134671,-459.657299,-1406.391290,9918.759623
3729.134985,0.000000,-592.164754,10658.965565
3729.135300,0.000000,148.041188,10881.027347
3729.135614,383.047749,1036.288319,10140.821405
3729.135929,842.705048,1406.391290,8956.491898
3729.136243,612.876398,1480.411884,8586.388927
3729.136558,536.266849,1184.329507,8068.244768
3729.136872,1149.143247,740.205942,8882.471304
3729.137187,766.095498,-296.082377,9030.512492
3729.137501,0.000000,-888.247130,9474.636058
3729.137816,-229.828649,-740.205942,10140.821405
3729.138131,0.000000,-444.123565,10807.006753
3729.138445,0.000000,-0.000000,11029.068536
3729.138760,0.000000,370.102971,9622.677246
3729.139074,0.000000,148.041188,9104.533087
3729.139389,-383.047749,888.247130,8808.450710
3729.139703,0.000000,296.082377,9326.594869
3729.140018,76.609550,-296.082377,9548.656652
3729.140332,0.000000,-666.185348,9474.636058
3729.140647,459.657299,-592.164754,9844.739029
3729.140961,459.657299,-0.000000,10436.903782
3729.141276,536.266849,888.247130,10807.006753
3729.141590,383.047749,1702.473667,9770.718434
3729.141905,459.657299,1702.473667,8660.409521
3729.142219,1072.533697,1184.329507,8290.306550
3729.142534,842.705048,370.102971,8956.491898
3729.142848,689.485948,-444.123565,9400.615463
3729.143163,76.609550,-1036.288319,9770.718434
3729.143477,0.000000,-1110.308913,10214.842000
3729.143792,-306.438199,-814.226536,10436.903782
3729.144106,0.000000,-148.041188,10584.944971
3729.144421,0.000000,740.205942,10214.842000
3729.144735,0.000000,1258.350101,9326.594869
3729.145050,689.485948,1480.411884,8142.265362
3729.145364,229.828649,666.185348,9030.512492
3729.145679,766.095498,148.041188,9252.574275
3729.145993,459.657299,-518.144159,9696.697840
3729.146308,536.266849,-370.102971,10066.800811
3729.146622,306.438199,-0.000000,10510.924376
3729.146937,229.828649,592.164754,11399.171507
3729.147251,153.219100,1480.411884,10436.903782
3729.147566,-153.219100,1850.514855,9400.615463
3729.147880,76.609550,1258.350101,8882.471304
3729.148195,153.219100,-0.000000,9030.512492
3729.148509,612.876398,-0.000000,9104.533087
3729.148824,-229.828649,-666.185348,9918.759623
3729.149138,-383.047749,-814.226536,9992.780217
3729.149453,-306.438199,-222.061783,10066.800811
3729.149767,229.828649,370.102971,10288.862594
3729.150082,0.000000,740.205942,9918.759623
3729.150396,0.000000,1110.308913,9252.574275
3729.150711,76.609550,1332.370696,8882.471304
3729.151025,76.609550,592.164754,8512.368333
3729.151340,383.047749,-0.000000,9474.636058
3729.151654,306.438199,-740.205942,9326.594869
3729.151969,-229.828649,-1110.308913,9844.739029
3729.152283,0.000000,-814.226536,10362.883188
3729.152598,-153.219100,-222.061783,10732.986159
3729.152912,-153.219100,592.164754,10732.986159
3729.153227,-229.828649,1184.329507,9326.594869
3729.153541,0.000000,962.267725,8734.430116
3729.153856,383.047749,296.082377,8216.285956
3729.154170,766.095498,-148.041188,8956.491898
3729.154485,842.705048,-666.185348,9252.574275
3729.154799,-229.828649,-962.267725,8882.471304
3729.155114,-536.266849,-962.267725,9770.718434
3729.155428,-306.438199,-222.061783,10658.965565
3729.155743,0.000000,-0.000000,10214.842000
3729.156057,-153.219100,370.102971,9474.636058
3729.156372,-383.047749,740.205942,9178.553681
3729.156686,-229.828649,518.144159,9178.553681
3729.157001,0.000000,-0.000000,9252.574275
3729.157315,-229.828649,-370.102971,9474.636058
3729.157630,76.609550,-592.164754,9548.656652
3729.157944,229.828649,-666.185348,10066.800811
3729.158259,153.219100,-296.082377,10510.924376
3729.158573,153.219100,370.102971,10436.903782
3729.158888,0.000000,444.123565,9622.677246
3729.159202,0.000000,1184.329507,9030.512492
3729.159517,153.219100,888.247130,8734.430116
3729.159831,306.438199,-0.000000,9326.594869
3729.160146,153.219100,-518.144159,9104.533087
3729.160460,383.047749,-1258.350101,9474.636058
3729.160775,0.000000,-1184.329507,10066.800811
3729.161089,-229.828649,-666.185348,10732.986159
3729.161404,0.000000,-0.000000,10732.986159
3729.161718,0.000000,592.164754,10140.821405
3729.162033,0.000000,814.226536,9030.512492
3729.162347,0.000000,814.226536,8586.388927
3729.162662,612.876398,-0.000000,9252.574275
3729.162976,766.095498,-296.082377,9252.574275
3729.163291,1149.143247,-592.164754,9622.677246
3729.163605,536.266849,-222.061783,9918.759623
3729.163920,0.000000,-222.061783,10510.924376
3729.164234,229.828649,-0.000000,10140.821405
3729.164549,306.438199,518.144159,9918.759623
3729.164863,0.000000,592.164754,9030.512492
3729.165178,229.828649,518.144159,8586.388927
3729.165492,153.219100,370.102971,8882.471304
3729.165807,0.000000,-518.144159,9030.512492
3729.166121,-229.828649,-1110.308913,9400.615463
3729.166436,-536.266849,-1036.288319,9770.718434
3729.166750,0.000000,-518.144159,10214.842000
3729.167065,76.609550,-222.061783,10732.986159
3729.167379,306.438199,814.226536,10140.821405
3729.167694,306.438199,1480.411884,9474.636058
3729.168008,306.438199,1776.494261,8290.306550
3729.168323,536.266849,888.247130,8512.368333
3729.168637,766.095498,370.102971,9030.512492
3729.168952,536.266849,-296.082377,9400.615463
3729.169266,0.000000,-666.185348,9992.780217
3729.169581,0.000000,-518.144159,10436.903782
3729.169895,0.000000,-0.000000,10955.047942
3729.170210,0.000000,814.226536,10807.006753
3729.170524,0.000000,1184.329507,9548.656652
3729.170839,229.828649,1258.350101,9030.512492
3729.171153,306.438199,962.267725,8364.327145
3729.171468,689.485948,222.061783,9030.512492
3729.171782,229.828649,-0.000000,9326.594869
3729.172097,0.000000,-370.102971,9474.636058
3729.172411,0.000000,-296.082377,9992.780217
3729.172726,689.485948,444.123565,10584.944971
3729.173040,689.485948,1184.329507,10362.883188
3729.173355,536.266849,1184.329507,9400.615463
3729.173669,76.609550,1554.432478,8660.409521
3729.173984,-76.609550,814.226536,8734.430116
3729.174298,0.000000,-0.000000,8956.491898
3729.174613,153.219100,-740.205942,9474.636058
3729.174927,-459.657299,-1406.391290,9770.718434
3729.175242,-612.876398,-888.247130,10436.903782
3729.175556,-383.047749,-0.000000,10807.006753
3729.175871,0.000000,370.102971,10807.006753
3729.176185,0.000000,1110.308913,9844.739029
3729.176500,153.219100,1554.432478,8882.471304
3729.176814,459.657299,1184.329507,8216.285956
3729.177129,383.047749,444.123565,8734.430116
3729.177443,536.266849,-0.000000,9178.553681
3729.177758,229.828649,-296.082377,9178.553681
3729.178072,229.828649,-444.123565,9622.677246
3729.178387,76.609550,-0.000000,10732.986159
3729.178701,612.876398,592.164754,11325.150913
3729.179016,0.000000,518.144159,9696.697840
3729.179330,-612.876398,1036.288319,9400.615463
3729.179645,-383.047749,888.247130,9400.615463
3729.179959,-383.047749,-0.000000,9252.574275
3729.180273,-229.828649,-592.164754,9918.759623
3729.180588,76.609550,-1036.288319,9622.677246
3729.180902,-229.828649,-666.185348,9918.759623
3729.181217,0.000000,-0.000000,10584.944971
3729.181531,153.219100,814.226536,10807.006753
3729.181846,459.657299,1258.350101,10288.862594
3729.182160,306.438199,1554.432478,9030.512492
3729.182475,536.266849,1258.350101,8734.430116
3729.182789,536.266849,370.102971,8512.368333
3729.183104,689.485948,-518.144159,9104.533087
3729.183418,383.047749,-1406.391290,9104.533087
3729.183733,153.219100,-1258.350101,9326.594869
3729.184047,-153.219100,-962.267725,10732.986159
3729.184362,-383.047749,-296.082377,10807.006753
3729.184676,-689.485948,-0.000000,10214.842000
3729.184991,-689.485948,444.123565,9474.636058
3729.185305,-459.657299,592.164754,8512.368333
3729.185620,0.000000,-74.020594,9030.512492
3729.185934,76.609550,-814.226536,9326.594869
3729.186249,306.438199,-962.267725,9178.553681
3729.186563,0.000000,-1332.370696,9474.636058
3729.186878,153.219100,-888.247130,9844.739029
3729.187192,612.876398,-0.000000,10732.986159
3729.187507,306.438199,518.144159,10362.883188
3729.187821,919.314598,962.267725,9400.615463
3729.188136,153.219100,740.205942,8438.347739
3729.188450,536.266849,-0.000000,8068.244768
3729.188765,612.876398,-444.123565,9030.512492
3729.189079,306.438199,-962.267725,9326.594869
3729.189394,0.000000,-962.267725,9326.594869
3729.189708,0.000000,-1110.308913,9918.759623
3729.190023,383.047749,-370.102971,10214.842000
3729.190337,0.000000,370.102971,10658.965565
3729.190652,0.000000,814.226536,9548.656652
3729.190966,-229.828649,1184.329507,8882.471304
3729.191281,0.000000,962.267725,8734.430116
3729.191595,306.438199,-0.000000,8660.409521
3729.191910,153.219100,-666.185348,9474.636058
3729.192224,0.000000,-740.205942,10066.800811
3729.192539,-383.047749,-222.061783,10214.842000
3729.192853,0.000000,592.164754,10584.944971
3729.193168,229.828649,962.267725,10658.965565
3729.193482,0.000000,962.267725,9918.759623
3729.193797,306.438199,1628.453072,8586.388927
3729.194111,0.000000,1480.411884,8290.306550
3729.194426,383.047749,-0.000000,9252.574275
3729.194740,459.657299,-666.185348,9252.574275
3729.195055,-459.657299,-1036.288319,9474.636058
3729.195369,-612.876398,-1184.329507,10066.800811
3729.195684,0.000000,-666.185348,10732.986159
3729.195998,-153.219100,-0.000000,10510.924376
3729.196313,0.000000,962.267725,10362.883188
3729.196627,0.000000,1480.411884,9326.594869
3729.196942,0.000000,1036.288319,8660.409521
3729.197256,536.266849,444.123565,8586.388927
3729.197571,842.705048,74.020594,8956.491898
3729.197885,383.047749,-814.226536,9918.759623
3729.198200,153.219100,-592.164754,9918.759623
3729.198514,0.000000,-222.061783,10362.883188
3729.198829,306.438199,296.082377,11103.089130
3729.199143,536.266849,1110.308913,10140.821405
3729.199458,612.876398,1406.391290,9252.574275
3729.199772,536.266849,1332.370696,8734.430116
3729.200087,766.095498,888.247130,8364.327145
3729.200401,689.485948,-0.000000,8882.471304
3729.200716,306.438199,-444.123565,9400.615463
3729.201030,153.219100,-296.082377,9622.677246
3729.201345,153.219100,-296.082377,10510.924376
3729.201659,612.876398,222.061783,10807.006753
3729.201974,766.095498,962.267725,9918.759623
3729.202288,536.266849,1702.473667,9326.594869
3729.202603,383.047749,1554.432478,8882.471304
3729.202917,766.095498,1110.308913,8660.409521
3729.203232,459.657299,-0.000000,9104.533087
3729.203546,383.047749,-0.000000,9104.533087
3729.203861,0.000000,-296.082377,10140.821405
3729.204175,0.000000,-74.020594,10510.924376
3729.204490,-306.438199,-0.000000,11103.089130
3729.204804,-612.876398,888.247130,10510.924376
3729.205119,-842.705048,962.267725,9918.759623
3729.205433,-459.657299,1036.288319,9400.615463
3729.205748,0.000000,444.123565,8956.491898
3729.206062,76.609550,-0.000000,9030.512492
3729.206377,76.609550,-518.144159,8956.491898
3729.206691,0.000000,-296.082377,9474.636058
3729.207006,0.000000,-222.061783,9770.718434
3729.207320,536.266849,74.020594,10214.842000
3729.207635,1072.533697,592.164754,10066.800811
3729.207949,536.266849,1184.329507,9178.553681
3729.208264,0.000000,1110.308913,8512.368333
3729.208578,-76.609550,740.205942,9030.512492
3729.208893,-229.828649,-148.041188,9548.656652
3729.209207,0.000000,-1110.308913,9992.780217
3729.209522,-459.657299,-1258.350101,9918.759623
3729.209836,-383.047749,-1184.329507,10288.862594
3729.210151,-306.438199,-666.185348,11029.068536
3729.210465,0.000000,-0.000000,11177.109724
3729.210780,-153.219100,666.185348,10066.800811
3729.211094,0.000000,1258.350101,8882.471304
3729.211409,383.047749,1776.494261,8586.388927
3729.211723,459.657299,666.185348,9030.512492
3729.212038,306.438199,222.061783,8956.491898
3729.212352,229.828649,-962.267725,9474.636058
3729.212667,0.000000,-888.247130,9844.739029
3729.212981,76.609550,-888.247130,10732.986159
3729.213296,459.657299,-148.041188,10807.006753
3729.213610,0.000000,222.061783,10436.903782
3729.213925,-383.047749,666.185348,9326.594869
3729.214239,-76.609550,888.247130,8290.306550
3729.214554,0.000000,370.102971,8512.368333
3729.214868,0.000000,-370.102971,8882.471304
3729.215183,-229.828649,-888.247130,9326.594869
3729.215497,0.000000,-1110.308913,9474.636058
3729.215812,0.000000,-814.226536,10436.903782
3729.216126,0.000000,-370.102971,10807.006753
3729.216441,383.047749,592.164754,10362.883188
3729.216755,383.047749,1480.411884,9326.594869
3729.217070,612.876398,1110.308913,7624.121203
3729.217384,842.705048,740.205942,8290.306550
3729.217699,1072.533697,-148.041188,8512.368333
3729.218013,536.266849,-740.205942,8586.388927
3729.218328,153.219100,-1110.308913,9252.574275
3729.218642,0.000000,-1332.370696,10140.821405
3729.218957,459.657299,-592.164754,10732.986159
3729.219271,306.438199,-0.000000,10584.944971
3729.219586,-229.828649,444.123565,9474.636058
3729.219900,-153.219100,888.247130,8660.409521
3729.220215,76.609550,518.144159,8438.347739
3729.220529,459.657299,-518.144159,8734.430116
3729.220844,306.438199,-518.144159,9474.636058
3729.221158,-153.219100,-1036.288319,9844.739029
3729.221473,-229.828649,-592.164754,10066.800811
3729.221787,-229.828649,-0.000000,10732.986159
3729.222102,0.000000,962.267725,10584.944971
3729.222416,-842.705048,814.226536,9844.739029
3729.222731,0.000000,1258.350101,9548.656652
3729.223045,0.000000,962.267725,9400.615463
3729.223360,-153.219100,-0.000000,9326.594869
3729.223674,76.609550,-222.061783,9844.739029
3729.223989,-383.047749,-740.205942,9992.780217
3729.224303,-153.219100,-518.144159,10658.965565
3729.224618,-153.219100,-0.000000,10510.924376
3729.224932,76.609550,518.144159,10288.862594
3729.225247,153.219100,1258.350101,9474.636058
3729.225561,306.438199,2072.576638,9104.533087
3729.225876,306.438199,1184.329507,8660.409521
3729.226190,0.000000,518.144159,8882.471304
3729.226505,0.000000,-444.123565,9326.594869
3729.226819,-536.266849,-962.267725,9622.677246
3729.227134,-1072.533697,-1258.350101,10436.903782
3729.227448,-306.438199,-222.061783,11621.233289
3729.227763,0.000000,444.123565,11103.089130
3729.228077,229.828649,1258.350101,10362.883188
3729.228392,459.657299,1702.473667,9104.533087
3729.228706,766.095498,1480.411884,8438.347739
3729.229021,1149.143247,1258.350101,8734.430116
3729.229335,1149.143247,518.144159,8660.409521
3729.229650,995.924147,222.061783,8808.450710
3729.229964,612.876398,-370.102971,8956.491898
3729.230278,306.438199,-296.082377,10288.862594
3729.230593,459.657299,-74.020594,10288.862594
3729.230907,383.047749,592.164754,9918.759623
3729.231222,0.000000,814.226536,9474.636058
3729.231536,0.000000,814.226536,8660.409521
3729.231851,76.609550,296.082377,9178.553681
3729.232165,229.828649,-0.000000,9178.553681
3729.232480,0.000000,-592.164754,9400.615463
3729.232794,76.609550,-740.205942,9844.739029
3729.233109,76.609550,-148.041188,10584.944971
3729.233423,536.266849,444.123565,11473.192101
3729.233738,536.266849,1554.432478,10066.800811
3729.234052,612.876398,1850.514855,9252.574275
3729.234367,536.266849,2146.597232,9030.512492
3729.234681,842.705048,1258.350101,8734.430116
3729.234996,766.095498,296.082377,9622.677246
3729.235310,229.828649,-444.123565,9104.533087
3729.235625,0.000000,-888.247130,9326.594869
3729.235939,-306.438199,-740.205942,10214.842000
3729.236254,76.609550,-296.082377,10658.965565
3729.236568,0.000000,222.061783,10584.944971
3729.236883,-306.438199,592.164754,9400.615463
3729.237197,-536.266849,666.185348,8882.471304
3729.237512,0.000000,666.185348,8660.409521
3729.237826,229.828649,-0.000000,9030.512492
3729.238141,229.828649,-222.061783,9474.636058
3729.238455,-306.438199,-814.226536,9918.759623
3729.238770,-229.828649,-592.164754,10510.924376
3729.239084,76.609550,-0.000000,10584.944971
3729.239399,0.000000,592.164754,10362.883188
3729.239713,0.000000,1332.370696,9844.739029
3729.240028,-306.438199,1110.308913,8808.450710
3729.240342,306.438199,592.164754,8660.409521
3729.240657,76.609550,-518.144159,9252.574275
3729.240971,0.000000,-1258.350101,9400.615463
3729.241286,-919.314598,-1406.391290,9770.718434
3729.241600,-842.705048,-1406.391290,10140.821405
3729.241915,0.000000,-666.185348,10807.006753
3729.242229,153.219100,-0.000000,10584.944971
3729.242544,0.000000,740.205942,9326.594869
3729.242858,229.828649,1110.308913,8438.347739
3729.243173,689.485948,888.247130,8142.265362
3729.243487,842.705048,296.082377,9030.512492
3729.243802,536.266849,-74.020594,9104.533087
3729.244116,0.000000,-666.185348,9474.636058
3729.244431,0.000000,-814.226536,10140.821405
3729.244745,0.000000,-740.205942,10288.862594
3729.245060,153.219100,-0.000000,10658.965565
3729.245374,0.000000,444.123565,10066.800811
3729.245689,-306.438199,444.123565,9622.677246
3729.246003,-229.828649,740.205942,8882.471304
3729.246318,153.219100,-0.000000,8438.347739
3729.246632,76.609550,-666.185348,8734.430116
3729.246947,-76.609550,-1184.329507,9326.594869
3729.247261,153.219100,-1110.308913,9844.739029
3729.247576,229.828649,-296.082377,10214.842000
3729.247890,383.047749,-0.000000,10362.883188
3729.248205,383.047749,888.247130,9548.656652
3729.248519,229.828649,1332.370696,8660.409521
3729.248834,612.876398,1036.288319,8882.471304
3729.249148,689.485948,-0.000000,8956.491898
3729.249463,689.485948,-0.000000,9104.533087
3729.249777,0.000000,-592.164754,9400.615463
3729.250092,0.000000,-1184.329507,9770.718434
3729.250406,0.000000,-370.102971,10510.924376
3729.250721,306.438199,-0.000000,10584.944971
3729.251035,459.657299,-0.000000,9992.780217
3729.251349,76.609550,814.226536,9252.574275
3729.251664,-306.438199,814.226536,9326.594869
3729.251978,-229.828649,222.061783,8956.491898
3729.252293,76.609550,-0.000000,9030.512492
3729.252607,229.828649,-666.185348,8734.430116
3729.252922,0.000000,-962.267725,9622.677246
3729.253236,229.828649,-0.000000,10066.800811
3729.253551,229.828649,222.061783,10881.027347
3729.253865,306.438199,1036.288319,10732.986159
3729.254180,229.828649,1554.432478,9474.636058
3729.254494,229.828649,1628.453072,8808.450710
3729.254809,689.485948,1036.288319,9178.553681
3729.255123,383.047749,296.082377,9474.636058
3729.255438,-229.828649,-592.164754,9474.636058
3729.255752,-459.657299,-592.164754,9992.780217
3729.256067,-995.924147,-296.082377,10510.924376
3729.256381,-306.438199,-222.061783,10807.006753
3729.256696,-229.828649,518.144159,10658.965565
3729.257010,-153.219100,888.247130,9918.759623
3729.257325,-306.438199,1480.411884,8882.471304
3729.257639,0.000000,1480.411884,8956.491898
3729.257954,536.266849,1036.288319,8660.409521
3729.258268,459.657299,296.082377,9030.512492
3729.258583,459.657299,-0.000000,8956.491898
3729.258897,0.000000,-148.041188,9474.636058
3729.259212,612.876398,-0.000000,10288.862594
3729.259526,306.438199,518.144159,10658.965565
3729.259841,-229.828649,1110.308913,9474.636058
3729.260155,-612.876398,1110.308913,8882.471304
3729.260470,-229.828649,1036.288319,8438.347739
3729.260784,0.000000,-222.061783,8882.471304
3729.261099,229.828649,-666.185348,9326.594869
3729.261413,-306.438199,-444.123565,9622.677246
3729.261728,-153.219100,-148.041188,10066.800811
3729.262042,306.438199,-0.000000,10510.924376
3729.262357,229.828649,666.185348,10732.986159
3729.262671,459.657299,888.247130,9844.739029
3729.262986,-153.219100,1258.350101,8734.430116
3729.263300,153.219100,1110.308913,8660.409521
3729.263615,383.047749,1110.308913,8734.430116
3729.263929,229.828649,-0.000000,9400.615463
3729.264243,0.000000,-592.164754,9548.656652
3729.264558,0.000000,-814.226536,10214.842000
3729.264872,153.219100,-592.164754,10066.800811
3729.265187,842.705048,-0.000000,11029.068536
3729.265501,459.657299,740.205942,10288.862594
3729.265816,229.828649,1184.329507,9104.533087
3729.266130,536.266849,1258.350101,8512.368333
3729.266445,612.876398,888.247130,8290.306550
3729.266759,536.266849,-0.000000,9104.533087
3729.267074,459.657299,-888.247130,9548.656652
3729.267388,-229.828649,-1110.308913,9918.759623
3729.267703,0.000000,-370.102971,10732.986159
3729.268017,76.609550,-0.000000,11177.109724
3729.268332,76.609550,370.102971,10807.006753
3729.268646,306.438199,888.247130,9918.759623
3729.268961,-153.219100,814.226536,8808.450710
3729.269275,0.000000,370.102971,8808.450710
3729.269590,459.657299,-74.020594,9104.533087
3729.269904,383.047749,-592.164754,9474.636058
3729.270219,0.000000,-1110.308913,9844.739029
3729.270533,0.000000,-888.247130,10436.903782
3729.270848,153.219100,-592.164754,10881.027347
3729.271162,0.000000,222.061783,10658.965565
3729.271477,306.438199,888.247130,9918.759623
3729.271791,76.609550,814.226536,8512.368333
3729.272106,459.657299,518.144159,8364.327145
3729.272420,766.095498,-0.000000,8290.306550
3729.272735,459.657299,-740.205942,9252.574275
3729.273049,0.000000,-888.247130,9474.636058
3729.273364,-383.047749,-1110.308913,10066.800811
3729.273678,-383.047749,-370.102971,10584.944971
3729.273993,-229.828649,222.061783,10288.862594
3729.274307,-229.828649,518.144159,9918.759623
3729.274622,76.609550,888.247130,9326.594869
3729.274936,-76.609550,1036.288319,9030.512492
3729.275251,306.438199,-0.000000,9252.574275
3729.275565,153.219100,-444.123565,8956.491898
3729.275880,0.000000,-814.226536,9104.533087
3729.276194,383.047749,-814.226536,9474.636058
3729.276509,536.266849,-222.061783,10214.842000
3729.276823,76.609550,444.123565,10214.842000
3729.277138,76.609550,740.205942,9622.677246
3729.277452,-153.219100,1628.453072,8956.491898
3729.277766,153.219100,444.123565,7994.224174
3729.278081,383.047749,-0.000000,8512.368333
3729.278395,0.000000,-444.123565,9474.636058
3729.278710,-689.485948,-962.267725,9918.759623
3729.279024,-536.266849,-814.226536,9918.759623
3729.279339,-383.047749,-222.061783,10658.965565
3729.279653,0.000000,740.205942,11029.068536
3729.279968,76.609550,1036.288319,10288.862594
3729.280282,0.000000,1480.411884,9178.553681
3729.280597,229.828649,1258.350101,8512.368333
3729.280911,459.657299,666.185348,9104.533087
3729.281226,306.438199,-0.000000,8956.491898
3729.281540,76.609550,-814.226536,9474.636058
3729.281855,0.000000,-444.123565,9696.697840
3729.282169,-229.828649,-74.020594,10362.883188
3729.282484,0.000000,-0.000000,10436.903782
3729.282798,0.000000,592.164754,9992.780217
3729.283113,76.609550,1332.370696,9326.594869
3729.283427,383.047749,814.226536,8956.491898
3729.283742,76.609550,666.185348,8956.491898
3729.284056,0.000000,-148.041188,9178.553681
3729.284371,153.219100,-518.144159,9770.718434
3729.284685,383.047749,-518.144159,9696.697840
3729.285000,842.705048,222.061783,10362.883188
3729.285314,612.876398,592.164754,10584.944971
3729.285629,766.095498,1332.370696,10658.965565
3729.285943,383.047749,1258.350101,9918.759623
3729.286258,383.047749,1184.329507,8734.430116
3729.286572,919.314598,1110.308913,8660.409521
3729.286887,536.266849,148.041188,9030.512492
3729.287201,459.657299,-222.061783,9696.697840
3729.287516,0.000000,-592.164754,9770.718434
3729.287830,0.000000,-518.144159,9918.759623
3729.288145,383.047749,-148.041188,10584.944971
3729.288459,153.219100,666.185348,10732.986159
3729.288774,76.609550,1110.308913,9400.615463
3729.289088,76.609550,1110.308913,8882.471304
3729.289403,306.438199,740.205942,8956.491898
3729.289717,536.266849,-0.000000,9326.594869
3729.290032,612.876398,-148.041188,9548.656652
3729.290346,306.438199,-518.144159,9770.718434
3729.290660,306.438199,-370.102971,9992.780217
3729.290975,153.219100,-148.041188,10436.903782
3729.291289,306.438199,592.164754,10436.903782
3729.291604,0.000000,740.205942,9844.739029
3729.291918,0.000000,1110.308913,9030.512492
3729.292233,-229.828649,370.102971,8438.347739
3729.292547,0.000000,148.041188,8364.327145
3729.292862,76.609550,-814.226536,9030.512492
3729.293176,-383.047749,-1554.432478,9474.636058
3729.293491,-689.485948,-1406.391290,9696.697840
3729.293805,-306.438199,-888.247130,10288.862594
3729.294120,0.000000,296.082377,10732.986159
3729.294434,0.000000,740.205942,9844.739029
3729.294749,-612.876398,592.164754,9178.553681
3729.295063,0.000000,666.185348,8734.430116
3729.295378,306.438199,222.061783,8660.409521
3729.295692,536.266849,-148.041188,8956.491898
3729.296007,459.657299,-740.205942,9474.636058
3729.296321,0.000000,-1110.308913,10510.924376
3729.296636,-383.047749,-740.205942,10658.965565
3729.296950,-383.047749,-0.000000,10584.944971
3729.297265,-306.438199,962.267725,10288.862594
3729.297579,-383.047749,740.205942,9400.615463
3729.297894,306.438199,740.205942,9474.636058
3729.298208,0.000000,-0.000000,9030.512492
3729.298523,-153.219100,-370.102971,9104.533087
3729.298837,0.000000,-1036.288319,9178.553681
3729.299152,-536.266849,-1110.308913,10066.800811
3729.299466,-536.266849,-592.164754,11029.068536
3729.299781,-306.438199,-0.000000,11473.192101
3729.300095,-459.657299,814.226536,10510.924376
3729.300410,0.000000,1036.288319,9326.594869
3729.300724,229.828649,814.226536,8882.471304
3729.301039,612.876398,-0.000000,9030.512492
3729.301353,612.876398,-592.164754,9326.594869
3729.301668,153.219100,-888.247130,9178.553681
3729.301982,153.219100,-1036.288319,9548.656652
3729.302297,76.609550,-592.164754,10436.903782
3729.302611,229.828649,-222.061783,10584.944971
3729.302926,306.438199,370.102971,9622.677246
3729.303240,306.438199,814.226536,9104.533087
3729.303554,229.828649,592.164754,8808.450710
3729.303869,306.438199,222.061783,8808.450710
3729.304183,306.438199,-296.082377,9252.574275
3729.304498,842.705048,-740.205942,9252.574275
3729.304812,459.657299,-962.267725,9844.739029
3729.305127,612.876398,-592.164754,9918.759623
3729.305441,1149.143247,-296.082377,10584.944971
3729.305756,1302.362347,1036.288319,10732.986159
3729.306070,536.266849,1258.350101,9178.553681
3729.306385,919.314598,1554.432478,7920.203579
3729.306699,842.705048,1036.288319,8438.347739
3729.307014,995.924147,444.123565,8808.450710
3729.307328,306.438199,-888.247130,8956.491898
3729.307643,0.000000,-814.226536,9252.574275
3729.307957,-229.828649,-666.185348,10807.006753
3729.308272,76.609550,-0.000000,11177.109724
3729.308586,0.000000,592.164754,10732.986159
3729.308901,-383.047749,888.247130,10584.944971
