#time,accel_x,accel_y,accel_z
3618.913776,2451.505594,1258.350101,8216.285956
3618.914091,2757.943793,1776.494261,8438.347739
3618.914405,2757.943793,2294.638420,8512.368333
3618.914720,2681.334243,2294.638420,8364.327145
3618.915035,2528.115143,2146.597232,8734.430116
3618.915349,1991.848295,2072.576638,9030.512492
3618.915664,1378.971896,1554.432478,9178.553681
3618.915978,612.876398,740.205942,9400.615463
3618.916293,-229.828649,-0.000000,9548.656652
3618.916608,-536.266849,-296.082377,10066.800811
3618.916922,-1225.752797,-814.226536,9992.780217
3618.917237,-995.924147,-1110.308913,9844.739029
3618.917552,-1149.143247,-1258.350101,9622.677246
3618.917866,-919.314598,-1332.370696,9474.636058
3618.918181,-766.095498,-666.185348,9326.594869
3618.918495,-459.657299,-370.102971,9178.553681
3618.918810,-536.266849,-222.061783,9770.718434
3618.919125,-153.219100,-0.000000,9326.594869
3618.919439,-536.266849,296.082377,9400.615463
3618.919754,-306.438199,148.041188,9770.718434
3618.920068,-306.438199,-0.000000,9918.759623
3618.920383,-459.657299,-444.123565,10066.800811
3618.920698,-766.095498,-814.226536,10214.842000
3618.921012,-536.266849,-592.164754,9844.739029
3618.921327,-689.485948,-592.164754,9992.780217
3618.921641,-842.705048,-814.226536,10214.842000
3618.921956,-919.314598,-1332.370696,10288.862594
3618.922271,-995.924147,-1628.453072,9918.759623
3618.922585,-919.314598,-1702.473667,10140.821405
3618.922900,-536.266849,-1406.391290,9844.739029
3618.923215,-229.828649,-1258.350101,10066.800811
3618.923529,0.000000,-888.247130,9918.759623
3618.923844,229.828649,-740.205942,9622.677246
3618.924158,1149.143247,-74.020594,9178.553681
3618.924473,1225.752797,-0.000000,8734.430116
3618.924788,1762.019645,-148.041188,8734.430116
3618.925102,2145.067394,-148.041188,8882.471304
3618.925417,1532.190996,-148.041188,8586.388927
3618.925731,1532.190996,-148.041188,8882.471304
3618.926046,1302.362347,-296.082377,8882.471304
3618.926361,766.095498,-222.061783,9400.615463
3618.926675,766.095498,-0.000000,9252.574275
3618.926990,536.266849,-296.082377,8586.388927
3618.927305,919.314598,-0.000000,8956.491898
3618.927619,612.876398,296.082377,9178.553681
3618.927934,689.485948,518.144159,8808.450710
3618.928248,766.095498,222.061783,8216.285956
3618.928563,1072.533697,740.205942,8512.368333
3618.928878,1225.752797,1036.288319,8438.347739
3618.929192,919.314598,1036.288319,8956.491898
3618.929507,612.876398,1036.288319,9474.636058
3618.929821,0.000000,1036.288319,9548.656652
3618.930136,0.000000,814.226536,9400.615463
3618.930451,0.000000,1110.308913,9992.780217
3618.930765,-383.047749,1184.329507,10140.821405
3618.931080,-306.438199,962.267725,10066.800811
3618.931395,-153.219100,518.144159,10066.800811
3618.931709,-229.828649,888.247130,9696.697840
3618.932024,-306.438199,1110.308913,10066.800811
3618.932338,-153.219100,962.267725,10288.862594
3618.932653,-229.828649,814.226536,10436.903782
3618.932968,-153.219100,1184.329507,10436.903782
3618.933282,-612.876398,740.205942,11177.109724
3618.933597,-612.876398,592.164754,11103.089130
3618.933911,0.000000,592.164754,11029.068536
3618.934226,0.000000,814.226536,10807.006753
3618.934541,76.609550,592.164754,10362.883188
3618.934855,229.828649,888.247130,10288.862594
3618.935170,383.047749,814.226536,9844.739029
3618.935485,383.047749,814.226536,10066.800811
3618.935799,0.000000,370.102971,10066.800811
3618.936114,306.438199,222.061783,10288.862594
3618.936428,153.219100,370.102971,10584.944971
3618.936743,0.000000,370.102971,10658.965565
3618.937058,0.000000,222.061783,10362.883188
3618.937372,76.609550,222.061783,10214.842000
3618.937687,0.000000,148.041188,9770.718434
3618.938001,76.609550,-0.000000,9400.615463
3618.938316,306.438199,222.061783,9548.656652
3618.938631,229.828649,370.102971,9696.697840
3618.938945,-229.828649,296.082377,9474.636058
3618.939260,0.000000,74.020594,9474.636058
3618.939575,76.609550,74.020594,9548.656652
3618.939889,306.438199,-0.000000,9548.656652
3618.940204,383.047749,-74.020594,9474.636058
3618.940518,229.828649,-222.061783,9400.615463
3618.940833,153.219100,-0.000000,8882.471304
3618.941148,229.828649,-0.000000,8808.450710
3618.941462,306.438199,-148.041188,8882.471304
3618.941777,153.219100,-74.020594,8882.471304
3618.942091,689.485948,-518.144159,8808.450710
3618.942406,229.828649,-740.205942,9104.533087
3618.942721,0.000000,-592.164754,9104.533087
3618.943035,229.828649,-740.205942,9104.533087
3618.943350,0.000000,-592.164754,8956.491898
3618.943665,689.485948,-888.247130,9178.553681
3618.943979,0.000000,-370.102971,9178.553681
3618.944294,153.219100,-296.082377,9030.512492
3618.944608,229.828649,-592.164754,9252.574275
3618.944923,229.828649,-518.144159,9252.574275
3618.945238,0.000000,-666.185348,9326.594869
3618.945552,-153.219100,-888.247130,9474.636058
3618.945867,76.609550,-740.205942,9918.759623
3618.946181,-459.657299,-740.205942,9918.759623
3618.946496,-383.047749,-740.205942,9474.636058
3618.946811,0.000000,-962.267725,10066.800811
3618.947125,-459.657299,-962.267725,9770.718434
3618.947440,0.000000,-444.123565,9918.759623
3618.947755,0.000000,-592.164754,9548.656652
3618.948069,-306.438199,-592.164754,10140.821405
3618.948384,-153.219100,-370.102971,10140.821405
3618.948698,-153.219100,-518.144159,9548.656652
3618.949013,-229.828649,-518.144159,9622.677246
3618.949328,-229.828649,-148.041188,10362.883188
3618.949642,0.000000,-0.000000,10066.800811
3618.949957,0.000000,-0.000000,9992.780217
3618.950271,0.000000,296.082377,9770.718434
3618.950586,153.219100,444.123565,9474.636058
3618.950901,153.219100,370.102971,9474.636058
3618.951215,153.219100,740.205942,9400.615463
3618.951530,0.000000,962.267725,9326.594869
3618.951844,383.047749,814.226536,9030.512492
3618.952159,0.000000,666.185348,9474.636058
3618.952474,153.219100,814.226536,9474.636058
3618.952788,612.876398,444.123565,9030.512492
3618.953103,459.657299,666.185348,9252.574275
3618.953418,153.219100,740.205942,9252.574275
3618.953732,153.219100,592.164754,9400.615463
3618.954047,689.485948,1110.308913,9400.615463
3618.954361,383.047749,444.123565,9178.553681
3618.954676,306.438199,1036.288319,9104.533087
3618.954991,383.047749,1332.370696,8956.491898
3618.955305,229.828649,814.226536,9622.677246
3618.955620,766.095498,888.247130,9770.718434
3618.955934,306.438199,740.205942,9770.718434
3618.956249,306.438199,740.205942,9696.697840
3618.956564,306.438199,740.205942,9622.677246
3618.956878,306.438199,666.185348,9992.780217
3618.957193,0.000000,370.102971,9548.656652
3618.957508,229.828649,518.144159,9770.718434
3618.957822,229.828649,148.041188,9844.739029
3618.958137,0.000000,444.123565,10066.800811
3618.958451,153.219100,518.144159,10066.800811
3618.958766,0.000000,296.082377,10510.924376
3618.959081,153.219100,222.061783,11029.068536
3618.959395,0.000000,-0.000000,10066.800811
3618.959710,0.000000,148.041188,9844.739029
3618.960024,612.876398,-74.020594,10288.862594
3618.960339,153.219100,222.061783,9918.759623
3618.960654,76.609550,296.082377,9770.718434
3618.960968,0.000000,222.061783,9770.718434
3618.961283,153.219100,-0.000000,9622.677246
3618.961598,229.828649,-0.000000,9770.718434
3618.961912,0.000000,-0.000000,9992.780217
3618.962227,0.000000,-296.082377,9844.739029
3618.962541,0.000000,-0.000000,9548.656652
3618.962856,0.000000,-0.000000,9474.636058
3618.963170,76.609550,-148.041188,9548.656652
3618.963484,153.219100,-148.041188,9252.574275
3618.963799,0.000000,-74.020594,9252.574275
3618.964113,153.219100,-0.000000,9252.574275
3618.964427,153.219100,-0.000000,9252.574275
3618.964742,306.438199,-0.000000,9326.594869
3618.965056,0.000000,-0.000000,8956.491898
3618.965370,153.219100,-0.000000,9474.636058
3618.965685,76.609550,-0.000000,9104.533087
3618.965999,383.047749,-0.000000,8734.430116
3618.966313,536.266849,-0.000000,8956.491898
3618.966628,306.438199,-148.041188,9030.512492
3618.966942,306.438199,-74.020594,8512.368333
3618.967256,76.609550,-0.000000,8808.450710
3618.967570,306.438199,-74.020594,9474.636058
3618.967885,842.705048,-444.123565,9474.636058
3618.968199,76.609550,-296.082377,9252.574275
3618.968513,153.219100,-444.123565,9178.553681
3618.968828,306.438199,-0.000000,9474.636058
3618.969142,459.657299,-148.041188,9548.656652
3618.969456,306.438199,-0.000000,9844.739029
3618.969771,229.828649,-148.041188,9622.677246
3618.970085,229.828649,-0.000000,9474.636058
3618.970399,383.047749,-0.000000,9326.594869
3618.970714,229.828649,296.082377,9770.718434
3618.971028,229.828649,222.061783,10140.821405
3618.971342,0.000000,-0.000000,10288.862594
3618.971657,76.609550,-0.000000,9992.780217
3618.971971,0.000000,-0.000000,9992.780217
3618.972285,0.000000,370.102971,10140.821405
3618.972600,-612.876398,222.061783,10288.862594
3618.972914,0.000000,148.041188,10288.862594
3618.973228,0.000000,-0.000000,10066.800811
3618.973543,153.219100,370.102971,10066.800811
3618.973857,0.000000,296.082377,10066.800811
3618.974171,0.000000,296.082377,9992.780217
3618.974485,-153.219100,444.123565,9696.697840
3618.974800,0.000000,518.144159,10288.862594
3618.975114,0.000000,444.123565,10140.821405
3618.975428,536.266849,740.205942,9696.697840
3618.975743,0.000000,814.226536,9474.636058
3618.976057,0.000000,814.226536,9474.636058
3618.976371,153.219100,740.205942,9622.677246
3618.976686,229.828649,518.144159,9622.677246
3618.977000,76.609550,740.205942,9548.656652
3618.977314,76.609550,592.164754,9622.677246
3618.977629,229.828649,814.226536,9474.636058
3618.977943,459.657299,1110.308913,9326.594869
3618.978257,306.438199,518.144159,9696.697840
3618.978572,612.876398,148.041188,9770.718434
3618.978886,306.438199,592.164754,9474.636058
3618.979200,153.219100,296.082377,9400.615463
3618.979515,306.438199,-0.000000,9622.677246
3618.979829,459.657299,370.102971,9696.697840
3618.980143,536.266849,592.164754,9474.636058
3618.980458,459.657299,-0.000000,9474.636058
3618.980772,0.000000,74.020594,9548.656652
3618.981086,383.047749,518.144159,9696.697840
3618.981401,306.438199,296.082377,9474.636058
3618.981715,919.314598,444.123565,10066.800811
3618.982029,383.047749,222.061783,9548.656652
3618.982343,306.438199,-0.000000,9400.615463
3618.982658,383.047749,-0.000000,9474.636058
3618.982972,0.000000,-0.000000,9918.759623
3618.983286,229.828649,296.082377,9696.697840
3618.983601,76.609550,-0.000000,9622.677246
3618.983915,76.609550,-74.020594,9622.677246
3618.984229,0.000000,-0.000000,9770.718434
3618.984544,76.609550,-222.061783,9474.636058
3618.984858,229.828649,-222.061783,9400.615463
3618.985172,0.000000,-296.082377,9474.636058
3618.985487,0.000000,-296.082377,8882.471304
3618.985801,76.609550,-148.041188,9474.636058
3618.986115,0.000000,-74.020594,9622.677246
3618.986430,0.000000,-0.000000,9622.677246
3618.986744,-383.047749,-296.082377,9400.615463
3618.987058,0.000000,-74.020594,9326.594869
3618.987373,0.000000,-444.123565,9474.636058
3618.987687,0.000000,-148.041188,9474.636058
3618.988001,0.000000,-0.000000,9400.615463
3618.988316,0.000000,-222.061783,9252.574275
3618.988630,306.438199,-0.000000,9400.615463
3618.988944,306.438199,-222.061783,9178.553681
3618.989258,76.609550,-222.061783,9326.594869
3618.989573,612.876398,-0.000000,9622.677246
3618.989887,0.000000,-148.041188,9400.615463
3618.990201,153.219100,-0.000000,9622.677246
3618.990516,0.000000,-74.020594,9696.697840
3618.990830,383.047749,-0.000000,9474.636058
3618.991144,153.219100,-222.061783,9474.636058
3618.991459,0.000000,-0.000000,9252.574275
3618.991773,0.000000,-0.000000,9474.636058
3618.992087,459.657299,148.041188,9326.594869
3618.992402,229.828649,-0.000000,9548.656652
3618.992716,76.609550,-0.000000,9622.677246
3618.993030,76.609550,222.061783,9622.677246
3618.993345,229.828649,370.102971,9474.636058
3618.993659,153.219100,370.102971,9548.656652
3618.993973,0.000000,518.144159,9918.759623
3618.994288,229.828649,-0.000000,9844.739029
3618.994602,76.609550,296.082377,9622.677246
3618.994916,76.609550,666.185348,9770.718434
3618.995231,76.609550,444.123565,9696.697840
3618.995545,229.828649,-0.000000,9770.718434
3618.995859,612.876398,296.082377,9918.759623
3618.996173,229.828649,592.164754,9622.677246
3618.996488,153.219100,296.082377,9400.615463
3618.996802,306.438199,370.102971,9622.677246
3618.997116,76.609550,296.082377,10140.821405
3618.997431,76.609550,296.082377,9844.739029
3618.997745,0.000000,444.123565,9696.697840
3618.998059,0.000000,518.144159,9770.718434
3618.998374,0.000000,444.123565,9918.759623
3618.998688,612.876398,592.164754,9992.780217
3618.999002,76.609550,592.164754,9918.759623
3618.999317,306.438199,-0.000000,9918.759623
3618.999631,229.828649,444.123565,9696.697840
3618.999945,76.609550,148.041188,9474.636058
3619.000260,0.000000,222.061783,9992.780217
3619.000574,0.000000,-0.000000,9548.656652
3619.000888,76.609550,148.041188,9696.697840
3619.001203,0.000000,-0.000000,9918.759623
3619.001517,0.000000,-74.020594,10066.800811
3619.001831,306.438199,296.082377,9622.677246
3619.002146,-229.828649,370.102971,9844.739029
3619.002460,0.000000,-0.000000,9918.759623
3619.002774,0.000000,-0.000000,9844.739029
3619.003089,153.219100,-0.000000,9548.656652
3619.003403,0.000000,-0.000000,9326.594869
3619.003717,0.000000,-0.000000,9622.677246
3619.004031,153.219100,148.041188,9696.697840
3619.004346,0.000000,-0.000000,9918.759623
3619.004660,0.000000,-0.000000,9696.697840
3619.004974,229.828649,-0.000000,9474.636058
3619.005289,76.609550,222.061783,9622.677246
3619.005603,0.000000,-148.041188,9548.656652
3619.005917,76.609550,-0.000000,9622.677246
3619.006232,0.000000,-0.000000,9474.636058
3619.006546,306.438199,-0.000000,9178.553681
3619.006860,0.000000,-74.020594,9178.553681
3619.007175,153.219100,-0.000000,9400.615463
3619.007489,76.609550,-148.041188,9400.615463
3619.007803,0.000000,-0.000000,9622.677246
3619.008118,0.000000,-222.061783,9696.697840
3619.008432,76.609550,-0.000000,9326.594869
3619.008746,229.828649,-0.000000,9326.594869
3619.009061,153.219100,-74.020594,9326.594869
3619.009375,383.047749,-0.000000,9548.656652
3619.009689,306.438199,-0.000000,8956.491898
3619.010004,689.485948,-0.000000,9548.656652
3619.010318,459.657299,-0.000000,9548.656652
3619.010632,76.609550,-148.041188,9400.615463
3619.010946,0.000000,-148.041188,9474.636058
3619.011261,76.609550,-222.061783,9474.636058
3619.011575,76.609550,-296.082377,9696.697840
3619.011889,0.000000,-222.061783,9918.759623
3619.012204,0.000000,-222.061783,9696.697840
3619.012518,76.609550,148.041188,9548.656652
3619.012832,76.609550,-0.000000,9548.656652
3619.013147,76.609550,-0.000000,9770.718434
3619.013461,306.438199,370.102971,9844.739029
3619.013775,306.438199,222.061783,9992.780217
3619.014090,0.000000,222.061783,9474.636058
3619.014404,0.000000,148.041188,9696.697840
3619.014718,0.000000,222.061783,9918.759623
3619.015033,0.000000,-0.000000,9474.636058
3619.015347,0.000000,296.082377,10214.842000
3619.015661,-229.828649,370.102971,10066.800811
3619.015976,0.000000,296.082377,9104.533087
3619.016290,0.000000,592.164754,9918.759623
3619.016604,0.000000,740.205942,9918.759623
3619.016919,0.000000,592.164754,9622.677246
3619.017233,-229.828649,666.185348,9548.656652
3619.017547,153.219100,444.123565,9474.636058
3619.017861,0.000000,370.102971,9326.594869
3619.018176,0.000000,666.185348,9474.636058
3619.018490,0.000000,296.082377,9548.656652
3619.018804,0.000000,444.123565,9548.656652
3619.019119,153.219100,740.205942,9770.718434
3619.019433,306.438199,-0.000000,9844.739029
3619.019747,383.047749,666.185348,9548.656652
3619.020062,306.438199,592.164754,9770.718434
3619.020376,153.219100,592.164754,9252.574275
3619.020690,383.047749,296.082377,9474.636058
3619.021005,229.828649,-0.000000,9696.697840
3619.021319,153.219100,370.102971,9622.677246
3619.021633,0.000000,-0.000000,9696.697840
3619.021948,0.000000,222.061783,9696.697840
3619.022262,229.828649,-0.000000,9622.677246
3619.022576,459.657299,148.041188,9844.739029
3619.022891,383.047749,-0.000000,9548.656652
3619.023205,76.609550,222.061783,9844.739029
3619.023519,76.609550,370.102971,9622.677246
3619.023834,306.438199,296.082377,9770.718434
3619.024148,459.657299,148.041188,9696.697840
3619.024462,0.000000,-222.061783,9844.739029
3619.024777,0.000000,148.041188,9844.739029
3619.025091,76.609550,-74.020594,9622.677246
3619.025405,76.609550,148.041188,9918.759623
3619.025719,0.000000,-0.000000,9696.697840
3619.026034,-229.828649,-296.082377,9548.656652
3619.026348,76.609550,-0.000000,9918.759623
3619.026662,-306.438199,-0.000000,9844.739029
3619.026977,0.000000,222.061783,9622.677246
3619.027291,0.000000,-0.000000,9696.697840
3619.027605,0.000000,-0.000000,9770.718434
3619.027920,0.000000,-0.000000,9548.656652
3619.028234,0.000000,-0.000000,9474.636058
3619.028548,229.828649,-0.000000,9400.615463
3619.028863,306.438199,222.061783,10066.800811
3619.029177,0.000000,-0.000000,9400.615463
3619.029491,0.000000,-74.020594,9178.553681
3619.029806,0.000000,148.041188,9474.636058
3619.030120,459.657299,-0.000000,9474.636058
3619.030434,612.876398,-148.041188,9474.636058
3619.030749,76.609550,-0.000000,9474.636058
3619.031063,0.000000,222.061783,9326.594869
3619.031377,76.609550,222.061783,9104.533087
3619.031692,306.438199,-0.000000,9104.533087
3619.032006,0.000000,-0.000000,9622.677246
3619.032320,0.000000,-222.061783,9400.615463
3619.032634,459.657299,-0.000000,9252.574275
3619.032949,229.828649,-0.000000,9474.636058
3619.033263,612.876398,-0.000000,9474.636058
3619.033577,689.485948,-518.144159,9696.697840
3619.033892,0.000000,296.082377,9844.739029
3619.034206,76.609550,-0.000000,9474.636058
3619.034520,76.609550,-0.000000,9622.677246
3619.034835,383.047749,-0.000000,9622.677246
3619.035149,153.219100,-0.000000,10436.903782
3619.035463,229.828649,-0.000000,9474.636058
3619.035778,0.000000,296.082377,9622.677246
3619.036092,306.438199,-0.000000,9844.739029
3619.036406,0.000000,-0.000000,10140.821405
3619.036721,0.000000,370.102971,9918.759623
3619.037035,0.000000,370.102971,9770.718434
3619.037349,0.000000,222.061783,10066.800811
3619.037664,153.219100,-0.000000,9992.780217
3619.037978,229.828649,-0.000000,9992.780217
3619.038292,76.609550,370.102971,9992.780217
3619.038607,-306.438199,296.082377,10066.800811
3619.038921,0.000000,-0.000000,9474.636058
3619.039235,0.000000,-0.000000,9548.656652
3619.039549,0.000000,-0.000000,10140.821405
3619.039864,0.000000,-0.000000,9548.656652
3619.040178,153.219100,444.123565,9326.594869
3619.040492,0.000000,592.164754,9696.697840
3619.040807,76.609550,296.082377,9326.594869
3619.041121,229.828649,592.164754,9622.677246
3619.041435,153.219100,296.082377,9622.677246
3619.041750,153.219100,296.082377,9400.615463
3619.042064,0.000000,444.123565,9252.574275
3619.042378,0.000000,444.123565,9474.636058
3619.042693,153.219100,-0.000000,9696.697840
3619.043007,0.000000,222.061783,9696.697840
3619.043321,153.219100,370.102971,9104.533087
3619.043636,0.000000,-0.000000,9400.615463
3619.043950,153.219100,-0.000000,9252.574275
3619.044264,995.924147,296.082377,9696.697840
3619.044579,153.219100,370.102971,9474.636058
3619.044893,153.219100,-0.000000,9548.656652
3619.045207,229.828649,296.082377,9326.594869
3619.045522,229.828649,148.041188,9622.677246
3619.045836,306.438199,-0.000000,9770.718434
3619.046150,0.000000,-74.020594,9770.718434
3619.046465,0.000000,-74.020594,9474.636058
3619.046779,229.828649,-0.000000,9622.677246
3619.047093,76.609550,148.041188,9918.759623
3619.047407,153.219100,296.082377,9548.656652
3619.047722,0.000000,370.102971,9474.636058
3619.048036,0.000000,-0.000000,9918.759623
3619.048350,0.000000,-148.041188,9918.759623
3619.048665,306.438199,-148.041188,9844.739029
3619.048979,-306.438199,-148.041188,9918.759623
3619.049293,153.219100,-0.000000,9622.677246
3619.049608,0.000000,-0.000000,9844.739029
3619.049922,0.000000,-0.000000,9548.656652
3619.050236,0.000000,-222.061783,9696.697840
3619.050551,229.828649,-148.041188,9400.615463
3619.050865,0.000000,-0.000000,9474.636058
3619.051179,0.000000,-0.000000,9622.677246
3619.051494,0.000000,-0.000000,9622.677246
3619.051808,0.000000,-74.020594,9474.636058
3619.052122,0.000000,-0.000000,9178.553681
3619.052437,0.000000,-0.000000,9622.677246
3619.052751,0.000000,296.082377,9474.636058
3619.053065,0.000000,296.082377,9400.615463
3619.053380,-76.609550,-0.000000,9474.636058
3619.053694,229.828649,-0.000000,9474.636058
3619.054008,0.000000,-0.000000,9474.636058
3619.054322,0.000000,222.061783,9104.533087
3619.054637,306.438199,222.061783,9548.656652
3619.054951,0.000000,-0.000000,9178.553681
3619.055265,153.219100,-0.000000,9326.594869
3619.055580,76.609550,-74.020594,9622.677246
3619.055894,0.000000,148.041188,9474.636058
3619.056208,153.219100,222.061783,9400.615463
3619.056523,459.657299,148.041188,9400.615463
3619.056837,153.219100,296.082377,9474.636058
3619.057151,229.828649,148.041188,9474.636058
3619.057466,0.000000,296.082377,9474.636058
3619.057780,459.657299,296.082377,9696.697840
3619.058094,536.266849,-0.000000,9844.739029
3619.058409,459.657299,444.123565,9844.739029
3619.058723,229.828649,222.061783,9696.697840
3619.059037,76.609550,-0.000000,9844.739029
3619.059352,612.876398,222.061783,10066.800811
3619.059666,153.219100,222.061783,9992.780217
3619.059980,153.219100,-0.000000,9918.759623
3619.060295,76.609550,222.061783,9696.697840
3619.060609,76.609550,148.041188,9622.677246
3619.060923,76.609550,-74.020594,9770.718434
3619.061238,0.000000,148.041188,9696.697840
3619.061552,0.000000,148.041188,9770.718434
3619.061866,0.000000,-0.000000,9696.697840
3619.062180,0.000000,296.082377,9696.697840
3619.062495,0.000000,-0.000000,9622.677246
3619.062809,153.219100,296.082377,9696.697840
3619.063123,612.876398,-0.000000,9770.718434
3619.063438,536.266849,370.102971,9918.759623
3619.063752,536.266849,222.061783,10214.842000
3619.064066,459.657299,592.164754,9696.697840
3619.064381,536.266849,592.164754,9474.636058
3619.064695,995.924147,814.226536,9326.594869
3619.065009,919.314598,1036.288319,8660.409521
3619.065324,1915.238745,222.061783,8808.450710
3619.065638,919.314598,666.185348,9178.553681
3619.065952,842.705048,444.123565,9178.553681
3619.066267,1072.533697,222.061783,9178.553681
3619.066581,459.657299,740.205942,9474.636058
3619.066895,1225.752797,592.164754,10140.821405
3619.067209,1072.533697,888.247130,9844.739029
3619.067524,1072.533697,814.226536,10140.821405
3619.067838,1149.143247,888.247130,9992.780217
3619.068152,1532.190996,1332.370696,9696.697840
3619.068466,2068.457845,1258.350101,9474.636058
3619.068780,2374.896044,1924.535449,9696.697840
3619.069095,3064.381992,2072.576638,9548.656652
3619.069409,3064.381992,2146.597232,8586.388927
3619.069723,2911.162892,2220.617826,8512.368333
3619.070037,3217.601092,2368.659014,8808.450710
3619.070352,2757.943793,2294.638420,8586.388927
3619.070666,2757.943793,1850.514855,9104.533087
3619.070980,1991.848295,1406.391290,9474.636058
3619.071294,1838.629195,1036.288319,9770.718434
3619.071608,1685.410096,1406.391290,10584.944971
3619.071923,1608.800546,1184.329507,10436.903782
3619.072237,1685.410096,1850.514855,10510.924376
3619.072551,1762.019645,2442.679609,9474.636058
3619.072865,2528.115143,2886.803174,9474.636058
3619.073180,2911.162892,3404.947333,9030.512492
3619.073494,3294.210641,3552.988522,8734.430116
3619.073808,3370.820191,3849.070898,8512.368333
3619.074122,2911.162892,3923.091493,9326.594869
3619.074436,2451.505594,3034.844362,9474.636058
3619.074751,2451.505594,2590.720797,9918.759623
3619.075065,1455.581446,2442.679609,10362.883188
3619.075379,842.705048,2590.720797,11177.109724
3619.075693,536.266849,2664.741391,10807.006753
3619.076008,229.828649,2516.700203,10436.903782
3619.076322,766.095498,2664.741391,10214.842000
3619.076636,1302.362347,2812.782580,9622.677246
3619.076950,1455.581446,2590.720797,9474.636058
3619.077264,1225.752797,2886.803174,9326.594869
3619.077579,1149.143247,2368.659014,9844.739029
3619.077893,1149.143247,2516.700203,10436.903782
3619.078207,766.095498,2442.679609,10584.944971
3619.078521,459.657299,2516.700203,10881.027347
3619.078836,229.828649,2516.700203,11029.068536
3619.079150,689.485948,2368.659014,11325.150913
3619.079464,0.000000,2220.617826,10955.047942
3619.079778,459.657299,2072.576638,10881.027347
3619.080093,612.876398,1924.535449,9770.718434
3619.080407,612.876398,1776.494261,8882.471304
3619.080721,689.485948,1998.556043,8956.491898
3619.081035,536.266849,1702.473667,8882.471304
3619.081349,306.438199,962.267725,8364.327145
3619.081664,-383.047749,222.061783,9178.553681
3619.081978,-766.095498,-296.082377,9474.636058
3619.082292,-1532.190996,-518.144159,10288.862594
3619.082606,-2068.457845,-740.205942,10881.027347
3619.082921,-1915.238745,-1184.329507,11399.171507
3619.083235,-1991.848295,-962.267725,11029.068536
3619.083549,-766.095498,-148.041188,10807.006753
3619.083863,76.609550,-148.041188,10214.842000
3619.084177,229.828649,-0.000000,9622.677246
3619.084492,766.095498,592.164754,9178.553681
3619.084806,1378.971896,814.226536,8586.388927
3619.085120,1378.971896,888.247130,8512.368333
3619.085434,1762.019645,444.123565,7698.141797
3619.085749,1685.410096,-444.123565,7772.162391
3619.086063,1072.533697,-1332.370696,8734.430116
3619.086377,76.609550,-1776.494261,8586.388927
3619.086691,-306.438199,-2368.659014,9030.512492
3619.087005,-459.657299,-2738.761985,9844.739029
3619.087320,-459.657299,-2812.782580,10362.883188
3619.087634,-612.876398,-2294.638420,9844.739029
3619.087948,-383.047749,-1998.556043,9474.636058
3619.088262,229.828649,-1480.411884,9770.718434
3619.088577,1378.971896,-1258.350101,9326.594869
3619.088891,1532.190996,-74.020594,8956.491898
3619.089205,1991.848295,296.082377,7994.224174
3619.089519,2451.505594,-0.000000,7846.182985
3619.089833,2451.505594,-0.000000,8216.285956
3619.090148,2068.457845,-666.185348,8438.347739
3619.090462,1455.581446,-962.267725,9104.533087
3619.090776,229.828649,-1480.411884,9474.636058
3619.091090,-919.314598,-1998.556043,9844.739029
3619.091405,-1455.581446,-2294.638420,10584.944971
3619.091719,-1762.019645,-2590.720797,11177.109724
3619.092033,-2298.286494,-2738.761985,11103.089130
3619.092347,-1991.848295,-2516.700203,10955.047942
3619.092661,-1149.143247,-1776.494261,10658.965565
3619.092976,-536.266849,-1258.350101,9992.780217
3619.093290,536.266849,-0.000000,9104.533087
3619.093604,1302.362347,296.082377,8364.327145
3619.093918,2298.286494,666.185348,7698.141797
3619.094233,2451.505594,814.226536,7920.203579
3619.094547,2451.505594,740.205942,7846.182985
3619.094861,1225.752797,222.061783,8438.347739
3619.095175,306.438199,-148.041188,9400.615463
3619.095490,-229.828649,-518.144159,9622.677246
3619.095804,-995.924147,-1406.391290,10658.965565
3619.096118,-1378.971896,-1480.411884,11325.150913
3619.096432,-2145.067394,-1036.288319,11029.068536
3619.096746,-1762.019645,-814.226536,10955.047942
3619.097061,-1072.533697,-296.082377,9992.780217
3619.097375,0.000000,962.267725,8882.471304
3619.097689,766.095498,1702.473667,7994.224174
3619.098003,1378.971896,2294.638420,7476.080014
3619.098318,1685.410096,2368.659014,7550.100608
3619.098632,1608.800546,2368.659014,7846.182985
3619.098946,76.609550,1924.535449,8660.409521
3619.099260,-229.828649,1628.453072,9696.697840
3619.099574,-689.485948,1628.453072,11103.089130
3619.099889,-2221.676944,962.267725,11325.150913
3619.100203,-2298.286494,518.144159,11769.274478
3619.100517,-2145.067394,592.164754,12139.377449
3619.100831,-1991.848295,592.164754,11695.253884
3619.101146,-1225.752797,1036.288319,11103.089130
3619.101460,-383.047749,1702.473667,10214.842000
3619.101774,229.828649,2516.700203,9030.512492
3619.102088,1378.971896,2590.720797,8512.368333
3619.102402,1762.019645,2294.638420,8882.471304
3619.102717,1532.190996,2220.617826,9178.553681
3619.103031,766.095498,1776.494261,9400.615463
3619.103345,459.657299,1406.391290,9844.739029
3619.103659,-459.657299,666.185348,10955.047942
3619.103974,0.000000,444.123565,11695.253884
3619.104288,-536.266849,-0.000000,11621.233289
3619.104602,-459.657299,-0.000000,11473.192101
3619.104916,-229.828649,296.082377,10881.027347
3619.105230,536.266849,814.226536,10288.862594
3619.105545,1455.581446,1332.370696,9474.636058
3619.105859,2068.457845,1628.453072,8734.430116
3619.106173,2145.067394,1554.432478,8216.285956
3619.106487,2145.067394,1184.329507,8290.306550
3619.106802,1915.238745,592.164754,8808.450710
3619.107116,1225.752797,444.123565,9252.574275
3619.107430,229.828649,-148.041188,9474.636058
3619.107744,-536.266849,-370.102971,10066.800811
3619.108059,-766.095498,-518.144159,10658.965565
3619.108373,-842.705048,-814.226536,10807.006753
3619.108687,-1072.533697,-592.164754,10732.986159
3619.109001,-842.705048,-518.144159,10584.944971
3619.109315,-153.219100,-0.000000,10140.821405
3619.109630,536.266849,-0.000000,9252.574275
3619.109944,995.924147,592.164754,8734.430116
3619.110258,1455.581446,814.226536,8438.347739
3619.110572,1532.190996,518.144159,7846.182985
3619.110887,1838.629195,-74.020594,8142.265362
3619.111201,1532.190996,-0.000000,8734.430116
3619.111515,612.876398,-444.123565,8956.491898
3619.111829,0.000000,-740.205942,9104.533087
3619.112143,-536.266849,-1036.288319,9918.759623
3619.112458,-689.485948,-1258.350101,10066.800811
3619.112772,-766.095498,-1628.453072,9844.739029
3619.113086,-459.657299,-1554.432478,10066.800811
3619.113400,-536.266849,-1332.370696,9548.656652
3619.113715,919.314598,-370.102971,8956.491898
3619.114029,536.266849,-0.000000,8216.285956
3619.114343,766.095498,-0.000000,7994.224174
3619.114657,1149.143247,-0.000000,7920.203579
3619.114971,995.924147,-296.082377,8216.285956
3619.115286,229.828649,-370.102971,9104.533087
3619.115600,-459.657299,-1036.288319,9696.697840
3619.115914,-1302.362347,-1258.350101,10066.800811
3619.116228,-1991.848295,-1332.370696,10807.006753
3619.116543,-2374.896044,-1480.411884,11399.171507
3619.116857,-2298.286494,-2072.576638,11473.192101
3619.117171,-2374.896044,-1776.494261,11251.130318
3619.117485,-1762.019645,-1258.350101,11177.109724
3619.117799,-1302.362347,-740.205942,10807.006753
3619.118114,-459.657299,-148.041188,9400.615463
3619.118428,689.485948,444.123565,8808.450710
3619.118742,995.924147,592.164754,8290.306550
3619.119056,1532.190996,518.144159,8512.368333
3619.119371,1225.752797,518.144159,8734.430116
3619.119685,536.266849,222.061783,8734.430116
3619.119999,153.219100,-148.041188,9622.677246
3619.120313,-306.438199,-518.144159,9992.780217
3619.120628,-689.485948,-814.226536,10288.862594
3619.120942,-995.924147,-1036.288319,10955.047942
3619.121256,-689.485948,-666.185348,10881.027347
3619.121570,-229.828649,-296.082377,10510.924376
3619.121884,0.000000,-0.000000,9844.739029
3619.122199,919.314598,888.247130,9326.594869
3619.122513,1302.362347,1628.453072,8068.244768
3619.122827,1991.848295,2146.597232,7624.121203
3619.123141,2604.724693,1924.535449,8068.244768
3619.123456,1608.800546,1554.432478,8142.265362
3619.123770,1455.581446,1258.350101,8660.409521
3619.124084,459.657299,814.226536,9252.574275
3619.124398,0.000000,444.123565,9992.780217
3619.124712,-919.314598,-0.000000,10584.944971
3619.125027,-842.705048,-0.000000,10881.027347
3619.125341,-1225.752797,-370.102971,11251.130318
3619.125655,-689.485948,148.041188,10732.986159
3619.125969,0.000000,444.123565,9622.677246
3619.126284,306.438199,1110.308913,9844.739029
3619.126598,1072.533697,1776.494261,8660.409521
3619.126912,1762.019645,2220.617826,8438.347739
3619.127226,2221.676944,2146.597232,8142.265362
3619.127540,2451.505594,1850.514855,8734.430116
3619.127855,1991.848295,888.247130,8290.306550
3619.128169,1225.752797,1480.411884,8808.450710
3619.128483,459.657299,666.185348,10436.903782
3619.128797,-229.828649,-0.000000,10955.047942
3619.129112,-612.876398,-0.000000,11029.068536
3619.129426,-766.095498,-0.000000,11177.109724
3619.129740,-689.485948,-0.000000,11251.130318
3619.130054,0.000000,592.164754,10807.006753
3619.130368,536.266849,1332.370696,10066.800811
3619.130683,1225.752797,1554.432478,8956.491898
3619.130997,1072.533697,1998.556043,8512.368333
3619.131311,1532.190996,2220.617826,8290.306550
3619.131625,1532.190996,1628.453072,8734.430116
3619.131940,842.705048,1110.308913,9178.553681
3619.132254,383.047749,814.226536,9696.697840
3619.132568,-1072.533697,222.061783,10066.800811
3619.132882,-1532.190996,-74.020594,10584.944971
3619.133197,-1991.848295,-296.082377,11177.109724
3619.133511,-2451.505594,-740.205942,11473.192101
3619.133825,-2374.896044,-518.144159,11325.150913
3619.134139,-1991.848295,-296.082377,10732.986159
3619.134453,-1378.971896,222.061783,10584.944971
3619.134768,-383.047749,888.247130,9474.636058
3619.135082,383.047749,962.267725,8734.430116
3619.135396,919.314598,1184.329507,7994.224174
3619.135710,1225.752797,888.247130,7846.182985
3619.136025,1225.752797,296.082377,8734.430116
3619.136339,689.485948,148.041188,8882.471304
3619.136653,76.609550,-518.144159,8808.450710
3619.136967,-766.095498,-1184.329507,9548.656652
3619.137281,-766.095498,-1184.329507,10362.883188
3619.137596,-1225.752797,-1628.453072,10362.883188
3619.137910,-1225.752797,-1628.453072,10658.965565
3619.138224,-383.047749,-1480.411884,10140.821405
3619.138538,0.000000,-962.267725,9548.656652
3619.138853,689.485948,-0.000000,8882.471304
3619.139167,1225.752797,-0.000000,8734.430116
3619.139481,1455.581446,-148.041188,8216.285956
3619.139795,1378.971896,-0.000000,7920.203579
3619.140109,1685.410096,-740.205942,8290.306550
3619.140424,766.095498,-592.164754,8956.491898
3619.140738,459.657299,-592.164754,9696.697840
3619.141052,-229.828649,-962.267725,10288.862594
3619.141366,-689.485948,-1554.432478,10732.986159
3619.141681,-1149.143247,-1554.432478,10881.027347
3619.141995,-1149.143247,-1850.514855,10881.027347
3619.142309,-919.314598,-1554.432478,11251.130318
3619.142623,-459.657299,-1332.370696,10584.944971
3619.142937,76.609550,-518.144159,9622.677246
3619.143252,612.876398,-74.020594,8512.368333
3619.143566,1302.362347,518.144159,8142.265362
3619.143880,1838.629195,740.205942,7772.162391
3619.144194,1915.238745,370.102971,8290.306550
3619.144509,1762.019645,444.123565,8364.327145
3619.144823,842.705048,-0.000000,8808.450710
3619.145137,229.828649,-666.185348,9474.636058
3619.145451,0.000000,-740.205942,9770.718434
3619.145766,-766.095498,-1110.308913,10362.883188
3619.146080,-1225.752797,-1110.308913,10436.903782
3619.146394,-1072.533697,-814.226536,10584.944971
3619.146708,-536.266849,-370.102971,10362.883188
3619.147022,-229.828649,444.123565,9696.697840
3619.147337,383.047749,1406.391290,8512.368333
3619.147651,919.314598,1628.453072,7624.121203
3619.147965,995.924147,2072.576638,8142.265362
3619.148279,1302.362347,1406.391290,8142.265362
3619.148594,766.095498,888.247130,8660.409521
3619.148908,383.047749,888.247130,9178.553681
3619.149222,-383.047749,666.185348,9844.739029
3619.149536,-919.314598,444.123565,10658.965565
3619.149850,-1838.629195,-148.041188,11325.150913
3619.150165,-2374.896044,-518.144159,11547.212695
3619.150479,-2221.676944,-296.082377,11769.274478
3619.150793,-1532.190996,296.082377,11251.130318
3619.151107,-842.705048,740.205942,10955.047942
3619.151422,76.609550,1480.411884,9770.718434
3619.151736,766.095498,2294.638420,8956.491898
3619.152050,1532.190996,2146.597232,8364.327145
3619.152364,1149.143247,1850.514855,8660.409521
3619.152678,1455.581446,1776.494261,9178.553681
3619.152993,612.876398,1184.329507,9474.636058
3619.153307,76.609550,592.164754,10214.842000
3619.153621,0.000000,296.082377,10584.944971
3619.153935,0.000000,-222.061783,10807.006753
3619.154250,-689.485948,-296.082377,11325.150913
3619.154564,-766.095498,-0.000000,11251.130318
3619.154878,-229.828649,222.061783,10881.027347
3619.155192,306.438199,814.226536,9918.759623
3619.155506,1225.752797,1480.411884,8956.491898
3619.155821,1455.581446,1776.494261,8660.409521
3619.156135,1838.629195,1480.411884,8216.285956
3619.156449,1608.800546,1110.308913,8216.285956
3619.156763,1455.581446,814.226536,8808.450710
3619.157078,842.705048,296.082377,9474.636058
3619.157392,153.219100,-0.000000,9696.697840
3619.157706,-536.266849,-148.041188,10436.903782
3619.158020,-1072.533697,-222.061783,10510.924376
3619.158335,-1149.143247,-740.205942,10510.924376
3619.158649,-1302.362347,-148.041188,10732.986159
3619.158963,-689.485948,-296.082377,10510.924376
3619.159277,0.000000,-0.000000,9770.718434
3619.159591,842.705048,444.123565,9326.594869
3619.159906,1302.362347,592.164754,8512.368333
3619.160220,2068.457845,1036.288319,8142.265362
3619.160534,2221.676944,962.267725,7698.141797
3619.160848,1915.238745,444.123565,8216.285956
3619.161163,1378.971896,-0.000000,8586.388927
3619.161477,536.266849,-148.041188,9178.553681
3619.161791,459.657299,-592.164754,9548.656652
3619.162105,0.000000,-1036.288319,10066.800811
3619.162419,-459.657299,-1332.370696,10436.903782
3619.162734,-689.485948,-1554.432478,10436.903782
3619.163048,-536.266849,-1258.350101,10362.883188
3619.163362,0.000000,-592.164754,10140.821405
3619.163676,459.657299,-0.000000,9474.636058
3619.163991,919.314598,666.185348,8882.471304
3619.164305,1072.533697,1036.288319,8068.244768
3619.164619,1378.971896,740.205942,8142.265362
3619.164934,1378.971896,592.164754,8290.306550
3619.165248,612.876398,-0.000000,9104.533087
3619.165562,-229.828649,-444.123565,10288.862594
3619.165877,-995.924147,-370.102971,10066.800811
3619.166191,-1532.190996,-666.185348,10732.986159
3619.166505,-2221.676944,-1036.288319,11547.212695
3619.166820,-2298.286494,-1332.370696,11473.192101
3619.167134,-2374.896044,-1554.432478,11695.253884
3619.167448,-1838.629195,-1036.288319,10807.006753
3619.167763,-842.705048,-444.123565,10214.842000
3619.168077,-306.438199,-0.000000,9104.533087
3619.168391,306.438199,666.185348,8512.368333
3619.168705,1072.533697,962.267725,8290.306550
3619.169020,1378.971896,592.164754,8290.306550
3619.169334,1225.752797,518.144159,8364.327145
3619.169648,766.095498,592.164754,8512.368333
3619.169963,229.828649,-222.061783,9474.636058
3619.170277,-383.047749,-518.144159,9844.739029
3619.170591,-1149.143247,-1036.288319,10288.862594
3619.170906,-1302.362347,-1554.432478,11103.089130
3619.171220,-1302.362347,-1110.308913,10807.006753
3619.171534,-1072.533697,-740.205942,10436.903782
3619.171849,-536.266849,-74.020594,10214.842000
3619.172163,229.828649,518.144159,9326.594869
3619.172477,1072.533697,1258.350101,8512.368333
3619.172792,1685.410096,1406.391290,8068.244768
3619.173106,1915.238745,1332.370696,8216.285956
3619.173420,1915.238745,1110.308913,8438.347739
3619.173735,842.705048,814.226536,8734.430116
3619.174049,459.657299,444.123565,9548.656652
3619.174363,0.000000,370.102971,10066.800811
3619.174678,-689.485948,-222.061783,10436.903782
3619.174992,-919.314598,-148.041188,10584.944971
3619.175306,-1302.362347,-592.164754,11399.171507
3619.175621,-1072.533697,-296.082377,11103.089130
3619.175935,-612.876398,-0.000000,10288.862594
3619.176249,153.219100,222.061783,10214.842000
3619.176564,842.705048,1184.329507,9178.553681
3619.176878,1455.581446,1702.473667,8068.244768
3619.177192,1991.848295,1776.494261,8364.327145
3619.177507,2068.457845,1406.391290,8512.368333
3619.177821,1225.752797,1184.329507,9104.533087
3619.178135,842.705048,962.267725,9178.553681
3619.178449,229.828649,74.020594,9474.636058
3619.178764,0.000000,-148.041188,10436.903782
3619.179078,-229.828649,-148.041188,10584.944971
3619.179392,-842.705048,-222.061783,11029.068536
3619.179707,-459.657299,-296.082377,11029.068536
3619.180021,0.000000,222.061783,10288.862594
3619.180335,689.485948,814.226536,9474.636058
3619.180650,1302.362347,1258.350101,8586.388927
3619.180964,1532.190996,1554.432478,8438.347739
3619.181278,2221.676944,1258.350101,7550.100608
3619.181593,1532.190996,666.185348,8142.265362
3619.181907,995.924147,814.226536,8882.471304
3619.182221,229.828649,592.164754,9474.636058
3619.182536,-459.657299,222.061783,10066.800811
3619.182850,-995.924147,-296.082377,10510.924376
3619.183164,-1608.800546,-296.082377,11177.109724
3619.183479,-1762.019645,-666.185348,11251.130318
3619.183793,-1685.410096,-148.041188,11399.171507
3619.184107,-1225.752797,222.061783,11251.130318
3619.184422,-229.828649,444.123565,10214.842000
3619.184736,229.828649,888.247130,9696.697840
3619.185050,766.095498,1258.350101,8734.430116
3619.185365,1378.971896,1554.432478,8512.368333
3619.185679,1302.362347,1332.370696,8216.285956
3619.185993,842.705048,592.164754,8216.285956
3619.186308,536.266849,444.123565,8956.491898
3619.186622,0.000000,-148.041188,9474.636058
3619.186936,-612.876398,-814.226536,10362.883188
3619.187250,-1149.143247,-1036.288319,10881.027347
3619.187565,-1762.019645,-1332.370696,10510.924376
3619.187879,-1455.581446,-1332.370696,11103.089130
3619.188193,-1225.752797,-814.226536,10510.924376
3619.188508,-536.266849,-444.123565,10214.842000
3619.188822,76.609550,518.144159,9104.533087
3619.189136,766.095498,370.102971,8068.244768
3619.189451,1455.581446,814.226536,7920.203579
3619.189765,1532.190996,592.164754,7920.203579
3619.190079,1149.143247,-0.000000,8586.388927
3619.190394,306.438199,-518.144159,9104.533087
3619.190708,-229.828649,-814.226536,9474.636058
3619.191022,-1072.533697,-592.164754,10214.842000
3619.191337,-1149.143247,-1406.391290,10658.965565
3619.191651,-1532.190996,-1480.411884,10955.047942
3619.191965,-1455.581446,-1998.556043,11325.150913
3619.192280,-1225.752797,-1850.514855,10658.965565
3619.192594,-612.876398,-1110.308913,9844.739029
3619.192908,0.000000,-444.123565,9326.594869
3619.193223,842.705048,-74.020594,8364.327145
3619.193537,1378.971896,370.102971,7624.121203
3619.193851,2145.067394,814.226536,7476.080014
3619.194166,2068.457845,740.205942,7920.203579
3619.194480,1838.629195,370.102971,8438.347739
3619.194794,459.657299,-296.082377,8956.491898
3619.195109,229.828649,-592.164754,9770.718434
3619.195423,0.000000,-592.164754,10066.800811
3619.195737,-459.657299,-1184.329507,10955.047942
3619.196052,-919.314598,-1110.308913,11399.171507
3619.196366,-766.095498,-740.205942,10732.986159
3619.196680,-459.657299,-0.000000,10214.842000
3619.196994,689.485948,666.185348,9252.574275
3619.197309,1072.533697,1258.350101,8438.347739
3619.197623,1685.410096,1258.350101,7772.162391
3619.197937,2145.067394,1036.288319,7920.203579
3619.198252,1532.190996,888.247130,8290.306550
3619.198566,1225.752797,592.164754,8438.347739
3619.198880,383.047749,444.123565,9474.636058
3619.199195,0.000000,-0.000000,10362.883188
3619.199509,-1455.581446,-222.061783,10807.006753
3619.199823,-1685.410096,-296.082377,11177.109724
3619.200138,-1685.410096,-222.061783,11251.130318
3619.200452,-1532.190996,-518.144159,11917.315666
3619.200766,-1225.752797,-0.000000,11029.068536
3619.201081,-919.314598,592.164754,10140.821405
3619.201395,153.219100,1406.391290,9400.615463
3619.201709,919.314598,1924.535449,8808.450710
3619.202024,1608.800546,2146.597232,8438.347739
3619.202338,1915.238745,1184.329507,8364.327145
3619.202652,1455.581446,1702.473667,8882.471304
3619.202967,842.705048,1036.288319,9252.574275
3619.203281,76.609550,518.144159,9474.636058
3619.203595,-229.828649,-0.000000,10807.006753
3619.203910,-1149.143247,-518.144159,11029.068536
3619.204224,-1532.190996,-740.205942,11251.130318
3619.204538,-1225.752797,-370.102971,10955.047942
3619.204853,-459.657299,-222.061783,10955.047942
3619.205167,229.828649,296.082377,10436.903782
3619.205481,842.705048,1332.370696,8956.491898
3619.205796,1302.362347,1554.432478,8586.388927
3619.206110,1838.629195,1850.514855,7846.182985
3619.206424,1685.410096,1258.350101,8142.265362
3619.206738,1915.238745,592.164754,9548.656652
3619.207053,612.876398,592.164754,9474.636058
3619.207367,0.000000,-0.000000,10066.800811
3619.207681,-919.314598,-74.020594,10436.903782
3619.207996,-1455.581446,-370.102971,11325.150913
3619.208310,-1838.629195,-592.164754,11547.212695
3619.208624,-1685.410096,-962.267725,11029.068536
3619.208939,-1072.533697,-518.144159,11029.068536
3619.209253,-536.266849,-148.041188,9918.759623
3619.209567,383.047749,296.082377,9326.594869
3619.209882,1225.752797,962.267725,8734.430116
3619.210196,1762.019645,1110.308913,7846.182985
3619.210510,2145.067394,1110.308913,7698.141797
3619.210825,1762.019645,666.185348,7772.162391
3619.211139,1225.752797,-0.000000,8734.430116
3619.211453,459.657299,-592.164754,8660.409521
3619.211768,76.609550,-814.226536,9178.553681
3619.212082,-306.438199,-888.247130,10214.842000
3619.212396,-612.876398,-1258.350101,10436.903782
3619.212711,-995.924147,-1258.350101,10658.965565
3619.213025,0.000000,-1110.308913,10288.862594
3619.213339,153.219100,-1110.308913,9548.656652
3619.213654,459.657299,296.082377,8956.491898
3619.213968,1149.143247,814.226536,8364.327145
3619.214282,1532.190996,740.205942,8142.265362
3619.214597,1762.019645,444.123565,7550.100608
3619.214911,1532.190996,370.102971,7994.224174
3619.215225,689.485948,222.061783,8734.430116
3619.215539,153.219100,-518.144159,9622.677246
3619.215854,-612.876398,-518.144159,10362.883188
3619.216168,-1608.800546,-814.226536,11103.089130
3619.216482,-2221.676944,-1110.308913,11621.233289
3619.216797,-1991.848295,-1184.329507,11695.253884
3619.217111,-1762.019645,-1036.288319,11251.130318
3619.217425,-995.924147,-518.144159,11029.068536
3619.217740,-536.266849,148.041188,10214.842000
3619.218054,76.609550,814.226536,8882.471304
3619.218368,919.314598,1258.350101,8660.409521
3619.218683,1532.190996,1332.370696,8586.388927
3619.218997,1378.971896,1110.308913,8512.368333
3619.219311,1378.971896,740.205942,8364.327145
3619.219626,229.828649,-0.000000,9474.636058
3619.219940,0.000000,-148.041188,9622.677246
3619.220254,-612.876398,-296.082377,10214.842000
3619.220569,-1072.533697,-518.144159,11103.089130
3619.220883,-1838.629195,-814.226536,11029.068536
3619.221197,-1378.971896,-444.123565,10955.047942
3619.221512,-995.924147,-222.061783,10436.903782
3619.221826,-383.047749,222.061783,9992.780217
3619.222140,383.047749,1184.329507,9030.512492
3619.222455,1455.581446,1332.370696,8216.285956
3619.222769,1072.533697,1258.350101,7994.224174
3619.223083,1455.581446,1258.350101,8142.265362
3619.223398,1149.143247,888.247130,8808.450710
3619.223712,229.828649,444.123565,9252.574275
3619.224026,-306.438199,-0.000000,9992.780217
3619.224341,-919.314598,-148.041188,10214.842000
3619.224655,-1302.362347,-444.123565,10807.006753
3619.224969,-1455.581446,-444.123565,11103.089130
3619.225283,-1225.752797,-518.144159,10955.047942
3619.225598,-842.705048,-74.020594,11251.130318
3619.225912,-383.047749,-148.041188,10066.800811
3619.226226,306.438199,666.185348,9474.636058
3619.226541,995.924147,1110.308913,8808.450710
3619.226855,2068.457845,1184.329507,8438.347739
3619.227169,2221.676944,1258.350101,8438.347739
3619.227484,1991.848295,1036.288319,8364.327145
3619.227798,1608.800546,962.267725,8438.347739
3619.228112,842.705048,444.123565,9252.574275
3619.228427,459.657299,-0.000000,9844.739029
3619.228741,-536.266849,-666.185348,10658.965565
3619.229055,-689.485948,-814.226536,10732.986159
3619.229370,-689.485948,-666.185348,10658.965565
3619.229684,-612.876398,-370.102971,10732.986159
3619.229998,-229.828649,-0.000000,9992.780217
3619.230313,383.047749,740.205942,9400.615463
3619.230627,1225.752797,1480.411884,8586.388927
3619.230941,1532.190996,1554.432478,7772.162391
3619.231256,2068.457845,1406.391290,8068.244768
3619.231570,1149.143247,962.267725,8512.368333
3619.231884,995.924147,666.185348,8734.430116
3619.232199,306.438199,296.082377,9104.533087
3619.232513,-612.876398,-444.123565,9696.697840
3619.232827,-1072.533697,-444.123565,10658.965565
3619.233142,-1302.362347,-296.082377,10881.027347
3619.233456,-2221.676944,-888.247130,11103.089130
3619.233770,-2145.067394,-888.247130,11251.130318
3619.234084,-1225.752797,-296.082377,10881.027347
3619.234399,-383.047749,-0.000000,10066.800811
3619.234713,229.828649,370.102971,8660.409521
3619.235027,1072.533697,1110.308913,7920.203579
3619.235342,1838.629195,1554.432478,7994.224174
3619.235656,1685.410096,1110.308913,8290.306550
3619.235970,1455.581446,518.144159,8438.347739
3619.236285,842.705048,296.082377,8882.471304
3619.236599,153.219100,-74.020594,9326.594869
3619.236913,-383.047749,-666.185348,9992.780217
3619.237228,-689.485948,-1036.288319,11177.109724
3619.237542,-1532.190996,-1406.391290,11325.150913
3619.237856,-1532.190996,-1406.391290,11547.212695
3619.238171,-766.095498,-888.247130,10732.986159
3619.238485,0.000000,-0.000000,9696.697840
3619.238799,76.609550,592.164754,9104.533087
3619.239114,1225.752797,740.205942,8364.327145
3619.239428,1302.362347,740.205942,8142.265362
3619.239742,1378.971896,962.267725,8216.285956
3619.240057,1225.752797,370.102971,8734.430116
3619.240371,383.047749,222.061783,9474.636058
3619.240685,-306.438199,-0.000000,10584.944971
3619.241000,-766.095498,-666.185348,10436.903782
3619.241314,-1378.971896,-814.226536,10881.027347
3619.241628,-1991.848295,-1110.308913,10955.047942
3619.241943,-1991.848295,-1184.329507,11251.130318
3619.242257,-1762.019645,-814.226536,10807.006753
3619.242571,-689.485948,-370.102971,10140.821405
3619.242886,0.000000,148.041188,9326.594869
3619.243200,536.266849,370.102971,8290.306550
3619.243514,1378.971896,740.205942,7846.182985
3619.243828,1378.971896,814.226536,7772.162391
3619.244143,1378.971896,-0.000000,7846.182985
3619.244457,919.314598,444.123565,8512.368333
3619.244771,459.657299,-148.041188,9104.533087
3619.245086,0.000000,-740.205942,9696.697840
3619.245400,-383.047749,-296.082377,10362.883188
3619.245714,-536.266849,-888.247130,10288.862594
3619.246029,-459.657299,-518.144159,10288.862594
3619.246343,76.609550,-666.185348,10214.842000
3619.246657,229.828649,-74.020594,9992.780217
3619.246972,919.314598,518.144159,9104.533087
3619.247286,1608.800546,1110.308913,7772.162391
3619.247600,1762.019645,1110.308913,7698.141797
3619.247915,2068.457845,1258.350101,7994.224174
3619.248229,1455.581446,740.205942,8586.388927
3619.248543,766.095498,-0.000000,9030.512492
3619.248858,0.000000,-0.000000,9548.656652
3619.249172,-612.876398,-222.061783,10584.944971
3619.249486,-1225.752797,-444.123565,11177.109724
3619.249801,-1532.190996,-296.082377,11695.253884
3619.250115,-919.314598,-592.164754,11621.233289
3619.250429,-1455.581446,-296.082377,11621.233289
3619.250744,-383.047749,222.061783,10807.006753
3619.251058,229.828649,888.247130,10140.821405
3619.251372,689.485948,1776.494261,9104.533087
3619.251687,1302.362347,1924.535449,8364.327145
3619.252001,1991.848295,1850.514855,8216.285956
3619.252315,1762.019645,1406.391290,8586.388927
3619.252629,842.705048,1332.370696,9104.533087
3619.252944,306.438199,-0.000000,9474.636058
3619.253258,-383.047749,-74.020594,9992.780217
3619.253572,-689.485948,-370.102971,10732.986159
3619.253887,-919.314598,-814.226536,11177.109724
3619.254201,-1225.752797,-444.123565,11103.089130
3619.254515,-842.705048,-296.082377,10955.047942
3619.254830,-612.876398,222.061783,10436.903782
3619.255144,153.219100,1258.350101,9770.718434
3619.255458,842.705048,1702.473667,8660.409521
3619.255773,1532.190996,1776.494261,7920.203579
3619.256087,1608.800546,1554.432478,7994.224174
3619.256401,1455.581446,1480.411884,8290.306550
3619.256716,1302.362347,888.247130,9252.574275
3619.257030,153.219100,444.123565,9252.574275
3619.257344,-306.438199,-0.000000,10066.800811
3619.257659,-1455.581446,-296.082377,11103.089130
3619.257973,-1762.019645,-666.185348,10881.027347
3619.258287,-1915.238745,-1036.288319,11177.109724
3619.258602,-1838.629195,-1036.288319,11103.089130
3619.258916,-1685.410096,-666.185348,10732.986159
3619.259230,-995.924147,-444.123565,9918.759623
3619.259545,0.000000,296.082377,8956.491898
3619.259859,536.266849,1036.288319,8734.430116
3619.260173,1455.581446,1184.329507,8364.327145
3619.260488,2145.067394,1110.308913,8512.368333
3619.260802,2068.457845,592.164754,8512.368333
3619.261116,1378.971896,518.144159,8808.450710
3619.261431,536.266849,-0.000000,9400.615463
3619.261745,0.000000,-592.164754,9992.780217
3619.262059,-459.657299,-1258.350101,10658.965565
3619.262373,-612.876398,-1184.329507,10732.986159
3619.262688,-919.314598,-1036.288319,10732.986159
3619.263002,-459.657299,-1036.288319,10732.986159
3619.263316,0.000000,-148.041188,9844.739029
3619.263631,459.657299,222.061783,9104.533087
3619.263945,1302.362347,814.226536,8142.265362
3619.264259,1685.410096,666.185348,7550.100608
3619.264574,1838.629195,814.226536,7476.080014
3619.264888,2298.286494,-0.000000,8364.327145
3619.265202,1072.533697,-0.000000,8882.471304
3619.265517,76.609550,-444.123565,9252.574275
3619.265831,-536.266849,-444.123565,9918.759623
3619.266145,-995.924147,-518.144159,10436.903782
3619.266460,-1378.971896,-1184.329507,11177.109724
3619.266774,-1838.629195,-1036.288319,11473.192101
3619.267088,-1608.800546,-1184.329507,11177.109724
3619.267403,-766.095498,-518.144159,10807.006753
3619.267717,-153.219100,-0.000000,9770.718434
3619.268032,306.438199,962.267725,9104.533087
3619.268346,1455.581446,1184.329507,8660.409521
3619.268660,1685.410096,962.267725,7994.224174
3619.268975,1838.629195,962.267725,8216.285956
3619.269289,1455.581446,888.247130,8438.347739
3619.269604,919.314598,444.123565,9178.553681
3619.269918,383.047749,-0.000000,9474.636058
3619.270233,-306.438199,-518.144159,10140.821405
3619.270547,-995.924147,-962.267725,10881.027347
3619.270862,-1149.143247,-1036.288319,11029.068536
3619.271176,-1225.752797,-962.267725,11325.150913
3619.271490,-306.438199,-370.102971,10732.986159
3619.271805,0.000000,-0.000000,9918.759623
3619.272119,842.705048,1184.329507,9252.574275
3619.272434,1378.971896,1332.370696,8512.368333
3619.272748,1532.190996,1554.432478,8660.409521
3619.273063,1608.800546,1332.370696,8068.244768
3619.273377,1302.362347,1110.308913,8586.388927
3619.273692,536.266849,518.144159,9326.594869
3619.274006,0.000000,-0.000000,9992.780217
3619.274320,-995.924147,-74.020594,10584.944971
3619.274635,-1838.629195,-592.164754,10955.047942
3619.274949,-2221.676944,-740.205942,11103.089130
3619.275264,-2145.067394,-962.267725,11399.171507
3619.275578,-1302.362347,-444.123565,11251.130318
3619.275893,-842.705048,-222.061783,10658.965565
3619.276207,-306.438199,444.123565,9696.697840
3619.276522,842.705048,1406.391290,8660.409521
3619.276836,1532.190996,1480.411884,7994.224174
3619.277150,2145.067394,1628.453072,8512.368333
3619.277465,1915.238745,1110.308913,8438.347739
3619.277779,1302.362347,740.205942,8290.306550
3619.278094,612.876398,222.061783,9178.553681
3619.278408,76.609550,-74.020594,9696.697840
3619.278723,-383.047749,-888.247130,10140.821405
3619.279037,-1225.752797,-1332.370696,10807.006753
3619.279352,-1302.362347,-740.205942,10955.047942
3619.279666,-689.485948,-370.102971,10362.883188
3619.279980,0.000000,-0.000000,9992.780217
3619.280295,1225.752797,962.267725,9252.574275
3619.280609,1378.971896,1480.411884,8068.244768
3619.280924,1838.629195,1480.411884,7624.121203
3619.281238,2068.457845,1332.370696,7846.182985
3619.281553,1991.848295,740.205942,8290.306550
3619.281867,689.485948,296.082377,9252.574275
3619.282182,0.000000,-0.000000,9548.656652
3619.282496,-612.876398,-222.061783,10362.883188
3619.282810,-1072.533697,-444.123565,10881.027347
3619.283125,-1532.190996,-814.226536,11473.192101
3619.283439,-1608.800546,-1184.329507,11547.212695
3619.283754,-1455.581446,-740.205942,11029.068536
3619.284068,-766.095498,-296.082377,10658.965565
3619.284383,76.609550,296.082377,9770.718434
3619.284697,1225.752797,1110.308913,9104.533087
3619.285012,1455.581446,1258.350101,8068.244768
3619.285326,1378.971896,888.247130,8512.368333
3619.285640,1685.410096,740.205942,8364.327145
3619.285955,1149.143247,666.185348,8290.306550
3619.286269,536.266849,-0.000000,9104.533087
3619.286584,0.000000,-666.185348,9696.697840
3619.286898,-689.485948,-814.226536,10658.965565
3619.287213,-995.924147,-888.247130,11251.130318
3619.287527,-1225.752797,-1110.308913,10881.027347
3619.287842,-766.095498,-1110.308913,10955.047942
3619.288156,-153.219100,-222.061783,10362.883188
3619.288470,383.047749,222.061783,9474.636058
3619.288785,995.924147,740.205942,8438.347739
3619.289099,1378.971896,1036.288319,8142.265362
3619.289414,1608.800546,962.267725,8068.244768
3619.289728,1455.581446,888.247130,8068.244768
3619.290043,1149.143247,370.102971,8512.368333
3619.290357,459.657299,-148.041188,9178.553681
3619.290672,-612.876398,-148.041188,9918.759623
3619.290986,-995.924147,-444.123565,10584.944971
3619.291301,-1915.238745,-592.164754,11103.089130
3619.291615,-1762.019645,-888.247130,11251.130318
3619.291929,-1685.410096,-1184.329507,10955.047942
3619.292244,-1378.971896,-592.164754,10807.006753
3619.292558,-995.924147,-148.041188,10658.965565
3619.292873,76.609550,370.102971,9326.594869
3619.293187,842.705048,740.205942,8512.368333
3619.293502,1302.362347,1184.329507,8216.285956
3619.293816,1762.019645,962.267725,8216.285956
3619.294131,1302.362347,740.205942,8586.388927
3619.294445,766.095498,518.144159,8956.491898
3619.294759,536.266849,148.041188,9326.594869
3619.295074,0.000000,-666.185348,10066.800811
3619.295388,-612.876398,-888.247130,10436.903782
3619.295703,-995.924147,-962.267725,10584.944971
3619.296017,-995.924147,-1110.308913,10807.006753
3619.296332,-612.876398,-962.267725,10436.903782
3619.296646,0.000000,-296.082377,9844.739029
3619.296961,459.657299,296.082377,9178.553681
3619.297275,1072.533697,888.247130,8142.265362
3619.297589,1532.190996,1184.329507,8142.265362
3619.297904,1455.581446,1036.288319,8142.265362
3619.298218,995.924147,592.164754,8438.347739
3619.298533,689.485948,518.144159,8956.491898
3619.298847,0.000000,-148.041188,9474.636058
3619.299162,-459.657299,-148.041188,10140.821405
3619.299476,-995.924147,-592.164754,10584.944971
3619.299791,-1762.019645,-592.164754,10955.047942
3619.300105,-1685.410096,-888.247130,11399.171507
3619.300419,-1455.581446,-666.185348,10881.027347
3619.300734,-689.485948,-0.000000,10362.883188
3619.301048,383.047749,518.144159,9474.636058
3619.301363,842.705048,1332.370696,8808.450710
3619.301677,2298.286494,1332.370696,8216.285956
3619.301992,2221.676944,1554.432478,8438.347739
3619.302306,2145.067394,1480.411884,8660.409521
3619.302621,1915.238745,1110.308913,8512.368333
3619.302935,1225.752797,518.144159,8660.409521
3619.303249,383.047749,222.061783,9918.759623
3619.303564,0.000000,-0.000000,10510.924376
3619.303878,-689.485948,-814.226536,10807.006753
3619.304193,-919.314598,-740.205942,10807.006753
3619.304507,-842.705048,-296.082377,11029.068536
3619.304822,-306.438199,-0.000000,10510.924376
3619.305136,153.219100,666.185348,9918.759623
3619.305451,842.705048,1258.350101,8956.491898
3619.305765,1532.190996,1628.453072,8142.265362
3619.306079,1762.019645,1702.473667,8142.265362
3619.306394,1302.362347,1332.370696,8438.347739
3619.306708,766.095498,666.185348,8660.409521
3619.307023,306.438199,666.185348,9474.636058
3619.307337,-689.485948,74.020594,10214.842000
3619.307652,-995.924147,-74.020594,11103.089130
3619.307966,-1685.410096,-444.123565,11029.068536
3619.308281,-2298.286494,-888.247130,11325.150913
3619.308595,-1685.410096,-1036.288319,11399.171507
3619.308909,-1532.190996,-592.164754,10658.965565
3619.309224,-459.657299,-0.000000,10214.842000
3619.309538,229.828649,814.226536,9326.594869
3619.309853,842.705048,962.267725,8586.388927
3619.310167,1608.800546,1184.329507,7698.141797
3619.310482,1608.800546,1184.329507,7994.224174
3619.310796,1225.752797,740.205942,8734.430116
3619.311111,612.876398,518.144159,8808.450710
3619.311425,0.000000,-222.061783,9400.615463
3619.311739,-459.657299,-444.123565,9844.739029
3619.312054,-536.266849,-666.185348,10732.986159
3619.312368,-842.705048,-1110.308913,11029.068536
3619.312683,-306.438199,-888.247130,10807.006753
3619.312997,-76.609550,-296.082377,10807.006753
3619.313312,229.828649,296.082377,9548.656652
3619.313626,1149.143247,888.247130,8882.471304
3619.313941,1608.800546,1258.350101,8364.327145
3619.314255,2221.676944,1258.350101,7846.182985
3619.314569,1762.019645,962.267725,7698.141797
3619.314884,1378.971896,444.123565,8364.327145
3619.315198,919.314598,-0.000000,9178.553681
3619.315513,76.609550,-222.061783,9400.615463
3619.315827,-536.266849,-444.123565,10362.883188
3619.316142,-1455.581446,-888.247130,11103.089130
3619.316456,-1915.238745,-1480.411884,11399.171507
3619.316771,-1991.848295,-1110.308913,11695.253884
3619.317085,-1608.800546,-962.267725,11473.192101
3619.317399,-1072.533697,-962.267725,10658.965565
3619.317714,0.000000,444.123565,9474.636058
3619.318028,842.705048,1110.308913,8734.430116
3619.318343,1685.410096,888.247130,8586.388927
3619.318657,2681.334243,1110.308913,8142.265362
3619.318972,1991.848295,518.144159,7698.141797
3619.319286,1225.752797,444.123565,8290.306550
3619.319601,536.266849,-0.000000,9104.533087
3619.319915,153.219100,-666.185348,9474.636058
3619.320230,-306.438199,-1258.350101,10510.924376
3619.320544,-689.485948,-1480.411884,10807.006753
3619.320858,-1072.533697,-1258.350101,10436.903782
3619.321173,-612.876398,-592.164754,10807.006753
3619.321487,0.000000,-518.144159,10362.883188
3619.321802,0.000000,-0.000000,9696.697840
3619.322116,919.314598,962.267725,8290.306550
3619.322431,1378.971896,1406.391290,8068.244768
3619.322745,1915.238745,1480.411884,8142.265362
3619.323060,1532.190996,1036.288319,8364.327145
3619.323374,995.924147,666.185348,8882.471304
3619.323688,153.219100,222.061783,9474.636058
3619.324003,-459.657299,-0.000000,9992.780217
3619.324317,-1455.581446,-74.020594,10584.944971
3619.324632,-1991.848295,-518.144159,11251.130318
3619.324946,-2145.067394,-592.164754,11473.192101
3619.325261,-1915.238745,-814.226536,11251.130318
3619.325575,-1532.190996,-148.041188,11177.109724
3619.325890,-306.438199,370.102971,10436.903782
3619.326204,-229.828649,962.267725,9474.636058
3619.326518,995.924147,1776.494261,8586.388927
3619.326833,1608.800546,1850.514855,8142.265362
3619.327147,1608.800546,1406.391290,8660.409521
3619.327462,1378.971896,1110.308913,8808.450710
3619.327776,153.219100,1036.288319,9252.574275
3619.328091,0.000000,222.061783,9474.636058
3619.328405,-459.657299,-0.000000,10436.903782
3619.328720,-766.095498,-444.123565,10584.944971
3619.329034,-766.095498,-814.226536,10955.047942
3619.329348,-536.266849,-666.185348,10732.986159
3619.329663,-383.047749,-0.000000,10510.924376
3619.329977,76.609550,444.123565,9622.677246
3619.330292,766.095498,1258.350101,8956.491898
3619.330606,1455.581446,1702.473667,7994.224174
3619.330921,1532.190996,1184.329507,8068.244768
3619.331235,1991.848295,1110.308913,7920.203579
3619.331550,1685.410096,888.247130,8512.368333
3619.331864,612.876398,592.164754,9104.533087
3619.332178,0.000000,-0.000000,9844.739029
3619.332493,-919.314598,-0.000000,10362.883188
3619.332807,-1532.190996,-666.185348,10807.006753
3619.333122,-1685.410096,-592.164754,10955.047942
3619.333436,-1991.848295,-1110.308913,11399.171507
3619.333751,-1532.190996,-222.061783,11325.150913
3619.334065,-612.876398,-0.000000,10436.903782
3619.334380,0.000000,518.144159,9548.656652
3619.334694,842.705048,1110.308913,8586.388927
3619.335008,1685.410096,1776.494261,8142.265362
3619.335323,1991.848295,1406.391290,8290.306550
3619.335637,2221.676944,1036.288319,9030.512492
3619.335952,995.924147,222.061783,8586.388927
3619.336266,459.657299,-0.000000,9326.594869
3619.336581,76.609550,-370.102971,10066.800811
3619.336895,-612.876398,-666.185348,10807.006753
3619.337210,-995.924147,-814.226536,10955.047942
3619.337524,-1149.143247,-1258.350101,10881.027347
3619.337838,-766.095498,-962.267725,10658.965565
3619.338153,-229.828649,-370.102971,10362.883188
3619.338467,306.438199,296.082377,9474.636058
3619.338782,919.314598,962.267725,8512.368333
3619.339096,1225.752797,666.185348,8068.244768
3619.339411,1762.019645,814.226536,7920.203579
3619.339725,1762.019645,370.102971,8068.244768
3619.340040,1149.143247,148.041188,8734.430116
3619.340354,153.219100,148.041188,9326.594869
3619.340668,-766.095498,-296.082377,9400.615463
3619.340983,-1302.362347,-666.185348,10214.842000
3619.341297,-1532.190996,-814.226536,10881.027347
3619.341612,-1915.238745,-1702.473667,10584.944971
3619.341926,-1762.019645,-1258.350101,10807.006753
3619.342241,-1149.143247,-814.226536,10140.821405
3619.342555,-612.876398,-222.061783,9844.739029
3619.342870,0.000000,370.102971,9030.512492
3619.343184,459.657299,666.185348,8660.409521
3619.343498,1225.752797,1036.288319,8216.285956
3619.343813,1532.190996,740.205942,8068.244768
3619.344127,1378.971896,666.185348,8660.409521
3619.344442,1532.190996,222.061783,8808.450710
3619.344756,229.828649,444.123565,9918.759623
3619.345071,76.609550,-370.102971,9696.697840
3619.345385,-612.876398,-592.164754,10288.862594
3619.345700,-766.095498,-592.164754,10732.986159
3619.346014,-766.095498,-888.247130,10510.924376
3619.346328,-536.266849,-518.144159,10436.903782
3619.346643,0.000000,-0.000000,10140.821405
3619.346957,383.047749,592.164754,9178.553681
3619.347272,1072.533697,1184.329507,8512.368333
3619.347586,995.924147,1036.288319,8660.409521
3619.347901,1685.410096,1036.288319,9252.574275
3619.348215,842.705048,666.185348,8660.409521
3619.348530,766.095498,518.144159,8956.491898
3619.348844,0.000000,592.164754,10214.842000
3619.349159,-536.266849,296.082377,10584.944971
3619.349473,-1072.533697,-148.041188,11029.068536
3619.349787,-1378.971896,-370.102971,11325.150913
3619.350102,-1378.971896,-592.164754,11177.109724
3619.350416,-919.314598,-444.123565,10732.986159
3619.350731,-383.047749,-222.061783,10436.903782
3619.351045,0.000000,592.164754,9696.697840
3619.351360,536.266849,1184.329507,8734.430116
3619.351674,1455.581446,1406.391290,8216.285956
3619.351989,2145.067394,1480.411884,8068.244768
3619.352303,1991.848295,962.267725,8512.368333
3619.352617,1455.581446,666.185348,8734.430116
3619.352932,766.095498,-0.000000,8956.491898
3619.353246,383.047749,-222.061783,9696.697840
3619.353561,-306.438199,-518.144159,10140.821405
3619.353875,-612.876398,-666.185348,11029.068536
3619.354190,-612.876398,-592.164754,10807.006753
3619.354504,-459.657299,-148.041188,10436.903782
3619.354819,76.609550,-0.000000,10214.842000
3619.355133,766.095498,740.205942,9474.636058
3619.355447,766.095498,1480.411884,8808.450710
3619.355762,1762.019645,1258.350101,7550.100608
3619.356076,1991.848295,1184.329507,7402.059420
3619.356391,1608.800546,740.205942,8438.347739
3619.356705,995.924147,592.164754,9178.553681
3619.357020,229.828649,-0.000000,9474.636058
3619.357334,-612.876398,-222.061783,9992.780217
3619.357649,-1149.143247,-370.102971,10510.924376
3619.357963,-1532.190996,-370.102971,11103.089130
3619.358277,-1762.019645,-740.205942,11473.192101
3619.358592,-1455.581446,-888.247130,11399.171507
3619.358906,-995.924147,-444.123565,10436.903782
3619.359221,-153.219100,222.061783,9400.615463
3619.359535,459.657299,1036.288319,9178.553681
3619.359850,1149.143247,740.205942,8216.285956
3619.360164,1455.581446,1406.391290,8142.265362
3619.360479,1608.800546,1036.288319,8586.388927
3619.360793,1608.800546,518.144159,8290.306550
3619.361107,842.705048,444.123565,8808.450710
3619.361422,-153.219100,-0.000000,9474.636058
3619.361736,-536.266849,-888.247130,10066.800811
3619.362051,-1378.971896,-962.267725,10288.862594
3619.362365,-1378.971896,-1184.329507,10732.986159
3619.362680,-1378.971896,-888.247130,10881.027347
3619.362994,-842.705048,-444.123565,10584.944971
3619.363309,-229.828649,-0.000000,9696.697840
3619.363623,306.438199,444.123565,9104.533087
3619.363937,766.095498,1036.288319,8364.327145
3619.364252,1608.800546,1258.350101,7994.224174
3619.364566,1991.848295,592.164754,8068.244768
3619.364881,1149.143247,518.144159,8882.471304
3619.365195,306.438199,222.061783,9326.594869
3619.365510,0.000000,-0.000000,9474.636058
3619.365824,-766.095498,-74.020594,10436.903782
3619.366139,-1532.190996,-518.144159,11103.089130
3619.366453,-1378.971896,-888.247130,10955.047942
3619.366767,-1685.410096,-740.205942,10881.027347
3619.367082,-1149.143247,-666.185348,11029.068536
3619.367396,-459.657299,-296.082377,10510.924376
3619.367711,0.000000,444.123565,9548.656652
3619.368025,689.485948,888.247130,8586.388927
3619.368340,1532.190996,1036.288319,8290.306550
3619.368654,1915.238745,1258.350101,8216.285956
3619.368969,2145.067394,1258.350101,8586.388927
3619.369283,1072.533697,148.041188,9252.574275
3619.369597,612.876398,-0.000000,9548.656652
3619.369912,0.000000,-148.041188,9622.677246
3619.370226,-153.219100,-444.123565,10510.924376
3619.370541,-536.266849,-666.185348,11251.130318
3619.370855,-1149.143247,-666.185348,11251.130318
3619.371170,-689.485948,-592.164754,10807.006753
3619.371484,0.000000,-296.082377,10140.821405
3619.371799,842.705048,518.144159,9326.594869
3619.372113,1608.800546,962.267725,8586.388927
3619.372427,1762.019645,1406.391290,7994.224174
3619.372742,1991.848295,1110.308913,7846.182985
3619.373056,1455.581446,814.226536,7994.224174
3619.373371,1149.143247,666.185348,8586.388927
3619.373685,459.657299,-0.000000,9474.636058
3619.374000,-383.047749,-222.061783,9918.759623
3619.374314,-1225.752797,-592.164754,10584.944971
3619.374629,-1455.581446,-740.205942,10955.047942
3619.374943,-766.095498,-1110.308913,11029.068536
3619.375257,-1455.581446,-814.226536,10807.006753
3619.375572,-536.266849,-518.144159,10214.842000
3619.375886,0.000000,-0.000000,9918.759623
3619.376201,689.485948,962.267725,8882.471304
3619.376515,1149.143247,1924.535449,8290.306550
3619.376829,2145.067394,1406.391290,8068.244768
3619.377144,1991.848295,1332.370696,8364.327145
3619.377458,1685.410096,1036.288319,8512.368333
3619.377773,766.095498,518.144159,8586.388927
3619.378087,536.266849,-0.000000,9622.677246
3619.378401,-383.047749,-518.144159,10807.006753
3619.378716,-842.705048,-518.144159,10807.006753
3619.379030,-995.924147,-814.226536,10881.027347
3619.379345,-995.924147,-666.185348,10732.986159
3619.379659,-459.657299,-74.020594,10658.965565
3619.379974,-306.438199,222.061783,10140.821405
3619.380288,229.828649,1036.288319,8956.491898
3619.380602,1072.533697,1776.494261,8290.306550
3619.380917,1378.971896,1480.411884,7698.141797
3619.381231,1685.410096,1184.329507,8586.388927
3619.381546,919.314598,814.226536,9030.512492
3619.381860,0.000000,666.185348,9474.636058
3619.382174,-612.876398,296.082377,9844.739029
3619.382489,-919.314598,-74.020594,10584.944971
3619.382803,-1915.238745,-296.082377,10955.047942
3619.383118,-1838.629195,-740.205942,11325.150913
3619.383432,-2221.676944,-740.205942,11177.109724
3619.383746,-1608.800546,-518.144159,10881.027347
3619.384061,-842.705048,-0.000000,10362.883188
3619.384375,76.609550,296.082377,9696.697840
3619.384690,536.266849,962.267725,8734.430116
3619.385004,1149.143247,1184.329507,7920.203579
3619.385319,1532.190996,888.247130,8068.244768
3619.385633,1532.190996,888.247130,9104.533087
3619.385947,1149.143247,518.144159,9178.553681
3619.386262,383.047749,-0.000000,8734.430116
3619.386576,76.609550,-296.082377,9770.718434
3619.386891,-229.828649,-888.247130,10510.924376
3619.387205,-612.876398,-1036.288319,10807.006753
3619.387519,-306.438199,-1184.329507,10807.006753
3619.387834,0.000000,-666.185348,10510.924376
3619.388148,383.047749,-0.000000,10288.862594
3619.388463,995.924147,592.164754,8882.471304
3619.388777,1685.410096,666.185348,8142.265362
3619.389091,1838.629195,814.226536,8290.306550
3619.389406,1838.629195,740.205942,8068.244768
3619.389720,1838.629195,444.123565,8512.368333
3619.390035,766.095498,-0.000000,9104.533087
3619.390349,383.047749,-222.061783,9548.656652
3619.390663,-459.657299,-444.123565,9622.677246
3619.390978,-995.924147,-592.164754,10436.903782
3619.391292,-1302.362347,-518.144159,11029.068536
3619.391607,-1608.800546,-1258.350101,10658.965565
3619.391921,-1608.800546,-1036.288319,11177.109724
3619.392236,-1225.752797,-592.164754,10881.027347
3619.392550,-612.876398,-370.102971,9992.780217
3619.392864,459.657299,592.164754,8956.491898
3619.393179,1072.533697,962.267725,8364.327145
3619.393493,1838.629195,888.247130,8142.265362
3619.393808,1915.238745,962.267725,8438.347739
3619.394122,995.924147,518.144159,8512.368333
3619.394436,612.876398,-0.000000,9030.512492
3619.394751,0.000000,-296.082377,9474.636058
3619.395065,-383.047749,-518.144159,10214.842000
3619.395380,-689.485948,-1036.288319,10807.006753
3619.395694,-842.705048,-962.267725,10955.047942
3619.396008,-842.705048,-962.267725,10214.842000
3619.396323,-383.047749,-518.144159,10362.883188
3619.396637,0.000000,-74.020594,10436.903782
3619.396952,689.485948,814.226536,8512.368333
3619.397266,995.924147,1184.329507,7994.224174
3619.397580,1225.752797,1184.329507,7920.203579
3619.397895,1608.800546,1036.288319,8290.306550
3619.398209,1455.581446,592.164754,8808.450710
3619.398524,383.047749,296.082377,9252.574275
3619.398838,-612.876398,-0.000000,10362.883188
3619.399153,-1532.190996,-222.061783,10732.986159
3619.399467,-1762.019645,-74.020594,10732.986159
3619.399781,-1915.238745,-370.102971,11769.274478
3619.400096,-1991.848295,-518.144159,11621.233289
3619.400410,-1991.848295,-222.061783,11029.068536
3619.400725,-1072.533697,222.061783,10288.862594
3619.401039,-76.609550,1184.329507,9770.718434
3619.401353,76.609550,1776.494261,8512.368333
3619.401668,995.924147,1332.370696,8216.285956
3619.401982,1455.581446,1554.432478,8734.430116
3619.402297,1225.752797,1184.329507,8586.388927
3619.402611,919.314598,1036.288319,8956.491898
3619.402925,229.828649,592.164754,9474.636058
3619.403240,-689.485948,-296.082377,10214.842000
3619.403554,-383.047749,-518.144159,10658.965565
3619.403869,-612.876398,-592.164754,10881.027347
3619.404183,-536.266849,-740.205942,10881.027347
3619.404498,-383.047749,-148.041188,10510.924376
3619.404812,459.657299,370.102971,10066.800811
3619.405126,1072.533697,814.226536,9400.615463
3619.405441,1762.019645,1258.350101,8290.306550
3619.405755,1991.848295,1406.391290,7698.141797
3619.406070,2068.457845,1184.329507,7772.162391
3619.406384,2145.067394,1036.288319,8660.409521
3619.406698,1302.362347,444.123565,8734.430116
3619.407013,536.266849,370.102971,9178.553681
3619.407327,-306.438199,-296.082377,10362.883188
3619.407642,-919.314598,-444.123565,10955.047942
3619.407956,-1302.362347,-888.247130,10881.027347
3619.408270,-1149.143247,-888.247130,10955.047942
3619.408585,-1072.533697,-518.144159,10807.006753
3619.408899,-689.485948,-222.061783,10362.883188
3619.409214,0.000000,296.082377,9844.739029
3619.409528,383.047749,740.205942,9474.636058
3619.409842,1149.143247,1258.350101,8438.347739
3619.410157,1915.238745,1184.329507,7846.182985
3619.410471,2068.457845,888.247130,8660.409521
3619.410786,1378.971896,666.185348,9104.533087
3619.411100,459.657299,-0.000000,9104.533087
3619.411415,0.000000,-148.041188,9474.636058
3619.411729,-459.657299,-666.185348,10288.862594
3619.412043,-689.485948,-740.205942,10807.006753
3619.412358,-1302.362347,-740.205942,10658.965565
3619.412672,-995.924147,-814.226536,10584.944971
3619.412987,-766.095498,-592.164754,10288.862594
3619.413301,0.000000,-0.000000,9696.697840
3619.413615,306.438199,740.205942,8882.471304
3619.413930,995.924147,740.205942,7994.224174
3619.414244,1225.752797,592.164754,8142.265362
3619.414559,995.924147,222.061783,8364.327145
3619.414873,536.266849,296.082377,8808.450710
3619.415187,76.609550,-0.000000,9104.533087
3619.415502,-536.266849,-222.061783,9696.697840
3619.415816,-1378.971896,-592.164754,10214.842000
3619.416131,-1762.019645,-666.185348,10807.006753
3619.416445,-1915.238745,-814.226536,11325.150913
3619.416759,-1991.848295,-1110.308913,11177.109724
3619.417074,-1608.800546,-592.164754,10807.006753
3619.417388,-1072.533697,-222.061783,10436.903782
3619.417703,0.000000,296.082377,9252.574275
3619.418017,536.266849,666.185348,8660.409521
3619.418332,1225.752797,592.164754,8438.347739
3619.418646,1915.238745,444.123565,8216.285956
3619.418960,1072.533697,444.123565,8734.430116
3619.419275,766.095498,370.102971,8438.347739
3619.419589,459.657299,-0.000000,9326.594869
3619.419904,0.000000,-296.082377,9770.718434
3619.420218,-229.828649,-814.226536,10288.862594
3619.420532,-1072.533697,-1110.308913,10881.027347
3619.420847,-612.876398,-1258.350101,10881.027347
3619.421161,-306.438199,-592.164754,10584.944971
3619.421476,383.047749,-0.000000,10362.883188
3619.421790,842.705048,814.226536,9474.636058
3619.422104,1455.581446,1332.370696,8290.306550
3619.422419,1762.019645,1258.350101,8142.265362
3619.422733,1838.629195,1184.329507,8216.285956
3619.423048,1532.190996,888.247130,8734.430116
3619.423362,1072.533697,444.123565,9178.553681
3619.423677,306.438199,370.102971,9696.697840
3619.423991,-459.657299,-0.000000,10436.903782
3619.424305,-766.095498,-74.020594,10881.027347
3619.424620,-1072.533697,-444.123565,11177.109724
3619.424934,-1149.143247,-592.164754,11325.150913
3619.425249,-842.705048,-518.144159,10807.006753
3619.425563,-153.219100,-222.061783,10436.903782
3619.425877,459.657299,592.164754,9992.780217
3619.426192,536.266849,1184.329507,8734.430116
3619.426506,1532.190996,1554.432478,7846.182985
3619.426821,1838.629195,1628.453072,8142.265362
3619.427135,1685.410096,1184.329507,8734.430116
3619.427449,1149.143247,888.247130,8586.388927
3619.427764,459.657299,518.144159,8956.491898
3619.428078,0.000000,222.061783,9548.656652
3619.428393,-612.876398,-148.041188,10510.924376
3619.428707,-995.924147,-666.185348,10955.047942
3619.429021,-1378.971896,-962.267725,11325.150913
3619.429336,-1072.533697,-370.102971,11029.068536
3619.429650,-459.657299,-0.000000,10362.883188
3619.429965,-229.828649,592.164754,9622.677246
3619.430279,995.924147,1554.432478,9104.533087
3619.430594,1302.362347,1332.370696,8438.347739
3619.430908,1532.190996,1258.350101,7846.182985
3619.431222,995.924147,1036.288319,8142.265362
3619.431537,842.705048,666.185348,8956.491898
3619.431851,153.219100,370.102971,9474.636058
3619.432166,-689.485948,222.061783,10214.842000
3619.432480,-1225.752797,-148.041188,10584.944971
3619.432794,-1838.629195,-444.123565,11029.068536
3619.433109,-1608.800546,-444.123565,11473.192101
3619.433423,-1915.238745,-740.205942,11399.171507
3619.433738,-1608.800546,-444.123565,11029.068536
3619.434052,-612.876398,-148.041188,10214.842000
3619.434366,-153.219100,666.185348,9622.677246
3619.434681,995.924147,1110.308913,8734.430116
3619.434995,1149.143247,1406.391290,7920.203579
3619.435310,1455.581446,1110.308913,8216.285956
3619.435624,1455.581446,888.247130,8882.471304
3619.435938,689.485948,222.061783,8660.409521
3619.436253,153.219100,-518.144159,9178.553681
3619.436567,-306.438199,-666.185348,10140.821405
3619.436882,-766.095498,-888.247130,10732.986159
3619.437196,-919.314598,-1184.329507,10436.903782
3619.437511,-919.314598,-1406.391290,10584.944971
3619.437825,-459.657299,-888.247130,10288.862594
3619.438139,0.000000,-296.082377,9548.656652
3619.438454,612.876398,518.144159,9104.533087
3619.438768,1532.190996,740.205942,7994.224174
3619.439083,1685.410096,1036.288319,8216.285956
3619.439397,2068.457845,814.226536,7698.141797
3619.439711,1685.410096,370.102971,8364.327145
3619.440026,1072.533697,-74.020594,9178.553681
3619.440340,229.828649,-148.041188,9252.574275
3619.440655,-229.828649,-148.041188,9918.759623
3619.440969,-842.705048,-740.205942,10658.965565
3619.441283,-919.314598,-740.205942,11251.130318
3619.441598,-995.924147,-1036.288319,11103.089130
3619.441912,-995.924147,-1036.288319,10732.986159
3619.442227,-766.095498,-222.061783,10881.027347
3619.442541,76.609550,222.061783,10066.800811
3619.442856,919.314598,740.205942,9030.512492
3619.443170,1302.362347,1110.308913,8216.285956
3619.443484,2374.896044,1258.350101,7994.224174
3619.443799,1915.238745,962.267725,8512.368333
3619.444113,1455.581446,888.247130,8734.430116
3619.444428,842.705048,-0.000000,9252.574275
3619.444742,306.438199,-148.041188,9474.636058
3619.445056,0.000000,-370.102971,9918.759623
3619.445371,-459.657299,-666.185348,11029.068536
3619.445685,-1378.971896,-592.164754,11103.089130
3619.446000,-919.314598,-814.226536,10732.986159
3619.446314,-612.876398,-74.020594,10584.944971
3619.446628,0.000000,296.082377,9992.780217
3619.446943,153.219100,1110.308913,8586.388927
3619.447257,1149.143247,1406.391290,8068.244768
3619.447572,1302.362347,1036.288319,8290.306550
3619.447886,919.314598,740.205942,8438.347739
3619.448200,612.876398,962.267725,8438.347739
3619.448515,0.000000,148.041188,9474.636058
3619.448829,-766.095498,-0.000000,10288.862594
3619.449144,-1302.362347,-0.000000,10658.965565
3619.449458,-1685.410096,-296.082377,11029.068536
3619.449773,-1838.629195,-740.205942,11621.233289
3619.450087,-2068.457845,-666.185348,11325.150913
3619.450401,-1608.800546,-444.123565,10807.006753
3619.450716,-536.266849,222.061783,10140.821405
3619.451030,459.657299,666.185348,9178.553681
3619.451345,766.095498,1184.329507,8512.368333
3619.451659,1991.848295,1554.432478,8142.265362
3619.451973,1762.019645,1332.370696,7920.203579
3619.452288,1455.581446,1036.288319,8290.306550
3619.452602,612.876398,444.123565,8882.471304
3619.452917,153.219100,296.082377,9474.636058
3619.453231,-153.219100,-296.082377,10140.821405
3619.453545,-689.485948,-666.185348,10807.006753
3619.453860,-1378.971896,-814.226536,10955.047942
3619.454174,-766.095498,-444.123565,10955.047942
3619.454489,-536.266849,-148.041188,10288.862594
3619.454803,76.609550,370.102971,10066.800811
3619.455117,612.876398,814.226536,9400.615463
3619.455432,1455.581446,1480.411884,7994.224174
3619.455746,1762.019645,1850.514855,7402.059420
3619.456061,1838.629195,1184.329507,8068.244768
3619.456375,1455.581446,740.205942,8660.409521
3619.456690,612.876398,370.102971,9326.594869
3619.457004,0.000000,-148.041188,9474.636058
3619.457318,-766.095498,-296.082377,10288.862594
3619.457633,-1225.752797,-518.144159,10362.883188
3619.457947,-1608.800546,-666.185348,11103.089130
3619.458262,-1532.190996,-1110.308913,11621.233289
3619.458576,-1149.143247,-1258.350101,11103.089130
3619.458890,-536.266849,-296.082377,9918.759623
3619.459205,153.219100,518.144159,9622.677246
3619.459519,919.314598,814.226536,9104.533087
3619.459834,1608.800546,1406.391290,8216.285956
3619.460148,2221.676944,1332.370696,8512.368333
3619.460462,2068.457845,888.247130,8290.306550
3619.460777,1455.581446,666.185348,8734.430116
3619.461091,766.095498,370.102971,9178.553681
3619.461406,306.438199,-148.041188,9474.636058
3619.461720,-766.095498,-814.226536,10288.862594
3619.462035,-842.705048,-888.247130,10807.006753
3619.462349,-919.314598,-888.247130,10881.027347
3619.462663,-842.705048,-814.226536,10881.027347
3619.462978,-229.828649,-444.123565,10288.862594
3619.463292,229.828649,444.123565,9622.677246
3619.463607,919.314598,1258.350101,8882.471304
3619.463921,995.924147,1258.350101,7994.224174
3619.464235,1608.800546,1110.308913,8290.306550
3619.464550,1302.362347,888.247130,8364.327145
3619.464864,842.705048,518.144159,8808.450710
3619.465179,0.000000,370.102971,9696.697840
3619.465493,-689.485948,-0.000000,10140.821405
3619.465807,-1455.581446,-370.102971,10436.903782
3619.466122,-1838.629195,-666.185348,11103.089130
3619.466436,-2374.896044,-962.267725,11103.089130
3619.466751,-2221.676944,-814.226536,11103.089130
3619.467065,-1455.581446,-592.164754,10955.047942
3619.467379,-995.924147,-74.020594,10436.903782
3619.467694,0.000000,666.185348,9326.594869
3619.468008,383.047749,814.226536,8512.368333
3619.468323,1302.362347,962.267725,7846.182985
3619.468637,1455.581446,814.226536,7920.203579
3619.468952,1149.143247,518.144159,8882.471304
3619.469266,766.095498,-0.000000,9178.553681
3619.469580,153.219100,-444.123565,9400.615463
3619.469895,0.000000,-370.102971,9844.739029
3619.470209,-459.657299,-740.205942,10362.883188
3619.470524,-766.095498,-1110.308913,10881.027347
3619.470838,-1149.143247,-1184.329507,10881.027347
3619.471152,-229.828649,-962.267725,10066.800811
3619.471467,383.047749,-74.020594,9622.677246
3619.471781,766.095498,518.144159,8512.368333
3619.472096,1302.362347,888.247130,8068.244768
3619.472410,1532.190996,740.205942,7772.162391
3619.472724,1915.238745,666.185348,7772.162391
3619.473039,1608.800546,592.164754,8512.368333
3619.473353,1072.533697,222.061783,9326.594869
3619.473668,459.657299,-0.000000,9770.718434
3619.473982,0.000000,-74.020594,10436.903782
3619.474296,-995.924147,-370.102971,10732.986159
3619.474611,-1225.752797,-518.144159,11177.109724
3619.474925,-1225.752797,-518.144159,11399.171507
3619.475240,-612.876398,-148.041188,10955.047942
3619.475554,0.000000,296.082377,9992.780217
3619.475868,459.657299,740.205942,9474.636058
3619.476183,919.314598,1480.411884,8808.450710
3619.476497,1608.800546,1258.350101,8364.327145
3619.476812,2068.457845,1406.391290,8290.306550
3619.477126,1838.629195,1110.308913,8142.265362
3619.477441,995.924147,1110.308913,8438.347739
3619.477755,536.266849,370.102971,9104.533087
3619.478069,-229.828649,-0.000000,9918.759623
3619.478384,-689.485948,-962.267725,10510.924376
3619.478698,-766.095498,-666.185348,10732.986159
3619.479013,-766.095498,-222.061783,10732.986159
3619.479327,-766.095498,-74.020594,10881.027347
3619.479641,-536.266849,370.102971,10584.944971
3619.479956,-229.828649,592.164754,9548.656652
3619.480270,689.485948,1628.453072,9030.512492
3619.480585,1149.143247,1850.514855,8290.306550
3619.480899,1532.190996,1332.370696,8216.285956
3619.481213,1302.362347,1036.288319,8882.471304
3619.481528,919.314598,592.164754,8956.491898
3619.481842,76.609550,-148.041188,9326.594869
3619.482157,-842.705048,-148.041188,10214.842000
3619.482471,-1762.019645,-444.123565,10955.047942
3619.482785,-2145.067394,-814.226536,11103.089130
3619.483100,-2145.067394,-888.247130,11547.212695
3619.483414,-2068.457845,-740.205942,10955.047942
3619.483729,-1225.752797,-222.061783,10584.944971
3619.484043,-153.219100,222.061783,10288.862594
3619.484357,229.828649,1184.329507,9326.594869
3619.484672,1302.362347,962.267725,8364.327145
3619.484986,1762.019645,1480.411884,8068.244768
3619.485301,1685.410096,1036.288319,8438.347739
3619.485615,1378.971896,740.205942,8956.491898
3619.485929,459.657299,444.123565,8956.491898
3619.486244,0.000000,-0.000000,9696.697840
3619.486558,-383.047749,-444.123565,10066.800811
3619.486873,-995.924147,-962.267725,10732.986159
3619.487187,-1302.362347,-1036.288319,10955.047942
3619.487501,-995.924147,-1258.350101,10732.986159
3619.487816,-612.876398,-518.144159,10658.965565
3619.488130,76.609550,-0.000000,9474.636058
3619.488445,766.095498,740.205942,8808.450710
3619.488759,1378.971896,962.267725,8290.306550
3619.489074,1991.848295,1110.308913,7920.203579
3619.489388,2068.457845,1036.288319,7846.182985
3619.489702,1915.238745,-0.000000,7994.224174
3619.490017,1149.143247,-0.000000,9030.512492
3619.490331,76.609550,-444.123565,9400.615463
3619.490646,-689.485948,-814.226536,9918.759623
3619.490960,-1225.752797,-1332.370696,10658.965565
3619.491274,-1455.581446,-1184.329507,10881.027347
3619.491589,-1608.800546,-1406.391290,11103.089130
3619.491903,-1302.362347,-1036.288319,10881.027347
3619.492218,-689.485948,-814.226536,9918.759623
3619.492532,0.000000,-0.000000,9474.636058
3619.492846,995.924147,740.205942,8660.409521
3619.493161,1608.800546,814.226536,8216.285956
3619.493475,1915.238745,1036.288319,8068.244768
3619.493790,1762.019645,444.123565,8512.368333
3619.494104,1225.752797,518.144159,8438.347739
3619.494418,689.485948,222.061783,9178.553681
3619.494733,306.438199,-222.061783,9844.739029
3619.495047,153.219100,-666.185348,10436.903782
3619.495362,-612.876398,-1258.350101,10955.047942
3619.495676,-1072.533697,-1036.288319,10955.047942
3619.495990,-995.924147,-1036.288319,10288.862594
3619.496305,-229.828649,-148.041188,10658.965565
3619.496619,153.219100,592.164754,9622.677246
3619.496934,612.876398,962.267725,8364.327145
3619.497248,1302.362347,1554.432478,7994.224174
3619.497562,1455.581446,1332.370696,8364.327145
3619.497877,1532.190996,1036.288319,8660.409521
3619.498191,1149.143247,814.226536,8734.430116
3619.498506,-229.828649,444.123565,9918.759623
3619.498820,-612.876398,148.041188,10362.883188
3619.499134,-1532.190996,-0.000000,10955.047942
3619.499449,-1991.848295,-296.082377,11547.212695
3619.499763,-2145.067394,-518.144159,11177.109724
3619.500078,-1762.019645,-370.102971,11251.130318
3619.500392,-1302.362347,-0.000000,10584.944971
3619.500707,-383.047749,518.144159,10066.800811
3619.501021,0.000000,1036.288319,9252.574275
3619.501335,459.657299,1332.370696,8512.368333
3619.501650,1225.752797,1184.329507,8068.244768
3619.501964,1378.971896,1184.329507,8438.347739
3619.502279,995.924147,666.185348,8734.430116
3619.502593,306.438199,444.123565,9252.574275
3619.502907,153.219100,-0.000000,9474.636058
3619.503222,-306.438199,-222.061783,10066.800811
3619.503536,-766.095498,-666.185348,10955.047942
3619.503851,-919.314598,-962.267725,10955.047942
3619.504165,-1149.143247,-666.185348,10584.944971
3619.504479,-383.047749,-222.061783,10732.986159
3619.504794,536.266849,-0.000000,9918.759623
3619.505108,1149.143247,1036.288319,8734.430116
3619.505423,1532.190996,1480.411884,8438.347739
3619.505737,1532.190996,1036.288319,8290.306550
3619.506051,1915.238745,888.247130,8438.347739
3619.506366,1378.971896,444.123565,8734.430116
3619.506680,766.095498,296.082377,9326.594869
3619.506995,0.000000,-0.000000,9992.780217
3619.507309,-459.657299,-444.123565,10732.986159
3619.507623,-1072.533697,-666.185348,10955.047942
3619.507938,-1302.362347,-814.226536,11103.089130
3619.508252,-842.705048,-962.267725,11177.109724
3619.508567,-689.485948,-592.164754,10584.944971
3619.508881,153.219100,-74.020594,10140.821405
3619.509195,612.876398,592.164754,9474.636058
3619.509510,1225.752797,814.226536,8438.347739
3619.509824,1762.019645,1406.391290,7920.203579
3619.510139,2221.676944,1110.308913,7846.182985
3619.510453,1455.581446,888.247130,8512.368333
3619.510767,919.314598,666.185348,8734.430116
3619.511082,229.828649,222.061783,9030.512492
3619.511396,-153.219100,-666.185348,9548.656652
3619.511711,-536.266849,-1258.350101,10362.883188
3619.512025,-1072.533697,-1184.329507,10584.944971
3619.512339,-1378.971896,-1332.370696,10658.965565
3619.512654,-536.266849,-592.164754,10510.924376
3619.512968,-306.438199,-74.020594,9844.739029
3619.513283,612.876398,518.144159,9030.512492
3619.513597,1302.362347,1480.411884,8216.285956
3619.513912,1608.800546,1332.370696,7624.121203
3619.514226,1838.629195,1184.329507,7846.182985
3619.514540,1685.410096,666.185348,8586.388927
3619.514855,689.485948,-148.041188,8956.491898
3619.515169,0.000000,-0.000000,9770.718434
3619.515484,-995.924147,-296.082377,9844.739029
3619.515798,-1378.971896,-666.185348,10584.944971
3619.516112,-1455.581446,-888.247130,11473.192101
3619.516427,-1991.848295,-1184.329507,11769.274478
3619.516741,-1915.238745,-814.226536,11473.192101
3619.517056,-1378.971896,-296.082377,10732.986159
3619.517370,-459.657299,370.102971,9992.780217
3619.517684,383.047749,962.267725,9178.553681
3619.517999,766.095498,1332.370696,8660.409521
3619.518313,1302.362347,1184.329507,8364.327145
3619.518628,1225.752797,1110.308913,8512.368333
3619.518942,995.924147,962.267725,8956.491898
3619.519256,76.609550,370.102971,9326.594869
3619.519571,-612.876398,-74.020594,9844.739029
3619.519885,-842.705048,-518.144159,10584.944971
3619.520200,-1072.533697,-888.247130,11177.109724
3619.520514,-1225.752797,-888.247130,11251.130318
3619.520828,-1149.143247,-666.185348,10955.047942
3619.521143,-689.485948,-296.082377,10510.924376
3619.521457,229.828649,592.164754,9770.718434
3619.521772,766.095498,1184.329507,8586.388927
3619.522086,1302.362347,1184.329507,7846.182985
3619.522400,1532.190996,1480.411884,7402.059420
3619.522715,1378.971896,1036.288319,7994.224174
3619.523029,995.924147,740.205942,8586.388927
3619.523344,612.876398,-0.000000,9326.594869
3619.523658,-153.219100,-148.041188,9696.697840
3619.523972,-995.924147,-74.020594,10436.903782
3619.524287,-1378.971896,-814.226536,10658.965565
3619.524601,-1608.800546,-962.267725,10881.027347
3619.524916,-1302.362347,-888.247130,10881.027347
3619.525230,-919.314598,-592.164754,10881.027347
3619.525545,-229.828649,-296.082377,10066.800811
3619.525859,612.876398,814.226536,9030.512492
3619.526173,1685.410096,1184.329507,8142.265362
3619.526488,1915.238745,1332.370696,7994.224174
3619.526802,2681.334243,1332.370696,8290.306550
3619.527117,2451.505594,518.144159,8512.368333
3619.527431,1685.410096,370.102971,8808.450710
3619.527745,919.314598,-0.000000,9030.512492
3619.528060,459.657299,-74.020594,9770.718434
3619.528374,0.000000,-740.205942,10288.862594
3619.528689,-842.705048,-888.247130,11177.109724
3619.529003,-995.924147,-962.267725,10955.047942
3619.529317,-536.266849,-444.123565,10510.924376
3619.529632,0.000000,-0.000000,10214.842000
3619.529946,612.876398,814.226536,9548.656652
3619.530261,1225.752797,1258.350101,8882.471304
3619.530575,1685.410096,1406.391290,8290.306550
3619.530889,1838.629195,1036.288319,7994.224174
3619.531204,1762.019645,1036.288319,8734.430116
3619.531518,1455.581446,1184.329507,9400.615463
3619.531833,76.609550,148.041188,9696.697840
3619.532147,-612.876398,370.102971,10362.883188
3619.532461,-1225.752797,-370.102971,10436.903782
3619.532776,-1608.800546,-518.144159,11177.109724
3619.533090,-2298.286494,-888.247130,11325.150913
3619.533405,-1838.629195,-666.185348,11177.109724
3619.533719,-1455.581446,-296.082377,10658.965565
3619.534033,-459.657299,222.061783,9696.697840
3619.534348,229.828649,740.205942,8734.430116
3619.534662,1302.362347,888.247130,8216.285956
3619.534977,1838.629195,1332.370696,8438.347739
3619.535291,1455.581446,814.226536,7994.224174
3619.535605,1302.362347,814.226536,8586.388927
3619.535920,612.876398,-0.000000,9400.615463
3619.536234,153.219100,-888.247130,9992.780217
3619.536549,-689.485948,-444.123565,10510.924376
3619.536863,-766.095498,-888.247130,10658.965565
3619.537178,-842.705048,-1036.288319,11029.068536
3619.537492,-536.266849,-444.123565,11103.089130
3619.537806,-229.828649,-148.041188,10214.842000
3619.538121,153.219100,-0.000000,9474.636058
3619.538435,766.095498,666.185348,8586.388927
3619.538750,995.924147,962.267725,8364.327145
3619.539064,1532.190996,888.247130,8438.347739
3619.539378,1225.752797,666.185348,8364.327145
3619.539693,689.485948,74.020594,9030.512492
3619.540007,229.828649,-370.102971,9474.636058
3619.540322,-383.047749,-296.082377,9992.780217
3619.540636,-612.876398,-74.020594,10881.027347
3619.540950,-1532.190996,-740.205942,11103.089130
3619.541265,-1378.971896,-814.226536,11177.109724
3619.541579,-1532.190996,-888.247130,11029.068536
3619.541894,-995.924147,-518.144159,10732.986159
3619.542208,229.828649,-0.000000,10140.821405
3619.542522,459.657299,592.164754,9400.615463
3619.542837,1072.533697,1110.308913,8438.347739
3619.543151,1762.019645,1036.288319,7772.162391
3619.543466,2068.457845,1036.288319,8068.244768
3619.543780,1608.800546,222.061783,8216.285956
3619.544094,766.095498,444.123565,8734.430116
3619.544409,306.438199,-0.000000,8734.430116
3619.544723,0.000000,-444.123565,9770.718434
3619.545038,-229.828649,-370.102971,10362.883188
3619.545352,-842.705048,-666.185348,10658.965565
3619.545666,-919.314598,-1036.288319,10807.006753
3619.545981,-383.047749,-888.247130,10288.862594
3619.546295,229.828649,-74.020594,9992.780217
3619.546610,1455.581446,962.267725,9030.512492
3619.546924,1225.752797,1184.329507,8438.347739
3619.547238,1608.800546,1332.370696,8216.285956
3619.547553,1838.629195,1406.391290,7772.162391
3619.547867,1455.581446,888.247130,8512.368333
3619.548182,1149.143247,666.185348,9326.594869
3619.548496,-306.438199,-0.000000,9918.759623
3619.548811,-919.314598,-444.123565,9844.739029
3619.549125,-1302.362347,-444.123565,10584.944971
3619.549439,-1685.410096,-740.205942,11843.295072
3619.549754,-1762.019645,-740.205942,11769.274478
3619.550068,-1378.971896,-666.185348,11769.274478
3619.550383,-995.924147,-74.020594,10732.986159
3619.550697,-383.047749,740.205942,9844.739029
3619.551011,612.876398,1110.308913,9326.594869
3619.551326,919.314598,1406.391290,8808.450710
3619.551640,1685.410096,1480.411884,8808.450710
3619.551955,1455.581446,1110.308913,8660.409521
3619.552269,1072.533697,592.164754,8808.450710
3619.552583,459.657299,444.123565,9622.677246
3619.552898,0.000000,-0.000000,9918.759623
3619.553212,-383.047749,-444.123565,10584.944971
3619.553527,-1225.752797,-814.226536,10732.986159
3619.553841,-1225.752797,-740.205942,10881.027347
3619.554155,-919.314598,-666.185348,10584.944971
3619.554470,-383.047749,-148.041188,10288.862594
3619.554784,76.609550,296.082377,9770.718434
3619.555099,612.876398,814.226536,8290.306550
3619.555413,1072.533697,1554.432478,8364.327145
3619.555727,1225.752797,1110.308913,7846.182985
3619.556042,1455.581446,1036.288319,7846.182985
3619.556356,1225.752797,592.164754,8660.409521
3619.556671,306.438199,-0.000000,8956.491898
3619.556985,-306.438199,-74.020594,9918.759623
3619.557299,-1225.752797,-296.082377,10140.821405
3619.557614,-1608.800546,-888.247130,10732.986159
3619.557928,-1762.019645,-962.267725,11177.109724
3619.558243,-1685.410096,-888.247130,10732.986159
3619.558557,-842.705048,-592.164754,10584.944971
3619.558871,-459.657299,-296.082377,9770.718434
3619.559186,76.609550,740.205942,9400.615463
3619.559500,919.314598,1036.288319,7994.224174
3619.559815,1455.581446,1406.391290,7550.100608
3619.560129,2451.505594,1184.329507,8142.265362
3619.560444,1991.848295,592.164754,8734.430116
3619.560758,1302.362347,222.061783,8956.491898
3619.561072,612.876398,-222.061783,9252.574275
3619.561387,0.000000,-518.144159,9696.697840
3619.561701,0.000000,-518.144159,10658.965565
3619.562016,-306.438199,-814.226536,11103.089130
3619.562330,-766.095498,-814.226536,10955.047942
3619.562644,-612.876398,-444.123565,10510.924376
3619.562959,153.219100,-0.000000,9844.739029
3619.563273,1532.190996,962.267725,9326.594869
3619.563588,1302.362347,1110.308913,8512.368333
3619.563902,1762.019645,1110.308913,8068.244768
3619.564216,1762.019645,1036.288319,8142.265362
3619.564531,1302.362347,740.205942,8512.368333
3619.564845,842.705048,222.061783,8586.388927
3619.565160,0.000000,-0.000000,9622.677246
3619.565474,-612.876398,-0.000000,10436.903782
3619.565788,-1455.581446,-370.102971,10955.047942
3619.566103,-1838.629195,-666.185348,11251.130318
3619.566417,-1915.238745,-888.247130,11621.233289
3619.566732,-1685.410096,-888.247130,11103.089130
3619.567046,-1149.143247,-74.020594,10510.924376
3619.567360,-306.438199,518.144159,9918.759623
3619.567675,536.266849,1110.308913,9178.553681
3619.567989,1455.581446,962.267725,8290.306550
3619.568304,1302.362347,1258.350101,8142.265362
3619.568618,1378.971896,888.247130,8734.430116
3619.568932,1072.533697,740.205942,8512.368333
3619.569247,612.876398,296.082377,9104.533087
3619.569561,76.609550,-148.041188,9622.677246
3619.569876,-383.047749,-592.164754,10362.883188
3619.570190,-1072.533697,-592.164754,10807.006753
3619.570504,-1378.971896,-666.185348,10658.965565
3619.570819,-842.705048,-666.185348,11177.109724
3619.571133,-842.705048,-296.082377,10362.883188
3619.571448,229.828649,518.144159,9918.759623
3619.571762,689.485948,1110.308913,8512.368333
3619.572077,1302.362347,1036.288319,8142.265362
3619.572391,1838.629195,666.185348,8142.265362
3619.572709,1455.581446,814.226536,8512.368333
3619.573024,842.705048,370.102971,9030.512492
3619.573338,0.000000,-0.000000,9474.636058
3619.573652,-766.095498,-222.061783,9770.718434
3619.573967,-995.924147,-518.144159,10436.903782
3619.574281,-1838.629195,-666.185348,11399.171507
3619.574595,-1915.238745,-888.247130,11029.068536
3619.574910,-1608.800546,-1184.329507,11325.150913
3619.575224,-766.095498,-444.123565,10807.006753
3619.575538,76.609550,-74.020594,9622.677246
3619.575853,536.266849,666.185348,8734.430116
3619.576167,1225.752797,1110.308913,8364.327145
3619.576481,1685.410096,1184.329507,7994.224174
3619.576796,2145.067394,962.267725,8438.347739
3619.577110,1455.581446,740.205942,8660.409521
3619.577424,766.095498,296.082377,8882.471304
3619.577738,536.266849,-0.000000,9474.636058
3619.578053,0.000000,-518.144159,9992.780217
3619.578367,-459.657299,-962.267725,10807.006753
3619.578681,-689.485948,-962.267725,11029.068536
3619.578996,-842.705048,-666.185348,10214.842000
3619.579310,0.000000,-296.082377,9844.739029
3619.579624,459.657299,444.123565,9474.636058
3619.579939,766.095498,814.226536,8734.430116
3619.580253,1608.800546,1332.370696,7920.203579
3619.580567,2221.676944,1850.514855,7994.224174
3619.580882,1915.238745,1184.329507,8142.265362
3619.581196,1149.143247,814.226536,8586.388927
3619.581510,612.876398,296.082377,9178.553681
3619.581825,0.000000,-148.041188,9696.697840
3619.582139,-766.095498,-148.041188,10807.006753
3619.582453,-1378.971896,-370.102971,10955.047942
3619.582768,-1838.629195,-666.185348,11325.150913
3619.583082,-1685.410096,-740.205942,11473.192101
3619.583396,-1225.752797,-222.061783,11399.171507
3619.583711,-919.314598,-148.041188,11029.068536
3619.584025,0.000000,888.247130,9918.759623
3619.584339,766.095498,1406.391290,8882.471304
3619.584653,1378.971896,1258.350101,8290.306550
3619.584968,1685.410096,1554.432478,8586.388927
3619.585282,1455.581446,1036.288319,8808.450710
3619.585596,995.924147,444.123565,8956.491898
3619.585911,459.657299,-148.041188,9770.718434
3619.586225,-536.266849,-518.144159,9548.656652
3619.586539,-1072.533697,-814.226536,10584.944971
3619.586854,-1378.971896,-1258.350101,11029.068536
3619.587168,-1532.190996,-1258.350101,11177.109724
3619.587482,-842.705048,-1036.288319,10881.027347
3619.587797,-459.657299,-74.020594,10140.821405
3619.588111,229.828649,296.082377,9696.697840
3619.588425,612.876398,1110.308913,8734.430116
3619.588740,1532.190996,1258.350101,8068.244768
3619.589054,1838.629195,740.205942,7624.121203
3619.589368,1378.971896,740.205942,8142.265362
3619.589683,1072.533697,444.123565,8660.409521
3619.589997,306.438199,-0.000000,9104.533087
3619.590311,-459.657299,-74.020594,9622.677246
3619.590625,-1225.752797,-444.123565,10362.883188
3619.590940,-1532.190996,-814.226536,10510.924376
3619.591254,-1608.800546,-888.247130,11029.068536
3619.591568,-1378.971896,-1110.308913,10881.027347
3619.591883,-919.314598,-592.164754,10436.903782
3619.592197,-612.876398,-0.000000,9770.718434
3619.592511,306.438199,592.164754,9030.512492
3619.592826,1149.143247,1110.308913,8512.368333
3619.593140,2068.457845,1258.350101,7846.182985
3619.593454,2145.067394,814.226536,8216.285956
3619.593769,1685.410096,888.247130,8808.450710
3619.594083,995.924147,592.164754,8882.471304
3619.594397,536.266849,-0.000000,9474.636058
3619.594712,0.000000,-444.123565,10288.862594
3619.595026,-612.876398,-592.164754,10658.965565
3619.595340,-612.876398,-814.226536,10732.986159
3619.595655,-612.876398,-888.247130,11103.089130
3619.595969,-689.485948,-740.205942,10955.047942
3619.596283,76.609550,-296.082377,10066.800811
3619.596598,689.485948,518.144159,9104.533087
3619.596912,1455.581446,814.226536,8438.347739
3619.597226,1685.410096,962.267725,8216.285956
3619.597540,1685.410096,740.205942,7994.224174
3619.597855,1532.190996,444.123565,8364.327145
3619.598169,766.095498,370.102971,9400.615463
3619.598483,0.000000,-0.000000,9622.677246
3619.598798,-612.876398,-0.000000,10362.883188
3619.599112,-1072.533697,-666.185348,10955.047942
3619.599426,-1378.971896,-962.267725,11251.130318
3619.599741,-1225.752797,-1406.391290,11325.150913
3619.600055,-1608.800546,-814.226536,11029.068536
3619.600369,-842.705048,-0.000000,10732.986159
3619.600684,-306.438199,444.123565,9474.636058
3619.600998,459.657299,1036.288319,8586.388927
3619.601312,919.314598,1258.350101,8068.244768
3619.601627,1225.752797,1332.370696,8068.244768
3619.601941,1532.190996,962.267725,8364.327145
3619.602255,919.314598,518.144159,8882.471304
3619.602570,766.095498,-0.000000,9178.553681
3619.602884,0.000000,-148.041188,9474.636058
3619.603198,-536.266849,-444.123565,10066.800811
3619.603513,-766.095498,-740.205942,10955.047942
3619.603827,-995.924147,-370.102971,10807.006753
3619.604141,-842.705048,-74.020594,10510.924376
3619.604455,-229.828649,-0.000000,9992.780217
3619.604770,229.828649,814.226536,9474.636058
3619.605084,536.266849,1184.329507,8290.306550
3619.605398,1072.533697,1554.432478,8290.306550
3619.605713,1838.629195,1258.350101,8512.368333
3619.606027,1302.362347,1258.350101,7772.162391
3619.606341,919.314598,592.164754,8808.450710
3619.606656,306.438199,222.061783,9548.656652
3619.606970,-766.095498,-74.020594,9992.780217
3619.607284,-919.314598,-444.123565,10584.944971
3619.607599,-1302.362347,-592.164754,11177.109724
3619.607913,-1532.190996,-888.247130,11769.274478
3619.608227,-1455.581446,-592.164754,10807.006753
3619.608542,-919.314598,-148.041188,10066.800811
3619.608856,-459.657299,296.082377,9992.780217
3619.609170,612.876398,888.247130,8882.471304
3619.609485,1225.752797,962.267725,8290.306550
3619.609799,1838.629195,1184.329507,8142.265362
3619.610113,2068.457845,814.226536,8586.388927
3619.610428,1455.581446,592.164754,8586.388927
3619.610742,919.314598,518.144159,8882.471304
3619.611056,383.047749,-74.020594,9844.739029
3619.611370,-306.438199,-592.164754,10214.842000
3619.611685,0.000000,-1332.370696,10732.986159
3619.611999,-1302.362347,-1110.308913,10584.944971
3619.612313,-306.438199,-666.185348,10881.027347
3619.612628,0.000000,-148.041188,10510.924376
3619.612942,76.609550,444.123565,9918.759623
3619.613256,842.705048,888.247130,9104.533087
3619.613571,1532.190996,1480.411884,8216.285956
3619.613885,1838.629195,1258.350101,7994.224174
3619.614199,1838.629195,888.247130,8290.306550
3619.614514,1378.971896,814.226536,9030.512492
3619.614828,306.438199,148.041188,9252.574275
3619.615142,-306.438199,-0.000000,9622.677246
3619.615457,-689.485948,-74.020594,10658.965565
3619.615771,-1532.190996,-518.144159,11029.068536
3619.616085,-1838.629195,-814.226536,11103.089130
3619.616400,-1915.238745,-888.247130,11621.233289
3619.616714,-1302.362347,-370.102971,10955.047942
3619.617028,-689.485948,-0.000000,10066.800811
3619.617343,0.000000,814.226536,9400.615463
3619.617657,995.924147,1332.370696,8660.409521
3619.617971,1455.581446,1184.329507,7920.203579
3619.618285,1915.238745,1036.288319,7698.141797
3619.618600,1455.581446,518.144159,8734.430116
3619.618914,842.705048,444.123565,8956.491898
3619.619228,306.438199,-0.000000,8808.450710
3619.619543,-536.266849,-814.226536,9918.759623
3619.619857,-1072.533697,-888.247130,10584.944971
3619.620171,-1225.752797,-1110.308913,10955.047942
3619.620486,-1455.581446,-1036.288319,10658.965565
3619.620800,-1302.362347,-666.185348,10807.006753
3619.621114,-306.438199,-444.123565,10140.821405
3619.621429,229.828649,592.164754,9252.574275
3619.621743,919.314598,666.185348,8512.368333
3619.622057,1302.362347,814.226536,7920.203579
3619.622372,2145.067394,740.205942,7772.162391
3619.622686,1302.362347,592.164754,8216.285956
3619.623000,919.314598,370.102971,8882.471304
3619.623315,0.000000,-222.061783,9770.718434
3619.623629,-536.266849,-222.061783,10214.842000
3619.623943,-995.924147,-888.247130,10732.986159
3619.624258,-1455.581446,-814.226536,10955.047942
3619.624572,-1302.362347,-888.247130,10955.047942
3619.624886,-1225.752797,-1036.288319,11177.109724
3619.625200,-919.314598,-518.144159,10732.986159
3619.625515,153.219100,444.123565,9770.718434
3619.625829,612.876398,888.247130,8438.347739
3619.626143,1149.143247,1110.308913,7994.224174
3619.626458,1532.190996,1184.329507,7994.224174
3619.626772,1762.019645,1184.329507,8290.306550
3619.627086,1532.190996,518.144159,8438.347739
3619.627401,689.485948,666.185348,9178.553681
3619.627715,229.828649,148.041188,9770.718434
3619.628029,-306.438199,-370.102971,10288.862594
3619.628344,-689.485948,-444.123565,10955.047942
3619.628658,-995.924147,-666.185348,11103.089130
3619.628972,-536.266849,-592.164754,10658.965565
3619.629287,0.000000,-296.082377,10436.903782
3619.629601,459.657299,518.144159,10066.800811
3619.629915,459.657299,1258.350101,9178.553681
3619.630230,1225.752797,1406.391290,7698.141797
3619.630544,1762.019645,1332.370696,8068.244768
3619.630858,1685.410096,814.226536,8586.388927
3619.631172,1455.581446,888.247130,8882.471304
3619.631487,689.485948,444.123565,9326.594869
3619.631801,0.000000,-0.000000,9770.718434
3619.632115,-766.095498,-0.000000,10362.883188
3619.632430,-1225.752797,-296.082377,11251.130318
3619.632744,-1838.629195,-592.164754,11621.233289
3619.633058,-1685.410096,-962.267725,11399.171507
3619.633373,-1149.143247,-148.041188,10955.047942
3619.633687,-383.047749,-0.000000,10584.944971
3619.634001,76.609550,518.144159,9622.677246
3619.634316,1302.362347,1184.329507,9178.553681
3619.634630,1225.752797,1184.329507,8364.327145
3619.634944,1685.410096,1406.391290,8290.306550
3619.635259,1455.581446,962.267725,8512.368333
3619.635573,1378.971896,444.123565,8586.388927
3619.635887,229.828649,222.061783,9474.636058
3619.636202,-459.657299,-74.020594,10140.821405
3619.636516,-383.047749,-518.144159,10436.903782
3619.636830,-1149.143247,-962.267725,10807.006753
3619.637145,-1149.143247,-1036.288319,10807.006753
3619.637459,-536.266849,-592.164754,10881.027347
3619.637773,-153.219100,-0.000000,9770.718434
3619.638087,459.657299,148.041188,9178.553681
3619.638402,995.924147,962.267725,8660.409521
3619.638716,1072.533697,1110.308913,8142.265362
3619.639030,1302.362347,1036.288319,7920.203579
3619.639345,842.705048,444.123565,8512.368333
3619.639659,306.438199,-0.000000,8882.471304
3619.639973,0.000000,-296.082377,9474.636058
3619.640288,-306.438199,-444.123565,10436.903782
3619.640602,-1302.362347,-444.123565,10658.965565
3619.640916,-1762.019645,-1036.288319,10362.883188
3619.641231,-1762.019645,-1036.288319,10807.006753
3619.641545,-1378.971896,-814.226536,10732.986159
3619.641859,-689.485948,-296.082377,10140.821405
3619.642174,229.828649,-0.000000,9326.594869
3619.642488,536.266849,888.247130,8586.388927
3619.642802,1072.533697,962.267725,8290.306550
3619.643117,1838.629195,814.226536,8142.265362
3619.643431,2374.896044,-148.041188,8290.306550
3619.643745,1225.752797,222.061783,8512.368333
3619.644060,459.657299,148.041188,9178.553681
3619.644374,153.219100,-74.020594,9548.656652
3619.644688,-306.438199,-518.144159,10362.883188
3619.645002,-459.657299,-740.205942,10881.027347
3619.645317,-919.314598,-1110.308913,10732.986159
3619.645631,-536.266849,-814.226536,10807.006753
3619.645945,0.000000,-74.020594,10955.047942
3619.646260,766.095498,814.226536,9696.697840
3619.646574,919.314598,1332.370696,8882.471304
3619.646888,1455.581446,1110.308913,8512.368333
3619.647203,1608.800546,1184.329507,8216.285956
3619.647517,1915.238745,1110.308913,8142.265362
3619.647831,1072.533697,444.123565,8660.409521
3619.648146,459.657299,222.061783,9548.656652
3619.648460,-229.828649,-0.000000,9696.697840
3619.648774,-919.314598,-518.144159,10436.903782
3619.649089,-1455.581446,-666.185348,11399.171507
3619.649403,-1915.238745,-666.185348,11547.212695
3619.649717,-1915.238745,-814.226536,11547.212695
3619.650032,-1302.362347,-296.082377,11103.089130
3619.650346,-459.657299,-0.000000,10214.842000
3619.650660,306.438199,592.164754,9030.512492
3619.650975,1225.752797,1110.308913,8438.347739
3619.651289,1302.362347,1702.473667,8216.285956
3619.651603,1762.019645,888.247130,7994.224174
3619.651917,1532.190996,962.267725,8364.327145
3619.652232,1072.533697,518.144159,8808.450710
3619.652546,383.047749,-148.041188,9030.512492
3619.652860,-536.266849,-666.185348,10066.800811
3619.653175,-1072.533697,-888.247130,10732.986159
3619.653489,-1149.143247,-814.226536,11103.089130
3619.653803,-1302.362347,-1110.308913,10955.047942
3619.654118,-689.485948,-1036.288319,10807.006753
3619.654432,-153.219100,-148.041188,10140.821405
3619.654746,536.266849,592.164754,9030.512492
3619.655061,1455.581446,1184.329507,7846.182985
3619.655375,2145.067394,1406.391290,8216.285956
3619.655689,2068.457845,1110.308913,8068.244768
3619.656004,1762.019645,962.267725,8216.285956
3619.656318,1149.143247,518.144159,8660.409521
3619.656632,0.000000,222.061783,9770.718434
3619.656947,-459.657299,-0.000000,10362.883188
3619.657261,-1532.190996,-370.102971,10881.027347
3619.657575,-1915.238745,-814.226536,11325.150913
3619.657890,-1991.848295,-1036.288319,11177.109724
3619.658204,-1455.581446,-296.082377,10955.047942
3619.658518,-1072.533697,-0.000000,10436.903782
3619.658832,153.219100,592.164754,10066.800811
3619.659147,536.266849,1258.350101,8438.347739
3619.659461,1378.971896,1406.391290,7698.141797
3619.659775,1915.238745,1480.411884,8216.285956
3619.660090,2068.457845,666.185348,8364.327145
3619.660404,1225.752797,814.226536,8660.409521
3619.660718,229.828649,370.102971,9030.512492
3619.661033,0.000000,-296.082377,9696.697840
3619.661347,-306.438199,-814.226536,10214.842000
3619.661661,-1378.971896,-1258.350101,11103.089130
3619.661976,-1378.971896,-1036.288319,11177.109724
3619.662290,-1149.143247,-962.267725,11029.068536
3619.662604,-306.438199,-74.020594,10214.842000
3619.662919,0.000000,592.164754,9474.636058
3619.663233,1378.971896,1258.350101,8808.450710
3619.663547,1838.629195,1480.411884,8068.244768
3619.663862,2221.676944,1184.329507,7920.203579
3619.664176,1991.848295,814.226536,8290.306550
3619.664490,1685.410096,-74.020594,9030.512492
3619.664804,689.485948,-74.020594,9252.574275
3619.665119,-306.438199,-222.061783,9622.677246
3619.665433,-766.095498,-370.102971,10658.965565
3619.665747,-1378.971896,-740.205942,11325.150913
3619.666062,-1762.019645,-1110.308913,11325.150913
3619.666376,-1608.800546,-888.247130,11473.192101
3619.666690,-1072.533697,-444.123565,10584.944971
3619.667005,-306.438199,-0.000000,9770.718434
3619.667319,229.828649,888.247130,9548.656652
3619.667633,1149.143247,1184.329507,8438.347739
3619.667948,1838.629195,1332.370696,8364.327145
3619.668262,1991.848295,1110.308913,7994.224174
3619.668576,1455.581446,888.247130,8808.450710
3619.668891,995.924147,592.164754,8734.430116
3619.669205,0.000000,-0.000000,9622.677246
3619.669519,-153.219100,-518.144159,10658.965565
3619.669834,-766.095498,-666.185348,10658.965565
3619.670148,-1302.362347,-1184.329507,10584.944971
3619.670462,-1149.143247,-1110.308913,10510.924376
3619.670777,-919.314598,-592.164754,10658.965565
3619.671091,-229.828649,-0.000000,9918.759623
3619.671405,306.438199,740.205942,8734.430116
3619.671719,766.095498,1036.288319,7994.224174
3619.672034,1915.238745,1184.329507,7698.141797
3619.672348,1762.019645,1332.370696,7846.182985
3619.672662,1149.143247,592.164754,8512.368333
3619.672977,383.047749,-0.000000,8808.450710
3619.673291,-153.219100,-0.000000,9770.718434
3619.673605,-995.924147,-222.061783,10066.800811
3619.673920,-1378.971896,-740.205942,10732.986159
3619.674234,-1685.410096,-814.226536,11029.068536
3619.674548,-1915.238745,-1036.288319,10955.047942
3619.674863,-1225.752797,-888.247130,10955.047942
3619.675177,0.000000,-148.041188,10066.800811
3619.675491,153.219100,444.123565,9622.677246
3619.675805,459.657299,1110.308913,8734.430116
3619.676120,1149.143247,888.247130,8142.265362
3619.676434,1608.800546,1110.308913,8142.265362
3619.676748,1762.019645,740.205942,8512.368333
3619.677063,1302.362347,518.144159,8808.450710
3619.677377,383.047749,222.061783,9030.512492
3619.677691,0.000000,-0.000000,9622.677246
3619.678006,-459.657299,-666.185348,10584.944971
3619.678320,-842.705048,-1110.308913,10881.027347
3619.678634,-766.095498,-814.226536,11177.109724
3619.678948,-842.705048,-518.144159,10658.965565
3619.679263,0.000000,-222.061783,10288.862594
3619.679577,536.266849,740.205942,9548.656652
3619.679891,1225.752797,1184.329507,8882.471304
3619.680206,1608.800546,1554.432478,8660.409521
3619.680520,1762.019645,1406.391290,7994.224174
3619.680834,1838.629195,1110.308913,8290.306550
3619.681148,1225.752797,592.164754,8956.491898
3619.681463,229.828649,-0.000000,9178.553681
3619.681777,-689.485948,-0.000000,10214.842000
3619.682091,-1149.143247,-148.041188,10658.965565
3619.682406,-1532.190996,-740.205942,10807.006753
3619.682720,-1608.800546,-888.247130,11029.068536
3619.683034,-1608.800546,-962.267725,11325.150913
3619.683349,-1149.143247,-444.123565,10955.047942
3619.683663,-229.828649,148.041188,9992.780217
3619.683977,229.828649,1036.288319,9326.594869
3619.684291,1225.752797,1480.411884,8142.265362
3619.684606,2145.067394,888.247130,8068.244768
3619.684920,2221.676944,1184.329507,8290.306550
3619.685234,1532.190996,962.267725,8586.388927
3619.685549,995.924147,222.061783,9030.512492
3619.685863,-229.828649,-0.000000,9400.615463
3619.686177,-306.438199,-592.164754,10066.800811
3619.686492,-612.876398,-1036.288319,10955.047942
3619.686806,-1072.533697,-1184.329507,11029.068536
3619.687120,-1225.752797,-1184.329507,10955.047942
3619.687434,-459.657299,-444.123565,10807.006753
3619.687749,0.000000,444.123565,9992.780217
3619.688063,766.095498,1110.308913,9104.533087
3619.688377,1608.800546,1554.432478,8216.285956
3619.688692,2068.457845,1480.411884,7994.224174
3619.689006,2911.162892,1406.391290,8216.285956
3619.689320,1685.410096,962.267725,8734.430116
3619.689634,842.705048,518.144159,9030.512492
3619.689949,0.000000,-74.020594,9770.718434
3619.690263,-919.314598,-222.061783,10436.903782
3619.690577,-1532.190996,-592.164754,11399.171507
3619.690892,-2068.457845,-962.267725,11547.212695
3619.691206,-1915.238745,-1036.288319,11325.150913
3619.691520,-1838.629195,-444.123565,11177.109724
3619.691835,-842.705048,-0.000000,10214.842000
3619.692149,229.828649,296.082377,9474.636058
3619.692463,612.876398,1184.329507,8364.327145
3619.692777,1302.362347,1480.411884,7846.182985
3619.693092,1991.848295,1480.411884,7772.162391
3619.693406,1915.238745,1110.308913,8068.244768
3619.693720,919.314598,888.247130,8734.430116
3619.694035,153.219100,-0.000000,9030.512492
3619.694349,0.000000,-222.061783,9770.718434
3619.694663,-995.924147,-666.185348,10436.903782
3619.694978,-1532.190996,-888.247130,11029.068536
3619.695292,-1685.410096,-1036.288319,10955.047942
3619.695606,-1149.143247,-962.267725,10658.965565
3619.695920,-306.438199,-296.082377,10436.903782
3619.696235,383.047749,296.082377,9696.697840
3619.696549,1302.362347,1184.329507,8438.347739
3619.696863,1915.238745,1406.391290,8216.285956
3619.697178,2374.896044,1184.329507,7476.080014
3619.697492,2145.067394,814.226536,7920.203579
3619.697806,1378.971896,222.061783,8586.388927
3619.698120,459.657299,148.041188,9400.615463
3619.698435,0.000000,-148.041188,10288.862594
3619.698749,-1149.143247,-592.164754,10658.965565
3619.699063,-1762.019645,-888.247130,11251.130318
3619.699378,-2068.457845,-1036.288319,11251.130318
3619.699692,-1685.410096,-1184.329507,11547.212695
3619.700006,-1302.362347,-518.144159,11399.171507
3619.700321,-459.657299,-0.000000,10436.903782
3619.700635,383.047749,888.247130,9252.574275
3619.700949,1149.143247,1554.432478,8512.368333
3619.701263,2374.896044,1332.370696,8586.388927
3619.701578,2068.457845,1332.370696,8216.285956
3619.701892,1532.190996,1184.329507,8438.347739
3619.702206,766.095498,666.185348,8660.409521
3619.702521,229.828649,148.041188,9474.636058
3619.702835,-153.219100,-518.144159,10214.842000
3619.703149,-995.924147,-666.185348,10807.006753
3619.703464,-995.924147,-888.247130,10881.027347
3619.703778,-1225.752797,-888.247130,10881.027347
3619.704092,-612.876398,-592.164754,10288.862594
3619.704406,229.828649,-0.000000,9918.759623
3619.704721,842.705048,814.226536,8734.430116
3619.705035,1532.190996,1406.391290,7772.162391
3619.705349,2145.067394,1554.432478,7476.080014
3619.705664,2604.724693,1406.391290,7994.224174
3619.705978,1532.190996,592.164754,8586.388927
3619.706292,842.705048,-0.000000,8808.450710
3619.706606,0.000000,-0.000000,9696.697840
3619.706921,-1149.143247,-444.123565,10436.903782
3619.707235,-1685.410096,-666.185348,10955.047942
3619.707549,-1915.238745,-1110.308913,11251.130318
3619.707864,-1915.238745,-1110.308913,11103.089130
3619.708178,-1532.190996,-666.185348,10955.047942
3619.708492,-459.657299,-74.020594,10436.903782
3619.708807,-153.219100,148.041188,9252.574275
3619.709121,1072.533697,962.267725,8660.409521
3619.709435,1455.581446,1184.329507,8290.306550
3619.709749,1838.629195,1184.329507,8586.388927
