#time,accel_x,accel_y,accel_z
3588.726741,2145.067394,2368.659014,9474.636058
3588.727055,2221.676944,2146.597232,9252.574275
3588.727369,1915.238745,1850.514855,9326.594869
3588.727684,1225.752797,1406.391290,8734.430116
3588.727998,1072.533697,888.247130,8586.388927
3588.728313,612.876398,296.082377,9252.574275
3588.728627,306.438199,-444.123565,9400.615463
3588.728941,0.000000,-814.226536,9474.636058
3588.729256,0.000000,-962.267725,9474.636058
3588.729570,-459.657299,-740.205942,9548.656652
3588.729884,-306.438199,-592.164754,9548.656652
3588.730199,-306.438199,-296.082377,9474.636058
3588.730513,0.000000,-0.000000,9104.533087
3588.730827,76.609550,-0.000000,8512.368333
3588.731142,153.219100,296.082377,8290.306550
3588.731456,766.095498,740.205942,8660.409521
3588.731770,0.000000,222.061783,9326.594869
3588.732085,-153.219100,-444.123565,9400.615463
3588.732399,-766.095498,-444.123565,9474.636058
3588.732713,-612.876398,-888.247130,9622.677246
3588.733028,-689.485948,-1702.473667,10066.800811
3588.733342,-766.095498,-1554.432478,10584.944971
3588.733656,-1149.143247,-1406.391290,10510.924376
3588.733971,-995.924147,-1184.329507,9844.739029
3588.734285,-995.924147,-1036.288319,9622.677246
3588.734599,-459.657299,-518.144159,9400.615463
3588.734914,153.219100,-666.185348,9030.512492
3588.735228,612.876398,-518.144159,9104.533087
3588.735542,689.485948,-814.226536,9030.512492
3588.735857,1149.143247,-592.164754,9400.615463
3588.736171,1072.533697,-962.267725,9252.574275
3588.736485,1072.533697,-814.226536,9326.594869
3588.736800,995.924147,-666.185348,9622.677246
3588.737114,689.485948,-666.185348,9474.636058
3588.737428,995.924147,-666.185348,9326.594869
3588.737743,995.924147,-296.082377,9030.512492
3588.738057,766.095498,-740.205942,9326.594869
3588.738371,689.485948,-518.144159,8882.471304
3588.738686,612.876398,-148.041188,8586.388927
3588.739000,459.657299,-148.041188,9104.533087
3588.739314,383.047749,-148.041188,9474.636058
3588.739629,383.047749,-74.020594,9178.553681
3588.739943,383.047749,-0.000000,9178.553681
3588.740257,689.485948,370.102971,9252.574275
3588.740572,383.047749,740.205942,9326.594869
3588.740886,459.657299,888.247130,9622.677246
3588.741200,536.266849,888.247130,9326.594869
3588.741515,0.000000,1258.350101,9474.636058
3588.741829,0.000000,1184.329507,9474.636058
3588.742143,0.000000,962.267725,9622.677246
3588.742458,76.609550,1332.370696,9918.759623
3588.742772,-76.609550,1258.350101,10214.842000
3588.743086,0.000000,1406.391290,9992.780217
3588.743401,229.828649,1110.308913,9770.718434
3588.743715,306.438199,962.267725,9844.739029
3588.744029,153.219100,962.267725,9770.718434
3588.744344,306.438199,814.226536,9918.759623
3588.744658,153.219100,888.247130,9696.697840
3588.744972,383.047749,962.267725,10066.800811
3588.745287,229.828649,1406.391290,10362.883188
3588.745601,459.657299,1184.329507,9992.780217
3588.745915,153.219100,666.185348,10066.800811
3588.746230,612.876398,1110.308913,10584.944971
3588.746544,459.657299,888.247130,10584.944971
3588.746858,612.876398,1258.350101,10584.944971
3588.747173,0.000000,814.226536,10214.842000
3588.747487,76.609550,592.164754,10510.924376
3588.747801,0.000000,296.082377,10362.883188
3588.748116,0.000000,370.102971,10066.800811
3588.748430,-383.047749,296.082377,10584.944971
3588.748744,-229.828649,148.041188,10436.903782
3588.749059,-383.047749,148.041188,10140.821405
3588.749373,0.000000,370.102971,9770.718434
3588.749687,0.000000,-0.000000,9992.780217
3588.750002,-229.828649,-0.000000,10288.862594
3588.750316,0.000000,-0.000000,10214.842000
3588.750630,0.000000,-0.000000,9622.677246
3588.750945,-153.219100,-0.000000,9770.718434
3588.751259,0.000000,-0.000000,9548.656652
3588.751573,459.657299,-148.041188,9844.739029
3588.751888,383.047749,-148.041188,9326.594869
3588.752202,306.438199,-0.000000,9030.512492
3588.752516,459.657299,-0.000000,8956.491898
3588.752831,383.047749,-148.041188,8734.430116
3588.753145,76.609550,-296.082377,8956.491898
3588.753459,306.438199,-296.082377,9030.512492
3588.753774,76.609550,-222.061783,8808.450710
3588.754088,153.219100,-370.102971,8808.450710
3588.754402,383.047749,-740.205942,8734.430116
3588.754717,153.219100,-592.164754,8956.491898
3588.755031,306.438199,-444.123565,8734.430116
3588.755345,153.219100,-148.041188,8512.368333
3588.755660,0.000000,-222.061783,9030.512492
3588.755974,229.828649,-296.082377,9474.636058
3588.756288,76.609550,-518.144159,9252.574275
3588.756603,0.000000,-444.123565,9400.615463
3588.756917,0.000000,-518.144159,9104.533087
3588.757231,0.000000,-666.185348,9400.615463
3588.757546,0.000000,-666.185348,9548.656652
3588.757860,-383.047749,-814.226536,9400.615463
3588.758174,-306.438199,-740.205942,9474.636058
3588.758489,0.000000,-444.123565,9474.636058
3588.758803,-459.657299,-888.247130,9622.677246
3588.759117,229.828649,-592.164754,9992.780217
3588.759432,0.000000,-592.164754,9696.697840
3588.759746,0.000000,-370.102971,9918.759623
3588.760060,0.000000,-666.185348,10288.862594
3588.760375,0.000000,-296.082377,9696.697840
3588.760689,229.828649,-518.144159,9770.718434
3588.761003,306.438199,-0.000000,9992.780217
3588.761318,76.609550,-148.041188,9770.718434
3588.761632,0.000000,-0.000000,9770.718434
3588.761946,0.000000,222.061783,9918.759623
3588.762261,76.609550,-0.000000,9918.759623
3588.762575,0.000000,370.102971,9770.718434
3588.762889,0.000000,148.041188,9696.697840
3588.763204,-229.828649,444.123565,9696.697840
3588.763518,0.000000,444.123565,9844.739029
3588.763832,0.000000,814.226536,9770.718434
3588.764147,76.609550,740.205942,9474.636058
3588.764461,-76.609550,888.247130,9474.636058
3588.764775,0.000000,740.205942,9548.656652
3588.765090,76.609550,740.205942,9622.677246
3588.765404,76.609550,814.226536,9622.677246
3588.765718,0.000000,814.226536,9548.656652
3588.766033,0.000000,814.226536,9474.636058
3588.766347,306.438199,888.247130,9770.718434
3588.766661,229.828649,740.205942,9474.636058
3588.766976,459.657299,962.267725,9548.656652
3588.767290,153.219100,888.247130,9474.636058
3588.767604,612.876398,962.267725,9474.636058
3588.767919,919.314598,592.164754,9400.615463
3588.768233,612.876398,814.226536,9252.574275
3588.768547,153.219100,666.185348,9770.718434
3588.768862,229.828649,518.144159,9178.553681
3588.769176,229.828649,518.144159,9474.636058
3588.769490,0.000000,296.082377,9696.697840
3588.769805,383.047749,370.102971,9474.636058
3588.770119,459.657299,666.185348,9770.718434
3588.770433,536.266849,518.144159,10214.842000
3588.770748,0.000000,-0.000000,9770.718434
3588.771062,153.219100,-0.000000,9696.697840
3588.771376,229.828649,222.061783,9770.718434
3588.771690,76.609550,-0.000000,10066.800811
3588.772005,0.000000,-0.000000,10214.842000
3588.772319,-306.438199,-0.000000,10140.821405
3588.772633,0.000000,-0.000000,9770.718434
3588.772948,0.000000,-222.061783,9770.718434
3588.773262,76.609550,-74.020594,9918.759623
3588.773576,76.609550,-0.000000,10066.800811
3588.773891,-153.219100,-370.102971,9992.780217
3588.774205,0.000000,-0.000000,9474.636058
3588.774519,306.438199,-74.020594,9548.656652
3588.774833,0.000000,-222.061783,9548.656652
3588.775148,0.000000,-444.123565,9474.636058
3588.775462,-229.828649,-370.102971,9696.697840
3588.775776,0.000000,-0.000000,9474.636058
3588.776091,76.609550,-222.061783,9400.615463
3588.776405,0.000000,-148.041188,9178.553681
3588.776719,0.000000,-222.061783,9030.512492
3588.777034,153.219100,-222.061783,9474.636058
3588.777348,153.219100,-74.020594,8956.491898
3588.777662,0.000000,-296.082377,9104.533087
3588.777976,229.828649,-148.041188,9178.553681
3588.778291,76.609550,-0.000000,9178.553681
3588.778605,306.438199,-222.061783,8660.409521
3588.778919,306.438199,-0.000000,8586.388927
3588.779234,306.438199,-148.041188,9474.636058
3588.779548,153.219100,-222.061783,9104.533087
3588.779862,229.828649,-74.020594,9030.512492
3588.780177,0.000000,-444.123565,9326.594869
3588.780491,153.219100,-74.020594,9326.594869
3588.780805,76.609550,-222.061783,9178.553681
3588.781119,153.219100,-0.000000,9548.656652
3588.781434,153.219100,-0.000000,9696.697840
3588.781748,459.657299,-0.000000,9252.574275
3588.782062,306.438199,-0.000000,9474.636058
3588.782377,153.219100,-0.000000,9770.718434
3588.782691,153.219100,148.041188,9918.759623
3588.783005,153.219100,296.082377,9844.739029
3588.783320,766.095498,148.041188,9844.739029
3588.783634,153.219100,-0.000000,9992.780217
3588.783948,153.219100,370.102971,10510.924376
3588.784262,0.000000,296.082377,10214.842000
3588.784577,153.219100,296.082377,10140.821405
3588.784891,612.876398,-0.000000,10214.842000
3588.785205,0.000000,370.102971,10510.924376
3588.785520,0.000000,444.123565,10510.924376
3588.785834,0.000000,444.123565,9918.759623
3588.786148,-153.219100,444.123565,10066.800811
3588.786463,383.047749,296.082377,9992.780217
3588.786777,0.000000,296.082377,10066.800811
3588.787091,0.000000,592.164754,10066.800811
3588.787405,0.000000,592.164754,9548.656652
3588.787720,0.000000,592.164754,9770.718434
3588.788034,153.219100,370.102971,9770.718434
3588.788348,76.609550,592.164754,9918.759623
3588.788663,153.219100,518.144159,9696.697840
3588.788977,76.609550,666.185348,9696.697840
3588.789291,76.609550,666.185348,9326.594869
3588.789606,229.828649,666.185348,9474.636058
3588.789920,383.047749,592.164754,9696.697840
3588.790234,229.828649,518.144159,9548.656652
3588.790548,153.219100,592.164754,9474.636058
3588.790863,153.219100,370.102971,9474.636058
3588.791177,459.657299,518.144159,9770.718434
3588.791491,153.219100,518.144159,9696.697840
3588.791806,306.438199,296.082377,9696.697840
3588.792120,306.438199,296.082377,9548.656652
3588.792434,-76.609550,518.144159,9474.636058
3588.792748,153.219100,-74.020594,9252.574275
3588.793063,612.876398,-0.000000,9474.636058
3588.793377,459.657299,-0.000000,9548.656652
3588.793691,153.219100,-0.000000,9474.636058
3588.794006,229.828649,-0.000000,9400.615463
3588.794320,153.219100,-148.041188,9252.574275
3588.794634,0.000000,-74.020594,9844.739029
3588.794949,76.609550,-0.000000,9548.656652
3588.795263,153.219100,-0.000000,9770.718434
3588.795577,0.000000,-74.020594,9548.656652
3588.795891,383.047749,-0.000000,9696.697840
3588.796206,0.000000,-370.102971,9696.697840
3588.796520,0.000000,-296.082377,9844.739029
3588.796834,0.000000,-370.102971,9474.636058
3588.797149,0.000000,-296.082377,9548.656652
3588.797463,-306.438199,-370.102971,9696.697840
3588.797777,76.609550,-222.061783,9548.656652
3588.798092,0.000000,-74.020594,9252.574275
3588.798406,0.000000,-222.061783,9104.533087
3588.798720,0.000000,-370.102971,9622.677246
3588.799034,153.219100,-296.082377,9326.594869
3588.799349,0.000000,-518.144159,9474.636058
3588.799663,-153.219100,-296.082377,9400.615463
3588.799977,0.000000,-74.020594,9252.574275
3588.800292,153.219100,-296.082377,9326.594869
3588.800606,0.000000,-0.000000,9400.615463
3588.800920,76.609550,-370.102971,9622.677246
3588.801235,76.609550,-74.020594,9474.636058
3588.801549,76.609550,-0.000000,9252.574275
3588.801863,0.000000,-0.000000,9400.615463
3588.802177,76.609550,370.102971,9696.697840
3588.802492,0.000000,222.061783,9474.636058
3588.802806,0.000000,296.082377,9252.574275
3588.803120,76.609550,222.061783,9104.533087
3588.803435,76.609550,-0.000000,9326.594869
3588.803749,229.828649,222.061783,9474.636058
3588.804063,0.000000,222.061783,9622.677246
3588.804378,76.609550,222.061783,9474.636058
3588.804692,76.609550,148.041188,9622.677246
3588.805006,76.609550,222.061783,9474.636058
3588.805320,383.047749,296.082377,9104.533087
3588.805635,536.266849,666.185348,9770.718434
3588.805949,306.438199,370.102971,9844.739029
3588.806263,229.828649,444.123565,9918.759623
3588.806578,76.609550,148.041188,10066.800811
3588.806892,0.000000,444.123565,9770.718434
3588.807206,153.219100,296.082377,10066.800811
3588.807521,0.000000,444.123565,9696.697840
3588.807835,0.000000,148.041188,9696.697840
3588.808149,153.219100,148.041188,9696.697840
3588.808463,0.000000,148.041188,9548.656652
3588.808778,0.000000,222.061783,9992.780217
3588.809092,306.438199,444.123565,9622.677246
3588.809406,76.609550,370.102971,9548.656652
3588.809721,459.657299,-0.000000,9696.697840
3588.810035,0.000000,296.082377,9770.718434
3588.810349,76.609550,-0.000000,9770.718434
3588.810664,153.219100,370.102971,9622.677246
3588.810978,459.657299,370.102971,9696.697840
3588.811292,76.609550,-0.000000,9474.636058
3588.811606,0.000000,-74.020594,9696.697840
3588.811921,0.000000,-0.000000,9622.677246
3588.812235,76.609550,222.061783,9474.636058
3588.812549,0.000000,-0.000000,9622.677246
3588.812864,229.828649,-0.000000,9770.718434
3588.813178,153.219100,-0.000000,9474.636058
3588.813492,153.219100,-0.000000,9474.636058
3588.813807,76.609550,222.061783,9326.594869
3588.814121,-306.438199,222.061783,9548.656652
3588.814435,0.000000,-0.000000,9696.697840
3588.814749,229.828649,296.082377,9696.697840
3588.815064,229.828649,-0.000000,9474.636058
3588.815378,153.219100,222.061783,9178.553681
3588.815692,229.828649,370.102971,9696.697840
3588.816007,0.000000,-0.000000,9770.718434
3588.816321,229.828649,-0.000000,9770.718434
3588.816635,0.000000,-0.000000,9252.574275
3588.816950,0.000000,-0.000000,9400.615463
3588.817264,306.438199,-0.000000,9918.759623
3588.817578,153.219100,-148.041188,9178.553681
3588.817892,0.000000,-370.102971,9400.615463
3588.818207,-229.828649,-148.041188,9400.615463
3588.818521,0.000000,-0.000000,9400.615463
3588.818835,383.047749,-222.061783,9104.533087
3588.819150,229.828649,-74.020594,9400.615463
3588.819464,76.609550,-74.020594,9844.739029
3588.819778,0.000000,-0.000000,9474.636058
3588.820093,229.828649,-0.000000,9474.636058
3588.820407,153.219100,-222.061783,9474.636058
3588.820721,0.000000,-222.061783,9474.636058
3588.821035,0.000000,-222.061783,9400.615463
3588.821350,459.657299,-148.041188,9474.636058
3588.821664,306.438199,-74.020594,9696.697840
3588.821978,306.438199,-296.082377,9252.574275
3588.822293,229.828649,-0.000000,9474.636058
3588.822607,76.609550,-148.041188,9548.656652
3588.822921,229.828649,-0.000000,9548.656652
3588.823235,0.000000,-148.041188,9400.615463
3588.823550,76.609550,-74.020594,9918.759623
3588.823864,-306.438199,-0.000000,9770.718434
3588.824178,76.609550,-0.000000,9548.656652
3588.824493,-153.219100,296.082377,9474.636058
3588.824807,153.219100,-0.000000,9548.656652
3588.825121,153.219100,148.041188,9474.636058
3588.825436,76.609550,370.102971,9548.656652
3588.825750,0.000000,296.082377,9844.739029
3588.826064,0.000000,518.144159,9548.656652
3588.826378,0.000000,444.123565,9548.656652
3588.826693,76.609550,518.144159,9992.780217
3588.827007,0.000000,296.082377,10140.821405
3588.827321,0.000000,666.185348,9696.697840
3588.827636,0.000000,-0.000000,9474.636058
3588.827950,0.000000,518.144159,9844.739029
3588.828264,229.828649,666.185348,10066.800811
3588.828579,0.000000,444.123565,9548.656652
3588.828893,76.609550,444.123565,9474.636058
3588.829207,459.657299,518.144159,10214.842000
3588.829521,76.609550,296.082377,9400.615463
3588.829836,153.219100,814.226536,9178.553681
3588.830150,0.000000,296.082377,9992.780217
3588.830464,0.000000,444.123565,9622.677246
3588.830779,0.000000,222.061783,9474.636058
3588.831093,306.438199,222.061783,9696.697840
3588.831407,229.828649,370.102971,9844.739029
3588.831722,306.438199,370.102971,9474.636058
3588.832036,0.000000,296.082377,9474.636058
3588.832350,153.219100,370.102971,9548.656652
3588.832664,383.047749,222.061783,9326.594869
3588.832979,229.828649,148.041188,9622.677246
3588.833293,-153.219100,-0.000000,9474.636058
3588.833607,0.000000,-0.000000,9918.759623
3588.833922,689.485948,-0.000000,9548.656652
3588.834236,153.219100,-0.000000,9696.697840
3588.834550,153.219100,-0.000000,9622.677246
3588.834865,229.828649,148.041188,9696.697840
3588.835179,383.047749,222.061783,9770.718434
3588.835493,76.609550,-0.000000,9844.739029
3588.835807,383.047749,-0.000000,9696.697840
3588.836122,229.828649,-0.000000,9548.656652
3588.836436,76.609550,148.041188,9474.636058
3588.836750,0.000000,-148.041188,9622.677246
3588.837065,229.828649,-0.000000,9548.656652
3588.837379,153.219100,296.082377,9696.697840
3588.837693,0.000000,-0.000000,9770.718434
3588.838008,0.000000,-0.000000,9474.636058
3588.838322,-229.828649,444.123565,9548.656652
3588.838636,0.000000,-0.000000,9326.594869
3588.838950,-153.219100,-0.000000,9622.677246
3588.839265,0.000000,-148.041188,9696.697840
3588.839579,0.000000,-0.000000,9474.636058
3588.839893,-153.219100,148.041188,9474.636058
3588.840208,-229.828649,-0.000000,9474.636058
3588.840522,0.000000,-0.000000,9474.636058
3588.840836,229.828649,-0.000000,9622.677246
3588.841151,0.000000,-222.061783,9400.615463
3588.841465,153.219100,-0.000000,9474.636058
3588.841779,229.828649,-0.000000,9474.636058
3588.842093,76.609550,-0.000000,9474.636058
3588.842408,153.219100,-148.041188,9770.718434
3588.842722,153.219100,-222.061783,9252.574275
3588.843036,76.609550,-0.000000,9474.636058
3588.843351,459.657299,-0.000000,9400.615463
3588.843665,536.266849,-0.000000,9844.739029
3588.843979,459.657299,-74.020594,9622.677246
3588.844294,153.219100,-74.020594,9474.636058
3588.844608,229.828649,-0.000000,9548.656652
3588.844922,153.219100,148.041188,9474.636058
3588.845236,383.047749,296.082377,9770.718434
3588.845551,76.609550,296.082377,9696.697840
3588.845865,76.609550,296.082377,9400.615463
3588.846179,153.219100,222.061783,9548.656652
3588.846494,306.438199,-0.000000,10288.862594
3588.846808,0.000000,370.102971,10140.821405
3588.847122,0.000000,296.082377,9474.636058
3588.847437,0.000000,-0.000000,9844.739029
3588.847751,229.828649,296.082377,9844.739029
3588.848065,76.609550,222.061783,9622.677246
3588.848379,0.000000,-0.000000,9844.739029
3588.848694,0.000000,296.082377,9992.780217
3588.849008,76.609550,444.123565,9696.697840
3588.849322,0.000000,296.082377,9252.574275
3588.849637,76.609550,148.041188,9400.615463
3588.849951,0.000000,-0.000000,9918.759623
3588.850265,0.000000,370.102971,9548.656652
3588.850580,0.000000,296.082377,9548.656652
3588.850894,76.609550,148.041188,9992.780217
3588.851208,229.828649,-0.000000,9770.718434
3588.851522,0.000000,370.102971,9696.697840
3588.851837,0.000000,-0.000000,9548.656652
3588.852151,0.000000,-0.000000,9622.677246
3588.852465,0.000000,370.102971,9548.656652
3588.852780,536.266849,-148.041188,9548.656652
3588.853094,229.828649,296.082377,9474.636058
3588.853408,459.657299,-0.000000,9252.574275
3588.853723,306.438199,222.061783,9474.636058
3588.854037,536.266849,-0.000000,9474.636058
3588.854351,153.219100,-0.000000,9474.636058
3588.854665,0.000000,-0.000000,9326.594869
3588.854980,76.609550,-0.000000,9400.615463
3588.855294,229.828649,148.041188,9474.636058
3588.855608,153.219100,-0.000000,9474.636058
3588.855923,229.828649,-0.000000,9844.739029
3588.856237,459.657299,-0.000000,9474.636058
3588.856551,153.219100,-0.000000,9548.656652
3588.856865,76.609550,222.061783,9104.533087
3588.857180,306.438199,-0.000000,9474.636058
3588.857494,229.828649,-0.000000,9992.780217
3588.857808,0.000000,-0.000000,9622.677246
3588.858123,76.609550,-0.000000,9326.594869
3588.858437,0.000000,-0.000000,9548.656652
3588.858751,536.266849,-0.000000,9770.718434
3588.859066,0.000000,-0.000000,9770.718434
3588.859380,0.000000,-0.000000,9178.553681
3588.859694,76.609550,-0.000000,9918.759623
3588.860008,153.219100,-0.000000,9326.594869
3588.860323,229.828649,-0.000000,9474.636058
3588.860637,0.000000,-0.000000,9622.677246
3588.860951,0.000000,-0.000000,9622.677246
3588.861266,0.000000,-74.020594,9252.574275
3588.861580,0.000000,-0.000000,9548.656652
3588.861894,536.266849,-0.000000,9844.739029
3588.862209,76.609550,-0.000000,9400.615463
3588.862523,0.000000,-0.000000,9400.615463
3588.862837,-153.219100,-0.000000,9474.636058
3588.863151,0.000000,-0.000000,9474.636058
3588.863466,459.657299,-0.000000,9696.697840
3588.863780,76.609550,-0.000000,9474.636058
3588.864094,76.609550,-0.000000,9474.636058
3588.864409,153.219100,-0.000000,9400.615463
3588.864723,153.219100,222.061783,9474.636058
3588.865037,612.876398,-0.000000,9622.677246
3588.865352,153.219100,222.061783,9252.574275
3588.865666,0.000000,148.041188,9622.677246
3588.865980,153.219100,148.041188,9696.697840
3588.866294,306.438199,-0.000000,9696.697840
3588.866609,-612.876398,-0.000000,9474.636058
3588.866923,0.000000,518.144159,9696.697840
3588.867237,153.219100,222.061783,9992.780217
3588.867552,76.609550,370.102971,9622.677246
3588.867866,229.828649,148.041188,9400.615463
3588.868180,689.485948,-0.000000,9622.677246
3588.868495,76.609550,592.164754,9696.697840
3588.868809,306.438199,296.082377,9622.677246
3588.869123,-76.609550,592.164754,9918.759623
3588.869437,0.000000,222.061783,9770.718434
3588.869752,306.438199,370.102971,9548.656652
3588.870066,76.609550,666.185348,9548.656652
3588.870380,0.000000,148.041188,9918.759623
3588.870694,0.000000,518.144159,9696.697840
3588.871008,153.219100,518.144159,9548.656652
3588.871322,0.000000,296.082377,9844.739029
3588.871637,0.000000,-0.000000,9696.697840
3588.871951,306.438199,370.102971,9696.697840
3588.872265,229.828649,148.041188,9696.697840
3588.872579,153.219100,-0.000000,9696.697840
3588.872893,536.266849,-0.000000,9696.697840
3588.873207,76.609550,-0.000000,9326.594869
3588.873522,0.000000,222.061783,9696.697840
3588.873836,229.828649,-0.000000,9918.759623
3588.874150,153.219100,-0.000000,9696.697840
3588.874464,612.876398,518.144159,9844.739029
3588.874778,229.828649,444.123565,9622.677246
3588.875092,0.000000,148.041188,9474.636058
3588.875406,459.657299,222.061783,9696.697840
3588.875721,229.828649,-0.000000,10140.821405
3588.876035,383.047749,-518.144159,9992.780217
3588.876349,153.219100,-0.000000,9696.697840
3588.876663,229.828649,-0.000000,9474.636058
3588.876977,612.876398,666.185348,9548.656652
3588.877291,995.924147,666.185348,9474.636058
3588.877606,1149.143247,444.123565,9178.553681
3588.877920,842.705048,222.061783,9400.615463
3588.878234,995.924147,296.082377,9400.615463
3588.878548,1072.533697,518.144159,9252.574275
3588.878862,995.924147,444.123565,8956.491898
3588.879176,766.095498,518.144159,9474.636058
3588.879491,766.095498,-0.000000,9548.656652
3588.879805,995.924147,518.144159,9696.697840
3588.880119,919.314598,740.205942,10066.800811
3588.880433,1149.143247,962.267725,10288.862594
3588.880747,1378.971896,1332.370696,10140.821405
3588.881061,1991.848295,1036.288319,9474.636058
3588.881375,2068.457845,1702.473667,9326.594869
3588.881690,2451.505594,1702.473667,9030.512492
3588.882004,2681.334243,1776.494261,9030.512492
3588.882318,2145.067394,1850.514855,9030.512492
3588.882632,2298.286494,1702.473667,8660.409521
3588.882946,2145.067394,1776.494261,8734.430116
3588.883260,1838.629195,1480.411884,9030.512492
3588.883575,1608.800546,1258.350101,9400.615463
3588.883889,1302.362347,962.267725,9696.697840
3588.884203,919.314598,1036.288319,9622.677246
3588.884517,1072.533697,1554.432478,9918.759623
3588.884831,995.924147,1702.473667,9992.780217
3588.885145,1072.533697,1628.453072,9770.718434
3588.885460,1225.752797,2368.659014,9918.759623
3588.885774,1302.362347,2516.700203,9474.636058
3588.886088,1685.410096,3034.844362,9178.553681
3588.886402,1608.800546,2812.782580,9400.615463
3588.886716,1532.190996,2664.741391,9992.780217
3588.887030,306.438199,2590.720797,9548.656652
3588.887344,383.047749,2294.638420,9770.718434
3588.887659,0.000000,2072.576638,10584.944971
3588.887973,-306.438199,1776.494261,10955.047942
3588.888287,-612.876398,1406.391290,10955.047942
3588.888601,-689.485948,1110.308913,10881.027347
3588.888915,-536.266849,1332.370696,10732.986159
3588.889229,-459.657299,1702.473667,10658.965565
3588.889544,-306.438199,1850.514855,10436.903782
3588.889858,229.828649,1776.494261,9992.780217
3588.890172,612.876398,1998.556043,9844.739029
3588.890486,689.485948,2072.576638,9474.636058
3588.890800,612.876398,1924.535449,9548.656652
3588.891114,842.705048,1776.494261,10140.821405
3588.891429,306.438199,1184.329507,10288.862594
3588.891743,612.876398,1036.288319,9844.739029
3588.892057,306.438199,518.144159,9918.759623
3588.892371,0.000000,518.144159,10288.862594
3588.892685,0.000000,296.082377,10214.842000
3588.892999,229.828649,-148.041188,10140.821405
3588.893313,306.438199,222.061783,9844.739029
3588.893628,459.657299,-0.000000,9252.574275
3588.893942,689.485948,370.102971,8956.491898
3588.894256,612.876398,444.123565,8808.450710
3588.894570,766.095498,370.102971,8290.306550
3588.894884,383.047749,-0.000000,8216.285956
3588.895198,612.876398,-222.061783,8734.430116
3588.895513,306.438199,-814.226536,9400.615463
3588.895827,0.000000,-814.226536,9474.636058
3588.896141,-536.266849,-1036.288319,9622.677246
3588.896455,-459.657299,-888.247130,10288.862594
3588.896769,-459.657299,-740.205942,10510.924376
3588.897083,-766.095498,-592.164754,10288.862594
3588.897398,-229.828649,-740.205942,9844.739029
3588.897712,612.876398,-74.020594,10140.821405
3588.898026,919.314598,-0.000000,8956.491898
3588.898340,1225.752797,-0.000000,8734.430116
3588.898654,1915.238745,-0.000000,8290.306550
3588.898968,1838.629195,-0.000000,7994.224174
3588.899282,1762.019645,-444.123565,7772.162391
3588.899597,1455.581446,-518.144159,8290.306550
3588.899911,919.314598,-666.185348,9252.574275
3588.900225,383.047749,-962.267725,9104.533087
3588.900539,0.000000,-1184.329507,9622.677246
3588.900853,-306.438199,-1924.535449,9992.780217
3588.901167,-689.485948,-1480.411884,9622.677246
3588.901482,-995.924147,-1110.308913,9474.636058
3588.901796,-1149.143247,-1184.329507,9474.636058
3588.902110,-995.924147,-1110.308913,9696.697840
3588.902424,-306.438199,-814.226536,9622.677246
3588.902738,-612.876398,-740.205942,9770.718434
3588.903052,-383.047749,-370.102971,10214.842000
3588.903367,-612.876398,-444.123565,10510.924376
3588.903681,-612.876398,-444.123565,10881.027347
3588.903995,-842.705048,-222.061783,10732.986159
3588.904309,-995.924147,-370.102971,10362.883188
3588.904623,-842.705048,-518.144159,10288.862594
3588.904937,-1072.533697,-296.082377,10066.800811
3588.905252,-842.705048,-666.185348,9992.780217
3588.905566,-536.266849,-814.226536,9400.615463
3588.905880,-459.657299,-814.226536,8808.450710
3588.906194,-306.438199,-814.226536,9178.553681
3588.906508,-306.438199,-888.247130,9326.594869
3588.906822,383.047749,-888.247130,9548.656652
3588.907136,0.000000,-740.205942,9474.636058
3588.907451,229.828649,-666.185348,9474.636058
3588.907765,306.438199,148.041188,9252.574275
3588.908079,383.047749,-0.000000,9178.553681
3588.908393,536.266849,740.205942,9326.594869
3588.908707,383.047749,1258.350101,8734.430116
3588.909021,459.657299,888.247130,8660.409521
3588.909336,612.876398,962.267725,9030.512492
3588.909650,689.485948,740.205942,9400.615463
3588.909964,153.219100,222.061783,9474.636058
3588.910278,0.000000,-0.000000,9474.636058
3588.910592,-383.047749,-0.000000,10807.006753
3588.910906,-229.828649,296.082377,11029.068536
3588.911221,0.000000,444.123565,10807.006753
3588.911535,-459.657299,740.205942,10066.800811
3588.911849,459.657299,1036.288319,9696.697840
3588.912163,919.314598,1628.453072,9400.615463
3588.912477,1608.800546,1850.514855,8882.471304
3588.912791,2068.457845,1850.514855,8660.409521
3588.913105,1991.848295,1998.556043,8438.347739
3588.913420,1991.848295,1776.494261,8512.368333
3588.913734,1838.629195,1480.411884,8956.491898
3588.914048,1225.752797,1184.329507,9474.636058
3588.914362,612.876398,962.267725,9992.780217
3588.914676,0.000000,592.164754,10066.800811
3588.914990,-229.828649,740.205942,10510.924376
3588.915305,-383.047749,666.185348,10214.842000
3588.915619,-306.438199,740.205942,10362.883188
3588.915933,-383.047749,962.267725,10658.965565
3588.916247,-229.828649,1036.288319,9844.739029
3588.916561,153.219100,1406.391290,9622.677246
3588.916875,76.609550,1184.329507,9992.780217
3588.917190,76.609550,962.267725,10436.903782
3588.917504,76.609550,1036.288319,10288.862594
3588.917818,0.000000,740.205942,10510.924376
3588.918132,0.000000,518.144159,11177.109724
3588.918446,0.000000,666.185348,10584.944971
3588.918760,-689.485948,444.123565,10362.883188
3588.919074,-612.876398,444.123565,10584.944971
3588.919389,-459.657299,74.020594,9918.759623
3588.919703,-153.219100,148.041188,9770.718434
3588.920017,0.000000,-0.000000,9474.636058
3588.920331,0.000000,-222.061783,9918.759623
3588.920645,76.609550,-148.041188,9474.636058
3588.920959,153.219100,-74.020594,9178.553681
3588.921274,0.000000,-296.082377,9696.697840
3588.921588,306.438199,-0.000000,9844.739029
3588.921902,459.657299,-222.061783,10066.800811
3588.922216,229.828649,-0.000000,9696.697840
3588.922530,0.000000,296.082377,9474.636058
3588.922844,0.000000,-0.000000,8882.471304
3588.923159,153.219100,-0.000000,8956.491898
3588.923473,0.000000,-444.123565,8956.491898
3588.923787,0.000000,-740.205942,8956.491898
3588.924101,-766.095498,-962.267725,9178.553681
3588.924415,-842.705048,-1258.350101,9548.656652
3588.924729,-536.266849,-1702.473667,10066.800811
3588.925043,0.000000,-1258.350101,10140.821405
3588.925358,-459.657299,-1036.288319,9770.718434
3588.925672,-229.828649,-962.267725,9696.697840
3588.925986,153.219100,-814.226536,9548.656652
3588.926300,612.876398,-222.061783,8956.491898
3588.926614,1072.533697,-222.061783,8808.450710
3588.926928,1455.581446,-0.000000,8142.265362
3588.927243,1838.629195,-0.000000,7624.121203
3588.927557,1685.410096,-0.000000,7846.182985
3588.927871,1532.190996,-666.185348,8068.244768
3588.928185,1532.190996,-962.267725,8734.430116
3588.928499,306.438199,-1406.391290,8882.471304
3588.928813,0.000000,-1702.473667,9548.656652
3588.929128,0.000000,-1554.432478,9992.780217
3588.929442,-306.438199,-1554.432478,9548.656652
3588.929756,-536.266849,-1184.329507,9548.656652
3588.930070,-612.876398,-814.226536,9474.636058
3588.930384,-306.438199,-518.144159,9474.636058
3588.930698,0.000000,-0.000000,9622.677246
3588.931012,383.047749,-0.000000,9548.656652
3588.931327,306.438199,518.144159,9622.677246
3588.931641,383.047749,592.164754,9548.656652
3588.931955,459.657299,296.082377,10214.842000
3588.932269,0.000000,518.144159,10362.883188
3588.932583,0.000000,888.247130,10510.924376
3588.932897,-229.828649,592.164754,10214.842000
3588.933212,-536.266849,592.164754,10214.842000
3588.933526,-536.266849,444.123565,10140.821405
3588.933840,-766.095498,518.144159,9918.759623
3588.934154,0.000000,444.123565,9696.697840
3588.934468,-459.657299,-0.000000,9326.594869
3588.934782,0.000000,666.185348,9474.636058
3588.935097,0.000000,518.144159,9178.553681
3588.935411,76.609550,740.205942,9474.636058
3588.935725,153.219100,1036.288319,9992.780217
3588.936039,459.657299,1258.350101,9992.780217
3588.936353,383.047749,1480.411884,9474.636058
3588.936667,536.266849,1628.453072,9548.656652
3588.936981,306.438199,1998.556043,9400.615463
3588.937296,459.657299,1184.329507,9104.533087
3588.937610,306.438199,1258.350101,9548.656652
3588.937924,0.000000,814.226536,10510.924376
3588.938238,-612.876398,814.226536,10288.862594
3588.938552,-842.705048,222.061783,10214.842000
3588.938866,-766.095498,-0.000000,10732.986159
3588.939181,-536.266849,-74.020594,11325.150913
3588.939495,-306.438199,222.061783,10732.986159
3588.939809,0.000000,814.226536,10288.862594
3588.940123,536.266849,888.247130,10066.800811
3588.940437,919.314598,1184.329507,9400.615463
3588.940751,1302.362347,962.267725,9178.553681
3588.941066,1915.238745,1406.391290,8364.327145
3588.941380,1991.848295,1406.391290,8438.347739
3588.941694,1991.848295,1110.308913,8438.347739
3588.942008,1455.581446,814.226536,9030.512492
3588.942322,1149.143247,222.061783,9326.594869
3588.942636,459.657299,-0.000000,9474.636058
3588.942951,76.609550,-148.041188,9844.739029
3588.943265,-229.828649,-148.041188,10362.883188
3588.943579,0.000000,-148.041188,10362.883188
3588.943893,-229.828649,-0.000000,9918.759623
3588.944207,-459.657299,370.102971,9252.574275
3588.944521,0.000000,222.061783,9104.533087
3588.944835,0.000000,518.144159,9400.615463
3588.945150,229.828649,592.164754,9252.574275
3588.945464,229.828649,666.185348,9326.594869
3588.945778,76.609550,518.144159,9474.636058
3588.946092,-153.219100,370.102971,9918.759623
3588.946406,-383.047749,222.061783,10066.800811
3588.946720,-612.876398,-148.041188,10066.800811
3588.947035,-306.438199,-518.144159,9918.759623
3588.947349,-306.438199,-370.102971,9622.677246
3588.947663,-229.828649,-296.082377,9770.718434
3588.947977,0.000000,-370.102971,9104.533087
3588.948291,0.000000,-444.123565,9252.574275
3588.948605,0.000000,-444.123565,9474.636058
3588.948920,229.828649,-296.082377,9178.553681
3588.949234,306.438199,-444.123565,9400.615463
3588.949548,306.438199,-592.164754,9400.615463
3588.949862,536.266849,-222.061783,9474.636058
3588.950176,689.485948,-296.082377,9474.636058
3588.950490,229.828649,-222.061783,9474.636058
3588.950804,76.609550,-222.061783,9844.739029
3588.951119,-306.438199,-148.041188,9030.512492
3588.951433,153.219100,-592.164754,8882.471304
3588.951747,0.000000,-740.205942,9326.594869
3588.952061,0.000000,-740.205942,9622.677246
3588.952375,-383.047749,-666.185348,10066.800811
3588.952689,-612.876398,-1036.288319,10362.883188
3588.953004,-306.438199,-1258.350101,11029.068536
3588.953318,-383.047749,-1110.308913,10881.027347
3588.953632,-153.219100,-444.123565,10362.883188
3588.953946,76.609550,-518.144159,10510.924376
3588.954260,153.219100,-222.061783,10066.800811
3588.954574,612.876398,-222.061783,9770.718434
3588.954889,919.314598,370.102971,9178.553681
3588.955203,1608.800546,592.164754,8882.471304
3588.955517,1608.800546,296.082377,8364.327145
3588.955831,1532.190996,518.144159,8142.265362
3588.956145,919.314598,296.082377,8660.409521
3588.956459,612.876398,-296.082377,8956.491898
3588.956773,153.219100,-370.102971,9400.615463
3588.957088,0.000000,-444.123565,9918.759623
3588.957402,-536.266849,-666.185348,9770.718434
3588.957716,-689.485948,-444.123565,9992.780217
3588.958030,-689.485948,-74.020594,9548.656652
3588.958344,-459.657299,-0.000000,9844.739029
3588.958658,0.000000,296.082377,9252.574275
3588.958973,0.000000,666.185348,8734.430116
3588.959287,306.438199,1110.308913,9326.594869
3588.959601,536.266849,1110.308913,9178.553681
3588.959915,459.657299,888.247130,9474.636058
3588.960229,0.000000,666.185348,9548.656652
3588.960543,0.000000,814.226536,9770.718434
3588.960858,0.000000,-0.000000,9918.759623
3588.961172,-383.047749,370.102971,9770.718434
3588.961486,-536.266849,148.041188,10288.862594
3588.961800,-689.485948,-0.000000,9844.739029
3588.962114,-229.828649,-0.000000,9474.636058
3588.962428,0.000000,-74.020594,9548.656652
3588.962742,0.000000,148.041188,9770.718434
3588.963057,0.000000,444.123565,9844.739029
3588.963371,536.266849,592.164754,9548.656652
3588.963685,306.438199,444.123565,9770.718434
3588.963999,995.924147,444.123565,9474.636058
3588.964313,689.485948,1036.288319,9844.739029
3588.964627,689.485948,962.267725,9992.780217
3588.964942,612.876398,1184.329507,9918.759623
3588.965256,-153.219100,888.247130,9696.697840
3588.965570,153.219100,1184.329507,9770.718434
3588.965884,-153.219100,222.061783,9548.656652
3588.966198,0.000000,-0.000000,10288.862594
3588.966512,-459.657299,-0.000000,10140.821405
3588.966827,-766.095498,-0.000000,10362.883188
3588.967141,-612.876398,-0.000000,11029.068536
3588.967455,-383.047749,148.041188,10807.006753
3588.967769,-229.828649,370.102971,10658.965565
3588.968083,0.000000,814.226536,10066.800811
3588.968397,612.876398,814.226536,9918.759623
3588.968711,1225.752797,1406.391290,9400.615463
3588.969026,1685.410096,1184.329507,9030.512492
3588.969340,1685.410096,1258.350101,8290.306550
3588.969654,1532.190996,1110.308913,7698.141797
3588.969968,1455.581446,814.226536,8216.285956
3588.970282,1149.143247,666.185348,8586.388927
3588.970596,842.705048,222.061783,8882.471304
3588.970911,306.438199,-296.082377,9400.615463
3588.971225,0.000000,-370.102971,9252.574275
3588.971539,-229.828649,-370.102971,10066.800811
3588.971853,-689.485948,-74.020594,9992.780217
3588.972167,-536.266849,-148.041188,9918.759623
3588.972481,-536.266849,-74.020594,9252.574275
3588.972796,0.000000,-0.000000,9178.553681
3588.973110,0.000000,370.102971,9030.512492
3588.973424,383.047749,370.102971,9252.574275
3588.973738,383.047749,-0.000000,9474.636058
3588.974053,0.000000,-0.000000,9696.697840
3588.974367,0.000000,-0.000000,9992.780217
3588.974681,-383.047749,-444.123565,10066.800811
3588.974996,-459.657299,-592.164754,10214.842000
3588.975310,-612.876398,-444.123565,10214.842000
3588.975624,-689.485948,-666.185348,10362.883188
3588.975938,-536.266849,-666.185348,10288.862594
3588.976253,-306.438199,-962.267725,9622.677246
3588.976567,-153.219100,-814.226536,9548.656652
3588.976881,-153.219100,-592.164754,9622.677246
3588.977196,0.000000,-370.102971,9622.677246
3588.977510,76.609550,-444.123565,9622.677246
3588.977824,306.438199,-518.144159,9622.677246
3588.978139,459.657299,-370.102971,9770.718434
3588.978453,76.609550,-0.000000,9622.677246
3588.978767,229.828649,-74.020594,9770.718434
3588.979081,0.000000,222.061783,9474.636058
3588.979396,153.219100,-0.000000,9104.533087
3588.979710,0.000000,-74.020594,9252.574275
3588.980024,0.000000,-370.102971,9474.636058
3588.980339,-306.438199,-666.185348,9622.677246
3588.980653,-766.095498,-444.123565,9252.574275
3588.980967,-1838.629195,-814.226536,9400.615463
3588.981282,-612.876398,-888.247130,10584.944971
3588.981596,-689.485948,-740.205942,10510.924376
3588.981910,-689.485948,-370.102971,10140.821405
3588.982225,-153.219100,-0.000000,9622.677246
3588.982539,229.828649,518.144159,9474.636058
3588.982853,842.705048,666.185348,9178.553681
3588.983167,1608.800546,592.164754,8586.388927
3588.983482,1685.410096,1036.288319,8290.306550
3588.983796,1991.848295,1036.288319,8142.265362
3588.984110,1838.629195,592.164754,8142.265362
3588.984425,1378.971896,444.123565,8734.430116
3588.984739,919.314598,-0.000000,9030.512492
3588.985053,229.828649,-222.061783,9474.636058
3588.985368,-383.047749,-296.082377,9548.656652
3588.985682,0.000000,-148.041188,10288.862594
3588.985996,-229.828649,-0.000000,10288.862594
3588.986310,-536.266849,370.102971,10066.800811
3588.986625,-383.047749,518.144159,9622.677246
3588.986939,76.609550,888.247130,9474.636058
3588.987253,689.485948,888.247130,9622.677246
3588.987568,536.266849,1110.308913,9548.656652
3588.987882,536.266849,1110.308913,9992.780217
3588.988196,76.609550,962.267725,10066.800811
3588.988511,76.609550,740.205942,10510.924376
3588.988825,0.000000,1036.288319,11399.171507
3588.989139,-383.047749,740.205942,10658.965565
3588.989454,-229.828649,296.082377,10732.986159
3588.989768,-383.047749,370.102971,10362.883188
3588.990082,-536.266849,296.082377,10066.800811
3588.990396,-536.266849,148.041188,10140.821405
3588.990711,0.000000,296.082377,9548.656652
3588.991025,0.000000,592.164754,9474.636058
3588.991339,0.000000,518.144159,9622.677246
3588.991654,229.828649,814.226536,9474.636058
3588.991968,306.438199,518.144159,9400.615463
3588.992282,612.876398,666.185348,9548.656652
3588.992597,612.876398,740.205942,9474.636058
3588.992911,612.876398,740.205942,9474.636058
3588.993225,612.876398,962.267725,9548.656652
3588.993539,459.657299,962.267725,9030.512492
3588.993854,76.609550,592.164754,8882.471304
3588.994168,-153.219100,444.123565,9400.615463
3588.994482,-153.219100,-0.000000,9400.615463
3588.994797,-612.876398,-74.020594,9548.656652
3588.995111,-842.705048,-592.164754,9770.718434
3588.995425,-842.705048,-666.185348,10214.842000
3588.995740,-612.876398,-518.144159,10140.821405
3588.996054,-229.828649,-0.000000,9992.780217
3588.996368,306.438199,-0.000000,9918.759623
3588.996683,766.095498,444.123565,9918.759623
3588.996997,766.095498,666.185348,9252.574275
3588.997311,1302.362347,888.247130,8734.430116
3588.997625,1378.971896,740.205942,8512.368333
3588.997940,1532.190996,666.185348,8364.327145
3588.998254,1225.752797,296.082377,8660.409521
3588.998568,1149.143247,-148.041188,9326.594869
3588.998883,459.657299,-148.041188,9400.615463
3588.999197,-229.828649,-592.164754,9548.656652
3588.999511,0.000000,-666.185348,9918.759623
3588.999826,-383.047749,-814.226536,10288.862594
3589.000140,-612.876398,-814.226536,10066.800811
3589.000454,-689.485948,-370.102971,9844.739029
3589.000768,-459.657299,-296.082377,9400.615463
3589.001083,0.000000,-74.020594,9400.615463
3589.001397,306.438199,-0.000000,9400.615463
3589.001711,76.609550,222.061783,9252.574275
3589.002026,306.438199,-370.102971,9252.574275
3589.002340,0.000000,-148.041188,9696.697840
3589.002654,-229.828649,-222.061783,9918.759623
3589.002969,-306.438199,-444.123565,10214.842000
3589.003283,-383.047749,-74.020594,10140.821405
3589.003597,-383.047749,-444.123565,9992.780217
3589.003911,-612.876398,-222.061783,10066.800811
3589.004226,-383.047749,-444.123565,9696.697840
3589.004540,-383.047749,-518.144159,9770.718434
3589.004854,-459.657299,-592.164754,9400.615463
3589.005169,0.000000,-370.102971,9326.594869
3589.005483,229.828649,-296.082377,9400.615463
3589.005797,689.485948,-148.041188,9178.553681
3589.006112,383.047749,-0.000000,9104.533087
3589.006426,0.000000,-0.000000,9326.594869
3589.006740,383.047749,-0.000000,9178.553681
3589.007055,153.219100,444.123565,9548.656652
3589.007369,76.609550,370.102971,9474.636058
3589.007683,76.609550,370.102971,9252.574275
3589.007997,229.828649,518.144159,9252.574275
3589.008312,0.000000,-0.000000,9474.636058
3589.008626,-153.219100,-148.041188,9844.739029
3589.008940,-459.657299,-222.061783,9992.780217
3589.009255,-689.485948,-592.164754,10436.903782
3589.009569,-536.266849,-148.041188,10214.842000
3589.009883,-459.657299,-0.000000,10288.862594
3589.010198,-229.828649,296.082377,10362.883188
3589.010512,76.609550,518.144159,10214.842000
3589.010826,153.219100,666.185348,10066.800811
3589.011140,612.876398,444.123565,9548.656652
3589.011455,995.924147,962.267725,8882.471304
3589.011769,1378.971896,1406.391290,8586.388927
3589.012083,1378.971896,1110.308913,8438.347739
3589.012398,1532.190996,814.226536,8734.430116
3589.012712,689.485948,518.144159,9104.533087
3589.013026,459.657299,518.144159,9400.615463
3589.013341,153.219100,-0.000000,9548.656652
3589.013655,76.609550,-0.000000,9992.780217
3589.013969,0.000000,-0.000000,10362.883188
3589.014284,-383.047749,-222.061783,10436.903782
3589.014598,-536.266849,296.082377,9918.759623
3589.014912,0.000000,592.164754,9474.636058
3589.015226,76.609550,962.267725,9622.677246
3589.015541,536.266849,962.267725,9400.615463
3589.015855,383.047749,888.247130,9178.553681
3589.016169,229.828649,888.247130,9400.615463
3589.016484,0.000000,814.226536,9918.759623
3589.016798,153.219100,666.185348,10066.800811
3589.017112,-229.828649,518.144159,10288.862594
3589.017427,-383.047749,222.061783,9696.697840
3589.017741,-536.266849,222.061783,10214.842000
3589.018055,0.000000,-0.000000,10436.903782
3589.018369,-383.047749,-0.000000,10510.924376
3589.018684,0.000000,-0.000000,9918.759623
3589.018998,229.828649,444.123565,10288.862594
3589.019312,383.047749,518.144159,9474.636058
3589.019627,383.047749,444.123565,9474.636058
3589.019941,536.266849,518.144159,9770.718434
3589.020255,383.047749,148.041188,9622.677246
3589.020570,536.266849,518.144159,9474.636058
3589.020884,229.828649,444.123565,9474.636058
3589.021198,459.657299,370.102971,9696.697840
3589.021513,153.219100,222.061783,9548.656652
3589.021827,0.000000,444.123565,9400.615463
3589.022141,153.219100,-0.000000,9104.533087
3589.022455,0.000000,-0.000000,9474.636058
3589.022770,-306.438199,-296.082377,9844.739029
3589.023084,-459.657299,-518.144159,9770.718434
3589.023398,-995.924147,-666.185348,9770.718434
3589.023713,-842.705048,-592.164754,10288.862594
3589.024027,-612.876398,-444.123565,10510.924376
3589.024341,-306.438199,-592.164754,10214.842000
3589.024656,-153.219100,-148.041188,9844.739029
3589.024970,0.000000,222.061783,9622.677246
3589.025284,919.314598,-74.020594,9104.533087
3589.025598,919.314598,814.226536,8956.491898
3589.025913,1302.362347,814.226536,8512.368333
3589.026227,1302.362347,444.123565,8068.244768
3589.026541,1225.752797,-0.000000,8438.347739
3589.026856,689.485948,-74.020594,8734.430116
3589.027170,689.485948,-370.102971,9030.512492
3589.027484,383.047749,-592.164754,9474.636058
3589.027799,-229.828649,-666.185348,9770.718434
3589.028113,-229.828649,-592.164754,10066.800811
3589.028427,-689.485948,-296.082377,9696.697840
3589.028742,-229.828649,-0.000000,9622.677246
3589.029056,0.000000,-0.000000,9918.759623
3589.029370,0.000000,592.164754,9474.636058
3589.029684,0.000000,518.144159,9844.739029
3589.029999,306.438199,592.164754,9474.636058
3589.030313,459.657299,370.102971,9474.636058
3589.030627,0.000000,296.082377,9844.739029
3589.030942,76.609550,222.061783,9992.780217
3589.031256,-383.047749,-0.000000,10436.903782
3589.031570,-766.095498,-148.041188,10214.842000
3589.031885,-766.095498,-370.102971,10362.883188
3589.032199,-919.314598,-148.041188,10288.862594
3589.032513,-766.095498,-296.082377,10140.821405
3589.032827,-383.047749,-296.082377,9844.739029
3589.033142,0.000000,-0.000000,9622.677246
3589.033456,153.219100,-148.041188,9474.636058
3589.033770,306.438199,-0.000000,9326.594869
3589.034085,995.924147,148.041188,9474.636058
3589.034399,383.047749,222.061783,9696.697840
3589.034713,612.876398,518.144159,9622.677246
3589.035028,459.657299,370.102971,9696.697840
3589.035342,536.266849,444.123565,9548.656652
3589.035656,612.876398,370.102971,9474.636058
3589.035971,76.609550,222.061783,9252.574275
3589.036285,0.000000,666.185348,9474.636058
3589.036599,229.828649,296.082377,9770.718434
3589.036913,0.000000,-0.000000,9474.636058
3589.037228,-306.438199,-0.000000,9622.677246
3589.037542,-536.266849,-222.061783,9770.718434
3589.037856,-153.219100,-74.020594,10066.800811
3589.038171,0.000000,-74.020594,10362.883188
3589.038485,0.000000,444.123565,10140.821405
3589.038799,306.438199,518.144159,10214.842000
3589.039114,766.095498,740.205942,9474.636058
3589.039428,1225.752797,1036.288319,8882.471304
3589.039742,1608.800546,1184.329507,8882.471304
3589.040056,1302.362347,1480.411884,8364.327145
3589.040371,1608.800546,814.226536,8290.306550
3589.040685,1608.800546,814.226536,8438.347739
3589.040999,1378.971896,592.164754,8438.347739
3589.041314,689.485948,222.061783,9326.594869
3589.041628,153.219100,-0.000000,9474.636058
3589.041942,0.000000,-296.082377,10140.821405
3589.042257,-306.438199,-222.061783,9992.780217
3589.042571,-459.657299,-0.000000,10140.821405
3589.042885,-689.485948,444.123565,10066.800811
3589.043200,-459.657299,592.164754,9474.636058
3589.043514,0.000000,740.205942,9474.636058
3589.043828,153.219100,1110.308913,9326.594869
3589.044142,459.657299,962.267725,9474.636058
3589.044457,153.219100,666.185348,9474.636058
3589.044771,0.000000,370.102971,9622.677246
3589.045085,0.000000,296.082377,10288.862594
3589.045400,-689.485948,370.102971,10066.800811
3589.045714,-612.876398,74.020594,10510.924376
3589.046028,-459.657299,-666.185348,10584.944971
3589.046343,-536.266849,-370.102971,10214.842000
3589.046657,-766.095498,-0.000000,10066.800811
3589.046971,-612.876398,-0.000000,9474.636058
3589.047285,0.000000,-0.000000,9770.718434
3589.047600,76.609550,-222.061783,9474.636058
3589.047914,306.438199,-0.000000,9178.553681
3589.048228,306.438199,222.061783,9474.636058
3589.048543,612.876398,-0.000000,9326.594869
3589.048857,536.266849,-0.000000,9474.636058
3589.049171,306.438199,-0.000000,9696.697840
3589.049486,306.438199,-0.000000,9918.759623
3589.049800,229.828649,222.061783,9474.636058
3589.050114,0.000000,444.123565,8882.471304
3589.050428,-536.266849,296.082377,9104.533087
3589.050743,-306.438199,-222.061783,9474.636058
3589.051057,-766.095498,-444.123565,9474.636058
3589.051371,-689.485948,-814.226536,9770.718434
3589.051686,-842.705048,-740.205942,9770.718434
3589.052000,-612.876398,-814.226536,10584.944971
3589.052314,-383.047749,-888.247130,10955.047942
3589.052629,-229.828649,-592.164754,10658.965565
3589.052943,0.000000,-0.000000,9844.739029
3589.053257,306.438199,-0.000000,9474.636058
3589.053572,995.924147,518.144159,9178.553681
3589.053886,1455.581446,740.205942,8512.368333
3589.054200,1532.190996,814.226536,8142.265362
3589.054514,1685.410096,518.144159,8068.244768
3589.054829,1455.581446,-0.000000,8438.347739
3589.055143,1149.143247,-74.020594,8808.450710
3589.055457,612.876398,-740.205942,9030.512492
3589.055772,0.000000,-962.267725,9548.656652
3589.056086,0.000000,-666.185348,9696.697840
3589.056400,-306.438199,-740.205942,9918.759623
3589.056715,0.000000,-740.205942,9844.739029
3589.057029,0.000000,-1036.288319,9844.739029
3589.057343,0.000000,296.082377,8882.471304
3589.057657,459.657299,592.164754,8660.409521
3589.057972,383.047749,666.185348,9326.594869
3589.058286,459.657299,518.144159,9548.656652
3589.058600,229.828649,-0.000000,8882.471304
3589.058915,153.219100,222.061783,9474.636058
3589.059229,153.219100,74.020594,10140.821405
3589.059543,0.000000,296.082377,10510.924376
3589.059858,-766.095498,-0.000000,10584.944971
3589.060172,-383.047749,-148.041188,10214.842000
3589.060486,-842.705048,-222.061783,9992.780217
3589.060801,-842.705048,296.082377,9992.780217
3589.061115,-459.657299,-0.000000,9474.636058
3589.061429,0.000000,222.061783,9474.636058
3589.061743,153.219100,-0.000000,9400.615463
3589.062058,229.828649,518.144159,9252.574275
3589.062372,76.609550,518.144159,9474.636058
3589.062686,229.828649,296.082377,9770.718434
3589.063001,229.828649,148.041188,10288.862594
3589.063315,153.219100,592.164754,9992.780217
3589.063629,0.000000,814.226536,9992.780217
3589.063944,0.000000,814.226536,9696.697840
3589.064258,0.000000,962.267725,9474.636058
3589.064572,-306.438199,814.226536,9400.615463
3589.064886,0.000000,444.123565,9400.615463
3589.065201,0.000000,148.041188,9474.636058
3589.065515,-306.438199,-222.061783,10140.821405
3589.065829,-919.314598,-222.061783,10066.800811
3589.066144,-995.924147,-0.000000,10288.862594
3589.066458,-612.876398,-296.082377,10214.842000
3589.066772,-612.876398,-0.000000,10510.924376
3589.067087,-229.828649,444.123565,10214.842000
3589.067401,536.266849,666.185348,9918.759623
3589.067715,995.924147,962.267725,9474.636058
3589.068030,1302.362347,1184.329507,8882.471304
3589.068344,1685.410096,1332.370696,8660.409521
3589.068658,1838.629195,888.247130,8216.285956
3589.068972,1455.581446,666.185348,8660.409521
3589.069287,1378.971896,296.082377,8660.409521
3589.069601,1072.533697,-0.000000,8956.491898
3589.069915,689.485948,-0.000000,9474.636058
3589.070230,383.047749,-74.020594,9992.780217
3589.070544,0.000000,-222.061783,9992.780217
3589.070858,0.000000,-370.102971,10288.862594
3589.071172,-306.438199,-0.000000,9844.739029
3589.071487,-306.438199,370.102971,9548.656652
3589.071801,229.828649,444.123565,9400.615463
3589.072115,383.047749,740.205942,9474.636058
3589.072429,459.657299,740.205942,9474.636058
3589.072744,536.266849,888.247130,9400.615463
3589.073058,459.657299,370.102971,9844.739029
3589.073372,229.828649,370.102971,10140.821405
3589.073686,0.000000,148.041188,10362.883188
3589.074001,-153.219100,148.041188,9992.780217
3589.074315,-383.047749,-148.041188,10140.821405
3589.074629,-306.438199,-222.061783,10362.883188
3589.074943,153.219100,-222.061783,10140.821405
3589.075258,-383.047749,-518.144159,9992.780217
3589.075572,0.000000,-444.123565,9474.636058
3589.075886,153.219100,-740.205942,9030.512492
3589.076200,306.438199,-222.061783,9252.574275
3589.076515,459.657299,-222.061783,9326.594869
3589.076829,383.047749,-74.020594,9474.636058
3589.077143,229.828649,-0.000000,9178.553681
3589.077457,536.266849,-0.000000,9474.636058
3589.077772,459.657299,-0.000000,9622.677246
3589.078086,306.438199,-0.000000,9474.636058
3589.078400,0.000000,222.061783,9252.574275
3589.078714,0.000000,-0.000000,9252.574275
3589.079029,0.000000,-222.061783,9474.636058
3589.079343,-383.047749,-148.041188,9548.656652
3589.079657,-766.095498,-814.226536,9696.697840
3589.079971,-766.095498,-592.164754,10288.862594
3589.080286,-766.095498,-666.185348,10214.842000
3589.080600,-612.876398,-666.185348,10584.944971
3589.080914,-306.438199,-148.041188,10658.965565
3589.081228,-153.219100,-0.000000,9844.739029
3589.081543,153.219100,518.144159,9548.656652
3589.081857,306.438199,666.185348,9178.553681
3589.082171,1532.190996,1110.308913,8734.430116
3589.082485,1532.190996,1258.350101,8512.368333
3589.082800,1302.362347,1036.288319,8290.306550
3589.083114,1225.752797,370.102971,8290.306550
3589.083428,919.314598,296.082377,8734.430116
3589.083742,842.705048,-0.000000,9178.553681
3589.084057,0.000000,-222.061783,9696.697840
3589.084371,-383.047749,-592.164754,10214.842000
3589.084685,-766.095498,-296.082377,9992.780217
3589.084999,-459.657299,-296.082377,9770.718434
3589.085314,-229.828649,-0.000000,9918.759623
3589.085628,-229.828649,296.082377,9548.656652
3589.085942,0.000000,666.185348,9474.636058
3589.086256,306.438199,888.247130,9400.615463
3589.086571,306.438199,666.185348,9326.594869
3589.086885,306.438199,740.205942,9252.574275
3589.087199,229.828649,666.185348,9696.697840
3589.087513,153.219100,444.123565,10436.903782
3589.087828,0.000000,296.082377,10140.821405
3589.088142,-536.266849,-0.000000,9992.780217
3589.088456,-229.828649,-0.000000,10732.986159
3589.088770,-536.266849,-0.000000,10362.883188
3589.089085,-383.047749,148.041188,10288.862594
3589.089399,0.000000,-0.000000,9918.759623
3589.089713,306.438199,-0.000000,9844.739029
3589.090027,383.047749,-0.000000,9474.636058
3589.090342,536.266849,148.041188,9104.533087
3589.090656,919.314598,370.102971,9474.636058
3589.090970,689.485948,370.102971,9474.636058
3589.091284,459.657299,222.061783,9474.636058
3589.091599,919.314598,592.164754,9474.636058
3589.091913,842.705048,222.061783,9770.718434
3589.092227,459.657299,592.164754,9474.636058
3589.092541,229.828649,518.144159,8956.491898
3589.092856,536.266849,814.226536,9400.615463
3589.093170,0.000000,148.041188,9400.615463
3589.093484,229.828649,-0.000000,9696.697840
3589.093798,-689.485948,-0.000000,9622.677246
3589.094113,-766.095498,-444.123565,9770.718434
3589.094427,-612.876398,-296.082377,10732.986159
3589.094741,-842.705048,-444.123565,10732.986159
3589.095055,-612.876398,-222.061783,10732.986159
3589.095370,-383.047749,370.102971,9696.697840
3589.095684,459.657299,592.164754,9622.677246
3589.095998,766.095498,518.144159,9696.697840
3589.096312,766.095498,962.267725,8956.491898
3589.096627,1532.190996,962.267725,8512.368333
3589.096941,1072.533697,740.205942,8438.347739
3589.097255,1072.533697,518.144159,8290.306550
3589.097569,1378.971896,148.041188,8734.430116
3589.097884,76.609550,-296.082377,8882.471304
3589.098198,0.000000,-666.185348,9622.677246
3589.098512,-536.266849,-962.267725,9770.718434
3589.098826,-842.705048,-592.164754,10140.821405
3589.099141,-689.485948,-814.226536,10436.903782
3589.099455,-612.876398,-296.082377,9918.759623
3589.099769,-153.219100,-74.020594,9622.677246
3589.100083,0.000000,296.082377,9178.553681
3589.100398,153.219100,148.041188,9400.615463
3589.100712,153.219100,296.082377,9400.615463
3589.101026,383.047749,370.102971,8956.491898
3589.101340,153.219100,444.123565,9548.656652
3589.101655,-229.828649,-0.000000,9918.759623
3589.101969,-612.876398,-0.000000,10214.842000
3589.102283,0.000000,-222.061783,10140.821405
3589.102597,-459.657299,-444.123565,10436.903782
3589.102912,-612.876398,-370.102971,10362.883188
3589.103226,-689.485948,-666.185348,10140.821405
3589.103540,-229.828649,-666.185348,9844.739029
3589.103854,153.219100,-222.061783,9696.697840
3589.104169,306.438199,-74.020594,9622.677246
3589.104483,306.438199,-74.020594,9400.615463
3589.104797,689.485948,296.082377,9104.533087
3589.105111,612.876398,296.082377,9400.615463
3589.105426,459.657299,148.041188,9326.594869
3589.105740,766.095498,222.061783,9918.759623
3589.106054,306.438199,296.082377,9844.739029
3589.106368,383.047749,370.102971,9252.574275
3589.106683,0.000000,222.061783,9178.553681
3589.106997,0.000000,370.102971,8956.491898
3589.107311,0.000000,-74.020594,9252.574275
3589.107625,-383.047749,-74.020594,9474.636058
3589.107940,-383.047749,-222.061783,9622.677246
3589.108254,-536.266849,-666.185348,9918.759623
3589.108568,-459.657299,-296.082377,10214.842000
3589.108882,-153.219100,-148.041188,10288.862594
3589.109197,0.000000,-148.041188,10362.883188
3589.109511,229.828649,296.082377,10214.842000
3589.109825,459.657299,666.185348,9844.739029
3589.110139,1225.752797,740.205942,9252.574275
3589.110454,1532.190996,666.185348,8956.491898
3589.110768,1762.019645,814.226536,8438.347739
3589.111082,1685.410096,814.226536,8290.306550
3589.111396,1608.800546,740.205942,8808.450710
3589.111711,1149.143247,296.082377,8956.491898
3589.112025,536.266849,-222.061783,9104.533087
3589.112339,153.219100,-296.082377,9548.656652
3589.112653,-153.219100,-0.000000,10066.800811
3589.112968,-383.047749,-370.102971,10362.883188
3589.113282,-383.047749,-0.000000,10214.842000
3589.113596,-536.266849,370.102971,9844.739029
3589.113910,-229.828649,370.102971,9622.677246
3589.114225,229.828649,814.226536,9326.594869
3589.114539,0.000000,1036.288319,9400.615463
3589.114853,383.047749,888.247130,9548.656652
3589.115167,383.047749,814.226536,9400.615463
3589.115482,0.000000,666.185348,9622.677246
3589.115796,-229.828649,814.226536,10510.924376
3589.116110,-306.438199,666.185348,10140.821405
3589.116424,-766.095498,222.061783,10066.800811
3589.116739,-1378.971896,222.061783,10510.924376
3589.117053,-1072.533697,296.082377,10510.924376
3589.117367,-766.095498,370.102971,10140.821405
3589.117681,-229.828649,148.041188,9770.718434
3589.117996,0.000000,-0.000000,9474.636058
3589.118310,-229.828649,-0.000000,9326.594869
3589.118624,153.219100,518.144159,9252.574275
3589.118938,612.876398,222.061783,9252.574275
3589.119253,536.266849,222.061783,9252.574275
3589.119567,689.485948,222.061783,9252.574275
3589.119881,383.047749,296.082377,9474.636058
3589.120195,459.657299,-0.000000,9548.656652
3589.120510,76.609550,296.082377,9400.615463
3589.120824,0.000000,-0.000000,9474.636058
3589.121138,76.609550,148.041188,9326.594869
3589.121452,153.219100,-0.000000,9400.615463
3589.121767,-459.657299,-444.123565,9474.636058
3589.122081,0.000000,-148.041188,9770.718434
3589.122395,-229.828649,-222.061783,10362.883188
3589.122709,-306.438199,-592.164754,10288.862594
3589.123024,0.000000,-370.102971,10288.862594
3589.123338,0.000000,-148.041188,9992.780217
3589.123652,153.219100,-0.000000,9770.718434
3589.123966,459.657299,370.102971,9918.759623
3589.124281,1302.362347,444.123565,9474.636058
3589.124595,995.924147,518.144159,8808.450710
3589.124909,1762.019645,740.205942,8364.327145
3589.125223,1838.629195,740.205942,8660.409521
3589.125538,1685.410096,296.082377,8956.491898
3589.125852,1149.143247,-0.000000,8660.409521
3589.126166,1149.143247,-74.020594,8956.491898
3589.126480,536.266849,-592.164754,9548.656652
3589.126795,0.000000,-518.144159,9918.759623
3589.127109,-229.828649,-444.123565,9992.780217
3589.127423,-229.828649,-370.102971,9844.739029
3589.127737,-229.828649,-518.144159,9992.780217
3589.128052,-536.266849,148.041188,9326.594869
3589.128366,0.000000,518.144159,9400.615463
3589.128680,76.609550,666.185348,9474.636058
3589.128994,0.000000,296.082377,9252.574275
3589.129309,76.609550,370.102971,9252.574275
3589.129623,0.000000,444.123565,9474.636058
3589.129937,-153.219100,-0.000000,10510.924376
3589.130251,-536.266849,-0.000000,9992.780217
3589.130566,-995.924147,-518.144159,9622.677246
3589.130880,-1072.533697,-148.041188,10362.883188
3589.131194,-842.705048,-148.041188,10140.821405
3589.131508,-536.266849,-222.061783,9992.780217
3589.131823,-536.266849,-370.102971,9696.697840
3589.132137,0.000000,-444.123565,9474.636058
3589.132451,153.219100,-222.061783,9104.533087
3589.132765,306.438199,148.041188,9326.594869
3589.133080,459.657299,296.082377,9400.615463
3589.133394,459.657299,-0.000000,9030.512492
3589.133708,0.000000,296.082377,9474.636058
3589.134022,306.438199,148.041188,9474.636058
3589.134337,229.828649,370.102971,9770.718434
3589.134651,76.609550,296.082377,9992.780217
3589.134965,0.000000,370.102971,9622.677246
3589.135279,0.000000,222.061783,9400.615463
3589.135594,-229.828649,518.144159,9548.656652
3589.135908,0.000000,296.082377,9622.677246
3589.136222,-383.047749,-74.020594,9918.759623
3589.136537,-689.485948,-74.020594,10066.800811
3589.136851,-306.438199,-148.041188,10362.883188
3589.137165,-459.657299,-148.041188,10436.903782
3589.137479,76.609550,-0.000000,10362.883188
3589.137794,0.000000,444.123565,9918.759623
3589.138108,459.657299,740.205942,9474.636058
3589.138422,383.047749,962.267725,9326.594869
3589.138736,1072.533697,1036.288319,8956.491898
3589.139051,1455.581446,1110.308913,8586.388927
3589.139365,1608.800546,1036.288319,8364.327145
3589.139679,1378.971896,518.144159,8438.347739
3589.139993,1225.752797,296.082377,8808.450710
3589.140308,995.924147,-0.000000,9030.512492
3589.140622,306.438199,-370.102971,9474.636058
3589.140936,0.000000,-0.000000,9918.759623
3589.141250,-612.876398,-148.041188,9992.780217
3589.141565,-153.219100,-222.061783,9992.780217
3589.141879,153.219100,518.144159,9622.677246
3589.142193,76.609550,296.082377,9326.594869
3589.142507,459.657299,962.267725,9178.553681
3589.142822,919.314598,888.247130,8956.491898
3589.143136,612.876398,888.247130,9178.553681
3589.143450,842.705048,740.205942,9400.615463
3589.143764,383.047749,296.082377,9696.697840
3589.144079,0.000000,-0.000000,9992.780217
3589.144393,-306.438199,222.061783,10288.862594
3589.144707,-383.047749,-0.000000,10732.986159
3589.145021,-153.219100,-74.020594,10288.862594
3589.145336,-536.266849,-0.000000,10362.883188
3589.145650,-689.485948,-0.000000,10140.821405
3589.145964,0.000000,-0.000000,10140.821405
3589.146278,383.047749,296.082377,9622.677246
3589.146593,153.219100,296.082377,9326.594869
3589.146907,306.438199,444.123565,9400.615463
3589.147221,383.047749,444.123565,9622.677246
3589.147535,612.876398,-0.000000,9844.739029
3589.147850,536.266849,296.082377,9622.677246
3589.148164,0.000000,370.102971,10066.800811
3589.148478,76.609550,296.082377,9918.759623
3589.148792,0.000000,444.123565,9844.739029
3589.149107,-383.047749,296.082377,9178.553681
3589.149421,-536.266849,-0.000000,9326.594869
3589.149735,-383.047749,-0.000000,9474.636058
3589.150049,-689.485948,-0.000000,9548.656652
3589.150364,-919.314598,-370.102971,9918.759623
3589.150678,-1378.971896,-444.123565,9844.739029
3589.150992,-1378.971896,-666.185348,10362.883188
3589.151306,-919.314598,-814.226536,10288.862594
3589.151621,-612.876398,-74.020594,10436.903782
3589.151935,-383.047749,-0.000000,9770.718434
3589.152249,0.000000,-0.000000,9474.636058
3589.152563,612.876398,222.061783,9770.718434
3589.152878,995.924147,740.205942,8734.430116
3589.153192,1302.362347,592.164754,8290.306550
3589.153506,1378.971896,222.061783,8068.244768
3589.153820,1302.362347,222.061783,8142.265362
3589.154135,842.705048,-592.164754,8512.368333
3589.154449,383.047749,-444.123565,9178.553681
3589.154763,76.609550,-1036.288319,9548.656652
3589.155077,-229.828649,-814.226536,9622.677246
3589.155392,-536.266849,-666.185348,9474.636058
3589.155706,-153.219100,-814.226536,10288.862594
3589.156020,-383.047749,-666.185348,10288.862594
3589.156334,0.000000,-148.041188,9548.656652
3589.156649,306.438199,-0.000000,9252.574275
3589.156963,766.095498,740.205942,9326.594869
3589.157277,842.705048,814.226536,9474.636058
3589.157591,919.314598,666.185348,9104.533087
3589.157906,536.266849,666.185348,9622.677246
3589.158220,76.609550,148.041188,10288.862594
3589.158534,-229.828649,370.102971,9992.780217
3589.158848,0.000000,-0.000000,10288.862594
3589.159163,-536.266849,-0.000000,10436.903782
3589.159477,-306.438199,-222.061783,10510.924376
3589.159791,-459.657299,-148.041188,9918.759623
3589.160105,-153.219100,-222.061783,9696.697840
3589.160420,0.000000,-0.000000,9696.697840
3589.160734,0.000000,-0.000000,9548.656652
3589.161048,306.438199,-0.000000,9400.615463
3589.161362,383.047749,148.041188,9326.594869
3589.161677,689.485948,296.082377,9474.636058
3589.161991,919.314598,370.102971,9252.574275
3589.162305,536.266849,592.164754,9474.636058
3589.162619,459.657299,444.123565,9622.677246
3589.162934,229.828649,444.123565,9548.656652
3589.163248,0.000000,666.185348,9178.553681
3589.163562,0.000000,740.205942,9104.533087
3589.163876,459.657299,370.102971,9178.553681
3589.164191,229.828649,-74.020594,9770.718434
3589.164505,-459.657299,-0.000000,9696.697840
3589.164819,-842.705048,-444.123565,10066.800811
3589.165133,-766.095498,-444.123565,10140.821405
3589.165448,-383.047749,-518.144159,10362.883188
3589.165762,0.000000,-0.000000,10510.924376
3589.166076,459.657299,444.123565,9696.697840
3589.166390,153.219100,740.205942,9474.636058
3589.166705,842.705048,1110.308913,9622.677246
3589.167019,1149.143247,1258.350101,9252.574275
3589.167333,1302.362347,962.267725,8290.306550
3589.167647,1302.362347,962.267725,8142.265362
3589.167962,1302.362347,444.123565,9178.553681
3589.168276,842.705048,296.082377,8882.471304
3589.168590,536.266849,148.041188,9474.636058
3589.168904,153.219100,-0.000000,9622.677246
3589.169219,0.000000,-592.164754,10288.862594
3589.169533,-536.266849,-222.061783,10140.821405
3589.169847,-766.095498,-370.102971,10288.862594
3589.170161,-842.705048,-0.000000,10362.883188
3589.170476,-536.266849,444.123565,9474.636058
3589.170790,-766.095498,740.205942,8956.491898
3589.171104,0.000000,888.247130,9474.636058
3589.171418,76.609550,814.226536,9548.656652
3589.171733,76.609550,740.205942,9474.636058
3589.172047,-229.828649,518.144159,9622.677246
3589.172361,-229.828649,-0.000000,9770.718434
3589.172675,-536.266849,296.082377,10140.821405
3589.172990,-689.485948,-0.000000,10362.883188
3589.173304,-689.485948,-370.102971,10288.862594
3589.173618,-689.485948,-296.082377,10066.800811
3589.173932,-612.876398,-370.102971,9696.697840
3589.174247,0.000000,-0.000000,9548.656652
3589.174561,0.000000,-148.041188,9474.636058
3589.174875,383.047749,-0.000000,9252.574275
3589.175189,383.047749,-0.000000,9400.615463
3589.175503,76.609550,-222.061783,9474.636058
3589.175818,919.314598,-0.000000,9252.574275
3589.176132,612.876398,-74.020594,9474.636058
3589.176446,459.657299,-0.000000,9770.718434
3589.176760,383.047749,-0.000000,9474.636058
3589.177074,229.828649,-0.000000,9474.636058
3589.177389,306.438199,444.123565,9326.594869
3589.177703,153.219100,296.082377,9400.615463
3589.178017,459.657299,-0.000000,9030.512492
3589.178331,76.609550,-592.164754,9474.636058
3589.178645,-153.219100,-296.082377,9992.780217
3589.178960,-536.266849,-592.164754,10362.883188
3589.179274,-306.438199,-962.267725,10436.903782
3589.179588,-306.438199,-740.205942,10510.924376
3589.179902,-306.438199,-444.123565,10436.903782
3589.180216,0.000000,-74.020594,9992.780217
3589.180531,383.047749,222.061783,9918.759623
3589.180845,766.095498,370.102971,9844.739029
3589.181159,995.924147,444.123565,9030.512492
3589.181473,1455.581446,962.267725,8512.368333
3589.181787,1608.800546,740.205942,8512.368333
3589.182102,1532.190996,444.123565,8364.327145
3589.182416,1838.629195,222.061783,8586.388927
3589.182730,1149.143247,222.061783,8956.491898
3589.183044,536.266849,-370.102971,9252.574275
3589.183358,0.000000,-444.123565,9622.677246
3589.183673,-536.266849,-666.185348,10140.821405
3589.183987,-612.876398,-518.144159,9918.759623
3589.184301,-766.095498,-518.144159,9474.636058
3589.184615,-689.485948,148.041188,9474.636058
3589.184929,-306.438199,518.144159,9326.594869
3589.185244,76.609550,444.123565,9474.636058
3589.185558,76.609550,444.123565,9474.636058
3589.185872,-306.438199,370.102971,9030.512492
3589.186186,0.000000,518.144159,9622.677246
3589.186500,0.000000,296.082377,9918.759623
3589.186815,-536.266849,370.102971,9770.718434
3589.187129,-536.266849,-0.000000,9992.780217
3589.187443,-612.876398,-222.061783,9844.739029
3589.187757,-383.047749,-74.020594,10066.800811
3589.188071,-383.047749,-148.041188,9918.759623
3589.188386,-689.485948,-74.020594,9992.780217
3589.188700,-459.657299,-0.000000,9696.697840
3589.189014,153.219100,-0.000000,9104.533087
3589.189328,459.657299,-0.000000,9474.636058
3589.189642,459.657299,370.102971,9548.656652
3589.189957,689.485948,444.123565,9696.697840
3589.190271,383.047749,444.123565,9400.615463
3589.190585,842.705048,296.082377,9622.677246
3589.190899,612.876398,888.247130,10140.821405
3589.191213,229.828649,888.247130,9770.718434
3589.191528,0.000000,814.226536,9696.697840
3589.191842,0.000000,814.226536,9474.636058
3589.192156,0.000000,666.185348,9474.636058
3589.192470,-229.828649,222.061783,9770.718434
3589.192784,-383.047749,-74.020594,10066.800811
3589.193099,-766.095498,-148.041188,10214.842000
3589.193413,-842.705048,-444.123565,10362.883188
3589.193727,-459.657299,-148.041188,10510.924376
3589.194041,-306.438199,-0.000000,10436.903782
3589.194355,0.000000,-0.000000,9918.759623
3589.194670,383.047749,740.205942,9622.677246
3589.194984,919.314598,888.247130,9178.553681
3589.195298,1838.629195,1406.391290,8956.491898
3589.195612,1378.971896,1036.288319,8512.368333
3589.195926,1608.800546,888.247130,8216.285956
3589.196241,1685.410096,888.247130,8512.368333
3589.196555,1149.143247,222.061783,8734.430116
3589.196869,612.876398,-222.061783,9252.574275
3589.197183,153.219100,-74.020594,9918.759623
3589.197497,0.000000,-518.144159,9770.718434
3589.197812,-306.438199,-666.185348,9622.677246
3589.198126,-689.485948,-518.144159,10066.800811
3589.198440,-306.438199,-74.020594,9770.718434
3589.198754,-229.828649,-0.000000,9548.656652
3589.199068,76.609550,592.164754,9326.594869
3589.199383,306.438199,592.164754,9326.594869
3589.199697,612.876398,740.205942,9326.594869
3589.200011,536.266849,592.164754,9104.533087
3589.200325,383.047749,444.123565,9548.656652
3589.200639,0.000000,296.082377,10362.883188
3589.200954,0.000000,296.082377,10140.821405
3589.201268,-919.314598,-148.041188,10288.862594
3589.201582,-536.266849,-370.102971,10362.883188
3589.201896,-229.828649,-296.082377,10436.903782
3589.202210,-766.095498,-518.144159,10066.800811
3589.202525,-842.705048,-148.041188,9992.780217
3589.202839,-383.047749,-74.020594,9770.718434
3589.203153,153.219100,-148.041188,9474.636058
3589.203467,0.000000,-0.000000,9474.636058
3589.203781,0.000000,-0.000000,9400.615463
3589.204096,383.047749,-74.020594,9474.636058
3589.204410,459.657299,-0.000000,9326.594869
3589.204724,153.219100,222.061783,9622.677246
3589.205038,306.438199,296.082377,9622.677246
3589.205352,0.000000,296.082377,9400.615463
3589.205667,-229.828649,222.061783,9104.533087
3589.205981,-383.047749,-0.000000,9252.574275
3589.206295,-153.219100,-296.082377,9844.739029
3589.206609,-459.657299,-444.123565,9622.677246
3589.206923,-919.314598,-666.185348,9696.697840
3589.207238,-995.924147,-740.205942,9992.780217
3589.207552,-459.657299,-1036.288319,10066.800811
3589.207866,-306.438199,-740.205942,10362.883188
3589.208180,0.000000,-74.020594,10140.821405
3589.208494,0.000000,-74.020594,9400.615463
3589.208809,306.438199,444.123565,9326.594869
3589.209123,1072.533697,518.144159,9030.512492
3589.209437,1378.971896,444.123565,9104.533087
3589.209751,1608.800546,740.205942,8438.347739
3589.210065,1685.410096,592.164754,8216.285956
3589.210380,1532.190996,592.164754,8660.409521
3589.210694,1149.143247,-0.000000,8586.388927
3589.211008,995.924147,-148.041188,9252.574275
3589.211322,0.000000,-592.164754,9918.759623
3589.211636,0.000000,-666.185348,9918.759623
3589.211951,-306.438199,-592.164754,10362.883188
3589.212265,-383.047749,-444.123565,10140.821405
3589.212579,-153.219100,-0.000000,9992.780217
3589.212893,-383.047749,148.041188,9622.677246
3589.213207,153.219100,518.144159,9474.636058
3589.213522,306.438199,962.267725,9178.553681
3589.213836,459.657299,962.267725,9474.636058
3589.214150,689.485948,814.226536,9474.636058
3589.214464,612.876398,814.226536,9622.677246
3589.214779,0.000000,518.144159,10288.862594
3589.215093,-153.219100,444.123565,10362.883188
3589.215407,-306.438199,148.041188,10362.883188
3589.215721,-229.828649,-0.000000,10732.986159
3589.216035,-306.438199,-0.000000,10362.883188
3589.216350,-612.876398,-0.000000,9696.697840
3589.216664,-383.047749,-0.000000,9918.759623
3589.216978,-689.485948,296.082377,9474.636058
3589.217292,-229.828649,-0.000000,9326.594869
3589.217606,0.000000,666.185348,9548.656652
3589.217921,612.876398,296.082377,9326.594869
3589.218235,612.876398,296.082377,9178.553681
3589.218549,842.705048,814.226536,9178.553681
3589.218863,306.438199,740.205942,9992.780217
3589.219177,459.657299,592.164754,9400.615463
3589.219492,383.047749,666.185348,9400.615463
3589.219806,76.609550,888.247130,9178.553681
3589.220120,306.438199,962.267725,9104.533087
3589.220434,153.219100,148.041188,9474.636058
3589.220748,-459.657299,-222.061783,9548.656652
3589.221063,-536.266849,-370.102971,10214.842000
3589.221377,-842.705048,-296.082377,9918.759623
3589.221691,-919.314598,-370.102971,10140.821405
3589.222005,-689.485948,-518.144159,10881.027347
3589.222319,-383.047749,-148.041188,10732.986159
3589.222634,0.000000,296.082377,9992.780217
3589.222948,153.219100,666.185348,9696.697840
3589.223262,842.705048,740.205942,9326.594869
3589.223576,1225.752797,370.102971,8882.471304
3589.223890,1532.190996,814.226536,8438.347739
3589.224205,1302.362347,814.226536,8586.388927
3589.224519,1378.971896,518.144159,8660.409521
3589.224833,919.314598,148.041188,8956.491898
3589.225147,612.876398,-0.000000,9326.594869
3589.225461,0.000000,-518.144159,9770.718434
3589.225776,-459.657299,-518.144159,9992.780217
3589.226090,-383.047749,-592.164754,9918.759623
3589.226404,0.000000,-592.164754,10436.903782
3589.226718,-383.047749,-370.102971,10510.924376
3589.227032,-459.657299,148.041188,9178.553681
3589.227347,-229.828649,592.164754,9104.533087
3589.227661,153.219100,888.247130,9326.594869
3589.227975,459.657299,740.205942,9326.594869
3589.228289,459.657299,444.123565,9178.553681
3589.228603,383.047749,370.102971,9252.574275
3589.228918,153.219100,-0.000000,9474.636058
3589.229232,0.000000,222.061783,10066.800811
3589.229546,-229.828649,-0.000000,10658.965565
3589.229860,-1072.533697,-370.102971,10436.903782
3589.230174,-995.924147,-370.102971,10140.821405
3589.230489,-612.876398,-518.144159,9696.697840
3589.230803,-153.219100,-222.061783,9770.718434
3589.231117,536.266849,-222.061783,9696.697840
3589.231431,0.000000,-296.082377,9474.636058
3589.231745,306.438199,-148.041188,9252.574275
3589.232060,459.657299,-0.000000,9104.533087
3589.232374,536.266849,-0.000000,9326.594869
3589.232688,536.266849,-0.000000,9696.697840
3589.233002,153.219100,444.123565,10140.821405
3589.233316,306.438199,-0.000000,9770.718434
3589.233631,229.828649,-0.000000,9622.677246
3589.233945,153.219100,370.102971,9474.636058
3589.234259,-383.047749,-0.000000,9474.636058
3589.234573,-383.047749,-148.041188,9474.636058
3589.234887,-383.047749,-222.061783,10066.800811
3589.235202,-383.047749,-518.144159,9844.739029
3589.235516,-766.095498,-222.061783,10288.862594
3589.235830,0.000000,-592.164754,10140.821405
3589.236144,-536.266849,-74.020594,10362.883188
3589.236458,-306.438199,-148.041188,10288.862594
3589.236773,0.000000,-0.000000,9992.780217
3589.237087,536.266849,-0.000000,9844.739029
3589.237401,459.657299,666.185348,9474.636058
3589.237715,1225.752797,814.226536,8808.450710
3589.238029,1378.971896,888.247130,8216.285956
3589.238344,1302.362347,1036.288319,8364.327145
3589.238658,1302.362347,592.164754,8438.347739
3589.238972,919.314598,148.041188,8586.388927
3589.239286,1149.143247,-0.000000,9104.533087
3589.239600,0.000000,-444.123565,9400.615463
3589.239915,153.219100,-222.061783,9770.718434
3589.240229,0.000000,-370.102971,10140.821405
3589.240543,-612.876398,-444.123565,10362.883188
3589.240857,-229.828649,-0.000000,9622.677246
3589.241171,-306.438199,370.102971,9400.615463
3589.241486,0.000000,888.247130,9252.574275
3589.241800,383.047749,1184.329507,9326.594869
3589.242114,766.095498,1036.288319,9104.533087
3589.242428,612.876398,740.205942,9400.615463
3589.242742,0.000000,666.185348,9252.574275
3589.243057,0.000000,740.205942,10066.800811
3589.243371,0.000000,296.082377,10214.842000
3589.243685,-459.657299,296.082377,10436.903782
3589.243999,-459.657299,-0.000000,10436.903782
3589.244313,-919.314598,-0.000000,10140.821405
3589.244628,-383.047749,-0.000000,10214.842000
3589.244942,-459.657299,148.041188,10140.821405
3589.245256,842.705048,-74.020594,9844.739029
3589.245570,0.000000,-0.000000,9696.697840
3589.245884,229.828649,222.061783,9400.615463
3589.246199,612.876398,222.061783,9400.615463
3589.246513,612.876398,370.102971,9474.636058
3589.246827,766.095498,222.061783,9622.677246
3589.247141,383.047749,-0.000000,9548.656652
3589.247455,229.828649,-0.000000,9474.636058
3589.247770,153.219100,148.041188,9770.718434
3589.248084,76.609550,296.082377,9474.636058
3589.248398,-229.828649,-0.000000,9474.636058
3589.248712,-306.438199,-0.000000,9252.574275
3589.249026,-153.219100,-74.020594,9474.636058
3589.249341,-536.266849,-222.061783,9770.718434
3589.249655,-842.705048,-296.082377,9992.780217
3589.249969,-689.485948,-666.185348,10066.800811
3589.250283,-229.828649,-296.082377,10362.883188
3589.250597,-153.219100,-0.000000,10214.842000
3589.250912,76.609550,222.061783,9918.759623
3589.251226,459.657299,222.061783,9400.615463
3589.251540,995.924147,370.102971,9252.574275
3589.251854,1532.190996,888.247130,8512.368333
3589.252168,1455.581446,814.226536,7920.203579
3589.252483,1608.800546,888.247130,8216.285956
3589.252797,1532.190996,222.061783,8512.368333
3589.253111,919.314598,-0.000000,8808.450710
3589.253425,842.705048,-296.082377,8734.430116
3589.253739,229.828649,-296.082377,9400.615463
3589.254054,-229.828649,-518.144159,9844.739029
3589.254368,-459.657299,-0.000000,10214.842000
3589.254682,-306.438199,-148.041188,9992.780217
3589.254996,0.000000,-0.000000,9474.636058
3589.255310,0.000000,592.164754,9474.636058
3589.255625,0.000000,592.164754,9400.615463
3589.255939,229.828649,592.164754,9400.615463
3589.256253,76.609550,518.144159,9178.553681
3589.256567,76.609550,370.102971,9252.574275
3589.256881,0.000000,444.123565,9918.759623
3589.257196,-153.219100,-74.020594,10288.862594
3589.257510,-459.657299,-518.144159,10288.862594
3589.257824,-536.266849,-370.102971,10362.883188
3589.258138,-1149.143247,-592.164754,10584.944971
3589.258452,-995.924147,-222.061783,10288.862594
3589.258767,-842.705048,-148.041188,10140.821405
3589.259081,-383.047749,222.061783,10510.924376
3589.259395,-153.219100,-0.000000,9474.636058
3589.259709,76.609550,296.082377,9252.574275
3589.260023,153.219100,296.082377,9548.656652
3589.260338,536.266849,222.061783,9474.636058
3589.260652,536.266849,666.185348,9326.594869
3589.260966,842.705048,592.164754,9474.636058
3589.261280,459.657299,370.102971,9696.697840
3589.261595,229.828649,296.082377,9770.718434
3589.261909,229.828649,-0.000000,9474.636058
3589.262223,0.000000,296.082377,9252.574275
3589.262537,-306.438199,296.082377,9104.533087
3589.262851,0.000000,222.061783,9474.636058
3589.263166,0.000000,-222.061783,9770.718434
3589.263480,-383.047749,-444.123565,9696.697840
3589.263794,-995.924147,-222.061783,9918.759623
3589.264108,-689.485948,-74.020594,10066.800811
3589.264422,-229.828649,-0.000000,10362.883188
3589.264737,0.000000,-0.000000,10362.883188
3589.265051,76.609550,518.144159,10214.842000
3589.265365,383.047749,814.226536,9770.718434
3589.265679,919.314598,888.247130,9474.636058
3589.265993,1378.971896,1110.308913,9104.533087
3589.266308,1532.190996,1110.308913,8808.450710
3589.266622,1532.190996,518.144159,8660.409521
3589.266936,1532.190996,740.205942,8586.388927
3589.267250,1302.362347,370.102971,8364.327145
3589.267564,842.705048,-0.000000,9104.533087
3589.267879,536.266849,-296.082377,9474.636058
3589.268193,459.657299,-518.144159,9992.780217
3589.268507,-229.828649,-518.144159,10066.800811
3589.268821,-229.828649,-518.144159,10066.800811
3589.269135,0.000000,-74.020594,9474.636058
3589.269450,0.000000,148.041188,9178.553681
3589.269764,153.219100,444.123565,9622.677246
3589.270078,0.000000,888.247130,8956.491898
3589.270392,612.876398,888.247130,9178.553681
3589.270706,0.000000,740.205942,9474.636058
3589.271021,229.828649,444.123565,9548.656652
3589.271335,229.828649,370.102971,10436.903782
3589.271649,-383.047749,-0.000000,10288.862594
3589.271963,-612.876398,-74.020594,10510.924376
3589.272277,-689.485948,-296.082377,10362.883188
3589.272592,-766.095498,-148.041188,10362.883188
3589.272906,-842.705048,-74.020594,10214.842000
3589.273220,-383.047749,-148.041188,9474.636058
3589.273534,76.609550,-0.000000,9252.574275
3589.273848,229.828649,296.082377,9104.533087
3589.274163,229.828649,-0.000000,9104.533087
3589.274477,383.047749,222.061783,8956.491898
3589.274791,536.266849,296.082377,9326.594869
3589.275105,459.657299,370.102971,9400.615463
3589.275419,459.657299,148.041188,9400.615463
3589.275734,0.000000,296.082377,10214.842000
3589.276048,306.438199,444.123565,10066.800811
3589.276362,0.000000,444.123565,9326.594869
3589.276677,-153.219100,518.144159,9326.594869
3589.276991,0.000000,296.082377,9474.636058
3589.277305,-612.876398,-444.123565,9844.739029
3589.277619,-842.705048,-148.041188,9992.780217
3589.277934,-1072.533697,-370.102971,9548.656652
3589.278248,-842.705048,-444.123565,10214.842000
3589.278562,-689.485948,-148.041188,10584.944971
3589.278876,-383.047749,-296.082377,10658.965565
3589.279191,-229.828649,222.061783,10066.800811
3589.279505,306.438199,222.061783,9474.636058
3589.279819,689.485948,666.185348,9252.574275
3589.280133,766.095498,1110.308913,8882.471304
3589.280448,1532.190996,666.185348,8660.409521
3589.280762,1225.752797,518.144159,8512.368333
3589.281076,995.924147,592.164754,8364.327145
3589.281390,919.314598,-0.000000,8734.430116
3589.281705,766.095498,-518.144159,9400.615463
3589.282019,459.657299,-444.123565,9622.677246
3589.282333,0.000000,-888.247130,9918.759623
3589.282648,-153.219100,-814.226536,10362.883188
3589.282962,0.000000,-592.164754,10140.821405
3589.283276,0.000000,-222.061783,10066.800811
3589.283590,0.000000,-0.000000,9696.697840
3589.283905,0.000000,518.144159,9400.615463
3589.284219,612.876398,592.164754,9178.553681
3589.284533,459.657299,962.267725,9252.574275
3589.284847,689.485948,740.205942,9548.656652
3589.285162,459.657299,370.102971,9400.615463
3589.285476,306.438199,518.144159,9844.739029
3589.285790,0.000000,-0.000000,10066.800811
3589.286104,-459.657299,-0.000000,10362.883188
3589.286419,-306.438199,-0.000000,10288.862594
3589.286733,-842.705048,-148.041188,10214.842000
3589.287047,-689.485948,-0.000000,9844.739029
3589.287361,0.000000,74.020594,9770.718434
3589.287676,76.609550,-0.000000,9474.636058
3589.287990,229.828649,-0.000000,9548.656652
3589.288304,306.438199,592.164754,9326.594869
3589.288619,383.047749,666.185348,9104.533087
3589.288933,383.047749,518.144159,9178.553681
3589.289247,689.485948,666.185348,9548.656652
3589.289561,689.485948,370.102971,9474.636058
3589.289876,153.219100,370.102971,9474.636058
3589.290190,153.219100,518.144159,9548.656652
3589.290504,0.000000,592.164754,9474.636058
3589.290818,-153.219100,-0.000000,9622.677246
3589.291133,-536.266849,-148.041188,9622.677246
3589.291447,-536.266849,-296.082377,9622.677246
3589.291761,-919.314598,-370.102971,9844.739029
3589.292075,-766.095498,-222.061783,9992.780217
3589.292390,-612.876398,-296.082377,10510.924376
3589.292704,-689.485948,-222.061783,10288.862594
3589.293018,-383.047749,-0.000000,10362.883188
3589.293332,-153.219100,-0.000000,9918.759623
3589.293647,153.219100,296.082377,9770.718434
3589.293961,1072.533697,888.247130,9696.697840
3589.294275,919.314598,666.185348,9326.594869
3589.294590,1225.752797,1110.308913,8586.388927
3589.294904,1378.971896,518.144159,8364.327145
3589.295218,1608.800546,370.102971,8586.388927
3589.295532,1608.800546,444.123565,9400.615463
3589.295847,383.047749,296.082377,9326.594869
3589.296161,383.047749,-0.000000,9400.615463
3589.296475,0.000000,-444.123565,9474.636058
3589.296789,-306.438199,-444.123565,9992.780217
3589.297104,-383.047749,-740.205942,10288.862594
3589.297418,-306.438199,-296.082377,9696.697840
3589.297732,0.000000,-0.000000,9548.656652
3589.298046,0.000000,814.226536,9474.636058
3589.298361,229.828649,814.226536,9400.615463
3589.298675,919.314598,666.185348,9326.594869
3589.298989,0.000000,370.102971,9400.615463
3589.299303,153.219100,222.061783,9770.718434
3589.299618,0.000000,444.123565,9770.718434
3589.299932,0.000000,296.082377,10288.862594
3589.300246,-842.705048,-518.144159,10214.842000
3589.300561,-689.485948,-148.041188,10066.800811
3589.300875,-689.485948,-370.102971,10140.821405
3589.301189,-689.485948,-370.102971,10214.842000
3589.301503,0.000000,-370.102971,10066.800811
3589.301818,383.047749,-296.082377,9474.636058
3589.302132,306.438199,-74.020594,9030.512492
3589.302446,383.047749,-0.000000,9252.574275
3589.302760,306.438199,148.041188,9178.553681
3589.303075,842.705048,-0.000000,9474.636058
3589.303389,842.705048,-74.020594,9104.533087
3589.303703,766.095498,148.041188,9326.594869
3589.304017,536.266849,-0.000000,9474.636058
3589.304332,383.047749,222.061783,9696.697840
3589.304646,229.828649,-74.020594,9622.677246
3589.304960,76.609550,-0.000000,9178.553681
3589.305274,-153.219100,-0.000000,9474.636058
3589.305589,-383.047749,-370.102971,9622.677246
3589.305903,-306.438199,-370.102971,9696.697840
3589.306217,-536.266849,-518.144159,10214.842000
3589.306532,-766.095498,-518.144159,10436.903782
3589.306846,-459.657299,-296.082377,10807.006753
3589.307160,-153.219100,-148.041188,10436.903782
3589.307474,-229.828649,296.082377,9918.759623
3589.307789,76.609550,592.164754,9992.780217
3589.308103,536.266849,666.185348,9474.636058
3589.308417,612.876398,518.144159,8882.471304
3589.308731,1149.143247,814.226536,8586.388927
3589.309046,1378.971896,962.267725,8586.388927
3589.309360,1378.971896,518.144159,8438.347739
3589.309674,1149.143247,666.185348,8660.409521
3589.309988,766.095498,222.061783,9622.677246
3589.310303,0.000000,-148.041188,9548.656652
3589.310617,-306.438199,-148.041188,9844.739029
3589.310931,0.000000,-148.041188,10214.842000
3589.311245,-842.705048,-0.000000,10066.800811
3589.311560,-536.266849,-0.000000,9918.759623
3589.311874,0.000000,444.123565,9474.636058
3589.312188,153.219100,740.205942,9474.636058
3589.312503,459.657299,814.226536,8956.491898
3589.312817,766.095498,814.226536,9030.512492
3589.313131,306.438199,962.267725,9252.574275
3589.313445,153.219100,592.164754,9400.615463
3589.313760,153.219100,518.144159,9770.718434
3589.314074,76.609550,-0.000000,10214.842000
3589.314388,-459.657299,-0.000000,9992.780217
3589.314702,-383.047749,-74.020594,10140.821405
3589.315017,-383.047749,-74.020594,10362.883188
3589.315331,-383.047749,-0.000000,10362.883188
3589.315645,-536.266849,-296.082377,10066.800811
3589.315959,76.609550,-0.000000,9474.636058
3589.316274,383.047749,-0.000000,9400.615463
3589.316588,612.876398,222.061783,9326.594869
3589.316902,612.876398,370.102971,9474.636058
3589.317216,383.047749,518.144159,9696.697840
3589.317531,842.705048,148.041188,9474.636058
3589.317845,842.705048,962.267725,9252.574275
3589.318159,536.266849,592.164754,9474.636058
3589.318474,0.000000,666.185348,9844.739029
3589.318788,0.000000,592.164754,9770.718434
3589.319102,-306.438199,-0.000000,9474.636058
3589.319416,-383.047749,-0.000000,9548.656652
3589.319731,-383.047749,-370.102971,9696.697840
3589.320045,-842.705048,-592.164754,9992.780217
3589.320359,-1072.533697,-296.082377,10140.821405
3589.320673,-919.314598,-444.123565,10807.006753
3589.320988,-689.485948,-444.123565,10584.944971
3589.321302,0.000000,222.061783,10214.842000
3589.321616,-229.828649,666.185348,9992.780217
3589.321930,459.657299,592.164754,9696.697840
3589.322245,919.314598,740.205942,9104.533087
3589.322559,1149.143247,814.226536,8586.388927
3589.322873,1378.971896,740.205942,8438.347739
3589.323187,1378.971896,1036.288319,8216.285956
3589.323502,1149.143247,370.102971,8364.327145
3589.323816,995.924147,-74.020594,8512.368333
3589.324130,536.266849,-0.000000,9178.553681
3589.324445,153.219100,-592.164754,9474.636058
3589.324759,-306.438199,-888.247130,9622.677246
3589.325073,-306.438199,-666.185348,9844.739029
3589.325387,-383.047749,-518.144159,9400.615463
3589.325702,-459.657299,-222.061783,9474.636058
3589.326016,-153.219100,222.061783,10214.842000
3589.326330,0.000000,296.082377,9622.677246
3589.326644,612.876398,296.082377,9178.553681
3589.326959,153.219100,592.164754,9104.533087
3589.327273,536.266849,888.247130,9474.636058
3589.327587,383.047749,666.185348,9918.759623
3589.327901,0.000000,296.082377,10066.800811
3589.328216,-383.047749,-74.020594,10584.944971
3589.328530,-536.266849,-74.020594,10436.903782
3589.328844,-536.266849,-148.041188,10510.924376
3589.329158,-689.485948,-222.061783,10288.862594
3589.329473,-689.485948,-370.102971,10140.821405
3589.329787,-536.266849,-296.082377,9844.739029
3589.330101,0.000000,-0.000000,9770.718434
3589.330416,0.000000,222.061783,9622.677246
3589.330730,153.219100,222.061783,9252.574275
3589.331044,383.047749,370.102971,9474.636058
3589.331358,1072.533697,-0.000000,9178.553681
3589.331673,536.266849,370.102971,9474.636058
3589.331987,766.095498,-0.000000,9696.697840
3589.332301,383.047749,296.082377,9770.718434
3589.332615,229.828649,-0.000000,9548.656652
3589.332930,-229.828649,296.082377,9548.656652
3589.333244,-229.828649,296.082377,9030.512492
3589.333558,-229.828649,-0.000000,9474.636058
3589.333872,-306.438199,-444.123565,9622.677246
3589.334187,-689.485948,-740.205942,9474.636058
3589.334501,-612.876398,-962.267725,9770.718434
3589.334815,-995.924147,-740.205942,10140.821405
3589.335129,-612.876398,-740.205942,10214.842000
3589.335444,-153.219100,-370.102971,10140.821405
3589.335758,-153.219100,222.061783,10140.821405
3589.336072,766.095498,222.061783,9696.697840
3589.336387,1149.143247,666.185348,8808.450710
3589.336701,1455.581446,814.226536,8660.409521
3589.337015,1455.581446,592.164754,8956.491898
3589.337329,1532.190996,666.185348,8142.265362
3589.337644,1302.362347,296.082377,8142.265362
3589.337958,1149.143247,-0.000000,8734.430116
3589.338272,689.485948,-222.061783,9326.594869
3589.338586,306.438199,-222.061783,9474.636058
3589.338901,0.000000,-814.226536,9474.636058
3589.339215,-612.876398,-518.144159,9992.780217
3589.339529,0.000000,-444.123565,10288.862594
3589.339843,0.000000,-74.020594,9770.718434
3589.340158,0.000000,518.144159,9474.636058
3589.340472,459.657299,888.247130,9474.636058
3589.340786,459.657299,1110.308913,8956.491898
3589.341100,919.314598,1258.350101,9252.574275
3589.341415,536.266849,962.267725,9622.677246
3589.341729,229.828649,962.267725,9696.697840
3589.342043,383.047749,592.164754,9844.739029
3589.342358,0.000000,74.020594,10140.821405
3589.342672,-459.657299,-74.020594,10510.924376
3589.342986,-766.095498,-0.000000,10436.903782
3589.343300,-689.485948,-0.000000,10436.903782
3589.343615,-919.314598,-0.000000,10140.821405
3589.343929,-383.047749,-0.000000,9844.739029
3589.344243,-153.219100,-0.000000,9474.636058
3589.344557,76.609550,-0.000000,9474.636058
3589.344872,459.657299,444.123565,9770.718434
3589.345186,383.047749,-0.000000,9252.574275
3589.345500,612.876398,444.123565,9400.615463
3589.345814,229.828649,444.123565,9474.636058
3589.346129,306.438199,814.226536,9400.615463
3589.346443,153.219100,814.226536,9474.636058
3589.346757,76.609550,370.102971,9622.677246
3589.347071,0.000000,666.185348,9474.636058
3589.347386,-229.828649,296.082377,9030.512492
3589.347700,-306.438199,-0.000000,9474.636058
3589.348014,0.000000,-222.061783,10140.821405
3589.348329,-1149.143247,-740.205942,9770.718434
3589.348643,-995.924147,-592.164754,10066.800811
3589.348957,-995.924147,-592.164754,10732.986159
3589.349271,-229.828649,-148.041188,11103.089130
3589.349586,-153.219100,-0.000000,10066.800811
3589.349900,0.000000,370.102971,9770.718434
3589.350214,229.828649,518.144159,10066.800811
3589.350528,842.705048,740.205942,9474.636058
3589.350843,1225.752797,518.144159,8882.471304
3589.351157,1685.410096,666.185348,8660.409521
3589.351471,1532.190996,888.247130,8586.388927
3589.351785,1608.800546,814.226536,8290.306550
3589.352100,1225.752797,-0.000000,8734.430116
3589.352414,995.924147,222.061783,9252.574275
3589.352728,76.609550,-592.164754,9326.594869
3589.353042,-383.047749,-888.247130,9770.718434
3589.353357,-536.266849,-814.226536,10066.800811
3589.353671,-306.438199,-888.247130,10066.800811
3589.353985,-306.438199,-666.185348,9992.780217
3589.354300,-383.047749,222.061783,9474.636058
3589.354614,229.828649,444.123565,9178.553681
3589.354928,459.657299,592.164754,9030.512492
3589.355242,766.095498,888.247130,9326.594869
3589.355557,536.266849,444.123565,9474.636058
3589.355871,76.609550,444.123565,9326.594869
3589.356185,76.609550,444.123565,9548.656652
3589.356499,-306.438199,222.061783,9918.759623
3589.356814,-306.438199,-296.082377,10288.862594
3589.357128,-995.924147,-370.102971,10510.924376
3589.357442,-612.876398,-444.123565,10288.862594
3589.357756,-229.828649,-296.082377,10584.944971
3589.358071,-306.438199,-370.102971,9770.718434
3589.358385,0.000000,-222.061783,9474.636058
3589.358699,76.609550,-222.061783,9696.697840
3589.359013,536.266849,-0.000000,8882.471304
3589.359328,919.314598,-0.000000,8956.491898
3589.359642,766.095498,444.123565,9252.574275
3589.359956,919.314598,370.102971,9622.677246
3589.360271,612.876398,148.041188,9400.615463
3589.360585,536.266849,444.123565,9474.636058
3589.360899,153.219100,370.102971,10066.800811
3589.361213,0.000000,370.102971,9844.739029
3589.361528,-229.828649,222.061783,9696.697840
3589.361842,-153.219100,-0.000000,9844.739029
3589.362156,-612.876398,-370.102971,9696.697840
3589.362470,-766.095498,-74.020594,10214.842000
3589.362785,-919.314598,-148.041188,10362.883188
3589.363099,-766.095498,-222.061783,10732.986159
3589.363413,-612.876398,-74.020594,10584.944971
3589.363727,-383.047749,296.082377,10362.883188
3589.364042,76.609550,592.164754,9918.759623
3589.364356,229.828649,592.164754,9844.739029
3589.364670,766.095498,962.267725,9326.594869
3589.364984,612.876398,814.226536,8808.450710
3589.365299,1455.581446,1184.329507,8364.327145
3589.365613,1149.143247,962.267725,7994.224174
3589.365927,995.924147,592.164754,8290.306550
3589.366242,383.047749,148.041188,9326.594869
3589.366556,306.438199,-518.144159,9474.636058
3589.366870,0.000000,-148.041188,9474.636058
3589.367184,-383.047749,-370.102971,10066.800811
3589.367499,-459.657299,-518.144159,10140.821405
3589.367813,0.000000,-0.000000,10214.842000
3589.368127,-306.438199,222.061783,9696.697840
3589.368441,0.000000,74.020594,9474.636058
3589.368756,153.219100,888.247130,9326.594869
3589.369070,229.828649,888.247130,8808.450710
3589.369384,689.485948,1110.308913,8956.491898
3589.369698,383.047749,814.226536,9178.553681
3589.370013,229.828649,370.102971,9696.697840
3589.370327,0.000000,-0.000000,9918.759623
3589.370641,0.000000,-0.000000,10362.883188
3589.370955,-459.657299,-0.000000,10584.944971
3589.371270,-229.828649,-74.020594,10362.883188
3589.371584,-536.266849,-0.000000,10436.903782
3589.371898,0.000000,-148.041188,10140.821405
3589.372213,0.000000,-0.000000,10066.800811
3589.372527,76.609550,296.082377,9474.636058
3589.372841,766.095498,370.102971,9400.615463
3589.373155,919.314598,518.144159,9252.574275
3589.373469,995.924147,666.185348,9474.636058
3589.373783,766.095498,518.144159,9548.656652
3589.374098,689.485948,518.144159,9400.615463
3589.374412,612.876398,370.102971,9474.636058
3589.374726,383.047749,148.041188,9474.636058
3589.375040,536.266849,222.061783,9696.697840
3589.375354,0.000000,666.185348,9400.615463
3589.375668,-153.219100,-222.061783,9400.615463
3589.375983,0.000000,148.041188,9622.677246
3589.376297,0.000000,-222.061783,9696.697840
3589.376611,-229.828649,-222.061783,9696.697840
3589.376925,-842.705048,-0.000000,9992.780217
3589.377239,-919.314598,-666.185348,10436.903782
3589.377553,-459.657299,-444.123565,10362.883188
3589.377868,-536.266849,-296.082377,9992.780217
3589.378182,0.000000,-0.000000,9992.780217
3589.378496,536.266849,296.082377,9918.759623
3589.378810,612.876398,740.205942,9548.656652
3589.379124,1302.362347,518.144159,8808.450710
3589.379439,1532.190996,1036.288319,8586.388927
3589.379753,1455.581446,814.226536,8512.368333
3589.380067,1455.581446,370.102971,8290.306550
3589.380381,995.924147,-0.000000,8808.450710
3589.380695,536.266849,-296.082377,9252.574275
3589.381009,0.000000,-444.123565,9474.636058
3589.381324,-229.828649,-962.267725,9770.718434
3589.381638,-536.266849,-740.205942,10288.862594
3589.381952,-383.047749,-1184.329507,10214.842000
3589.382266,-536.266849,-222.061783,9770.718434
3589.382580,-306.438199,296.082377,9696.697840
3589.382894,0.000000,370.102971,9474.636058
3589.383209,153.219100,740.205942,9326.594869
3589.383523,229.828649,666.185348,9474.636058
3589.383837,153.219100,592.164754,9696.697840
3589.384151,0.000000,296.082377,9918.759623
3589.384465,-229.828649,-0.000000,10140.821405
3589.384779,-842.705048,-0.000000,10510.924376
3589.385094,-689.485948,74.020594,10658.965565
3589.385408,-842.705048,-148.041188,9844.739029
3589.385722,-766.095498,-222.061783,10584.944971
3589.386036,-842.705048,-296.082377,10362.883188
3589.386350,-689.485948,-222.061783,9622.677246
3589.386665,0.000000,-296.082377,9548.656652
3589.386979,-153.219100,-0.000000,9252.574275
3589.387293,383.047749,370.102971,9178.553681
3589.387607,383.047749,296.082377,8956.491898
3589.387921,459.657299,-74.020594,8808.450710
3589.388235,842.705048,-0.000000,9696.697840
3589.388550,383.047749,222.061783,9326.594869
3589.388864,459.657299,296.082377,9548.656652
3589.389178,153.219100,-0.000000,9474.636058
3589.389492,153.219100,148.041188,9252.574275
3589.389806,0.000000,222.061783,9326.594869
3589.390120,383.047749,-0.000000,9178.553681
3589.390435,153.219100,-0.000000,9696.697840
3589.390749,0.000000,-222.061783,9474.636058
3589.391063,-459.657299,-370.102971,9696.697840
3589.391377,-536.266849,-740.205942,9992.780217
3589.391691,0.000000,-444.123565,10140.821405
3589.392005,153.219100,-74.020594,10362.883188
3589.392320,229.828649,-74.020594,10066.800811
3589.392634,842.705048,-0.000000,9918.759623
3589.392948,766.095498,592.164754,9178.553681
3589.393262,1302.362347,888.247130,8956.491898
3589.393576,1915.238745,1036.288319,8882.471304
3589.393891,1915.238745,888.247130,8290.306550
3589.394205,1455.581446,666.185348,8512.368333
3589.394519,1225.752797,296.082377,8956.491898
3589.394833,919.314598,148.041188,9400.615463
3589.395147,153.219100,-222.061783,9622.677246
3589.395461,0.000000,-296.082377,10214.842000
3589.395776,76.609550,-370.102971,10510.924376
3589.396090,-229.828649,-148.041188,10510.924376
3589.396404,-229.828649,222.061783,10214.842000
3589.396718,0.000000,592.164754,9622.677246
3589.397032,76.609550,666.185348,9474.636058
3589.397346,229.828649,962.267725,8956.491898
3589.397661,306.438199,1036.288319,9178.553681
3589.397975,383.047749,518.144159,9548.656652
3589.398289,0.000000,592.164754,9548.656652
3589.398603,-229.828649,296.082377,9696.697840
3589.398917,-459.657299,296.082377,10732.986159
3589.399231,-842.705048,-74.020594,10288.862594
3589.399546,-1072.533697,-74.020594,10584.944971
3589.399860,-842.705048,-0.000000,10510.924376
3589.400174,-612.876398,-0.000000,9992.780217
3589.400488,-612.876398,-0.000000,9474.636058
3589.400802,0.000000,-0.000000,9178.553681
3589.401117,229.828649,-0.000000,9400.615463
3589.401431,0.000000,222.061783,9326.594869
3589.401745,0.000000,296.082377,9252.574275
3589.402059,383.047749,-0.000000,9104.533087
3589.402373,306.438199,296.082377,9400.615463
3589.402687,612.876398,444.123565,9770.718434
3589.403002,383.047749,296.082377,9696.697840
3589.403316,229.828649,370.102971,9696.697840
3589.403630,0.000000,296.082377,9326.594869
3589.403944,-229.828649,222.061783,9104.533087
3589.404258,0.000000,-0.000000,9622.677246
3589.404572,-383.047749,-222.061783,9622.677246
3589.404887,-689.485948,-296.082377,9992.780217
3589.405201,-919.314598,-222.061783,9918.759623
3589.405515,-459.657299,-222.061783,10732.986159
3589.405829,-383.047749,-222.061783,10436.903782
3589.406143,-459.657299,-0.000000,10214.842000
3589.406457,229.828649,-74.020594,10214.842000
3589.406772,536.266849,-0.000000,9918.759623
3589.407086,766.095498,592.164754,9474.636058
3589.407400,919.314598,962.267725,9030.512492
3589.407714,1378.971896,740.205942,8586.388927
3589.408028,1838.629195,1036.288319,8290.306550
3589.408343,1608.800546,222.061783,8290.306550
3589.408657,1685.410096,-0.000000,8586.388927
3589.408971,919.314598,-444.123565,8956.491898
3589.409285,306.438199,-370.102971,8956.491898
3589.409599,-383.047749,-592.164754,9844.739029
3589.409913,-229.828649,-666.185348,9918.759623
3589.410228,-459.657299,-666.185348,9918.759623
3589.410542,-306.438199,-370.102971,9696.697840
3589.410856,0.000000,-0.000000,9622.677246
3589.411170,76.609550,370.102971,9178.553681
3589.411484,536.266849,592.164754,9178.553681
3589.411798,766.095498,740.205942,9104.533087
3589.412113,383.047749,296.082377,9326.594869
3589.412427,229.828649,370.102971,9474.636058
3589.412741,0.000000,-0.000000,9992.780217
3589.413055,-306.438199,-0.000000,10510.924376
3589.413369,-536.266849,-0.000000,10658.965565
3589.413683,-766.095498,-222.061783,10436.903782
3589.413998,-306.438199,-296.082377,10658.965565
3589.414312,-612.876398,-296.082377,9918.759623
3589.414626,-383.047749,-222.061783,9844.739029
3589.414940,0.000000,-296.082377,9770.718434
3589.415254,0.000000,-0.000000,9622.677246
3589.415569,383.047749,-222.061783,9252.574275
3589.415883,383.047749,222.061783,9030.512492
3589.416197,689.485948,222.061783,9400.615463
3589.416511,689.485948,370.102971,9622.677246
3589.416825,383.047749,592.164754,9918.759623
3589.417139,459.657299,370.102971,9992.780217
3589.417454,459.657299,-0.000000,9918.759623
3589.417768,76.609550,740.205942,9548.656652
3589.418082,-229.828649,444.123565,9326.594869
3589.418396,-153.219100,296.082377,9770.718434
3589.418710,0.000000,-74.020594,9622.677246
3589.419024,-612.876398,-148.041188,9622.677246
3589.419339,-766.095498,-518.144159,9992.780217
3589.419653,-842.705048,-222.061783,10436.903782
3589.419967,-766.095498,-296.082377,10510.924376
3589.420281,-689.485948,-0.000000,9918.759623
3589.420595,-229.828649,296.082377,9844.739029
3589.420909,306.438199,370.102971,9770.718434
3589.421224,229.828649,444.123565,9326.594869
3589.421538,1225.752797,1036.288319,9030.512492
3589.421852,1225.752797,888.247130,8660.409521
3589.422166,1378.971896,1184.329507,8438.347739
3589.422480,1532.190996,740.205942,8512.368333
3589.422795,995.924147,370.102971,8734.430116
3589.423109,842.705048,-0.000000,9178.553681
3589.423423,229.828649,-222.061783,9178.553681
3589.423737,0.000000,-148.041188,9770.718434
3589.424051,-383.047749,-296.082377,10214.842000
3589.424365,-383.047749,-0.000000,10140.821405
3589.424680,-306.438199,-370.102971,9696.697840
3589.424994,-306.438199,-0.000000,9474.636058
3589.425308,0.000000,888.247130,9622.677246
3589.425622,306.438199,1036.288319,9326.594869
3589.425936,383.047749,740.205942,9252.574275
3589.426250,383.047749,888.247130,9474.636058
3589.426565,229.828649,666.185348,9474.636058
3589.426879,0.000000,666.185348,10140.821405
3589.427193,-306.438199,518.144159,10658.965565
3589.427507,-766.095498,-0.000000,10584.944971
3589.427821,-306.438199,-0.000000,10510.924376
3589.428136,-536.266849,-296.082377,10214.842000
3589.428450,-229.828649,-74.020594,10584.944971
3589.428764,-229.828649,-0.000000,10140.821405
3589.429078,0.000000,-74.020594,9696.697840
3589.429392,0.000000,-0.000000,9622.677246
3589.429706,612.876398,-0.000000,9252.574275
3589.430021,459.657299,-0.000000,9252.574275
3589.430335,689.485948,148.041188,9326.594869
3589.430649,459.657299,222.061783,9474.636058
3589.430963,153.219100,-0.000000,9252.574275
3589.431277,383.047749,-0.000000,9474.636058
3589.431591,383.047749,-0.000000,9696.697840
3589.431906,153.219100,148.041188,9474.636058
3589.432220,306.438199,-0.000000,9104.533087
3589.432534,-153.219100,74.020594,9474.636058
3589.432848,-229.828649,-74.020594,9696.697840
3589.433162,-459.657299,-370.102971,9622.677246
3589.433476,-689.485948,-444.123565,9918.759623
3589.433791,-459.657299,-666.185348,9992.780217
3589.434105,-383.047749,-444.123565,10288.862594
3589.434419,0.000000,-0.000000,10214.842000
3589.434733,76.609550,-148.041188,10066.800811
3589.435047,459.657299,148.041188,9548.656652
3589.435362,459.657299,-0.000000,9178.553681
3589.435676,995.924147,740.205942,8734.430116
3589.435990,1455.581446,888.247130,9030.512492
3589.436304,1378.971896,814.226536,8068.244768
3589.436618,1302.362347,666.185348,8364.327145
3589.436932,842.705048,148.041188,8882.471304
3589.437247,536.266849,-0.000000,9030.512492
3589.437561,153.219100,-370.102971,9474.636058
3589.437875,0.000000,-518.144159,9770.718434
3589.438189,-536.266849,-666.185348,10658.965565
3589.438503,-383.047749,-444.123565,10214.842000
3589.438817,-766.095498,-148.041188,9770.718434
3589.439132,-383.047749,-0.000000,9622.677246
3589.439446,0.000000,666.185348,9548.656652
3589.439760,0.000000,592.164754,9474.636058
3589.440074,0.000000,444.123565,9622.677246
3589.440388,153.219100,518.144159,9548.656652
3589.440702,0.000000,518.144159,9400.615463
3589.441017,0.000000,518.144159,9918.759623
3589.441331,-536.266849,222.061783,10658.965565
3589.441645,-766.095498,-74.020594,10584.944971
3589.441959,-766.095498,-74.020594,10362.883188
3589.442273,-842.705048,-74.020594,10436.903782
3589.442588,-459.657299,-148.041188,10066.800811
3589.442902,-306.438199,-148.041188,9918.759623
3589.443216,0.000000,-0.000000,9474.636058
3589.443530,0.000000,-74.020594,9326.594869
3589.443844,229.828649,444.123565,9178.553681
3589.444158,459.657299,370.102971,9252.574275
3589.444473,306.438199,296.082377,9252.574275
3589.444787,536.266849,-0.000000,9030.512492
3589.445101,612.876398,222.061783,9326.594869
3589.445415,689.485948,296.082377,9474.636058
3589.445729,383.047749,518.144159,9918.759623
3589.446043,229.828649,518.144159,9474.636058
3589.446358,0.000000,1110.308913,9030.512492
3589.446672,229.828649,518.144159,9992.780217
3589.446986,229.828649,296.082377,9770.718434
3589.447300,0.000000,-0.000000,9992.780217
3589.447614,-536.266849,-0.000000,9918.759623
3589.447928,-383.047749,-370.102971,9992.780217
3589.448243,-459.657299,-296.082377,10510.924376
3589.448557,-306.438199,222.061783,10584.944971
3589.448871,229.828649,296.082377,10362.883188
3589.449185,766.095498,592.164754,9548.656652
3589.449499,1378.971896,962.267725,9104.533087
3589.449814,1378.971896,1036.288319,8882.471304
3589.450128,1455.581446,814.226536,8512.368333
3589.450442,1608.800546,740.205942,8364.327145
3589.450756,1225.752797,666.185348,8290.306550
3589.451070,1378.971896,-0.000000,8660.409521
3589.451384,1072.533697,-0.000000,9326.594869
3589.451699,76.609550,-74.020594,9474.636058
3589.452013,0.000000,-518.144159,9918.759623
3589.452327,-612.876398,-518.144159,10214.842000
3589.452641,-612.876398,-148.041188,10066.800811
3589.452955,-153.219100,-0.000000,9844.739029
3589.453269,-306.438199,296.082377,9474.636058
3589.453584,153.219100,370.102971,9400.615463
3589.453898,229.828649,518.144159,9474.636058
3589.454212,689.485948,518.144159,9326.594869
3589.454526,612.876398,444.123565,9030.512492
3589.454840,0.000000,296.082377,9622.677246
3589.455154,0.000000,-0.000000,10140.821405
3589.455469,-459.657299,-0.000000,10140.821405
3589.455783,-459.657299,-148.041188,10658.965565
3589.456097,-536.266849,-148.041188,10214.842000
3589.456411,-536.266849,-148.041188,10214.842000
3589.456725,-689.485948,-222.061783,9992.780217
3589.457040,-612.876398,-148.041188,9696.697840
3589.457354,153.219100,-74.020594,9326.594869
3589.457668,76.609550,-0.000000,9474.636058
3589.457982,459.657299,-0.000000,9474.636058
3589.458296,229.828649,370.102971,9400.615463
3589.458610,306.438199,-0.000000,9400.615463
3589.458925,536.266849,444.123565,9844.739029
3589.459239,306.438199,370.102971,9844.739029
3589.459553,229.828649,-0.000000,10436.903782
3589.459867,0.000000,444.123565,9844.739029
3589.460181,-306.438199,518.144159,8808.450710
3589.460495,-229.828649,296.082377,9030.512492
3589.460810,-306.438199,-0.000000,9474.636058
3589.461124,-459.657299,-370.102971,9770.718434
3589.461438,-1149.143247,-666.185348,9474.636058
3589.461752,-995.924147,-592.164754,9474.636058
3589.462066,-689.485948,-592.164754,10436.903782
3589.462380,-536.266849,-296.082377,10658.965565
3589.462695,-229.828649,-148.041188,10658.965565
3589.463009,-153.219100,-370.102971,9844.739029
3589.463323,153.219100,222.061783,9844.739029
3589.463637,1072.533697,740.205942,9400.615463
3589.463951,1302.362347,666.185348,9030.512492
3589.464266,1608.800546,740.205942,8512.368333
3589.464580,1991.848295,666.185348,8364.327145
3589.464894,1455.581446,444.123565,8512.368333
3589.465208,1302.362347,222.061783,8660.409521
3589.465522,995.924147,-222.061783,9030.512492
3589.465836,306.438199,-444.123565,9252.574275
3589.466151,76.609550,-888.247130,9474.636058
3589.466465,0.000000,-592.164754,9918.759623
3589.466779,-153.219100,-444.123565,10214.842000
3589.467093,-153.219100,-296.082377,9918.759623
3589.467407,-306.438199,296.082377,9474.636058
3589.467721,229.828649,370.102971,9474.636058
3589.468036,229.828649,666.185348,8956.491898
3589.468350,612.876398,666.185348,9548.656652
3589.468664,612.876398,888.247130,9844.739029
3589.468978,76.609550,592.164754,9770.718434
3589.469292,76.609550,370.102971,10288.862594
3589.469606,0.000000,444.123565,10214.842000
3589.469921,-459.657299,148.041188,10510.924376
3589.470235,-612.876398,-74.020594,10510.924376
3589.470549,-612.876398,-148.041188,10362.883188
3589.470863,-842.705048,-0.000000,10362.883188
3589.471177,-612.876398,-74.020594,9844.739029
3589.471492,-536.266849,222.061783,9918.759623
3589.471806,-153.219100,296.082377,9474.636058
3589.472120,306.438199,148.041188,9252.574275
3589.472434,229.828649,-0.000000,9252.574275
3589.472748,306.438199,222.061783,9400.615463
3589.473062,536.266849,444.123565,9696.697840
3589.473377,229.828649,-74.020594,9474.636058
3589.473691,229.828649,296.082377,9548.656652
3589.474005,0.000000,592.164754,9622.677246
3589.474319,76.609550,814.226536,9252.574275
3589.474633,-306.438199,518.144159,9326.594869
3589.474947,-459.657299,-0.000000,9252.574275
3589.475262,-229.828649,-0.000000,9622.677246
3589.475576,-459.657299,-518.144159,9548.656652
3589.475890,-1072.533697,-518.144159,9770.718434
3589.476204,-689.485948,-666.185348,10658.965565
3589.476518,-612.876398,-370.102971,10288.862594
3589.476833,-536.266849,-296.082377,9992.780217
3589.477147,0.000000,-0.000000,9696.697840
3589.477461,153.219100,444.123565,9474.636058
3589.477775,995.924147,370.102971,9252.574275
3589.478089,1378.971896,1110.308913,8956.491898
3589.478403,1455.581446,962.267725,8734.430116
3589.478718,1302.362347,444.123565,8142.265362
3589.479032,1455.581446,370.102971,8364.327145
3589.479346,1302.362347,-148.041188,9178.553681
3589.479660,536.266849,-0.000000,9178.553681
3589.479974,76.609550,-592.164754,9622.677246
3589.480289,-229.828649,-592.164754,9992.780217
3589.480603,-153.219100,-444.123565,10288.862594
3589.480917,-229.828649,-296.082377,10584.944971
3589.481231,-459.657299,-222.061783,9622.677246
3589.481545,0.000000,222.061783,9474.636058
3589.481860,76.609550,518.144159,9474.636058
3589.482174,383.047749,814.226536,9178.553681
3589.482488,689.485948,814.226536,9474.636058
3589.482802,536.266849,444.123565,9326.594869
3589.483116,383.047749,370.102971,9622.677246
3589.483431,229.828649,-0.000000,9918.759623
3589.483745,76.609550,-74.020594,10436.903782
3589.484059,-919.314598,-74.020594,10140.821405
3589.484373,-919.314598,-296.082377,10584.944971
3589.484687,-919.314598,-296.082377,10510.924376
3589.485002,-766.095498,-148.041188,9918.759623
3589.485316,-306.438199,-74.020594,9696.697840
3589.485630,0.000000,-296.082377,9474.636058
3589.485944,76.609550,-74.020594,9178.553681
3589.486258,459.657299,-0.000000,9400.615463
3589.486573,842.705048,222.061783,9326.594869
3589.486887,1302.362347,-0.000000,9844.739029
3589.487201,459.657299,222.061783,9622.677246
3589.487515,383.047749,148.041188,9474.636058
3589.487829,612.876398,-0.000000,9474.636058
3589.488144,229.828649,444.123565,9696.697840
3589.488458,0.000000,444.123565,9252.574275
3589.488772,-229.828649,666.185348,9548.656652
3589.489086,-229.828649,296.082377,9474.636058
3589.489400,0.000000,-0.000000,9548.656652
3589.489714,-536.266849,-222.061783,9548.656652
3589.490029,-842.705048,-74.020594,10362.883188
3589.490343,-766.095498,-370.102971,10362.883188
3589.490657,-383.047749,-518.144159,10732.986159
3589.490971,-536.266849,148.041188,10362.883188
3589.491285,0.000000,-0.000000,10140.821405
3589.491600,76.609550,444.123565,10066.800811
3589.491914,536.266849,666.185348,9474.636058
3589.492228,1072.533697,1036.288319,9252.574275
3589.492542,1532.190996,962.267725,8364.327145
3589.492856,1608.800546,1110.308913,8290.306550
3589.493171,1378.971896,740.205942,8734.430116
3589.493485,1378.971896,370.102971,8734.430116
3589.493799,766.095498,222.061783,8956.491898
3589.494113,229.828649,-370.102971,9474.636058
3589.494427,-153.219100,-666.185348,9770.718434
3589.494742,-459.657299,-444.123565,9770.718434
3589.495056,-536.266849,-370.102971,9992.780217
3589.495370,-536.266849,-148.041188,9474.636058
3589.495684,-306.438199,370.102971,9548.656652
3589.495998,0.000000,444.123565,9622.677246
3589.496313,306.438199,296.082377,9104.533087
3589.496627,536.266849,740.205942,9474.636058
3589.496941,306.438199,666.185348,9326.594869
3589.497255,229.828649,666.185348,9326.594869
3589.497569,-153.219100,370.102971,10362.883188
3589.497884,-229.828649,-222.061783,10436.903782
3589.498198,-383.047749,-74.020594,10214.842000
3589.498512,-536.266849,-74.020594,10510.924376
3589.498826,-459.657299,-148.041188,10214.842000
3589.499140,0.000000,-296.082377,10066.800811
3589.499454,-306.438199,-296.082377,9844.739029
3589.499769,153.219100,-0.000000,9548.656652
3589.500083,536.266849,222.061783,9030.512492
3589.500397,383.047749,370.102971,8956.491898
3589.500711,842.705048,518.144159,9400.615463
3589.501025,612.876398,296.082377,9474.636058
3589.501340,612.876398,296.082377,9474.636058
3589.501654,536.266849,592.164754,9474.636058
3589.501968,536.266849,370.102971,9548.656652
3589.502282,383.047749,518.144159,9474.636058
3589.502596,0.000000,518.144159,9104.533087
3589.502911,0.000000,370.102971,8956.491898
3589.503225,0.000000,-0.000000,9178.553681
3589.503539,0.000000,-0.000000,9548.656652
3589.503853,0.000000,-222.061783,9992.780217
3589.504167,-766.095498,-444.123565,10140.821405
3589.504482,-1072.533697,-444.123565,10214.842000
3589.504796,-842.705048,-518.144159,10510.924376
3589.505110,-383.047749,-370.102971,10584.944971
3589.505424,-383.047749,-0.000000,9844.739029
3589.505738,153.219100,370.102971,9474.636058
3589.506053,612.876398,444.123565,9252.574275
3589.506367,1149.143247,666.185348,8734.430116
3589.506681,1455.581446,740.205942,8586.388927
3589.506995,1455.581446,296.082377,8586.388927
3589.507309,1302.362347,444.123565,8438.347739
3589.507624,919.314598,-0.000000,8290.306550
3589.507938,766.095498,-74.020594,8808.450710
3589.508252,306.438199,-592.164754,9844.739029
3589.508566,-153.219100,-1036.288319,10214.842000
3589.508880,-536.266849,-962.267725,9992.780217
3589.509195,-306.438199,-444.123565,9918.759623
3589.509509,0.000000,-222.061783,9770.718434
3589.509823,459.657299,-0.000000,9918.759623
3589.510137,76.609550,444.123565,9474.636058
3589.510451,536.266849,666.185348,9104.533087
3589.510765,612.876398,888.247130,9030.512492
3589.511080,689.485948,962.267725,9326.594869
3589.511394,459.657299,518.144159,9400.615463
3589.511708,306.438199,370.102971,10140.821405
3589.512022,-153.219100,-0.000000,10436.903782
3589.512336,-306.438199,-0.000000,10288.862594
3589.512651,-229.828649,-0.000000,10214.842000
3589.512965,-459.657299,-148.041188,10510.924376
3589.513279,-536.266849,-0.000000,10214.842000
3589.513593,-306.438199,-0.000000,9844.739029
3589.513907,0.000000,-0.000000,9474.636058
3589.514222,229.828649,-0.000000,9770.718434
3589.514536,306.438199,370.102971,9252.574275
3589.514850,612.876398,370.102971,9326.594869
3589.515164,612.876398,518.144159,9548.656652
3589.515478,689.485948,148.041188,9548.656652
3589.515793,536.266849,148.041188,9622.677246
3589.516107,459.657299,444.123565,9844.739029
3589.516421,229.828649,592.164754,9548.656652
3589.516735,229.828649,666.185348,9178.553681
3589.517049,0.000000,962.267725,8956.491898
3589.517364,0.000000,-0.000000,9178.553681
3589.517678,0.000000,-0.000000,9474.636058
3589.517992,-229.828649,-222.061783,9770.718434
3589.518306,-995.924147,-518.144159,9918.759623
3589.518620,-459.657299,-888.247130,10140.821405
3589.518935,0.000000,-740.205942,10732.986159
3589.519249,-536.266849,-222.061783,11103.089130
3589.519563,0.000000,148.041188,10214.842000
3589.519877,229.828649,444.123565,9696.697840
3589.520191,766.095498,888.247130,9326.594869
3589.520506,1455.581446,1110.308913,9104.533087
3589.520820,1608.800546,1184.329507,8734.430116
3589.521134,1378.971896,666.185348,8438.347739
3589.521448,1455.581446,888.247130,8364.327145
3589.521762,1225.752797,-0.000000,8734.430116
3589.522076,919.314598,-0.000000,9178.553681
3589.522391,383.047749,-296.082377,9696.697840
3589.522705,0.000000,-592.164754,10066.800811
3589.523019,-536.266849,-444.123565,9918.759623
3589.523333,-766.095498,-444.123565,10214.842000
3589.523647,-842.705048,-74.020594,10066.800811
3589.523962,-689.485948,-0.000000,9844.739029
3589.524276,-306.438199,370.102971,9474.636058
3589.524590,153.219100,592.164754,9252.574275
3589.524904,536.266849,666.185348,9548.656652
3589.525218,76.609550,296.082377,9622.677246
3589.525533,153.219100,518.144159,9770.718434
3589.525847,0.000000,296.082377,9770.718434
3589.526161,-306.438199,296.082377,9918.759623
3589.526475,-459.657299,-148.041188,10214.842000
3589.526789,-459.657299,-222.061783,10288.862594
3589.527104,-459.657299,-222.061783,10214.842000
3589.527418,-766.095498,-222.061783,9622.677246
3589.527732,-153.219100,-148.041188,9696.697840
3589.528046,-76.609550,-222.061783,9252.574275
3589.528360,0.000000,-222.061783,9400.615463
3589.528675,536.266849,-0.000000,9326.594869
3589.528989,689.485948,-0.000000,9030.512492
3589.529303,612.876398,-0.000000,9326.594869
3589.529617,536.266849,-0.000000,9252.574275
3589.529931,383.047749,-370.102971,9844.739029
3589.530246,459.657299,-0.000000,9844.739029
3589.530560,459.657299,-0.000000,9474.636058
3589.530874,383.047749,222.061783,9474.636058
3589.531188,459.657299,296.082377,9326.594869
3589.531502,383.047749,444.123565,9696.697840
3589.531816,76.609550,-74.020594,9474.636058
3589.532131,-153.219100,-370.102971,9548.656652
3589.532445,-536.266849,-518.144159,10066.800811
3589.532759,-766.095498,-814.226536,10288.862594
3589.533073,-459.657299,-962.267725,10584.944971
3589.533387,-306.438199,-296.082377,10362.883188
3589.533702,76.609550,-0.000000,9918.759623
3589.534016,459.657299,370.102971,9770.718434
3589.534330,536.266849,740.205942,9548.656652
3589.534644,689.485948,962.267725,9400.615463
3589.534958,1302.362347,592.164754,8586.388927
3589.535273,1378.971896,888.247130,8364.327145
3589.535587,1378.971896,666.185348,8586.388927
3589.535901,919.314598,148.041188,8808.450710
3589.536215,229.828649,-370.102971,9474.636058
3589.536529,76.609550,-370.102971,9548.656652
3589.536844,-383.047749,-444.123565,9770.718434
3589.537158,0.000000,-370.102971,9992.780217
3589.537472,-766.095498,222.061783,10288.862594
3589.537786,-689.485948,222.061783,10288.862594
3589.538100,-459.657299,-0.000000,8956.491898
3589.538415,-383.047749,666.185348,8956.491898
3589.538729,306.438199,740.205942,9326.594869
3589.539043,536.266849,888.247130,9252.574275
3589.539357,306.438199,666.185348,9326.594869
3589.539671,0.000000,296.082377,9474.636058
