#time,accel_x,accel_y,accel_z
4015.689927,-1532.190996,1258.350101,9474.636058
4015.690242,-919.314598,1480.411884,9178.553681
4015.690558,-689.485948,1406.391290,8586.388927
4015.690873,0.000000,1628.453072,7994.224174
4015.691188,0.000000,1480.411884,8586.388927
4015.691504,-306.438199,962.267725,9474.636058
4015.691819,-383.047749,444.123565,9474.636058
4015.692134,-766.095498,-0.000000,10066.800811
4015.692450,-689.485948,-666.185348,10510.924376
4015.692765,-842.705048,-666.185348,10140.821405
4015.693081,-536.266849,-370.102971,9918.759623
4015.693396,-459.657299,-592.164754,9696.697840
4015.693711,-306.438199,-592.164754,9696.697840
4015.694027,229.828649,-444.123565,8882.471304
4015.694342,153.219100,-296.082377,8512.368333
4015.694657,612.876398,-444.123565,8882.471304
4015.694973,536.266849,-814.226536,8734.430116
4015.695288,766.095498,-888.247130,9030.512492
4015.695603,689.485948,-888.247130,9326.594869
4015.695919,919.314598,-1406.391290,9252.574275
4015.696234,689.485948,-1184.329507,8734.430116
4015.696550,459.657299,-1258.350101,8660.409521
4015.696865,229.828649,-1036.288319,8882.471304
4015.697180,536.266849,-1110.308913,8660.409521
4015.697496,-306.438199,-888.247130,8956.491898
4015.697811,0.000000,-666.185348,8882.471304
4015.698126,-383.047749,-888.247130,8956.491898
4015.698442,-306.438199,-888.247130,9178.553681
4015.698757,-612.876398,-740.205942,9474.636058
4015.699072,-766.095498,-814.226536,9622.677246
4015.699388,-1072.533697,-888.247130,9770.718434
4015.699703,-1072.533697,-666.185348,9918.759623
4015.700018,-766.095498,-962.267725,9992.780217
4015.700334,-1149.143247,-370.102971,10214.842000
4015.700649,-1302.362347,-0.000000,9696.697840
4015.700965,-1072.533697,-222.061783,9548.656652
4015.701280,-766.095498,-0.000000,9400.615463
4015.701595,-612.876398,-74.020594,8956.491898
4015.701911,-229.828649,296.082377,9252.574275
4015.702226,-306.438199,222.061783,9622.677246
4015.702541,0.000000,296.082377,9770.718434
4015.702857,0.000000,444.123565,9178.553681
4015.703172,153.219100,370.102971,9474.636058
4015.703487,689.485948,518.144159,9548.656652
4015.703803,536.266849,592.164754,9548.656652
4015.704118,1072.533697,962.267725,9104.533087
4015.704433,842.705048,888.247130,9252.574275
4015.704749,612.876398,1184.329507,9030.512492
4015.705064,1072.533697,1258.350101,8512.368333
4015.705380,995.924147,1406.391290,9326.594869
4015.705695,766.095498,1036.288319,9252.574275
4015.706010,689.485948,1110.308913,9622.677246
4015.706326,612.876398,962.267725,10362.883188
4015.706641,459.657299,1110.308913,10288.862594
4015.706956,306.438199,1332.370696,10214.842000
4015.707272,229.828649,1406.391290,9992.780217
4015.707587,76.609550,1332.370696,10214.842000
4015.707902,0.000000,1184.329507,10288.862594
4015.708218,0.000000,1332.370696,10436.903782
4015.708533,0.000000,1406.391290,10214.842000
4015.708848,153.219100,1036.288319,10510.924376
4015.709164,306.438199,888.247130,10510.924376
4015.709479,459.657299,962.267725,10732.986159
4015.709795,0.000000,370.102971,10807.006753
4015.710110,0.000000,518.144159,10436.903782
4015.710425,536.266849,740.205942,9844.739029
4015.710741,536.266849,518.144159,9918.759623
4015.711056,842.705048,444.123565,10066.800811
4015.711371,689.485948,370.102971,9696.697840
4015.711687,612.876398,-0.000000,9474.636058
4015.712002,536.266849,-0.000000,9474.636058
4015.712317,689.485948,-74.020594,9326.594869
4015.712633,536.266849,-0.000000,9400.615463
4015.712948,536.266849,-74.020594,9622.677246
4015.713264,383.047749,-222.061783,9770.718434
4015.713579,306.438199,-296.082377,9474.636058
4015.713894,0.000000,-0.000000,9252.574275
4015.714210,306.438199,-370.102971,9326.594869
4015.714525,229.828649,-148.041188,9400.615463
4015.714840,76.609550,-148.041188,9252.574275
4015.715156,0.000000,-592.164754,9252.574275
4015.715471,0.000000,-444.123565,9326.594869
4015.715786,-536.266849,-814.226536,9104.533087
4015.716102,-459.657299,-740.205942,9400.615463
4015.716417,-306.438199,-666.185348,9400.615463
4015.716732,-536.266849,-740.205942,9326.594869
4015.717048,0.000000,-1110.308913,9400.615463
4015.717363,-153.219100,-666.185348,9252.574275
4015.717679,0.000000,-444.123565,9252.574275
4015.717994,-229.828649,-666.185348,9104.533087
4015.718309,459.657299,-740.205942,9326.594869
4015.718625,153.219100,-814.226536,8956.491898
4015.718940,459.657299,-740.205942,9178.553681
4015.719255,76.609550,-444.123565,9252.574275
4015.719571,229.828649,-592.164754,9178.553681
4015.719886,76.609550,-740.205942,9104.533087
4015.720201,383.047749,-518.144159,9400.615463
4015.720517,306.438199,-592.164754,9622.677246
4015.720832,153.219100,-222.061783,9474.636058
4015.721147,383.047749,-296.082377,9030.512492
4015.721463,459.657299,-74.020594,9252.574275
4015.721778,459.657299,-74.020594,9696.697840
4015.722094,229.828649,-296.082377,9474.636058
4015.722409,0.000000,-444.123565,9474.636058
4015.722724,0.000000,-222.061783,9696.697840
4015.723040,0.000000,-222.061783,10066.800811
4015.723355,0.000000,-0.000000,10066.800811
4015.723670,76.609550,-74.020594,9696.697840
4015.723986,-306.438199,-0.000000,10066.800811
4015.724301,0.000000,148.041188,9918.759623
4015.724616,0.000000,-0.000000,9992.780217
4015.724932,76.609550,296.082377,9992.780217
4015.725247,153.219100,592.164754,10066.800811
4015.725562,76.609550,592.164754,9770.718434
4015.725878,76.609550,518.144159,9844.739029
4015.726193,0.000000,370.102971,9918.759623
4015.726509,76.609550,962.267725,9918.759623
4015.726824,0.000000,740.205942,9844.739029
4015.727139,229.828649,666.185348,9622.677246
4015.727455,383.047749,444.123565,9696.697840
4015.727770,0.000000,740.205942,9770.718434
4015.728085,612.876398,814.226536,9548.656652
4015.728401,153.219100,1110.308913,9622.677246
4015.728716,229.828649,1332.370696,9548.656652
4015.729031,459.657299,1036.288319,9696.697840
4015.729347,306.438199,1184.329507,9844.739029
4015.729662,229.828649,1036.288319,9918.759623
4015.729977,0.000000,1110.308913,9548.656652
4015.730292,0.000000,1110.308913,9918.759623
4015.730607,0.000000,888.247130,9844.739029
4015.730922,153.219100,1184.329507,9474.636058
4015.731237,0.000000,962.267725,9770.718434
4015.731552,-229.828649,814.226536,9770.718434
4015.731867,-306.438199,888.247130,9770.718434
4015.732182,-153.219100,814.226536,9548.656652
4015.732497,-153.219100,444.123565,9548.656652
4015.732812,0.000000,370.102971,9622.677246
4015.733127,0.000000,370.102971,9696.697840
4015.733442,0.000000,-0.000000,9474.636058
4015.733757,0.000000,296.082377,9474.636058
4015.734072,229.828649,518.144159,9622.677246
4015.734387,0.000000,-0.000000,9326.594869
4015.734702,306.438199,-148.041188,9548.656652
4015.735017,229.828649,-370.102971,9400.615463
4015.735332,306.438199,-148.041188,9178.553681
4015.735647,536.266849,-0.000000,9474.636058
4015.735962,459.657299,-222.061783,9474.636058
4015.736277,229.828649,-518.144159,9178.553681
4015.736592,536.266849,-444.123565,9326.594869
4015.736907,459.657299,-222.061783,9252.574275
4015.737222,153.219100,-444.123565,9326.594869
4015.737537,306.438199,-592.164754,9326.594869
4015.737852,0.000000,-814.226536,9104.533087
4015.738167,-383.047749,-888.247130,9252.574275
4015.738482,-229.828649,-444.123565,9400.615463
4015.738797,0.000000,-518.144159,9178.553681
4015.739112,76.609550,-296.082377,9474.636058
4015.739427,76.609550,-0.000000,9326.594869
4015.739742,383.047749,-296.082377,9326.594869
4015.740056,0.000000,-74.020594,9104.533087
4015.740371,0.000000,-148.041188,9326.594869
4015.740686,-153.219100,-222.061783,9030.512492
4015.741001,153.219100,-592.164754,9400.615463
4015.741316,306.438199,-74.020594,9548.656652
4015.741631,0.000000,-0.000000,9474.636058
4015.741946,-229.828649,-0.000000,9178.553681
4015.742261,0.000000,-0.000000,9400.615463
4015.742576,76.609550,-0.000000,9326.594869
4015.742891,153.219100,-74.020594,8956.491898
4015.743206,153.219100,-0.000000,9178.553681
4015.743521,153.219100,-0.000000,9400.615463
4015.743836,-229.828649,-0.000000,9474.636058
4015.744151,153.219100,-0.000000,9252.574275
4015.744466,383.047749,-0.000000,9474.636058
4015.744781,0.000000,296.082377,10066.800811
4015.745096,306.438199,-0.000000,9474.636058
4015.745411,0.000000,-0.000000,9474.636058
4015.745726,153.219100,444.123565,9844.739029
4015.746041,0.000000,666.185348,9844.739029
4015.746356,153.219100,518.144159,10140.821405
4015.746671,229.828649,296.082377,9992.780217
4015.746986,306.438199,518.144159,9918.759623
4015.747301,383.047749,518.144159,9696.697840
4015.747616,229.828649,592.164754,10214.842000
4015.747931,0.000000,444.123565,10288.862594
4015.748246,229.828649,296.082377,10140.821405
4015.748561,229.828649,370.102971,10214.842000
4015.748876,229.828649,518.144159,9770.718434
4015.749191,76.609550,222.061783,10214.842000
4015.749506,459.657299,666.185348,10214.842000
4015.749821,76.609550,740.205942,10066.800811
4015.750136,153.219100,666.185348,10066.800811
4015.750451,536.266849,592.164754,9844.739029
4015.750766,76.609550,962.267725,10584.944971
4015.751081,536.266849,740.205942,10436.903782
4015.751396,76.609550,888.247130,10066.800811
4015.751711,153.219100,518.144159,9992.780217
4015.752026,153.219100,592.164754,9622.677246
4015.752341,76.609550,814.226536,10066.800811
4015.752656,459.657299,814.226536,9844.739029
4015.752971,0.000000,666.185348,9622.677246
4015.753286,76.609550,666.185348,9844.739029
4015.753601,0.000000,666.185348,9474.636058
4015.753916,76.609550,666.185348,9696.697840
4015.754231,0.000000,296.082377,9622.677246
4015.754546,0.000000,222.061783,9474.636058
4015.754861,-229.828649,296.082377,9326.594869
4015.755176,76.609550,296.082377,9400.615463
4015.755491,459.657299,370.102971,9622.677246
4015.755805,0.000000,222.061783,9326.594869
4015.756120,0.000000,-74.020594,9178.553681
4015.756435,0.000000,-0.000000,9400.615463
4015.756750,-383.047749,-0.000000,9474.636058
4015.757065,153.219100,-222.061783,9474.636058
4015.757380,153.219100,-148.041188,9622.677246
4015.757695,306.438199,-74.020594,9178.553681
4015.758010,153.219100,-148.041188,9326.594869
4015.758325,612.876398,-0.000000,9474.636058
4015.758640,229.828649,-296.082377,9474.636058
4015.758955,0.000000,-444.123565,9474.636058
4015.759270,229.828649,-370.102971,9252.574275
4015.759585,153.219100,-444.123565,9178.553681
4015.759900,306.438199,-444.123565,9474.636058
4015.760215,383.047749,-370.102971,9770.718434
4015.760530,153.219100,-222.061783,9770.718434
4015.760845,76.609550,-444.123565,9696.697840
4015.761160,76.609550,-74.020594,9252.574275
4015.761475,229.828649,-296.082377,9104.533087
4015.761790,536.266849,-444.123565,10140.821405
4015.762105,76.609550,-296.082377,9548.656652
4015.762420,76.609550,-74.020594,9548.656652
4015.762735,0.000000,-370.102971,9548.656652
4015.763050,306.438199,-222.061783,9770.718434
4015.763365,306.438199,-148.041188,9770.718434
4015.763680,-229.828649,-148.041188,9400.615463
4015.763995,76.609550,-222.061783,9548.656652
4015.764310,0.000000,-0.000000,9474.636058
4015.764625,76.609550,-0.000000,9326.594869
4015.764940,-766.095498,-222.061783,9622.677246
4015.765255,0.000000,-0.000000,9252.574275
4015.765570,229.828649,148.041188,9326.594869
4015.765885,0.000000,-0.000000,9474.636058
4015.766200,0.000000,-0.000000,9474.636058
4015.766515,459.657299,370.102971,9548.656652
4015.766830,229.828649,222.061783,9104.533087
4015.767145,0.000000,370.102971,9400.615463
4015.767460,153.219100,370.102971,9474.636058
4015.767775,153.219100,370.102971,9548.656652
4015.768090,306.438199,-74.020594,9622.677246
4015.768405,0.000000,370.102971,9474.636058
4015.768720,0.000000,296.082377,9474.636058
4015.769035,0.000000,666.185348,9622.677246
4015.769350,153.219100,296.082377,9770.718434
4015.769665,-153.219100,518.144159,9770.718434
4015.769980,153.219100,370.102971,9622.677246
4015.770295,0.000000,370.102971,10066.800811
4015.770610,0.000000,444.123565,9844.739029
4015.770925,76.609550,444.123565,9992.780217
4015.771240,0.000000,-0.000000,10288.862594
4015.771554,0.000000,370.102971,9918.759623
4015.771869,-229.828649,518.144159,9918.759623
4015.772184,0.000000,370.102971,9844.739029
4015.772499,0.000000,518.144159,10214.842000
4015.772814,0.000000,296.082377,9918.759623
4015.773129,0.000000,148.041188,9770.718434
4015.773444,153.219100,370.102971,9918.759623
4015.773759,76.609550,370.102971,10214.842000
4015.774074,76.609550,222.061783,9770.718434
4015.774389,153.219100,370.102971,9622.677246
4015.774704,76.609550,444.123565,10066.800811
4015.775019,229.828649,296.082377,9992.780217
4015.775334,76.609550,444.123565,9770.718434
4015.775649,153.219100,222.061783,9918.759623
4015.775964,0.000000,-0.000000,9400.615463
4015.776279,0.000000,-0.000000,9622.677246
4015.776594,0.000000,222.061783,9474.636058
4015.776909,0.000000,-0.000000,9548.656652
4015.777224,459.657299,370.102971,9400.615463
4015.777539,0.000000,-0.000000,9400.615463
4015.777854,0.000000,-0.000000,9252.574275
4015.778169,0.000000,148.041188,9326.594869
4015.778484,536.266849,-0.000000,9400.615463
4015.778799,0.000000,-0.000000,9252.574275
4015.779114,459.657299,-0.000000,9474.636058
4015.779429,76.609550,-74.020594,9178.553681
4015.779744,229.828649,-0.000000,9474.636058
4015.780059,0.000000,-296.082377,9474.636058
4015.780374,383.047749,-222.061783,8882.471304
4015.780689,153.219100,-222.061783,9400.615463
4015.781004,0.000000,-148.041188,9548.656652
4015.781319,229.828649,-74.020594,9474.636058
4015.781634,383.047749,-222.061783,9400.615463
4015.781949,0.000000,-0.000000,9696.697840
4015.782264,0.000000,-296.082377,9474.636058
4015.782579,76.609550,-0.000000,9696.697840
4015.782894,153.219100,-148.041188,9326.594869
4015.783209,229.828649,-74.020594,9474.636058
4015.783524,0.000000,-0.000000,10288.862594
4015.783839,153.219100,-148.041188,9622.677246
4015.784154,0.000000,-0.000000,9696.697840
4015.784469,0.000000,-148.041188,9622.677246
4015.784784,-383.047749,-148.041188,9696.697840
4015.785099,0.000000,222.061783,9696.697840
4015.785414,0.000000,-296.082377,9844.739029
4015.785729,0.000000,-222.061783,9622.677246
4015.786044,306.438199,222.061783,9474.636058
4015.786359,76.609550,222.061783,9696.697840
4015.786674,0.000000,148.041188,9548.656652
4015.786989,229.828649,148.041188,9696.697840
4015.787303,0.000000,-0.000000,9474.636058
4015.787618,306.438199,-0.000000,9474.636058
4015.787933,153.219100,222.061783,9548.656652
4015.788248,0.000000,148.041188,9474.636058
4015.788563,459.657299,296.082377,9474.636058
4015.788878,76.609550,222.061783,9400.615463
4015.789193,0.000000,-0.000000,9548.656652
4015.789508,0.000000,370.102971,9326.594869
4015.789823,76.609550,518.144159,9844.739029
4015.790138,0.000000,370.102971,9326.594869
4015.790453,153.219100,666.185348,9548.656652
4015.790768,306.438199,444.123565,9696.697840
4015.791083,306.438199,-0.000000,9770.718434
4015.791398,76.609550,666.185348,9770.718434
4015.791713,459.657299,592.164754,9548.656652
4015.792028,76.609550,370.102971,9548.656652
4015.792343,76.609550,518.144159,9918.759623
4015.792658,229.828649,-0.000000,9770.718434
4015.792973,153.219100,-0.000000,9474.636058
4015.793288,76.609550,518.144159,9548.656652
4015.793603,76.609550,592.164754,9844.739029
4015.793918,76.609550,370.102971,9622.677246
4015.794233,612.876398,370.102971,9918.759623
4015.794548,0.000000,74.020594,9770.718434
4015.794863,76.609550,370.102971,9844.739029
4015.795178,383.047749,592.164754,9770.718434
4015.795493,612.876398,592.164754,9770.718434
4015.795808,383.047749,370.102971,10066.800811
4015.796123,0.000000,148.041188,9622.677246
4015.796438,153.219100,-0.000000,9622.677246
4015.796753,153.219100,296.082377,9770.718434
4015.797068,306.438199,370.102971,9770.718434
4015.797383,229.828649,296.082377,9918.759623
4015.797698,0.000000,-0.000000,9474.636058
4015.798013,0.000000,-0.000000,9622.677246
4015.798328,229.828649,-0.000000,9622.677246
4015.798643,229.828649,-0.000000,9474.636058
4015.798958,0.000000,444.123565,9548.656652
4015.799273,0.000000,222.061783,9252.574275
4015.799588,0.000000,370.102971,9474.636058
4015.799903,153.219100,-0.000000,9474.636058
4015.800218,536.266849,-296.082377,9474.636058
4015.800533,229.828649,-148.041188,9548.656652
4015.800848,459.657299,222.061783,9104.533087
4015.801163,153.219100,-0.000000,9030.512492
4015.801478,306.438199,-0.000000,9400.615463
4015.801793,229.828649,-444.123565,9696.697840
4015.802108,76.609550,-0.000000,9622.677246
4015.802423,0.000000,-296.082377,9252.574275
4015.802738,0.000000,-148.041188,9474.636058
4015.803053,0.000000,-0.000000,9548.656652
4015.803367,383.047749,74.020594,9548.656652
4015.803682,229.828649,-444.123565,9252.574275
4015.803997,153.219100,-0.000000,9622.677246
4015.804312,383.047749,-0.000000,9400.615463
4015.804627,383.047749,-0.000000,9474.636058
4015.804942,76.609550,-0.000000,9622.677246
4015.805257,0.000000,-0.000000,9474.636058
4015.805572,76.609550,-0.000000,9548.656652
4015.805887,0.000000,-0.000000,9696.697840
4015.806202,0.000000,-0.000000,9770.718434
4015.806517,0.000000,-0.000000,9992.780217
4015.806832,-459.657299,-148.041188,9770.718434
4015.807147,0.000000,-148.041188,9548.656652
4015.807462,0.000000,-0.000000,9992.780217
4015.807777,0.000000,-0.000000,9696.697840
4015.808092,0.000000,-0.000000,9770.718434
4015.808407,0.000000,-74.020594,9474.636058
4015.808722,0.000000,-0.000000,9548.656652
4015.809037,0.000000,-0.000000,9696.697840
4015.809352,0.000000,-0.000000,9548.656652
4015.809667,0.000000,-0.000000,9844.739029
4015.809982,0.000000,-0.000000,9474.636058
4015.810297,0.000000,-148.041188,9992.780217
4015.810612,0.000000,222.061783,9548.656652
4015.810927,0.000000,296.082377,9400.615463
4015.811242,-229.828649,222.061783,9474.636058
4015.811557,0.000000,222.061783,9326.594869
4015.811872,76.609550,518.144159,9474.636058
4015.812187,229.828649,-0.000000,9474.636058
4015.812502,306.438199,-0.000000,9918.759623
4015.812817,0.000000,148.041188,9548.656652
4015.813132,0.000000,-0.000000,9474.636058
4015.813447,306.438199,370.102971,9696.697840
4015.813762,153.219100,222.061783,9992.780217
4015.814077,229.828649,296.082377,9696.697840
4015.814392,-229.828649,-0.000000,9474.636058
4015.814707,306.438199,-0.000000,9400.615463
4015.815022,536.266849,222.061783,9844.739029
4015.815337,0.000000,222.061783,9770.718434
4015.815652,153.219100,296.082377,9770.718434
4015.815967,459.657299,296.082377,9622.677246
4015.816282,153.219100,-0.000000,9400.615463
4015.816597,0.000000,148.041188,9622.677246
4015.816912,153.219100,148.041188,9844.739029
4015.817227,383.047749,222.061783,9696.697840
4015.817542,0.000000,148.041188,9474.636058
4015.817857,0.000000,-0.000000,9770.718434
4015.818172,0.000000,148.041188,9844.739029
4015.818487,0.000000,-0.000000,9622.677246
4015.818802,153.219100,148.041188,9474.636058
4015.819116,0.000000,-0.000000,9548.656652
4015.819431,-229.828649,-74.020594,9474.636058
4015.819746,0.000000,-0.000000,9474.636058
4015.820061,0.000000,-74.020594,9474.636058
4015.820376,76.609550,-0.000000,9252.574275
4015.820691,0.000000,148.041188,9326.594869
4015.821006,0.000000,-0.000000,9622.677246
4015.821321,0.000000,-74.020594,9252.574275
4015.821636,-229.828649,-74.020594,9400.615463
4015.821951,0.000000,-0.000000,9400.615463
4015.822266,0.000000,-0.000000,9400.615463
4015.822581,153.219100,222.061783,9474.636058
4015.822896,229.828649,-296.082377,9030.512492
4015.823211,76.609550,-148.041188,9696.697840
4015.823526,76.609550,-0.000000,9918.759623
4015.823841,229.828649,-0.000000,9326.594869
4015.824156,306.438199,-0.000000,9548.656652
4015.824471,383.047749,-0.000000,9844.739029
4015.824786,306.438199,-74.020594,9474.636058
4015.825101,0.000000,-0.000000,9178.553681
4015.825416,229.828649,-0.000000,8956.491898
4015.825731,229.828649,-0.000000,9770.718434
4015.826046,76.609550,-0.000000,9474.636058
4015.826361,383.047749,-222.061783,9770.718434
4015.826676,-306.438199,-0.000000,9696.697840
4015.826991,0.000000,-0.000000,9548.656652
4015.827306,153.219100,-0.000000,9474.636058
4015.827621,76.609550,-0.000000,9696.697840
4015.827936,0.000000,-444.123565,9844.739029
4015.828251,0.000000,-0.000000,9622.677246
4015.828566,0.000000,-0.000000,9696.697840
4015.828881,76.609550,-0.000000,9770.718434
4015.829196,76.609550,148.041188,9622.677246
4015.829511,153.219100,222.061783,9696.697840
4015.829826,-306.438199,-0.000000,9474.636058
4015.830141,-229.828649,-0.000000,9548.656652
4015.830456,76.609550,-0.000000,9326.594869
4015.830771,0.000000,296.082377,9844.739029
4015.831086,0.000000,592.164754,10140.821405
4015.831401,0.000000,148.041188,9326.594869
4015.831716,0.000000,370.102971,9622.677246
4015.832031,76.609550,592.164754,9474.636058
4015.832346,0.000000,222.061783,9400.615463
4015.832661,153.219100,592.164754,9474.636058
4015.832977,229.828649,222.061783,9474.636058
4015.833292,76.609550,222.061783,9770.718434
4015.833607,0.000000,-0.000000,9326.594869
4015.833922,0.000000,296.082377,9474.636058
4015.834237,229.828649,296.082377,9622.677246
4015.834552,0.000000,444.123565,9252.574275
4015.834867,76.609550,444.123565,9770.718434
4015.835182,76.609550,296.082377,9696.697840
4015.835497,0.000000,222.061783,9696.697840
4015.835812,76.609550,222.061783,9400.615463
4015.836128,229.828649,518.144159,9622.677246
4015.836443,229.828649,444.123565,9844.739029
4015.836758,229.828649,370.102971,9770.718434
4015.837073,689.485948,592.164754,9696.697840
4015.837388,0.000000,518.144159,9844.739029
4015.837703,0.000000,296.082377,9622.677246
4015.838018,0.000000,370.102971,9770.718434
4015.838333,229.828649,370.102971,9844.739029
4015.838648,536.266849,-0.000000,9770.718434
4015.838963,-306.438199,222.061783,9400.615463
4015.839278,-459.657299,148.041188,9548.656652
4015.839594,0.000000,-0.000000,9548.656652
4015.839909,0.000000,370.102971,9770.718434
4015.840224,-612.876398,296.082377,9844.739029
4015.840539,-919.314598,370.102971,9844.739029
4015.840854,-1149.143247,518.144159,9548.656652
4015.841169,-1225.752797,444.123565,9696.697840
4015.841484,-842.705048,148.041188,9992.780217
4015.841799,-766.095498,222.061783,10066.800811
4015.842114,-612.876398,592.164754,9548.656652
4015.842429,-689.485948,814.226536,9400.615463
4015.842745,-459.657299,1184.329507,9252.574275
4015.843060,-306.438199,1184.329507,8882.471304
4015.843375,-383.047749,1554.432478,8512.368333
4015.843690,-995.924147,1480.411884,8586.388927
4015.844005,-1378.971896,1480.411884,9178.553681
4015.844320,-2068.457845,1184.329507,8586.388927
4015.844635,-2911.162892,1184.329507,8734.430116
4015.844950,-2604.724693,296.082377,9992.780217
4015.845265,-3064.381992,814.226536,9548.656652
4015.845580,-3294.210641,962.267725,9918.759623
4015.845896,-2987.772442,1554.432478,10066.800811
4015.846211,-3140.991542,1702.473667,9622.677246
4015.846526,-2681.334243,2368.659014,9326.594869
4015.846841,-2451.505594,2960.823768,9326.594869
4015.847156,-1991.848295,3182.885551,9104.533087
4015.847471,-1685.410096,3256.906145,9326.594869
4015.847786,-1685.410096,3404.947333,9400.615463
4015.848101,-1685.410096,3256.906145,9696.697840
4015.848416,-1685.410096,2886.803174,9770.718434
4015.848731,-2068.457845,2812.782580,9992.780217
4015.849046,-2374.896044,2664.741391,10362.883188
4015.849362,-2298.286494,1998.556043,10955.047942
4015.849677,-2145.067394,2368.659014,10066.800811
4015.849992,-1685.410096,2368.659014,9992.780217
4015.850307,-1532.190996,2590.720797,9696.697840
4015.850622,-1532.190996,2960.823768,9252.574275
4015.850937,-1302.362347,3256.906145,9474.636058
4015.851252,-1225.752797,3552.988522,9252.574275
4015.851567,-1302.362347,3701.029710,9252.574275
4015.851882,-1608.800546,3552.988522,9326.594869
4015.852197,-1608.800546,3330.926739,10066.800811
4015.852513,-2528.115143,2960.823768,11029.068536
4015.852828,-2145.067394,2738.761985,11103.089130
4015.853143,-1838.629195,2590.720797,11177.109724
4015.853458,-1762.019645,2886.803174,11251.130318
4015.853773,-1532.190996,2664.741391,11251.130318
4015.854088,-1149.143247,3108.864956,10881.027347
4015.854403,-689.485948,3182.885551,9844.739029
4015.854718,-306.438199,3108.864956,9548.656652
4015.855033,0.000000,3330.926739,8734.430116
4015.855348,306.438199,2590.720797,8882.471304
4015.855664,-383.047749,2442.679609,9030.512492
4015.855979,-459.657299,2072.576638,9104.533087
4015.856294,-612.876398,1850.514855,9474.636058
4015.856609,-995.924147,1332.370696,10140.821405
4015.856924,-1072.533697,814.226536,10732.986159
4015.857239,-995.924147,444.123565,10658.965565
4015.857554,-689.485948,888.247130,10732.986159
4015.857869,-229.828649,888.247130,10807.006753
4015.858184,306.438199,888.247130,10510.924376
4015.858499,1072.533697,1184.329507,10436.903782
4015.858815,2068.457845,1406.391290,9474.636058
4015.859130,2451.505594,1036.288319,9030.512492
4015.859445,2451.505594,1406.391290,8808.450710
4015.859760,2298.286494,1480.411884,8882.471304
4015.860075,1915.238745,1184.329507,8364.327145
4015.860390,1072.533697,518.144159,8364.327145
4015.860705,612.876398,-0.000000,8438.347739
4015.861020,-459.657299,-1036.288319,9400.615463
4015.861335,-1149.143247,-1628.453072,9770.718434
4015.861650,-2145.067394,-2220.617826,10214.842000
4015.861965,-2528.115143,-2146.597232,10436.903782
4015.862281,-2068.457845,-1850.514855,10510.924376
4015.862596,-1762.019645,-1406.391290,10214.842000
4015.862911,-1378.971896,-592.164754,9918.759623
4015.863226,-1072.533697,-518.144159,9844.739029
4015.863541,-536.266849,-0.000000,9474.636058
4015.863856,0.000000,740.205942,8734.430116
4015.864171,-383.047749,518.144159,8660.409521
4015.864486,689.485948,296.082377,8660.409521
4015.864801,0.000000,-74.020594,9178.553681
4015.865116,-306.438199,-1184.329507,9696.697840
4015.865432,-383.047749,-2072.576638,10362.883188
4015.865747,-612.876398,-2886.803174,10436.903782
4015.866062,-536.266849,-3108.864956,10362.883188
4015.866377,-383.047749,-3034.844362,9770.718434
4015.866692,-306.438199,-2590.720797,8734.430116
4015.867007,306.438199,-2146.597232,8438.347739
4015.867322,383.047749,-962.267725,7994.224174
4015.867637,995.924147,-296.082377,7550.100608
4015.867952,766.095498,222.061783,6735.874072
4015.868267,0.000000,-222.061783,7254.018232
4015.868583,-153.219100,-222.061783,8142.265362
4015.868898,-612.876398,-814.226536,9252.574275
4015.869213,-1302.362347,-1332.370696,10140.821405
4015.869528,-1532.190996,-1776.494261,10881.027347
4015.869843,-1149.143247,-1554.432478,10881.027347
4015.870158,-1225.752797,-1480.411884,11177.109724
4015.870473,-536.266849,-740.205942,10510.924376
4015.870788,0.000000,-0.000000,10584.944971
4015.871103,459.657299,666.185348,9178.553681
4015.871418,689.485948,1184.329507,8586.388927
4015.871733,842.705048,1110.308913,8216.285956
4015.872049,1225.752797,592.164754,8364.327145
4015.872364,1608.800546,-0.000000,8586.388927
4015.872679,1302.362347,-296.082377,9030.512492
4015.872994,1302.362347,-296.082377,9326.594869
4015.873309,1378.971896,-592.164754,9622.677246
4015.873624,1685.410096,-666.185348,9252.574275
4015.873939,1762.019645,-0.000000,9622.677246
4015.874254,1455.581446,444.123565,9474.636058
4015.874569,919.314598,1110.308913,8956.491898
4015.874884,766.095498,1332.370696,8586.388927
4015.875200,0.000000,1480.411884,9030.512492
4015.875515,0.000000,1480.411884,9178.553681
4015.875830,-459.657299,1480.411884,9696.697840
4015.876145,-536.266849,962.267725,10362.883188
4015.876460,-383.047749,1110.308913,10955.047942
4015.876775,-842.705048,1036.288319,11547.212695
4015.877090,0.000000,1332.370696,11547.212695
4015.877405,383.047749,1702.473667,10955.047942
4015.877720,919.314598,1850.514855,10732.986159
4015.878035,1685.410096,2368.659014,9992.780217
4015.878351,1455.581446,2368.659014,9918.759623
4015.878666,1225.752797,2442.679609,9252.574275
4015.878981,1532.190996,1998.556043,8956.491898
4015.879296,1149.143247,1850.514855,9178.553681
4015.879611,612.876398,740.205942,9474.636058
4015.879926,229.828649,222.061783,9918.759623
4015.880241,-306.438199,-0.000000,10214.842000
4015.880556,-306.438199,-148.041188,10584.944971
4015.880871,-919.314598,-222.061783,10362.883188
4015.881186,-612.876398,-0.000000,10436.903782
4015.881502,-766.095498,444.123565,10288.862594
4015.881817,-919.314598,1036.288319,10214.842000
4015.882132,-995.924147,1702.473667,9696.697840
4015.882447,-842.705048,1702.473667,9400.615463
4015.882762,-766.095498,1554.432478,9992.780217
4015.883077,-919.314598,1554.432478,10140.821405
4015.883392,-1149.143247,962.267725,9844.739029
4015.883707,-1378.971896,666.185348,9844.739029
4015.884022,-766.095498,-0.000000,10140.821405
4015.884337,-842.705048,-0.000000,10436.903782
4015.884652,-383.047749,-296.082377,10066.800811
4015.884968,-459.657299,-592.164754,9992.780217
4015.885283,-229.828649,-592.164754,9474.636058
4015.885598,76.609550,-444.123565,9178.553681
4015.885913,842.705048,-518.144159,9326.594869
4015.886228,1149.143247,-888.247130,8364.327145
4015.886543,1302.362347,-296.082377,8216.285956
4015.886858,1302.362347,-518.144159,8142.265362
4015.887173,1302.362347,-296.082377,8290.306550
4015.887488,1302.362347,-222.061783,8586.388927
4015.887803,1149.143247,-370.102971,8438.347739
4015.888119,536.266849,-518.144159,8512.368333
4015.888434,0.000000,-888.247130,8956.491898
4015.888749,0.000000,-740.205942,9474.636058
4015.889064,-536.266849,-1110.308913,9918.759623
4015.889379,-1149.143247,-740.205942,10288.862594
4015.889694,-1302.362347,-888.247130,10140.821405
4015.890009,-1225.752797,-888.247130,9992.780217
4015.890324,-689.485948,-370.102971,9992.780217
4015.890639,-459.657299,-592.164754,10140.821405
4015.890954,76.609550,-370.102971,9770.718434
4015.891270,766.095498,-444.123565,9548.656652
4015.891585,766.095498,-222.061783,9474.636058
4015.891900,766.095498,-0.000000,9622.677246
4015.892215,1608.800546,-666.185348,9622.677246
4015.892530,1685.410096,-444.123565,9844.739029
4015.892845,1762.019645,-666.185348,9252.574275
4015.893160,1225.752797,-1110.308913,8956.491898
4015.893475,919.314598,-1110.308913,9326.594869
4015.893790,842.705048,-962.267725,9252.574275
4015.894105,689.485948,-814.226536,8882.471304
4015.894420,612.876398,-666.185348,8734.430116
4015.894736,0.000000,-592.164754,8882.471304
4015.895051,0.000000,-222.061783,9622.677246
4015.895366,-612.876398,-592.164754,9844.739029
4015.895681,-919.314598,-592.164754,10214.842000
4015.895996,-1455.581446,-74.020594,10510.924376
4015.896311,-1149.143247,-74.020594,10510.924376
4015.896626,-1225.752797,-0.000000,10881.027347
4015.896941,-383.047749,222.061783,10436.903782
4015.897256,-536.266849,592.164754,10214.842000
4015.897571,229.828649,962.267725,9770.718434
4015.897887,612.876398,1258.350101,9696.697840
4015.898202,766.095498,1406.391290,9252.574275
4015.898517,766.095498,888.247130,9030.512492
4015.898832,536.266849,888.247130,8956.491898
4015.899147,536.266849,444.123565,9030.512492
4015.899462,612.876398,222.061783,9030.512492
4015.899777,459.657299,-148.041188,9622.677246
4015.900092,0.000000,-370.102971,9548.656652
4015.900407,0.000000,-74.020594,9326.594869
4015.900722,-153.219100,-0.000000,8956.491898
4015.901038,0.000000,518.144159,9030.512492
4015.901353,-229.828649,962.267725,8956.491898
4015.901668,-306.438199,1554.432478,8956.491898
4015.901983,-383.047749,1702.473667,9178.553681
4015.902298,-689.485948,1998.556043,9252.574275
4015.902613,-842.705048,1776.494261,9844.739029
4015.902928,-842.705048,1480.411884,10066.800811
4015.903243,-1149.143247,1406.391290,10955.047942
4015.903558,-1072.533697,1332.370696,10881.027347
4015.903873,-1072.533697,814.226536,10510.924376
4015.904189,-459.657299,1036.288319,10436.903782
4015.904504,0.000000,962.267725,10436.903782
4015.904819,0.000000,1258.350101,9918.759623
4015.905134,459.657299,1332.370696,9252.574275
4015.905449,612.876398,1110.308913,9252.574275
4015.905764,1072.533697,888.247130,9178.553681
4015.906079,1378.971896,370.102971,9326.594869
4015.906394,1225.752797,370.102971,9474.636058
4015.906709,995.924147,-0.000000,9548.656652
4015.907024,1072.533697,222.061783,9622.677246
4015.907339,1302.362347,-0.000000,9770.718434
4015.907655,1072.533697,-0.000000,9548.656652
4015.907970,689.485948,370.102971,9326.594869
4015.908285,306.438199,888.247130,9178.553681
4015.908600,0.000000,1036.288319,9400.615463
4015.908915,-229.828649,1036.288319,9622.677246
4015.909230,-536.266849,740.205942,9992.780217
4015.909545,-995.924147,444.123565,10066.800811
4015.909860,-1225.752797,370.102971,10288.862594
4015.910175,-995.924147,-0.000000,10732.986159
4015.910490,-766.095498,74.020594,10807.006753
4015.910806,-76.609550,370.102971,10881.027347
4015.911121,153.219100,222.061783,10362.883188
4015.911436,383.047749,296.082377,9400.615463
4015.911751,919.314598,444.123565,9178.553681
4015.912066,1072.533697,222.061783,9326.594869
4015.912381,1378.971896,-0.000000,8734.430116
4015.912696,1608.800546,-74.020594,8882.471304
4015.913011,1532.190996,-148.041188,8734.430116
4015.913326,919.314598,-592.164754,9326.594869
4015.913641,612.876398,-1110.308913,9252.574275
4015.913957,689.485948,-888.247130,9400.615463
4015.914272,383.047749,-1036.288319,9474.636058
4015.914587,153.219100,-666.185348,9178.553681
4015.914902,76.609550,-444.123565,9326.594869
4015.915217,-383.047749,-814.226536,9622.677246
4015.915532,-459.657299,-592.164754,9474.636058
4015.915847,-766.095498,-370.102971,9844.739029
4015.916162,-995.924147,-296.082377,9992.780217
4015.916477,-766.095498,-222.061783,10140.821405
4015.916792,-919.314598,-0.000000,10140.821405
4015.917107,-1072.533697,-370.102971,10140.821405
4015.917423,-995.924147,-296.082377,10140.821405
4015.917738,-536.266849,-222.061783,9770.718434
4015.918053,-229.828649,-592.164754,9770.718434
4015.918368,76.609550,-518.144159,9622.677246
4015.918683,0.000000,-592.164754,9326.594869
4015.918998,0.000000,-962.267725,9252.574275
4015.919313,459.657299,-888.247130,9252.574275
4015.919628,536.266849,-1406.391290,8882.471304
4015.919943,842.705048,-1184.329507,8956.491898
4015.920258,612.876398,-1332.370696,8956.491898
4015.920574,536.266849,-888.247130,9104.533087
4015.920889,459.657299,-444.123565,8660.409521
4015.921204,919.314598,-222.061783,8882.471304
4015.921519,229.828649,-0.000000,8956.491898
4015.921834,0.000000,296.082377,8956.491898
4015.922149,-306.438199,-0.000000,9030.512492
4015.922464,-842.705048,-148.041188,9696.697840
4015.922779,-995.924147,-0.000000,10362.883188
4015.923094,-1302.362347,-0.000000,10658.965565
4015.923409,-1302.362347,296.082377,10807.006753
4015.923725,-1532.190996,444.123565,10732.986159
4015.924040,-689.485948,222.061783,10732.986159
4015.924355,-306.438199,518.144159,9918.759623
4015.924670,306.438199,962.267725,9696.697840
4015.924985,919.314598,1332.370696,9548.656652
4015.925300,1532.190996,1554.432478,9178.553681
4015.925615,1225.752797,1184.329507,8734.430116
4015.925930,1455.581446,962.267725,8882.471304
4015.926245,1455.581446,518.144159,8808.450710
4015.926560,1532.190996,296.082377,9252.574275
4015.926875,1149.143247,-0.000000,9474.636058
4015.927191,766.095498,-296.082377,9400.615463
4015.927506,536.266849,-148.041188,9844.739029
4015.927821,459.657299,-0.000000,9548.656652
4015.928136,383.047749,518.144159,9474.636058
4015.928451,229.828649,1110.308913,9548.656652
4015.928766,0.000000,1036.288319,9622.677246
4015.929081,0.000000,1554.432478,9696.697840
4015.929396,0.000000,1628.453072,10436.903782
4015.929711,-536.266849,1258.350101,10362.883188
4015.930026,-612.876398,888.247130,10881.027347
4015.930342,-229.828649,1110.308913,11473.192101
4015.930657,-76.609550,814.226536,10732.986159
4015.930972,-459.657299,740.205942,10807.006753
4015.931287,153.219100,888.247130,10214.842000
4015.931602,612.876398,666.185348,10140.821405
4015.931917,383.047749,666.185348,10214.842000
4015.932232,459.657299,1110.308913,9770.718434
4015.932547,766.095498,518.144159,9474.636058
4015.932863,1072.533697,-0.000000,8882.471304
4015.933178,1378.971896,-74.020594,9030.512492
4015.933493,995.924147,-0.000000,9622.677246
4015.933808,842.705048,-370.102971,9474.636058
4015.934123,919.314598,-148.041188,9104.533087
4015.934438,919.314598,-222.061783,9030.512492
4015.934754,842.705048,370.102971,8512.368333
4015.935069,0.000000,444.123565,8956.491898
4015.935384,0.000000,740.205942,8734.430116
4015.935699,-383.047749,740.205942,9178.553681
4015.936014,-995.924147,444.123565,9326.594869
4015.936329,-1532.190996,222.061783,9622.677246
4015.936644,-995.924147,-0.000000,10214.842000
4015.936960,-2068.457845,-148.041188,10362.883188
4015.937275,-1608.800546,-0.000000,10066.800811
4015.937590,-1225.752797,-444.123565,10066.800811
4015.937905,-536.266849,-222.061783,9918.759623
4015.938220,0.000000,-222.061783,9770.718434
4015.938535,0.000000,370.102971,9400.615463
4015.938851,306.438199,370.102971,8956.491898
4015.939166,306.438199,222.061783,8956.491898
4015.939481,995.924147,-0.000000,8882.471304
4015.939796,842.705048,-592.164754,9030.512492
4015.940111,995.924147,-814.226536,9030.512492
4015.940426,842.705048,-1258.350101,8660.409521
4015.940742,689.485948,-814.226536,9400.615463
4015.941057,689.485948,-814.226536,9474.636058
4015.941372,459.657299,-1184.329507,8808.450710
4015.941687,306.438199,-1036.288319,8882.471304
4015.942002,0.000000,-592.164754,9104.533087
4015.942317,-229.828649,-370.102971,9178.553681
4015.942632,-383.047749,-222.061783,9622.677246
4015.942948,-612.876398,-296.082377,10214.842000
4015.943263,-766.095498,-148.041188,10658.965565
4015.943578,-689.485948,-0.000000,10288.862594
4015.943893,-459.657299,-0.000000,9992.780217
4015.944208,-383.047749,-0.000000,10584.944971
4015.944523,0.000000,-0.000000,10436.903782
4015.944839,306.438199,-0.000000,10066.800811
4015.945154,995.924147,370.102971,9918.759623
4015.945469,919.314598,296.082377,9770.718434
4015.945784,919.314598,222.061783,9474.636058
4015.946099,1149.143247,-222.061783,9474.636058
4015.946414,1608.800546,-74.020594,9252.574275
4015.946729,1149.143247,-296.082377,8808.450710
4015.947045,1225.752797,-74.020594,9252.574275
4015.947360,1072.533697,-444.123565,9104.533087
4015.947675,689.485948,-148.041188,8882.471304
4015.947990,383.047749,-74.020594,9030.512492
4015.948305,153.219100,148.041188,8882.471304
4015.948620,0.000000,148.041188,9474.636058
4015.948936,-383.047749,444.123565,9326.594869
4015.949251,-536.266849,592.164754,9918.759623
4015.949566,-919.314598,814.226536,10066.800811
4015.949881,-1072.533697,814.226536,10362.883188
4015.950196,-1072.533697,666.185348,10807.006753
4015.950511,-1072.533697,740.205942,11177.109724
4015.950826,-1072.533697,740.205942,10510.924376
4015.951142,-612.876398,814.226536,9696.697840
4015.951457,0.000000,962.267725,9918.759623
4015.951772,459.657299,814.226536,9992.780217
4015.952087,766.095498,740.205942,9326.594869
4015.952402,76.609550,370.102971,8882.471304
4015.952717,536.266849,370.102971,8956.491898
4015.953033,1072.533697,222.061783,8956.491898
4015.953348,995.924147,-0.000000,8882.471304
4015.953663,1302.362347,-592.164754,9474.636058
4015.953978,459.657299,-592.164754,9474.636058
4015.954293,306.438199,-74.020594,9326.594869
4015.954608,153.219100,-0.000000,8882.471304
4015.954923,383.047749,222.061783,9400.615463
4015.955239,-306.438199,962.267725,9548.656652
4015.955554,-153.219100,1480.411884,9474.636058
4015.955869,-383.047749,1258.350101,9548.656652
4015.956184,-536.266849,814.226536,9918.759623
4015.956499,-1072.533697,962.267725,10066.800811
4015.956814,-995.924147,888.247130,10881.027347
4015.957130,-1455.581446,666.185348,10732.986159
4015.957445,-1225.752797,370.102971,10584.944971
4015.957760,-919.314598,814.226536,10510.924376
4015.958075,-612.876398,666.185348,10140.821405
4015.958390,0.000000,296.082377,9918.759623
4015.958705,459.657299,1184.329507,9622.677246
4015.959021,383.047749,962.267725,9252.574275
4015.959336,536.266849,592.164754,9104.533087
4015.959651,919.314598,444.123565,9030.512492
4015.959966,1072.533697,-0.000000,9030.512492
4015.960281,1378.971896,-0.000000,9178.553681
4015.960596,1072.533697,-74.020594,9252.574275
4015.960911,1302.362347,-296.082377,8882.471304
4015.961227,1302.362347,-0.000000,9252.574275
4015.961542,1072.533697,-296.082377,8808.450710
4015.961857,612.876398,-0.000000,8808.450710
4015.962172,306.438199,518.144159,9474.636058
4015.962487,229.828649,296.082377,9622.677246
4015.962802,-459.657299,148.041188,9548.656652
4015.963118,-383.047749,370.102971,9622.677246
4015.963433,-612.876398,148.041188,10288.862594
4015.963748,-842.705048,-0.000000,10510.924376
4015.964063,-689.485948,-74.020594,10658.965565
4015.964378,-383.047749,-296.082377,10658.965565
4015.964693,-306.438199,-296.082377,10510.924376
4015.965008,459.657299,-222.061783,10436.903782
4015.965324,766.095498,-148.041188,9252.574275
4015.965639,842.705048,222.061783,9474.636058
4015.965954,766.095498,148.041188,9326.594869
4015.966269,1302.362347,-74.020594,9178.553681
4015.966584,1455.581446,-296.082377,9400.615463
4015.966899,1455.581446,-444.123565,9178.553681
4015.967215,842.705048,-592.164754,9400.615463
4015.967530,842.705048,-740.205942,9474.636058
4015.967845,459.657299,-962.267725,9474.636058
4015.968160,383.047749,-1110.308913,9178.553681
4015.968475,459.657299,-814.226536,9178.553681
4015.968790,0.000000,-74.020594,9030.512492
4015.969105,0.000000,-148.041188,9326.594869
4015.969421,-383.047749,-0.000000,9178.553681
4015.969736,-842.705048,-0.000000,9474.636058
4015.970051,-612.876398,-148.041188,9770.718434
4015.970366,-842.705048,-0.000000,10066.800811
4015.970681,-1072.533697,-148.041188,10066.800811
4015.970996,-1225.752797,-444.123565,10288.862594
4015.971312,-689.485948,-0.000000,9844.739029
4015.971627,-612.876398,-296.082377,9992.780217
4015.971942,0.000000,-0.000000,9918.759623
4015.972257,0.000000,148.041188,9622.677246
4015.972572,383.047749,-74.020594,8956.491898
4015.972887,306.438199,-0.000000,9030.512492
4015.973202,995.924147,-444.123565,9474.636058
4015.973518,995.924147,-666.185348,9474.636058
4015.973833,842.705048,-444.123565,9030.512492
4015.974148,689.485948,-740.205942,8956.491898
4015.974463,919.314598,-444.123565,8882.471304
4015.974778,689.485948,-222.061783,8956.491898
4015.975093,689.485948,-148.041188,9030.512492
4015.975409,612.876398,-74.020594,9178.553681
4015.975724,76.609550,296.082377,8956.491898
4015.976039,-536.266849,148.041188,9030.512492
4015.976354,-459.657299,370.102971,9548.656652
4015.976669,-995.924147,370.102971,10214.842000
4015.976984,-1378.971896,222.061783,10510.924376
4015.977299,-1378.971896,370.102971,10881.027347
4015.977615,-1532.190996,518.144159,11029.068536
4015.977930,-1302.362347,888.247130,11029.068536
4015.978245,-536.266849,740.205942,10584.944971
4015.978560,0.000000,740.205942,10140.821405
4015.978875,383.047749,666.185348,9622.677246
4015.979190,766.095498,1332.370696,9400.615463
4015.979506,919.314598,1406.391290,9030.512492
4015.979821,1225.752797,1110.308913,9030.512492
4015.980136,1532.190996,814.226536,8956.491898
4015.980451,1378.971896,-0.000000,9104.533087
4015.980766,1072.533697,-370.102971,9696.697840
4015.981081,536.266849,-444.123565,9474.636058
4015.981397,689.485948,-222.061783,8808.450710
4015.981712,689.485948,148.041188,9474.636058
4015.982027,459.657299,148.041188,9548.656652
4015.982342,153.219100,666.185348,9326.594869
4015.982657,229.828649,1110.308913,9548.656652
4015.982972,0.000000,1110.308913,9548.656652
4015.983287,459.657299,962.267725,9622.677246
4015.983603,0.000000,1036.288319,9844.739029
4015.983918,-689.485948,1036.288319,10881.027347
4015.984233,-766.095498,592.164754,10955.047942
4015.984548,-689.485948,518.144159,10362.883188
4015.984863,-153.219100,444.123565,10362.883188
4015.985178,0.000000,666.185348,9918.759623
4015.985494,383.047749,444.123565,10066.800811
4015.985809,153.219100,592.164754,9622.677246
4015.986124,306.438199,222.061783,9474.636058
4015.986439,459.657299,-0.000000,9252.574275
4015.986754,1225.752797,-0.000000,9178.553681
4015.987069,995.924147,-74.020594,9178.553681
4015.987384,1225.752797,-148.041188,9474.636058
4015.987700,536.266849,-370.102971,9474.636058
4015.988015,536.266849,-222.061783,9104.533087
4015.988330,766.095498,-74.020594,8956.491898
4015.988645,459.657299,-0.000000,9178.553681
4015.988960,0.000000,222.061783,9548.656652
4015.989275,-459.657299,592.164754,9326.594869
4015.989591,-766.095498,444.123565,9400.615463
4015.989906,-1149.143247,296.082377,9474.636058
4015.990221,-919.314598,222.061783,9992.780217
4015.990536,-1455.581446,-0.000000,10214.842000
4015.990851,-1378.971896,-0.000000,10066.800811
4015.991166,-1302.362347,-0.000000,10288.862594
4015.991481,-1072.533697,-222.061783,10436.903782
4015.991797,-689.485948,148.041188,9770.718434
4015.992112,-229.828649,-0.000000,9326.594869
4015.992427,153.219100,-0.000000,9178.553681
4015.992742,0.000000,-74.020594,9178.553681
4015.993057,766.095498,296.082377,8882.471304
4015.993372,995.924147,222.061783,8734.430116
4015.993688,1225.752797,-148.041188,9104.533087
4015.994003,919.314598,-296.082377,9030.512492
4015.994318,766.095498,-814.226536,8586.388927
4015.994633,766.095498,-814.226536,9326.594869
4015.994948,766.095498,-888.247130,9474.636058
4015.995263,536.266849,-518.144159,8956.491898
4015.995578,536.266849,-370.102971,9252.574275
4015.995894,306.438199,-222.061783,9326.594869
4015.996209,0.000000,-0.000000,9474.636058
4015.996524,0.000000,518.144159,9474.636058
4015.996839,-536.266849,-0.000000,9696.697840
4015.997154,76.609550,-0.000000,9992.780217
4015.997469,-766.095498,-0.000000,10288.862594
4015.997785,-536.266849,-148.041188,10658.965565
4015.998100,-383.047749,-0.000000,10807.006753
4015.998415,-306.438199,-0.000000,10510.924376
4015.998730,76.609550,444.123565,10658.965565
4015.999045,612.876398,296.082377,9918.759623
4015.999360,689.485948,740.205942,9696.697840
4015.999676,842.705048,518.144159,9474.636058
4015.999991,995.924147,370.102971,9178.553681
4016.000306,1302.362347,148.041188,8956.491898
4016.000621,1532.190996,-0.000000,9104.533087
4016.000936,1149.143247,-370.102971,9178.553681
4016.001251,1072.533697,-370.102971,9548.656652
4016.001566,766.095498,-296.082377,9178.553681
4016.001882,306.438199,-148.041188,9030.512492
4016.002197,536.266849,-0.000000,9622.677246
4016.002512,383.047749,296.082377,9622.677246
4016.002827,-459.657299,444.123565,9030.512492
4016.003142,-612.876398,370.102971,9252.574275
4016.003457,-842.705048,740.205942,9770.718434
4016.003773,-1072.533697,444.123565,10140.821405
4016.004088,-995.924147,444.123565,10362.883188
4016.004403,-1072.533697,444.123565,10362.883188
4016.004718,-1149.143247,370.102971,10658.965565
4016.005033,-612.876398,592.164754,9918.759623
4016.005348,-306.438199,444.123565,10066.800811
4016.005663,229.828649,444.123565,9918.759623
4016.005979,306.438199,888.247130,9252.574275
4016.006294,229.828649,518.144159,9104.533087
4016.006609,766.095498,444.123565,9104.533087
4016.006924,766.095498,-0.000000,9326.594869
4016.007239,842.705048,-0.000000,9400.615463
4016.007554,919.314598,-222.061783,9474.636058
4016.007870,766.095498,-370.102971,9326.594869
4016.008185,689.485948,-0.000000,9326.594869
4016.008500,1072.533697,-74.020594,9474.636058
4016.008815,536.266849,296.082377,9474.636058
4016.009130,229.828649,592.164754,9400.615463
4016.009445,0.000000,518.144159,9030.512492
4016.009760,-459.657299,1036.288319,9474.636058
4016.010076,-612.876398,1036.288319,9770.718434
4016.010391,-995.924147,740.205942,10214.842000
4016.010706,-1608.800546,370.102971,10955.047942
4016.011021,-1378.971896,370.102971,10732.986159
4016.011336,-689.485948,222.061783,10658.965565
4016.011651,-1072.533697,148.041188,10732.986159
4016.011967,-919.314598,-0.000000,10881.027347
4016.012282,0.000000,296.082377,10362.883188
4016.012597,459.657299,444.123565,9548.656652
4016.012912,229.828649,370.102971,9326.594869
4016.013227,689.485948,296.082377,9030.512492
4016.013542,995.924147,444.123565,8734.430116
4016.013857,1225.752797,-0.000000,8586.388927
4016.014173,1455.581446,-0.000000,8956.491898
4016.014488,1072.533697,-518.144159,8808.450710
4016.014803,995.924147,-370.102971,8808.450710
4016.015118,919.314598,-444.123565,8882.471304
4016.015433,766.095498,-370.102971,9178.553681
4016.015748,383.047749,-0.000000,9178.553681
4016.016064,229.828649,-0.000000,9178.553681
4016.016379,-459.657299,-0.000000,9474.636058
4016.016694,-459.657299,-0.000000,9474.636058
4016.017009,-306.438199,-0.000000,9474.636058
4016.017324,-536.266849,-0.000000,10436.903782
4016.017639,-612.876398,-0.000000,10584.944971
4016.017955,-919.314598,222.061783,10584.944971
4016.018270,-612.876398,-0.000000,10066.800811
4016.018585,153.219100,-0.000000,10066.800811
4016.018900,0.000000,296.082377,9844.739029
4016.019215,689.485948,-0.000000,9474.636058
4016.019530,459.657299,296.082377,9474.636058
4016.019845,612.876398,-0.000000,9400.615463
4016.020161,842.705048,-0.000000,9104.533087
4016.020476,995.924147,-0.000000,9252.574275
4016.020791,766.095498,-296.082377,9548.656652
4016.021106,612.876398,-370.102971,9474.636058
4016.021421,689.485948,-888.247130,9104.533087
4016.021736,536.266849,-518.144159,9770.718434
4016.022052,919.314598,-148.041188,9252.574275
4016.022367,0.000000,-74.020594,8956.491898
4016.022682,0.000000,222.061783,9474.636058
4016.022997,-306.438199,444.123565,9548.656652
4016.023312,-689.485948,148.041188,9474.636058
4016.023627,-612.876398,222.061783,9844.739029
4016.023942,-842.705048,444.123565,10510.924376
4016.024258,-995.924147,592.164754,10732.986159
4016.024573,-1378.971896,592.164754,10362.883188
4016.024888,-1302.362347,-0.000000,10584.944971
4016.025203,-612.876398,74.020594,10140.821405
4016.025518,-306.438199,148.041188,10066.800811
4016.025833,229.828649,444.123565,9770.718434
4016.026149,536.266849,370.102971,9548.656652
4016.026464,536.266849,666.185348,9474.636058
4016.026779,842.705048,222.061783,8956.491898
4016.027094,1149.143247,-0.000000,9030.512492
4016.027409,1378.971896,-148.041188,9326.594869
4016.027724,1072.533697,-444.123565,9030.512492
4016.028039,1225.752797,-740.205942,9474.636058
4016.028355,919.314598,-592.164754,9178.553681
4016.028670,1072.533697,-0.000000,9326.594869
4016.028985,766.095498,-222.061783,9474.636058
4016.029300,229.828649,370.102971,9030.512492
4016.029615,76.609550,370.102971,9178.553681
4016.029930,0.000000,444.123565,9252.574275
4016.030246,-383.047749,666.185348,9770.718434
4016.030561,-689.485948,370.102971,10214.842000
4016.030876,-842.705048,518.144159,9918.759623
4016.031191,-1225.752797,370.102971,10436.903782
4016.031506,-1072.533697,592.164754,10807.006753
4016.031821,-919.314598,444.123565,10584.944971
4016.032136,-612.876398,444.123565,10214.842000
4016.032452,0.000000,296.082377,10140.821405
4016.032767,306.438199,518.144159,10214.842000
4016.033082,306.438199,962.267725,9474.636058
4016.033397,306.438199,444.123565,9474.636058
4016.033712,995.924147,370.102971,9178.553681
4016.034027,995.924147,148.041188,9326.594869
4016.034342,1072.533697,-370.102971,8956.491898
4016.034657,1149.143247,-74.020594,9030.512492
4016.034972,995.924147,-148.041188,9030.512492
4016.035287,842.705048,148.041188,8512.368333
4016.035603,536.266849,296.082377,9326.594869
4016.035918,153.219100,-0.000000,9252.574275
4016.036233,0.000000,222.061783,9104.533087
4016.036548,-306.438199,370.102971,9252.574275
4016.036863,-919.314598,444.123565,9474.636058
4016.037178,-842.705048,592.164754,9770.718434
4016.037493,-919.314598,222.061783,9992.780217
4016.037808,-1608.800546,148.041188,10584.944971
4016.038123,-1149.143247,592.164754,10658.965565
4016.038438,-919.314598,518.144159,10214.842000
4016.038754,-383.047749,592.164754,10288.862594
4016.039069,0.000000,370.102971,10066.800811
4016.039384,229.828649,370.102971,9992.780217
4016.039699,536.266849,666.185348,9252.574275
4016.040014,766.095498,740.205942,9252.574275
4016.040329,1225.752797,370.102971,8956.491898
4016.040644,1302.362347,-0.000000,9178.553681
4016.040959,1225.752797,-148.041188,9548.656652
4016.041274,766.095498,-222.061783,9178.553681
4016.041589,842.705048,-592.164754,9400.615463
4016.041905,536.266849,-592.164754,9474.636058
4016.042220,612.876398,-444.123565,9696.697840
4016.042535,306.438199,-74.020594,9622.677246
4016.042850,0.000000,296.082377,9252.574275
4016.043165,0.000000,518.144159,9474.636058
4016.043480,0.000000,592.164754,9770.718434
4016.043795,-306.438199,740.205942,9918.759623
4016.044110,-383.047749,444.123565,9696.697840
4016.044425,-842.705048,222.061783,10362.883188
4016.044740,-1225.752797,296.082377,10510.924376
4016.045056,-612.876398,-0.000000,10510.924376
4016.045371,-842.705048,222.061783,10881.027347
4016.045686,-459.657299,370.102971,10436.903782
4016.046001,0.000000,222.061783,9696.697840
4016.046316,306.438199,370.102971,9474.636058
4016.046631,153.219100,518.144159,9474.636058
4016.046946,689.485948,-0.000000,9178.553681
4016.047261,1149.143247,-0.000000,8734.430116
4016.047576,1378.971896,-0.000000,8882.471304
4016.047891,1072.533697,-0.000000,9104.533087
4016.048207,1149.143247,-962.267725,9178.553681
4016.048522,919.314598,-444.123565,9326.594869
4016.048837,766.095498,-444.123565,8956.491898
4016.049152,919.314598,-444.123565,8882.471304
4016.049467,1225.752797,-0.000000,9178.553681
4016.049782,459.657299,-74.020594,8956.491898
4016.050097,0.000000,148.041188,9622.677246
4016.050412,-1072.533697,-0.000000,9400.615463
4016.050727,-766.095498,-0.000000,9844.739029
4016.051042,-459.657299,296.082377,10510.924376
4016.051358,-995.924147,-0.000000,10584.944971
4016.051673,-842.705048,-0.000000,10658.965565
4016.051988,-919.314598,-0.000000,10584.944971
4016.052303,-689.485948,370.102971,10214.842000
4016.052618,-153.219100,148.041188,9992.780217
4016.052933,306.438199,370.102971,9770.718434
4016.053248,383.047749,666.185348,9622.677246
4016.053563,766.095498,370.102971,8956.491898
4016.053878,1072.533697,222.061783,8660.409521
4016.054193,1072.533697,-148.041188,9400.615463
4016.054509,995.924147,-148.041188,9474.636058
4016.054824,842.705048,-518.144159,9400.615463
4016.055139,536.266849,-518.144159,9326.594869
4016.055454,612.876398,-370.102971,9104.533087
4016.055769,689.485948,-518.144159,8882.471304
4016.056084,229.828649,-0.000000,8956.491898
4016.056399,0.000000,370.102971,9252.574275
4016.056714,-536.266849,666.185348,9178.553681
4016.057029,-612.876398,592.164754,9400.615463
4016.057344,-995.924147,740.205942,9918.759623
4016.057660,-995.924147,592.164754,10066.800811
4016.057975,-1225.752797,370.102971,10436.903782
4016.058290,-1302.362347,148.041188,10658.965565
4016.058605,-995.924147,296.082377,10807.006753
4016.058920,-612.876398,296.082377,10658.965565
4016.059235,0.000000,370.102971,10436.903782
4016.059550,229.828649,296.082377,10066.800811
4016.059865,229.828649,740.205942,8956.491898
4016.060180,689.485948,592.164754,8882.471304
4016.060495,919.314598,370.102971,9104.533087
4016.060811,919.314598,-0.000000,9030.512492
4016.061126,1225.752797,-74.020594,8364.327145
4016.061441,919.314598,-444.123565,8808.450710
4016.061756,1149.143247,-370.102971,9474.636058
4016.062071,766.095498,-444.123565,9474.636058
4016.062386,995.924147,-370.102971,9400.615463
4016.062701,766.095498,-370.102971,9178.553681
4016.063016,229.828649,370.102971,9030.512492
4016.063331,0.000000,370.102971,8956.491898
4016.063646,-229.828649,666.185348,9474.636058
4016.063962,-459.657299,444.123565,10066.800811
4016.064277,-612.876398,592.164754,9918.759623
4016.064592,-689.485948,222.061783,10140.821405
4016.064907,-766.095498,518.144159,10881.027347
4016.065222,-766.095498,222.061783,10732.986159
4016.065537,-459.657299,-0.000000,10807.006753
4016.065852,-459.657299,-0.000000,10658.965565
4016.066167,-153.219100,296.082377,10214.842000
4016.066482,536.266849,222.061783,9474.636058
4016.066797,689.485948,296.082377,9326.594869
4016.067113,1225.752797,-0.000000,9104.533087
4016.067428,1072.533697,-148.041188,8808.450710
4016.067743,995.924147,-222.061783,8882.471304
4016.068058,1149.143247,-0.000000,9030.512492
4016.068373,1072.533697,-74.020594,9178.553681
4016.068688,689.485948,-518.144159,9326.594869
4016.069003,459.657299,-370.102971,9400.615463
4016.069318,612.876398,-222.061783,9400.615463
4016.069633,306.438199,-148.041188,9252.574275
4016.069948,229.828649,-0.000000,9326.594869
4016.070264,-536.266849,444.123565,9696.697840
4016.070579,-612.876398,518.144159,9696.697840
4016.070894,-766.095498,444.123565,9548.656652
4016.071209,-689.485948,296.082377,10362.883188
4016.071524,-1072.533697,148.041188,10584.944971
4016.071839,-1072.533697,74.020594,10288.862594
4016.072154,-1149.143247,-0.000000,10362.883188
4016.072469,-306.438199,222.061783,10288.862594
4016.072784,0.000000,-0.000000,9770.718434
4016.073099,459.657299,-74.020594,9770.718434
4016.073415,229.828649,148.041188,9326.594869
4016.073730,306.438199,-0.000000,9178.553681
4016.074045,842.705048,-0.000000,9030.512492
4016.074360,766.095498,-148.041188,8956.491898
4016.074675,689.485948,-444.123565,9326.594869
4016.074990,612.876398,-666.185348,9252.574275
4016.075305,536.266849,-888.247130,8882.471304
4016.075620,766.095498,-370.102971,9474.636058
4016.075935,459.657299,-222.061783,9104.533087
4016.076250,229.828649,-370.102971,9178.553681
4016.076566,153.219100,148.041188,9252.574275
4016.076881,-383.047749,222.061783,9400.615463
4016.077196,-612.876398,-0.000000,9400.615463
4016.077511,-1072.533697,-0.000000,10066.800811
4016.077826,-1762.019645,296.082377,10066.800811
4016.078141,-1608.800546,74.020594,10362.883188
4016.078456,-1608.800546,148.041188,10881.027347
4016.078771,-1302.362347,-0.000000,10584.944971
4016.079086,-689.485948,-0.000000,10510.924376
4016.079401,0.000000,296.082377,9992.780217
4016.079717,153.219100,444.123565,9548.656652
4016.080032,842.705048,592.164754,9400.615463
4016.080347,842.705048,666.185348,8956.491898
4016.080662,919.314598,592.164754,8660.409521
4016.080977,1225.752797,-0.000000,8956.491898
4016.081292,1378.971896,-74.020594,8734.430116
4016.081607,1072.533697,-0.000000,9104.533087
4016.081922,842.705048,-518.144159,9252.574275
4016.082237,995.924147,-666.185348,9548.656652
4016.082552,536.266849,-0.000000,9178.553681
4016.082868,612.876398,-0.000000,8956.491898
4016.083183,306.438199,370.102971,9474.636058
4016.083498,612.876398,518.144159,9252.574275
4016.083813,76.609550,888.247130,9474.636058
4016.084128,-612.876398,1036.288319,9474.636058
4016.084443,-766.095498,740.205942,9844.739029
4016.084758,-689.485948,814.226536,10214.842000
4016.085073,-919.314598,1110.308913,11251.130318
4016.085388,-1072.533697,592.164754,11029.068536
4016.085703,-766.095498,222.061783,10510.924376
4016.086019,-459.657299,-0.000000,10066.800811
4016.086334,76.609550,370.102971,10140.821405
4016.086649,229.828649,148.041188,9770.718434
4016.086964,0.000000,518.144159,9474.636058
4016.087279,459.657299,148.041188,9178.553681
4016.087594,842.705048,-0.000000,9104.533087
4016.087909,1685.410096,-370.102971,9178.553681
4016.088224,1072.533697,-222.061783,9326.594869
4016.088539,919.314598,-444.123565,9548.656652
4016.088854,995.924147,-296.082377,9474.636058
4016.089170,995.924147,-0.000000,9178.553681
4016.089485,766.095498,-0.000000,9252.574275
4016.089800,766.095498,222.061783,9178.553681
4016.090115,383.047749,518.144159,8956.491898
4016.090430,-383.047749,740.205942,9104.533087
4016.090745,-306.438199,370.102971,9696.697840
4016.091060,-612.876398,592.164754,9844.739029
4016.091375,-995.924147,370.102971,10362.883188
4016.091690,-766.095498,370.102971,10881.027347
4016.092005,-995.924147,-0.000000,10436.903782
4016.092321,-919.314598,222.061783,10436.903782
4016.092636,-459.657299,296.082377,10362.883188
4016.092951,0.000000,222.061783,9918.759623
4016.093266,459.657299,222.061783,9474.636058
4016.093581,459.657299,518.144159,8512.368333
4016.093896,689.485948,-0.000000,8956.491898
4016.094211,995.924147,296.082377,9030.512492
4016.094526,689.485948,-74.020594,8808.450710
4016.094841,536.266849,-296.082377,9474.636058
4016.095156,536.266849,-444.123565,8956.491898
4016.095472,383.047749,-518.144159,9326.594869
4016.095787,0.000000,-592.164754,9548.656652
4016.096102,0.000000,-370.102971,9696.697840
4016.096417,0.000000,-148.041188,9474.636058
4016.096732,0.000000,-0.000000,8808.450710
4016.097047,-229.828649,296.082377,9474.636058
4016.097362,-536.266849,592.164754,9548.656652
4016.097677,-689.485948,888.247130,9622.677246
4016.097992,-842.705048,666.185348,9770.718434
4016.098307,-919.314598,444.123565,10140.821405
4016.098623,-1072.533697,-0.000000,10584.944971
4016.098938,-1149.143247,-0.000000,10807.006753
4016.099253,-842.705048,-222.061783,10658.965565
4016.099568,-459.657299,-148.041188,9992.780217
4016.099883,0.000000,-148.041188,9992.780217
4016.100198,229.828649,222.061783,9622.677246
4016.100513,612.876398,-148.041188,9622.677246
4016.100828,612.876398,296.082377,9326.594869
4016.101143,1302.362347,-0.000000,8882.471304
4016.101458,1762.019645,-0.000000,9400.615463
4016.101774,1838.629195,-0.000000,9178.553681
4016.102089,1378.971896,-444.123565,9326.594869
4016.102404,1455.581446,-370.102971,9400.615463
4016.102719,1149.143247,-148.041188,8956.491898
4016.103034,1302.362347,-0.000000,9104.533087
4016.103349,383.047749,296.082377,9326.594869
4016.103664,229.828649,222.061783,9474.636058
4016.103979,0.000000,-0.000000,9474.636058
4016.104294,-689.485948,296.082377,9252.574275
4016.104609,-766.095498,148.041188,10510.924376
4016.104925,-842.705048,-74.020594,10807.006753
4016.105240,-1225.752797,370.102971,10955.047942
4016.105555,-766.095498,222.061783,10658.965565
4016.105870,-766.095498,444.123565,10436.903782
4016.106185,0.000000,666.185348,10140.821405
4016.106500,612.876398,888.247130,9918.759623
4016.106815,919.314598,592.164754,9918.759623
4016.107130,766.095498,962.267725,9104.533087
4016.107445,689.485948,740.205942,9030.512492
4016.107760,995.924147,518.144159,8882.471304
4016.108076,1455.581446,-148.041188,9474.636058
4016.108391,842.705048,-370.102971,9252.574275
4016.108706,612.876398,-592.164754,9474.636058
4016.109021,842.705048,-296.082377,9104.533087
4016.109336,459.657299,-592.164754,9030.512492
4016.109651,919.314598,-222.061783,9178.553681
4016.109966,0.000000,-370.102971,9178.553681
4016.110281,-459.657299,444.123565,9104.533087
4016.110596,-383.047749,444.123565,9252.574275
4016.110911,-612.876398,592.164754,9104.533087
4016.111227,-689.485948,222.061783,9918.759623
4016.111542,-919.314598,518.144159,10288.862594
4016.111857,-1532.190996,592.164754,10584.944971
4016.112172,-1378.971896,444.123565,11251.130318
4016.112487,-1149.143247,-0.000000,10436.903782
4016.112802,-766.095498,-148.041188,10362.883188
4016.113117,-383.047749,-0.000000,10584.944971
4016.113432,0.000000,-74.020594,9548.656652
4016.113747,306.438199,370.102971,9474.636058
4016.114062,459.657299,370.102971,9400.615463
4016.114378,612.876398,222.061783,9030.512492
4016.114693,919.314598,-0.000000,8586.388927
4016.115008,1072.533697,-0.000000,8512.368333
4016.115323,919.314598,-74.020594,9474.636058
4016.115638,1072.533697,-222.061783,9326.594869
4016.115953,842.705048,-222.061783,9400.615463
4016.116268,536.266849,-296.082377,8956.491898
4016.116583,229.828649,-222.061783,9178.553681
4016.116898,306.438199,296.082377,9252.574275
4016.117213,-306.438199,370.102971,9474.636058
4016.117529,-229.828649,370.102971,9844.739029
4016.117844,-766.095498,370.102971,9696.697840
4016.118159,-842.705048,666.185348,9918.759623
4016.118474,-766.095498,444.123565,10214.842000
4016.118789,-842.705048,444.123565,10510.924376
4016.119104,-612.876398,-0.000000,10436.903782
4016.119419,-536.266849,370.102971,10288.862594
4016.119734,0.000000,370.102971,9622.677246
4016.120049,459.657299,592.164754,9474.636058
4016.120364,919.314598,444.123565,9474.636058
4016.120680,1302.362347,296.082377,9178.553681
4016.120995,536.266849,-0.000000,8882.471304
4016.121310,842.705048,-0.000000,9030.512492
4016.121625,995.924147,-74.020594,8956.491898
4016.121940,766.095498,-222.061783,9178.553681
4016.122255,995.924147,-222.061783,9474.636058
4016.122570,842.705048,-370.102971,9474.636058
4016.122885,612.876398,-74.020594,9548.656652
4016.123200,612.876398,222.061783,9104.533087
4016.123515,383.047749,370.102971,9400.615463
4016.123831,0.000000,740.205942,9548.656652
4016.124146,0.000000,888.247130,9326.594869
4016.124461,-536.266849,962.267725,9548.656652
4016.124776,-689.485948,666.185348,9918.759623
4016.125091,-1072.533697,518.144159,10362.883188
4016.125406,-1455.581446,592.164754,10881.027347
4016.125721,-1225.752797,296.082377,10288.862594
4016.126036,-1072.533697,444.123565,10807.006753
4016.126351,-612.876398,222.061783,10362.883188
4016.126666,0.000000,-0.000000,9918.759623
4016.126982,229.828649,296.082377,9770.718434
4016.127297,229.828649,370.102971,9474.636058
4016.127612,689.485948,592.164754,9474.636058
4016.127927,842.705048,592.164754,9326.594869
4016.128242,1302.362347,370.102971,9326.594869
4016.128557,995.924147,-0.000000,9474.636058
4016.128872,995.924147,-0.000000,9252.574275
4016.129187,612.876398,-74.020594,9400.615463
4016.129502,766.095498,-0.000000,9622.677246
4016.129817,306.438199,-148.041188,9622.677246
4016.130133,0.000000,-0.000000,9474.636058
4016.130448,0.000000,296.082377,9326.594869
4016.130763,-229.828649,222.061783,9474.636058
4016.131078,-612.876398,370.102971,9474.636058
4016.131393,-1149.143247,222.061783,9844.739029
4016.131708,-1225.752797,-74.020594,10140.821405
4016.132023,-842.705048,370.102971,10140.821405
4016.132338,-1225.752797,-74.020594,10214.842000
4016.132653,-536.266849,-74.020594,10288.862594
4016.132968,-306.438199,-370.102971,10288.862594
4016.133283,153.219100,-0.000000,9622.677246
4016.133598,383.047749,-0.000000,9622.677246
4016.133913,842.705048,444.123565,9104.533087
4016.134228,842.705048,-0.000000,8808.450710
4016.134543,1149.143247,-0.000000,9030.512492
4016.134858,1072.533697,-296.082377,9104.533087
4016.135173,919.314598,-444.123565,9104.533087
4016.135488,995.924147,-666.185348,9252.574275
4016.135803,919.314598,-888.247130,9474.636058
4016.136118,842.705048,-740.205942,9474.636058
4016.136433,536.266849,-444.123565,9326.594869
4016.136748,612.876398,-0.000000,9474.636058
4016.137063,536.266849,-0.000000,9252.574275
4016.137378,0.000000,296.082377,9252.574275
4016.137693,0.000000,222.061783,9104.533087
4016.138008,-306.438199,444.123565,9548.656652
4016.138323,-689.485948,148.041188,9992.780217
4016.138638,-766.095498,-0.000000,10288.862594
4016.138953,-1225.752797,-0.000000,10436.903782
4016.139268,-995.924147,-0.000000,10362.883188
4016.139583,-766.095498,148.041188,10362.883188
4016.139898,76.609550,-0.000000,9992.780217
4016.140213,153.219100,-0.000000,10140.821405
4016.140528,306.438199,-0.000000,9992.780217
4016.140843,306.438199,370.102971,9252.574275
4016.141158,536.266849,-0.000000,9030.512492
4016.141473,842.705048,-0.000000,8290.306550
4016.141788,1762.019645,-0.000000,8808.450710
4016.142103,995.924147,-0.000000,9474.636058
4016.142418,842.705048,-370.102971,9400.615463
4016.142733,766.095498,-222.061783,9178.553681
4016.143048,536.266849,-370.102971,9326.594869
4016.143363,306.438199,-74.020594,9474.636058
4016.143678,76.609550,-0.000000,9474.636058
4016.143993,0.000000,370.102971,9326.594869
4016.144308,-689.485948,148.041188,9770.718434
4016.144623,-612.876398,518.144159,9474.636058
4016.144938,-995.924147,444.123565,9696.697840
4016.145253,-919.314598,444.123565,10140.821405
4016.145568,-1378.971896,444.123565,10584.944971
4016.145883,-995.924147,444.123565,11029.068536
4016.146198,-842.705048,296.082377,10807.006753
4016.146513,-536.266849,296.082377,10658.965565
4016.146828,0.000000,592.164754,10214.842000
4016.147143,383.047749,740.205942,9622.677246
4016.147458,766.095498,1184.329507,9474.636058
4016.147773,766.095498,518.144159,9252.574275
4016.148088,995.924147,518.144159,9400.615463
4016.148403,1378.971896,444.123565,9030.512492
4016.148718,1302.362347,-148.041188,9030.512492
4016.149033,995.924147,-296.082377,9474.636058
4016.149348,919.314598,-296.082377,9622.677246
4016.149663,459.657299,-222.061783,9622.677246
4016.149978,459.657299,-148.041188,9178.553681
4016.150293,612.876398,296.082377,9252.574275
4016.150608,0.000000,148.041188,8956.491898
4016.150923,0.000000,222.061783,9104.533087
4016.151238,-536.266849,592.164754,9178.553681
4016.151553,-459.657299,814.226536,9326.594869
4016.151868,-842.705048,370.102971,9770.718434
4016.152183,-383.047749,740.205942,9918.759623
4016.152498,-1149.143247,222.061783,10436.903782
4016.152813,-1149.143247,148.041188,10584.944971
4016.153128,-766.095498,-74.020594,10214.842000
4016.153443,-536.266849,222.061783,9918.759623
4016.153758,0.000000,-0.000000,9992.780217
4016.154073,0.000000,-0.000000,9474.636058
4016.154388,229.828649,444.123565,9400.615463
4016.154703,536.266849,-0.000000,8882.471304
4016.155018,1225.752797,-0.000000,9030.512492
4016.155333,1378.971896,-0.000000,8956.491898
4016.155648,1149.143247,-0.000000,8882.471304
4016.155963,842.705048,-148.041188,9178.553681
4016.156278,766.095498,-296.082377,8882.471304
4016.156593,459.657299,-296.082377,9252.574275
4016.156908,995.924147,-222.061783,9252.574275
4016.157223,306.438199,370.102971,9474.636058
4016.157538,0.000000,814.226536,9252.574275
4016.157853,-306.438199,518.144159,9474.636058
4016.158168,-536.266849,740.205942,9770.718434
4016.158483,-612.876398,444.123565,9992.780217
4016.158798,-612.876398,444.123565,10362.883188
4016.159113,-919.314598,518.144159,10510.924376
4016.159428,-766.095498,370.102971,10288.862594
4016.159743,-383.047749,592.164754,10288.862594
4016.160058,76.609550,518.144159,10140.821405
4016.160373,383.047749,518.144159,10288.862594
4016.160688,459.657299,592.164754,9622.677246
4016.161003,459.657299,592.164754,9030.512492
4016.161318,842.705048,370.102971,9030.512492
4016.161633,842.705048,-296.082377,9178.553681
4016.161948,689.485948,-222.061783,9548.656652
4016.162263,229.828649,-444.123565,9548.656652
4016.162578,536.266849,-814.226536,9474.636058
4016.162893,383.047749,-592.164754,9474.636058
4016.163208,459.657299,-444.123565,9474.636058
4016.163523,689.485948,-74.020594,9548.656652
4016.163838,306.438199,-0.000000,9474.636058
4016.164153,-153.219100,518.144159,9326.594869
4016.164468,-229.828649,666.185348,9252.574275
4016.164783,-842.705048,518.144159,9548.656652
4016.165098,-842.705048,666.185348,9770.718434
4016.165413,-842.705048,296.082377,9918.759623
4016.165728,-1072.533697,-74.020594,10140.821405
4016.166043,-1608.800546,-296.082377,10510.924376
4016.166358,-536.266849,-666.185348,10881.027347
4016.166673,-919.314598,-370.102971,10288.862594
4016.166988,-459.657299,-518.144159,10066.800811
4016.167303,76.609550,-148.041188,9770.718434
4016.167618,383.047749,444.123565,9030.512492
4016.167933,766.095498,592.164754,9252.574275
4016.168248,842.705048,518.144159,8734.430116
4016.168563,1378.971896,148.041188,8586.388927
4016.168878,1455.581446,-0.000000,8882.471304
4016.169193,1455.581446,-296.082377,9400.615463
4016.169508,1302.362347,-518.144159,9474.636058
4016.169823,1072.533697,-518.144159,9104.533087
4016.170138,536.266849,-444.123565,9400.615463
4016.170453,306.438199,-370.102971,9474.636058
4016.170768,0.000000,-74.020594,9844.739029
4016.171083,-383.047749,222.061783,9474.636058
4016.171398,-612.876398,-0.000000,9474.636058
4016.171713,-766.095498,222.061783,9548.656652
4016.172028,-1225.752797,222.061783,9622.677246
4016.172343,-842.705048,296.082377,10288.862594
4016.172658,-995.924147,-0.000000,10510.924376
4016.172973,-536.266849,296.082377,10288.862594
4016.173288,-536.266849,370.102971,9992.780217
4016.173603,-153.219100,592.164754,9548.656652
4016.173918,459.657299,666.185348,9696.697840
4016.174233,612.876398,666.185348,9548.656652
4016.174548,689.485948,296.082377,9326.594869
4016.174863,689.485948,222.061783,9104.533087
4016.175178,1225.752797,370.102971,9030.512492
4016.175493,1225.752797,-666.185348,9104.533087
4016.175808,1149.143247,-148.041188,9474.636058
4016.176123,995.924147,-370.102971,9474.636058
4016.176438,1455.581446,-222.061783,9326.594869
4016.176753,1072.533697,-148.041188,9030.512492
4016.177068,689.485948,-0.000000,9030.512492
4016.177383,842.705048,-0.000000,9030.512492
4016.177698,459.657299,518.144159,8808.450710
4016.178013,0.000000,592.164754,9400.615463
4016.178328,-612.876398,740.205942,9770.718434
4016.178643,-612.876398,666.185348,10288.862594
4016.178958,-842.705048,814.226536,10362.883188
4016.179273,-1072.533697,518.144159,10436.903782
4016.179588,-1302.362347,444.123565,11103.089130
4016.179903,-919.314598,444.123565,10881.027347
4016.180218,-919.314598,148.041188,11029.068536
4016.180533,-229.828649,444.123565,10732.986159
4016.180848,306.438199,444.123565,9844.739029
4016.181163,229.828649,666.185348,9326.594869
4016.181478,689.485948,888.247130,9548.656652
4016.181793,995.924147,444.123565,9326.594869
4016.182108,1225.752797,666.185348,9400.615463
4016.182423,1302.362347,222.061783,8882.471304
4016.182738,919.314598,-0.000000,8882.471304
4016.183053,919.314598,-518.144159,9104.533087
4016.183368,459.657299,-370.102971,9474.636058
4016.183683,229.828649,-370.102971,9178.553681
4016.183998,0.000000,-444.123565,8956.491898
4016.184313,0.000000,-0.000000,9252.574275
4016.184628,0.000000,-0.000000,9548.656652
4016.184943,-766.095498,814.226536,9104.533087
4016.185258,-1302.362347,-0.000000,9474.636058
4016.185573,-842.705048,370.102971,10288.862594
4016.185888,-766.095498,740.205942,10288.862594
4016.186203,-842.705048,518.144159,10214.842000
4016.186518,-383.047749,518.144159,10214.842000
4016.186833,-459.657299,518.144159,9770.718434
4016.187148,229.828649,518.144159,9474.636058
4016.187463,153.219100,592.164754,9474.636058
4016.187778,153.219100,370.102971,9326.594869
4016.188093,306.438199,-0.000000,9252.574275
4016.188408,536.266849,-0.000000,9030.512492
4016.188723,383.047749,-666.185348,8882.471304
4016.189038,919.314598,-666.185348,9178.553681
4016.189353,766.095498,-740.205942,9474.636058
4016.189668,689.485948,-740.205942,9474.636058
4016.189983,536.266849,-518.144159,9104.533087
4016.190298,842.705048,-0.000000,9178.553681
4016.190613,842.705048,148.041188,9104.533087
4016.190928,306.438199,518.144159,9252.574275
4016.191243,0.000000,666.185348,9104.533087
4016.191558,-383.047749,888.247130,9548.656652
4016.191873,0.000000,888.247130,9696.697840
4016.192188,-995.924147,370.102971,10288.862594
4016.192503,-1225.752797,-0.000000,10658.965565
4016.192818,-1455.581446,-0.000000,11103.089130
4016.193133,-1378.971896,-0.000000,10955.047942
4016.193448,-1225.752797,-0.000000,10658.965565
4016.193763,-383.047749,296.082377,10362.883188
4016.194078,153.219100,222.061783,10362.883188
4016.194393,612.876398,444.123565,9400.615463
4016.194708,536.266849,592.164754,9400.615463
4016.195023,1149.143247,518.144159,8956.491898
4016.195338,1455.581446,444.123565,9104.533087
4016.195653,1378.971896,222.061783,8734.430116
4016.195968,1302.362347,-222.061783,9030.512492
4016.196283,1302.362347,-296.082377,9326.594869
4016.196598,842.705048,-444.123565,9178.553681
4016.196913,919.314598,-444.123565,9474.636058
4016.197228,383.047749,-222.061783,9696.697840
4016.197543,153.219100,-74.020594,9548.656652
4016.197858,0.000000,222.061783,9104.533087
4016.198173,-536.266849,444.123565,9474.636058
4016.198488,-612.876398,592.164754,9844.739029
4016.198803,-689.485948,370.102971,9770.718434
4016.199118,-766.095498,592.164754,10140.821405
4016.199433,-459.657299,296.082377,10510.924376
4016.199748,-612.876398,444.123565,10584.944971
4016.200063,-229.828649,518.144159,10362.883188
4016.200378,-383.047749,592.164754,9696.697840
4016.200693,229.828649,444.123565,9992.780217
4016.201008,459.657299,444.123565,9696.697840
4016.201323,229.828649,222.061783,9030.512492
4016.201638,536.266849,444.123565,9844.739029
4016.201953,766.095498,-0.000000,9104.533087
4016.202268,995.924147,-222.061783,9252.574275
4016.202583,1072.533697,-370.102971,9474.636058
4016.202898,842.705048,-592.164754,9474.636058
4016.203213,766.095498,-740.205942,9252.574275
4016.203528,919.314598,-296.082377,9178.553681
4016.203843,842.705048,-0.000000,9252.574275
4016.204158,919.314598,-0.000000,9178.553681
4016.204473,383.047749,444.123565,8808.450710
4016.204788,0.000000,666.185348,9400.615463
4016.205103,-383.047749,592.164754,9104.533087
4016.205418,-689.485948,518.144159,9474.636058
4016.205733,-459.657299,370.102971,10436.903782
4016.206048,-1378.971896,-0.000000,10510.924376
4016.206363,-1608.800546,-0.000000,10807.006753
4016.206678,-1608.800546,-222.061783,10436.903782
4016.206993,-1072.533697,-0.000000,10658.965565
4016.207308,-459.657299,-74.020594,9992.780217
4016.207623,0.000000,-74.020594,9918.759623
4016.207938,229.828649,296.082377,9696.697840
4016.208253,842.705048,444.123565,9104.533087
4016.208568,689.485948,592.164754,8882.471304
4016.208883,1762.019645,-222.061783,8364.327145
4016.209198,1302.362347,-0.000000,8808.450710
4016.209513,1072.533697,-296.082377,9030.512492
4016.209828,766.095498,-444.123565,9030.512492
4016.210143,995.924147,-518.144159,9178.553681
4016.210458,919.314598,-740.205942,9252.574275
4016.210773,229.828649,-222.061783,9474.636058
4016.211088,0.000000,222.061783,9252.574275
4016.211403,-153.219100,-0.000000,9400.615463
4016.211718,-383.047749,296.082377,9474.636058
4016.212033,-612.876398,370.102971,9474.636058
4016.212348,-689.485948,444.123565,10066.800811
4016.212663,-766.095498,592.164754,10140.821405
4016.212978,-842.705048,518.144159,10140.821405
4016.213293,-153.219100,444.123565,10510.924376
4016.213608,-459.657299,370.102971,10510.924376
4016.213923,0.000000,370.102971,10066.800811
4016.214238,76.609550,444.123565,9844.739029
4016.214553,612.876398,370.102971,9918.759623
4016.214868,229.828649,-0.000000,9474.636058
4016.215183,306.438199,222.061783,9474.636058
4016.215498,459.657299,-148.041188,9400.615463
4016.215813,995.924147,-74.020594,9252.574275
4016.216128,842.705048,-296.082377,9252.574275
4016.216443,383.047749,-444.123565,9474.636058
4016.216758,689.485948,-222.061783,9548.656652
4016.217073,995.924147,-222.061783,9252.574275
4016.217388,536.266849,-148.041188,9030.512492
4016.217703,306.438199,-0.000000,9104.533087
4016.218018,459.657299,592.164754,9030.512492
4016.218333,0.000000,666.185348,9252.574275
4016.218648,-153.219100,814.226536,9474.636058
4016.218963,-612.876398,370.102971,9548.656652
4016.219278,-842.705048,444.123565,10066.800811
4016.219593,-1072.533697,222.061783,11029.068536
4016.219908,-1532.190996,-148.041188,10584.944971
4016.220223,-1149.143247,-74.020594,10732.986159
4016.220538,-842.705048,-222.061783,10436.903782
4016.220853,-229.828649,148.041188,9622.677246
4016.221168,383.047749,148.041188,9992.780217
4016.221483,842.705048,814.226536,9474.636058
4016.221798,1072.533697,888.247130,9030.512492
4016.222113,1225.752797,666.185348,9326.594869
4016.222428,919.314598,-148.041188,8512.368333
4016.222743,1532.190996,-0.000000,8586.388927
4016.223058,1149.143247,-0.000000,9474.636058
4016.223373,689.485948,-444.123565,9178.553681
4016.223688,689.485948,-296.082377,9474.636058
4016.224003,612.876398,-74.020594,9474.636058
4016.224318,76.609550,-296.082377,9474.636058
4016.224633,0.000000,-0.000000,9104.533087
4016.224948,-536.266849,666.185348,9400.615463
4016.225263,-919.314598,814.226536,9696.697840
4016.225578,-842.705048,666.185348,9622.677246
4016.225893,-842.705048,666.185348,10362.883188
4016.226208,-1225.752797,666.185348,10362.883188
4016.226523,-1378.971896,666.185348,10584.944971
4016.226838,-995.924147,592.164754,10436.903782
4016.227153,-842.705048,222.061783,9992.780217
4016.227468,-459.657299,518.144159,10362.883188
4016.227783,76.609550,814.226536,9992.780217
4016.228098,306.438199,666.185348,9474.636058
4016.228413,383.047749,592.164754,9178.553681
4016.228728,689.485948,740.205942,9252.574275
4016.229043,842.705048,148.041188,9400.615463
4016.229358,919.314598,-444.123565,9252.574275
4016.229673,1072.533697,-370.102971,9104.533087
4016.229988,766.095498,-370.102971,9030.512492
4016.230303,842.705048,-444.123565,9326.594869
4016.230618,919.314598,-74.020594,9474.636058
4016.230933,536.266849,-74.020594,8956.491898
4016.231248,766.095498,-0.000000,9178.553681
4016.231563,383.047749,296.082377,8956.491898
4016.231878,0.000000,592.164754,9326.594869
4016.232193,-306.438199,518.144159,9548.656652
4016.232508,-306.438199,518.144159,9770.718434
4016.232823,-919.314598,296.082377,10436.903782
4016.233138,-1149.143247,296.082377,10362.883188
4016.233453,-842.705048,-0.000000,10584.944971
4016.233768,-842.705048,-0.000000,11103.089130
4016.234092,-689.485948,-0.000000,10362.883188
4016.234407,306.438199,-222.061783,10140.821405
4016.234722,612.876398,148.041188,9622.677246
4016.235037,766.095498,592.164754,9474.636058
4016.235352,919.314598,444.123565,9474.636058
4016.235667,1532.190996,518.144159,8956.491898
4016.235982,2068.457845,-0.000000,8956.491898
4016.236297,1378.971896,-222.061783,8808.450710
4016.236613,1302.362347,-296.082377,9178.553681
4016.236928,1072.533697,-518.144159,9030.512492
4016.237243,689.485948,-814.226536,9326.594869
4016.237558,766.095498,-592.164754,8956.491898
4016.237873,306.438199,-444.123565,9474.636058
4016.238188,153.219100,-74.020594,9326.594869
4016.238503,-229.828649,-0.000000,9474.636058
4016.238818,-995.924147,148.041188,9474.636058
4016.239133,-612.876398,-0.000000,9770.718434
4016.239448,-919.314598,370.102971,10066.800811
4016.239763,-766.095498,-0.000000,10584.944971
4016.240079,-919.314598,148.041188,10214.842000
4016.240394,-919.314598,-0.000000,10066.800811
4016.240709,0.000000,444.123565,9918.759623
4016.241024,0.000000,444.123565,9992.780217
4016.241339,153.219100,296.082377,9992.780217
4016.241654,383.047749,-0.000000,9474.636058
4016.241969,229.828649,222.061783,8882.471304
4016.242284,1072.533697,-444.123565,8882.471304
4016.242599,459.657299,-666.185348,9030.512492
4016.242914,919.314598,-666.185348,9326.594869
4016.243229,842.705048,-592.164754,9326.594869
4016.243545,842.705048,-740.205942,9474.636058
4016.243860,689.485948,-370.102971,9326.594869
4016.244175,612.876398,-0.000000,8808.450710
4016.244490,612.876398,-0.000000,9104.533087
4016.244805,229.828649,370.102971,9030.512492
4016.245120,0.000000,370.102971,8956.491898
4016.245435,-383.047749,518.144159,9474.636058
4016.245750,-919.314598,370.102971,9474.636058
4016.246065,-1072.533697,370.102971,10066.800811
4016.246380,-1378.971896,296.082377,10732.986159
4016.246695,-1608.800546,222.061783,10732.986159
4016.247011,-1378.971896,-148.041188,11029.068536
4016.247326,-919.314598,296.082377,10658.965565
4016.247641,-536.266849,370.102971,10288.862594
4016.247956,229.828649,370.102971,10140.821405
4016.248271,536.266849,592.164754,9474.636058
4016.248586,612.876398,518.144159,9178.553681
4016.248901,1378.971896,370.102971,8808.450710
4016.249216,1072.533697,444.123565,8586.388927
4016.249531,1225.752797,-0.000000,8734.430116
4016.249846,995.924147,-148.041188,9104.533087
4016.250161,842.705048,-518.144159,9400.615463
4016.250477,612.876398,-444.123565,9548.656652
4016.250792,612.876398,-444.123565,9548.656652
4016.251107,536.266849,-296.082377,9474.636058
4016.251422,229.828649,-148.041188,9326.594869
4016.251737,383.047749,296.082377,9104.533087
4016.252052,153.219100,370.102971,9548.656652
4016.252367,-459.657299,666.185348,9474.636058
4016.252682,-306.438199,740.205942,9548.656652
4016.252997,-383.047749,740.205942,9918.759623
4016.253312,-306.438199,518.144159,10288.862594
4016.253627,-459.657299,518.144159,10510.924376
4016.253943,-229.828649,444.123565,10510.924376
4016.254258,-306.438199,-0.000000,10288.862594
4016.254573,153.219100,-0.000000,10066.800811
4016.254888,766.095498,518.144159,9474.636058
4016.255203,612.876398,444.123565,9326.594869
4016.255518,459.657299,222.061783,9178.553681
4016.255833,536.266849,-0.000000,9326.594869
4016.256148,689.485948,-148.041188,9252.574275
4016.256463,995.924147,-592.164754,9474.636058
4016.256778,1072.533697,-222.061783,9104.533087
4016.257094,766.095498,-222.061783,9400.615463
4016.257409,612.876398,-74.020594,9474.636058
4016.257724,995.924147,74.020594,9178.553681
4016.258039,383.047749,222.061783,9178.553681
4016.258354,0.000000,592.164754,8808.450710
4016.258669,-383.047749,740.205942,9178.553681
4016.258984,-766.095498,370.102971,9252.574275
4016.259299,-995.924147,370.102971,9696.697840
4016.259614,-1378.971896,-74.020594,9992.780217
4016.259929,-1532.190996,-0.000000,10510.924376
4016.260244,-1532.190996,370.102971,10807.006753
4016.260560,-1302.362347,-0.000000,10658.965565
4016.260875,-1149.143247,-0.000000,10214.842000
4016.261190,0.000000,370.102971,10288.862594
4016.261505,383.047749,444.123565,9622.677246
4016.261820,842.705048,814.226536,9178.553681
4016.262135,689.485948,740.205942,9104.533087
4016.262450,995.924147,518.144159,8512.368333
4016.262765,1225.752797,-0.000000,9252.574275
4016.263080,1225.752797,-148.041188,9178.553681
4016.263395,766.095498,-296.082377,9326.594869
4016.263710,766.095498,-518.144159,9474.636058
4016.264026,612.876398,-888.247130,9474.636058
4016.264341,459.657299,-370.102971,9696.697840
4016.264656,0.000000,-444.123565,9474.636058
4016.264971,229.828649,-0.000000,9622.677246
4016.265286,229.828649,444.123565,9252.574275
4016.265601,0.000000,740.205942,9178.553681
4016.265916,-76.609550,962.267725,9474.636058
4016.266231,-306.438199,740.205942,9770.718434
4016.266546,-306.438199,740.205942,10140.821405
4016.266861,-229.828649,666.185348,10140.821405
4016.267176,-842.705048,-0.000000,10362.883188
4016.267492,-459.657299,-74.020594,10658.965565
4016.267807,-306.438199,296.082377,10362.883188
4016.268122,0.000000,-148.041188,9992.780217
4016.268437,229.828649,148.041188,9696.697840
4016.268752,306.438199,370.102971,9400.615463
4016.269067,229.828649,370.102971,9548.656652
4016.269382,919.314598,-0.000000,9474.636058
4016.269697,1149.143247,-0.000000,9326.594869
4016.270012,1455.581446,-222.061783,9252.574275
4016.270327,1225.752797,-296.082377,9548.656652
4016.270642,1072.533697,-296.082377,9326.594869
4016.270958,1149.143247,-0.000000,8882.471304
4016.271273,1149.143247,-0.000000,8660.409521
4016.271588,842.705048,444.123565,8882.471304
4016.271903,612.876398,-0.000000,9030.512492
4016.272218,0.000000,222.061783,9178.553681
4016.272533,-689.485948,222.061783,9474.636058
4016.272848,-842.705048,-0.000000,9696.697840
4016.273163,-1225.752797,-148.041188,9918.759623
4016.273478,-1378.971896,-222.061783,10881.027347
4016.273793,-1072.533697,-148.041188,11251.130318
4016.274108,-1378.971896,-370.102971,10584.944971
4016.274424,-842.705048,296.082377,10362.883188
4016.274739,0.000000,296.082377,9770.718434
4016.275054,1532.190996,666.185348,9696.697840
4016.275369,1149.143247,962.267725,9326.594869
4016.275684,766.095498,592.164754,9104.533087
4016.275999,1225.752797,814.226536,8660.409521
4016.276314,1149.143247,370.102971,8956.491898
4016.276629,459.657299,-666.185348,9104.533087
4016.276944,766.095498,-740.205942,9696.697840
4016.277259,76.609550,-888.247130,9474.636058
4016.277574,76.609550,-888.247130,9474.636058
4016.277890,0.000000,-666.185348,9252.574275
4016.278205,153.219100,-592.164754,9252.574275
4016.278520,-229.828649,-0.000000,9474.636058
4016.278835,-306.438199,370.102971,9400.615463
4016.279150,-536.266849,740.205942,9178.553681
4016.279465,-383.047749,888.247130,9474.636058
4016.279780,-995.924147,888.247130,9622.677246
4016.280095,-842.705048,666.185348,9696.697840
4016.280410,-995.924147,740.205942,9918.759623
4016.280725,-842.705048,444.123565,10362.883188
4016.281040,-612.876398,370.102971,10362.883188
4016.281356,0.000000,-222.061783,9696.697840
4016.281671,0.000000,296.082377,9992.780217
4016.281986,76.609550,296.082377,9474.636058
4016.282301,0.000000,296.082377,9252.574275
4016.282616,459.657299,-0.000000,9252.574275
4016.282931,919.314598,-0.000000,9400.615463
4016.283246,919.314598,-370.102971,8882.471304
4016.283561,1225.752797,-148.041188,8808.450710
4016.283876,1072.533697,-0.000000,8882.471304
4016.284191,919.314598,-222.061783,9178.553681
4016.284506,919.314598,-296.082377,9474.636058
4016.284822,766.095498,-0.000000,9178.553681
4016.285137,383.047749,296.082377,9030.512492
4016.285452,459.657299,740.205942,9326.594869
4016.285767,0.000000,518.144159,9622.677246
4016.286082,-766.095498,518.144159,9918.759623
4016.286397,-766.095498,222.061783,10288.862594
4016.286712,-995.924147,518.144159,10362.883188
4016.287027,-995.924147,444.123565,10658.965565
4016.287342,-1455.581446,296.082377,11029.068536
4016.287657,-919.314598,296.082377,10658.965565
4016.287972,-383.047749,592.164754,10214.842000
4016.288288,153.219100,296.082377,9696.697840
4016.288603,842.705048,592.164754,9548.656652
4016.288918,612.876398,592.164754,9252.574275
4016.289233,995.924147,592.164754,9326.594869
4016.289548,1378.971896,518.144159,8808.450710
4016.289863,1302.362347,-148.041188,8882.471304
4016.290178,1225.752797,-370.102971,9252.574275
4016.290493,766.095498,-518.144159,9548.656652
4016.290808,459.657299,-444.123565,9400.615463
4016.291123,306.438199,-370.102971,9326.594869
4016.291439,459.657299,-296.082377,9400.615463
4016.291754,229.828649,-148.041188,9474.636058
4016.292069,0.000000,-0.000000,9548.656652
4016.292384,-229.828649,740.205942,9474.636058
4016.292699,-536.266849,740.205942,9474.636058
4016.293014,-536.266849,666.185348,9474.636058
4016.293329,-536.266849,666.185348,9918.759623
4016.293644,-1149.143247,444.123565,10066.800811
4016.293959,-995.924147,518.144159,10066.800811
4016.294274,-995.924147,-0.000000,10140.821405
4016.294589,-383.047749,444.123565,9918.759623
4016.294905,306.438199,222.061783,10066.800811
4016.295220,0.000000,-0.000000,10066.800811
4016.295535,0.000000,296.082377,9622.677246
4016.295850,229.828649,222.061783,9474.636058
4016.296165,766.095498,-0.000000,8956.491898
4016.296480,995.924147,-148.041188,9474.636058
4016.296795,1072.533697,-222.061783,9474.636058
4016.297110,919.314598,-370.102971,9252.574275
4016.297425,689.485948,-444.123565,9326.594869
4016.297740,842.705048,-0.000000,9178.553681
4016.298055,842.705048,-0.000000,9474.636058
4016.298371,536.266849,-0.000000,9400.615463
4016.298686,0.000000,-0.000000,9252.574275
4016.299001,0.000000,370.102971,9030.512492
4016.299316,-459.657299,444.123565,9474.636058
4016.299631,-1455.581446,-148.041188,9844.739029
4016.299946,-1072.533697,-0.000000,10362.883188
4016.300261,-1532.190996,-148.041188,10807.006753
4016.300576,-1532.190996,-0.000000,10807.006753
4016.300891,-995.924147,-148.041188,10807.006753
4016.301206,-1072.533697,-0.000000,10584.944971
4016.301521,-76.609550,370.102971,10140.821405
4016.301837,306.438199,518.144159,9548.656652
4016.302152,383.047749,740.205942,9474.636058
4016.302467,919.314598,814.226536,8956.491898
4016.302782,1149.143247,592.164754,8956.491898
4016.303097,1149.143247,370.102971,8808.450710
4016.303412,1302.362347,-74.020594,8734.430116
4016.303727,1225.752797,-222.061783,9178.553681
4016.304042,383.047749,-444.123565,9178.553681
4016.304357,229.828649,-592.164754,9474.636058
4016.304672,383.047749,-666.185348,9548.656652
4016.304987,306.438199,-148.041188,9474.636058
4016.305303,383.047749,222.061783,9474.636058
4016.305618,153.219100,444.123565,9178.553681
4016.305933,-229.828649,296.082377,9548.656652
4016.306248,-153.219100,740.205942,9474.636058
4016.306563,-536.266849,814.226536,9622.677246
4016.306878,0.000000,296.082377,9844.739029
4016.307193,-536.266849,740.205942,10362.883188
4016.307508,-459.657299,296.082377,10214.842000
4016.307823,-306.438199,148.041188,9918.759623
4016.308138,0.000000,222.061783,9770.718434
4016.308453,0.000000,-0.000000,9770.718434
4016.308769,306.438199,-0.000000,9622.677246
4016.309084,459.657299,222.061783,9696.697840
4016.309399,612.876398,-0.000000,9326.594869
4016.309714,612.876398,-74.020594,9326.594869
4016.310029,919.314598,148.041188,9252.574275
4016.310344,1302.362347,74.020594,9178.553681
4016.310659,995.924147,-222.061783,9696.697840
4016.310974,689.485948,-370.102971,9474.636058
4016.311289,612.876398,-222.061783,9474.636058
4016.311604,689.485948,-0.000000,9548.656652
4016.311919,383.047749,444.123565,9400.615463
4016.312235,153.219100,370.102971,9400.615463
4016.312550,-306.438199,518.144159,9474.636058
4016.312865,-766.095498,-0.000000,9474.636058
4016.313180,-766.095498,296.082377,9622.677246
4016.313495,-1072.533697,-0.000000,9992.780217
4016.313810,-1072.533697,444.123565,10584.944971
4016.314125,-1608.800546,-0.000000,10510.924376
4016.314440,-689.485948,-370.102971,10214.842000
4016.314755,-689.485948,-0.000000,10140.821405
4016.315070,0.000000,-0.000000,9844.739029
4016.315385,612.876398,222.061783,9770.718434
4016.315701,536.266849,666.185348,9326.594869
4016.316016,766.095498,740.205942,9178.553681
4016.316331,1149.143247,592.164754,9104.533087
4016.316646,1072.533697,-0.000000,8808.450710
4016.316961,995.924147,-0.000000,9178.553681
4016.317276,689.485948,-296.082377,9474.636058
4016.317591,766.095498,-592.164754,9400.615463
4016.317906,306.438199,-814.226536,9474.636058
4016.318221,153.219100,-592.164754,9844.739029
4016.318536,153.219100,-444.123565,9548.656652
4016.318851,306.438199,-148.041188,9474.636058
4016.319167,229.828649,444.123565,9474.636058
4016.319482,-229.828649,518.144159,9474.636058
4016.319797,-229.828649,666.185348,9622.677246
4016.320112,-306.438199,518.144159,9770.718434
4016.320427,-689.485948,592.164754,9696.697840
4016.320742,-689.485948,740.205942,10436.903782
4016.321057,-459.657299,592.164754,10436.903782
4016.321372,-612.876398,-0.000000,10362.883188
4016.321687,-612.876398,222.061783,9918.759623
4016.322002,-306.438199,-74.020594,9548.656652
4016.322317,76.609550,-0.000000,9844.739029
4016.322633,153.219100,296.082377,9548.656652
4016.322948,383.047749,-0.000000,9622.677246
4016.323263,459.657299,-148.041188,9400.615463
4016.323578,1072.533697,-222.061783,9326.594869
4016.323893,842.705048,-222.061783,9178.553681
4016.324208,1149.143247,-0.000000,9104.533087
4016.324523,766.095498,-222.061783,9474.636058
4016.324838,612.876398,-0.000000,9178.553681
4016.325153,612.876398,-0.000000,8808.450710
4016.325468,229.828649,222.061783,8882.471304
4016.325784,0.000000,222.061783,8882.471304
4016.326099,-306.438199,740.205942,9178.553681
4016.326414,-536.266849,444.123565,9326.594869
4016.326729,-766.095498,148.041188,9474.636058
4016.327044,-1302.362347,-74.020594,9992.780217
4016.327359,-1685.410096,-222.061783,10584.944971
4016.327674,-1378.971896,-0.000000,10807.006753
4016.327989,-1378.971896,-148.041188,10362.883188
4016.328304,-459.657299,222.061783,10066.800811
4016.328619,229.828649,444.123565,9770.718434
4016.328934,766.095498,814.226536,9770.718434
4016.329250,919.314598,1036.288319,9104.533087
4016.329565,1149.143247,814.226536,8808.450710
4016.329880,1072.533697,592.164754,9030.512492
4016.330195,1378.971896,518.144159,9104.533087
4016.330510,1532.190996,-0.000000,9400.615463
4016.330825,995.924147,-370.102971,9104.533087
4016.331140,383.047749,-592.164754,9400.615463
4016.331455,612.876398,-518.144159,9696.697840
4016.331770,612.876398,-0.000000,9548.656652
4016.332085,153.219100,-74.020594,9918.759623
4016.332400,0.000000,370.102971,9400.615463
4016.332716,0.000000,518.144159,9252.574275
4016.333031,-153.219100,1036.288319,9400.615463
4016.333346,-306.438199,1110.308913,9548.656652
4016.333661,-766.095498,740.205942,10288.862594
4016.333976,-689.485948,666.185348,10436.903782
4016.334291,-995.924147,518.144159,10584.944971
4016.334606,-995.924147,-0.000000,10658.965565
4016.334921,-766.095498,370.102971,10362.883188
4016.335236,-459.657299,296.082377,10584.944971
4016.335551,306.438199,148.041188,10140.821405
4016.335866,306.438199,518.144159,9474.636058
4016.336181,153.219100,370.102971,8808.450710
4016.336496,689.485948,148.041188,9030.512492
4016.336811,919.314598,-148.041188,9104.533087
4016.337127,1149.143247,-592.164754,8882.471304
4016.337442,1225.752797,-296.082377,9252.574275
4016.337757,995.924147,-518.144159,9104.533087
4016.338072,612.876398,-518.144159,9178.553681
4016.338387,766.095498,-370.102971,9400.615463
4016.338702,919.314598,-222.061783,8882.471304
4016.339017,536.266849,-148.041188,8808.450710
4016.339332,0.000000,370.102971,8882.471304
4016.339647,0.000000,592.164754,9400.615463
4016.339962,-766.095498,518.144159,9474.636058
4016.340277,-689.485948,370.102971,9918.759623
4016.340592,-842.705048,-0.000000,10510.924376
4016.340907,-995.924147,-0.000000,10584.944971
4016.341222,-689.485948,-0.000000,10881.027347
4016.341537,-689.485948,-0.000000,10510.924376
4016.341852,-459.657299,-0.000000,9918.759623
4016.342167,153.219100,370.102971,10066.800811
4016.342482,459.657299,444.123565,9474.636058
4016.342797,536.266849,148.041188,9474.636058
4016.343113,766.095498,666.185348,9252.574275
4016.343428,995.924147,370.102971,8586.388927
4016.343743,1378.971896,-148.041188,9178.553681
4016.344058,689.485948,-222.061783,9178.553681
4016.344373,1149.143247,-888.247130,9400.615463
4016.344688,306.438199,-814.226536,9474.636058
4016.345003,612.876398,-740.205942,9474.636058
4016.345318,383.047749,-148.041188,9400.615463
4016.345633,229.828649,-296.082377,9104.533087
4016.345948,459.657299,222.061783,9326.594869
4016.346263,-229.828649,222.061783,9104.533087
4016.346578,-536.266849,518.144159,9178.553681
4016.346893,-766.095498,370.102971,9548.656652
4016.347208,-383.047749,592.164754,10066.800811
4016.347523,-229.828649,-0.000000,9918.759623
4016.347838,-919.314598,222.061783,10140.821405
4016.348153,-689.485948,222.061783,10362.883188
4016.348468,-383.047749,222.061783,9918.759623
4016.348783,0.000000,-0.000000,9918.759623
4016.349099,459.657299,518.144159,9844.739029
4016.349414,612.876398,370.102971,9178.553681
4016.349729,153.219100,518.144159,9104.533087
4016.350044,919.314598,370.102971,9104.533087
4016.350359,1302.362347,-0.000000,9178.553681
4016.350674,1072.533697,-148.041188,9252.574275
4016.350989,1072.533697,-222.061783,9326.594869
4016.351304,766.095498,-370.102971,9400.615463
4016.351619,536.266849,-222.061783,9548.656652
4016.351934,689.485948,-148.041188,9400.615463
4016.352249,153.219100,148.041188,9400.615463
4016.352564,229.828649,444.123565,9178.553681
4016.352879,0.000000,296.082377,9400.615463
4016.353194,-612.876398,444.123565,9622.677246
4016.353509,-1072.533697,592.164754,9992.780217
4016.353824,-689.485948,370.102971,10362.883188
4016.354139,-995.924147,666.185348,10362.883188
4016.354454,-1149.143247,444.123565,10658.965565
4016.354770,-919.314598,296.082377,10510.924376
4016.355085,-229.828649,-0.000000,10436.903782
4016.355400,-76.609550,296.082377,10214.842000
4016.355715,383.047749,370.102971,9548.656652
4016.356030,459.657299,592.164754,9326.594869
4016.356345,536.266849,666.185348,9474.636058
4016.356660,842.705048,444.123565,9030.512492
4016.356975,919.314598,-0.000000,9030.512492
4016.357290,1378.971896,-0.000000,9104.533087
4016.357605,995.924147,-74.020594,9030.512492
4016.357920,766.095498,-370.102971,9178.553681
4016.358235,842.705048,-444.123565,9474.636058
4016.358550,689.485948,-518.144159,9252.574275
4016.358865,689.485948,-222.061783,9104.533087
4016.359180,229.828649,222.061783,9104.533087
4016.359495,0.000000,296.082377,9178.553681
4016.359810,-383.047749,296.082377,9252.574275
4016.360125,-536.266849,592.164754,9474.636058
4016.360440,-919.314598,296.082377,9844.739029
4016.360756,-919.314598,444.123565,10362.883188
4016.361071,-689.485948,518.144159,10732.986159
4016.361386,-1378.971896,-0.000000,10288.862594
4016.361701,-766.095498,518.144159,10362.883188
4016.362016,-459.657299,666.185348,10140.821405
4016.362331,0.000000,444.123565,10066.800811
4016.362646,689.485948,296.082377,10140.821405
4016.362961,536.266849,518.144159,9400.615463
4016.363276,612.876398,370.102971,9178.553681
4016.363591,383.047749,-0.000000,9104.533087
4016.363906,919.314598,-74.020594,9400.615463
4016.364221,689.485948,-518.144159,9474.636058
4016.364536,612.876398,-370.102971,9474.636058
4016.364851,766.095498,-148.041188,9252.574275
4016.365166,689.485948,-0.000000,9178.553681
4016.365481,766.095498,-0.000000,9178.553681
4016.365796,766.095498,-518.144159,9400.615463
4016.366111,229.828649,-0.000000,9104.533087
4016.366427,0.000000,444.123565,9474.636058
4016.366742,-459.657299,592.164754,9400.615463
4016.367057,76.609550,740.205942,10066.800811
4016.367372,-689.485948,740.205942,10362.883188
4016.367687,-1149.143247,444.123565,10436.903782
4016.368002,-1608.800546,74.020594,10214.842000
4016.368317,-689.485948,-0.000000,10362.883188
4016.368632,-306.438199,-0.000000,10584.944971
4016.368947,0.000000,-0.000000,10066.800811
4016.369262,306.438199,-0.000000,9770.718434
4016.369577,536.266849,518.144159,9622.677246
4016.369892,536.266849,740.205942,9326.594869
4016.370207,1072.533697,592.164754,9400.615463
4016.370522,995.924147,148.041188,9030.512492
4016.370837,1455.581446,-74.020594,8660.409521
4016.371152,1072.533697,-296.082377,8956.491898
4016.371467,995.924147,-666.185348,9104.533087
4016.371782,995.924147,-518.144159,9474.636058
4016.372097,536.266849,-370.102971,9474.636058
4016.372413,612.876398,-370.102971,9400.615463
4016.372728,229.828649,-0.000000,9178.553681
4016.373043,76.609550,-0.000000,9400.615463
4016.373358,-153.219100,444.123565,9918.759623
4016.373673,-536.266849,370.102971,9844.739029
4016.373988,-766.095498,222.061783,10140.821405
4016.374303,-766.095498,222.061783,10510.924376
4016.374618,-919.314598,370.102971,10510.924376
4016.374933,-919.314598,-296.082377,10584.944971
4016.375248,0.000000,148.041188,10584.944971
4016.375563,-153.219100,370.102971,9770.718434
4016.375878,229.828649,-0.000000,9474.636058
4016.376193,612.876398,296.082377,9252.574275
4016.376508,459.657299,222.061783,9474.636058
4016.376823,612.876398,-0.000000,9104.533087
4016.377138,612.876398,-444.123565,8956.491898
4016.377453,842.705048,-444.123565,9252.574275
4016.377768,995.924147,-666.185348,9474.636058
4016.378083,919.314598,-740.205942,9474.636058
4016.378399,612.876398,-888.247130,9178.553681
4016.378714,536.266849,-222.061783,9326.594869
4016.379029,536.266849,-148.041188,8956.491898
4016.379344,536.266849,148.041188,9104.533087
4016.379659,-229.828649,518.144159,8882.471304
4016.379974,-153.219100,518.144159,9104.533087
4016.380289,-612.876398,296.082377,9326.594869
4016.380604,-766.095498,370.102971,9548.656652
4016.380919,-536.266849,-0.000000,9918.759623
4016.381234,-1685.410096,222.061783,10288.862594
4016.381549,-1378.971896,296.082377,10510.924376
4016.381864,-919.314598,222.061783,10288.862594
4016.382179,-383.047749,-0.000000,9844.739029
4016.382494,76.609550,370.102971,9844.739029
4016.382809,229.828649,444.123565,9548.656652
4016.383124,459.657299,814.226536,8956.491898
4016.383439,612.876398,518.144159,8734.430116
4016.383754,919.314598,444.123565,8882.471304
4016.384070,1455.581446,-0.000000,9400.615463
4016.384385,919.314598,-222.061783,9030.512492
4016.384700,766.095498,-222.061783,9548.656652
4016.385015,459.657299,-444.123565,9474.636058
4016.385330,919.314598,-222.061783,9696.697840
4016.385645,229.828649,-444.123565,9622.677246
4016.385960,536.266849,74.020594,9474.636058
4016.386275,153.219100,370.102971,9474.636058
4016.386590,-229.828649,666.185348,9474.636058
4016.386905,-383.047749,1184.329507,9844.739029
4016.387220,-383.047749,1184.329507,10066.800811
4016.387535,-995.924147,666.185348,9918.759623
4016.387850,-995.924147,592.164754,10584.944971
4016.388165,-919.314598,518.144159,10510.924376
4016.388480,-842.705048,148.041188,10584.944971
4016.388795,-459.657299,296.082377,10362.883188
4016.389110,-153.219100,666.185348,9992.780217
4016.389425,0.000000,370.102971,9918.759623
4016.389740,612.876398,740.205942,9474.636058
4016.390056,995.924147,592.164754,9104.533087
4016.390371,1072.533697,666.185348,9252.574275
4016.390686,689.485948,-0.000000,9326.594869
4016.391001,1225.752797,-74.020594,9474.636058
4016.391316,1225.752797,-222.061783,9104.533087
4016.391631,1149.143247,-0.000000,10140.821405
4016.391946,766.095498,-370.102971,8956.491898
4016.392261,919.314598,-0.000000,9104.533087
4016.392576,842.705048,-74.020594,9030.512492
4016.392891,536.266849,296.082377,9326.594869
4016.393206,-229.828649,296.082377,9474.636058
4016.393521,-383.047749,444.123565,9474.636058
4016.393836,-689.485948,518.144159,9770.718434
4016.394151,-766.095498,296.082377,9548.656652
4016.394466,-1072.533697,370.102971,10066.800811
4016.394781,-1378.971896,296.082377,10807.006753
4016.395096,-1302.362347,148.041188,10584.944971
4016.395411,-919.314598,-0.000000,10436.903782
4016.395726,-536.266849,222.061783,9770.718434
4016.396042,76.609550,-0.000000,9844.739029
4016.396357,383.047749,222.061783,9548.656652
4016.396672,76.609550,222.061783,9104.533087
4016.396987,766.095498,296.082377,9178.553681
4016.397302,689.485948,-0.000000,8882.471304
4016.397617,919.314598,-74.020594,9030.512492
4016.397932,995.924147,-222.061783,9104.533087
4016.398247,689.485948,-814.226536,9178.553681
4016.398562,612.876398,-814.226536,9178.553681
4016.398877,306.438199,-814.226536,9474.636058
4016.399192,536.266849,-444.123565,9326.594869
4016.399507,153.219100,-74.020594,9178.553681
4016.399822,-229.828649,222.061783,8882.471304
4016.400137,-459.657299,222.061783,9326.594869
4016.400452,-383.047749,444.123565,9252.574275
4016.400767,-842.705048,296.082377,9770.718434
4016.401082,-919.314598,222.061783,9696.697840
4016.401397,-1149.143247,-0.000000,9992.780217
4016.401713,-689.485948,-0.000000,10510.924376
4016.402028,-612.876398,-0.000000,10510.924376
4016.402343,-229.828649,222.061783,10658.965565
4016.402658,383.047749,-0.000000,9696.697840
4016.402973,766.095498,518.144159,9548.656652
4016.403288,842.705048,444.123565,9622.677246
4016.403603,766.095498,666.185348,9104.533087
4016.403918,995.924147,148.041188,9178.553681
4016.404233,1608.800546,222.061783,9252.574275
4016.404548,1532.190996,-444.123565,9474.636058
4016.404863,1072.533697,-296.082377,9104.533087
4016.405178,689.485948,-592.164754,9326.594869
4016.405493,689.485948,-666.185348,9474.636058
4016.405808,842.705048,-296.082377,9696.697840
4016.406123,536.266849,-0.000000,9474.636058
4016.406438,306.438199,74.020594,9326.594869
4016.406753,0.000000,592.164754,9326.594869
4016.407068,0.000000,740.205942,9474.636058
4016.407383,-383.047749,148.041188,9770.718434
4016.407699,-536.266849,518.144159,10288.862594
4016.408014,-689.485948,296.082377,10288.862594
4016.408329,-842.705048,444.123565,10510.924376
4016.408644,-612.876398,148.041188,10732.986159
4016.408959,-383.047749,222.061783,10584.944971
4016.409274,-153.219100,444.123565,9844.739029
4016.409589,229.828649,-0.000000,9770.718434
4016.409904,306.438199,-0.000000,9548.656652
4016.410219,383.047749,518.144159,9474.636058
4016.410534,459.657299,222.061783,9178.553681
4016.410849,689.485948,-74.020594,8808.450710
4016.411164,995.924147,-148.041188,9252.574275
4016.411479,842.705048,-296.082377,9252.574275
4016.411794,842.705048,-370.102971,9252.574275
4016.412109,1072.533697,-888.247130,9400.615463
4016.412424,459.657299,-222.061783,9178.553681
4016.412739,536.266849,74.020594,9104.533087
4016.413054,306.438199,296.082377,9474.636058
4016.413370,0.000000,518.144159,8956.491898
4016.413685,-459.657299,592.164754,9030.512492
4016.414000,-459.657299,518.144159,9474.636058
4016.414315,-842.705048,666.185348,9918.759623
4016.414630,-766.095498,444.123565,10140.821405
4016.414945,-1149.143247,518.144159,10510.924376
4016.415260,-919.314598,-444.123565,10584.944971
4016.415575,-842.705048,74.020594,10362.883188
4016.415890,-459.657299,222.061783,9474.636058
4016.416205,0.000000,518.144159,9696.697840
4016.416520,612.876398,518.144159,9548.656652
4016.416835,383.047749,592.164754,9326.594869
4016.417150,459.657299,444.123565,9104.533087
4016.417465,919.314598,296.082377,8956.491898
4016.417780,919.314598,-0.000000,9104.533087
4016.418095,919.314598,-0.000000,9622.677246
4016.418410,536.266849,-296.082377,9696.697840
4016.418725,306.438199,-444.123565,9696.697840
4016.419040,536.266849,-0.000000,9622.677246
4016.419356,536.266849,-0.000000,9474.636058
4016.419671,306.438199,-0.000000,9474.636058
4016.419986,153.219100,518.144159,9400.615463
4016.420301,0.000000,592.164754,9252.574275
4016.420616,-76.609550,666.185348,9696.697840
4016.420931,-229.828649,592.164754,10066.800811
4016.421246,-459.657299,-0.000000,9918.759623
4016.421561,-612.876398,370.102971,10140.821405
4016.421876,-919.314598,592.164754,10436.903782
4016.422191,-689.485948,222.061783,10510.924376
4016.422506,-612.876398,296.082377,10436.903782
4016.422821,0.000000,-0.000000,9770.718434
4016.423136,459.657299,296.082377,9696.697840
4016.423451,766.095498,518.144159,9252.574275
4016.423766,689.485948,444.123565,9622.677246
4016.424081,1072.533697,148.041188,8956.491898
4016.424396,1072.533697,148.041188,9030.512492
4016.424711,1149.143247,518.144159,9104.533087
4016.425026,1225.752797,-0.000000,9252.574275
4016.425342,842.705048,-148.041188,9474.636058
4016.425657,995.924147,-444.123565,9770.718434
4016.425972,689.485948,-74.020594,9474.636058
4016.426287,459.657299,-0.000000,9178.553681
4016.426602,76.609550,296.082377,8956.491898
4016.426917,-229.828649,444.123565,9474.636058
4016.427232,-689.485948,370.102971,9474.636058
4016.427547,-766.095498,444.123565,9474.636058
4016.427862,-919.314598,666.185348,10066.800811
4016.428177,-1302.362347,148.041188,9992.780217
4016.428492,-1378.971896,148.041188,10584.944971
4016.428807,-1378.971896,-0.000000,10881.027347
4016.429122,-842.705048,-0.000000,10584.944971
4016.429437,-229.828649,296.082377,9918.759623
4016.429752,0.000000,222.061783,9548.656652
4016.430067,229.828649,-0.000000,9770.718434
4016.430382,459.657299,592.164754,8882.471304
4016.430697,689.485948,296.082377,9104.533087
4016.431013,766.095498,-222.061783,9030.512492
4016.431328,1072.533697,-592.164754,9030.512492
4016.431643,919.314598,-740.205942,9474.636058
4016.431958,536.266849,-518.144159,9252.574275
4016.432273,459.657299,-592.164754,8956.491898
4016.432588,229.828649,-222.061783,9474.636058
4016.432903,1302.362347,-74.020594,9178.553681
4016.433218,153.219100,-0.000000,9178.553681
4016.433533,229.828649,-0.000000,8956.491898
4016.433848,-229.828649,518.144159,9104.533087
4016.434163,-229.828649,666.185348,8956.491898
4016.434478,-229.828649,444.123565,9918.759623
4016.434793,-306.438199,-0.000000,10288.862594
4016.435108,-1149.143247,370.102971,10214.842000
4016.435423,-1072.533697,222.061783,10288.862594
4016.435738,-766.095498,-0.000000,10214.842000
4016.436054,-229.828649,296.082377,10510.924376
4016.436369,0.000000,370.102971,9992.780217
4016.436684,536.266849,370.102971,9696.697840
4016.436999,612.876398,518.144159,9178.553681
4016.437314,842.705048,666.185348,9030.512492
4016.437629,1532.190996,444.123565,8956.491898
4016.437944,1532.190996,-0.000000,9326.594869
4016.438259,1608.800546,-0.000000,9104.533087
4016.438574,1302.362347,-0.000000,9104.533087
4016.438890,1302.362347,-148.041188,9252.574275
4016.439205,919.314598,-74.020594,9474.636058
4016.439520,766.095498,-0.000000,9548.656652
4016.439835,612.876398,-0.000000,9400.615463
4016.440150,76.609550,296.082377,9400.615463
4016.440465,-229.828649,370.102971,9770.718434
4016.440780,-383.047749,370.102971,9474.636058
4016.441095,-995.924147,444.123565,9622.677246
4016.441411,-1072.533697,-0.000000,9992.780217
4016.441726,-1072.533697,222.061783,10584.944971
4016.442041,-842.705048,222.061783,10584.944971
4016.442356,-612.876398,296.082377,10658.965565
4016.442671,-383.047749,370.102971,10214.842000
4016.442986,-306.438199,222.061783,9622.677246
4016.443301,0.000000,296.082377,9474.636058
4016.443616,919.314598,370.102971,9104.533087
4016.443932,766.095498,592.164754,8956.491898
4016.444247,689.485948,222.061783,9104.533087
4016.444562,995.924147,-0.000000,9030.512492
4016.444877,1225.752797,-74.020594,9326.594869
4016.445192,919.314598,-518.144159,9474.636058
4016.445507,459.657299,-740.205942,9696.697840
4016.445822,536.266849,-370.102971,9844.739029
4016.446137,306.438199,-518.144159,9400.615463
4016.446452,766.095498,-0.000000,9400.615463
4016.446768,612.876398,296.082377,9474.636058
4016.447083,0.000000,370.102971,9104.533087
4016.447398,-306.438199,444.123565,9178.553681
4016.447713,-612.876398,814.226536,9104.533087
4016.448028,-612.876398,444.123565,9548.656652
4016.448343,-383.047749,222.061783,10288.862594
4016.448658,-1149.143247,370.102971,10584.944971
4016.448973,-1149.143247,-0.000000,10510.924376
4016.449289,-1072.533697,-0.000000,10140.821405
4016.449604,-383.047749,-0.000000,9770.718434
4016.449919,-229.828649,222.061783,10140.821405
4016.450234,536.266849,296.082377,9844.739029
4016.450549,306.438199,666.185348,8808.450710
4016.450864,689.485948,518.144159,8956.491898
4016.451179,1072.533697,-0.000000,9104.533087
4016.451494,995.924147,-0.000000,9400.615463
4016.451810,1072.533697,-74.020594,9178.553681
4016.452125,766.095498,-518.144159,9252.574275
4016.452440,689.485948,-518.144159,9178.553681
4016.452755,995.924147,-592.164754,9400.615463
4016.453070,229.828649,-444.123565,9770.718434
4016.453385,0.000000,-222.061783,9474.636058
4016.453700,-306.438199,296.082377,8956.491898
4016.454015,-459.657299,444.123565,9474.636058
4016.454331,-612.876398,296.082377,9622.677246
4016.454646,-766.095498,-0.000000,9696.697840
4016.454961,-1149.143247,296.082377,9992.780217
4016.455276,-919.314598,-0.000000,10436.903782
4016.455591,-995.924147,444.123565,10658.965565
4016.455906,-612.876398,-0.000000,10362.883188
4016.456221,-536.266849,296.082377,10214.842000
4016.456536,-306.438199,370.102971,9918.759623
4016.456851,383.047749,370.102971,9622.677246
4016.457167,766.095498,370.102971,9474.636058
4016.457482,919.314598,148.041188,9326.594869
4016.457797,842.705048,370.102971,9400.615463
4016.458112,1072.533697,148.041188,9104.533087
4016.458427,995.924147,-222.061783,8956.491898
4016.458742,919.314598,-148.041188,9400.615463
4016.459057,919.314598,-370.102971,9474.636058
4016.459372,536.266849,-0.000000,9622.677246
4016.459688,689.485948,148.041188,9696.697840
4016.460003,919.314598,296.082377,8808.450710
4016.460318,536.266849,962.267725,8956.491898
4016.460633,0.000000,592.164754,9326.594869
4016.460948,0.000000,592.164754,9992.780217
4016.461263,-612.876398,666.185348,9474.636058
4016.461578,-766.095498,444.123565,9770.718434
4016.461893,-842.705048,444.123565,10510.924376
4016.462209,-1072.533697,-74.020594,10584.944971
4016.462524,-995.924147,518.144159,10510.924376
4016.462839,-1149.143247,-0.000000,10140.821405
4016.463154,-459.657299,296.082377,9918.759623
4016.463469,0.000000,222.061783,9622.677246
4016.463784,229.828649,666.185348,9326.594869
4016.464099,612.876398,296.082377,9474.636058
4016.464414,536.266849,-0.000000,9104.533087
4016.464730,995.924147,-0.000000,9030.512492
4016.465045,1225.752797,-148.041188,9104.533087
4016.465360,766.095498,-518.144159,9252.574275
4016.465675,536.266849,-148.041188,9178.553681
4016.465990,612.876398,-444.123565,9104.533087
4016.466305,766.095498,-370.102971,9474.636058
4016.466620,612.876398,-740.205942,9178.553681
4016.466935,306.438199,-74.020594,9474.636058
4016.467250,229.828649,222.061783,9622.677246
4016.467566,-229.828649,-0.000000,9474.636058
4016.467881,-229.828649,740.205942,9696.697840
4016.468196,-306.438199,-0.000000,9770.718434
4016.468511,-383.047749,370.102971,10140.821405
4016.468826,-689.485948,666.185348,10288.862594
4016.469141,-842.705048,222.061783,10288.862594
4016.469456,-383.047749,-0.000000,10436.903782
4016.469771,0.000000,444.123565,10214.842000
4016.470087,76.609550,222.061783,9844.739029
4016.470402,383.047749,518.144159,9696.697840
4016.470717,689.485948,592.164754,9548.656652
4016.471032,612.876398,592.164754,9178.553681
4016.471347,612.876398,222.061783,9104.533087
4016.471662,842.705048,-296.082377,9770.718434
4016.471977,383.047749,-148.041188,9474.636058
4016.472292,383.047749,-444.123565,9178.553681
4016.472608,306.438199,-666.185348,9474.636058
4016.472923,153.219100,-666.185348,9474.636058
4016.473238,229.828649,-222.061783,9474.636058
4016.473553,76.609550,-0.000000,9178.553681
4016.473868,383.047749,296.082377,9030.512492
4016.474183,0.000000,296.082377,8956.491898
4016.474498,-612.876398,518.144159,9252.574275
4016.474813,-766.095498,444.123565,9844.739029
4016.475129,-995.924147,296.082377,9918.759623
4016.475444,-995.924147,-0.000000,9992.780217
4016.475759,-1378.971896,-74.020594,10140.821405
4016.476074,-689.485948,-222.061783,10510.924376
4016.476389,-612.876398,-0.000000,10140.821405
4016.476704,0.000000,-0.000000,9770.718434
4016.477019,459.657299,-0.000000,9696.697840
4016.477334,766.095498,370.102971,9178.553681
4016.477649,689.485948,296.082377,8956.491898
4016.477965,919.314598,-0.000000,8956.491898
4016.478280,1072.533697,-0.000000,8956.491898
4016.478595,1225.752797,-296.082377,9178.553681
4016.478910,1149.143247,-370.102971,9104.533087
4016.479225,995.924147,-444.123565,9474.636058
4016.479540,689.485948,-370.102971,9548.656652
4016.479855,612.876398,-370.102971,9252.574275
4016.480170,766.095498,-0.000000,10066.800811
4016.480486,383.047749,-0.000000,9696.697840
4016.480801,153.219100,518.144159,9474.636058
4016.481116,-229.828649,592.164754,9474.636058
4016.481431,-689.485948,666.185348,9696.697840
4016.481746,-919.314598,444.123565,9918.759623
4016.482061,-1072.533697,592.164754,10584.944971
4016.482376,-1072.533697,444.123565,10807.006753
4016.482691,-995.924147,370.102971,10732.986159
4016.483007,-306.438199,592.164754,10140.821405
4016.483322,-383.047749,444.123565,9918.759623
4016.483637,229.828649,444.123565,9918.759623
4016.483952,766.095498,444.123565,9474.636058
4016.484267,459.657299,666.185348,9252.574275
4016.484582,766.095498,444.123565,8956.491898
4016.484897,1149.143247,296.082377,8882.471304
4016.485212,1532.190996,444.123565,8808.450710
4016.485527,1149.143247,-222.061783,9326.594869
4016.485843,766.095498,-296.082377,9474.636058
4016.486158,612.876398,-444.123565,9474.636058
4016.486473,459.657299,-296.082377,9400.615463
4016.486788,612.876398,-0.000000,9326.594869
4016.487103,612.876398,-0.000000,9326.594869
4016.487418,0.000000,518.144159,9178.553681
4016.487733,0.000000,666.185348,9400.615463
4016.488048,-383.047749,814.226536,9326.594869
4016.488364,-383.047749,592.164754,9622.677246
4016.488679,-919.314598,518.144159,9918.759623
4016.488994,-1378.971896,370.102971,10214.842000
4016.489309,-1302.362347,370.102971,10658.965565
4016.489624,-1302.362347,-0.000000,10362.883188
4016.489939,-1072.533697,-0.000000,10510.924376
4016.490254,-612.876398,-0.000000,10214.842000
4016.490569,0.000000,518.144159,9918.759623
4016.490885,76.609550,222.061783,9622.677246
4016.491200,0.000000,222.061783,9622.677246
4016.491515,842.705048,148.041188,9474.636058
4016.491830,1072.533697,222.061783,9104.533087
4016.492145,919.314598,148.041188,9326.594869
4016.492460,1072.533697,-74.020594,9252.574275
4016.492775,766.095498,-0.000000,9474.636058
4016.493090,459.657299,-296.082377,9474.636058
4016.493406,536.266849,-74.020594,9400.615463
4016.493721,459.657299,-0.000000,9178.553681
4016.494036,383.047749,296.082377,8660.409521
4016.494351,0.000000,296.082377,9326.594869
4016.494666,-306.438199,74.020594,9474.636058
4016.494981,-689.485948,518.144159,9474.636058
4016.495296,-842.705048,370.102971,9696.697840
4016.495611,-766.095498,-0.000000,10436.903782
4016.495926,-689.485948,518.144159,10288.862594
4016.496242,-612.876398,-0.000000,10288.862594
4016.496557,-536.266849,148.041188,10066.800811
4016.496872,-306.438199,222.061783,9770.718434
4016.497187,306.438199,370.102971,9474.636058
4016.497502,689.485948,370.102971,9178.553681
4016.497817,612.876398,666.185348,9326.594869
4016.498132,919.314598,444.123565,9104.533087
4016.498447,1149.143247,-0.000000,9178.553681
4016.498763,1072.533697,-148.041188,9104.533087
4016.499078,842.705048,-296.082377,9474.636058
4016.499393,766.095498,-666.185348,9548.656652
4016.499708,689.485948,-592.164754,9474.636058
4016.500023,689.485948,-592.164754,9474.636058
4016.500338,842.705048,-222.061783,9178.553681
4016.500653,689.485948,-74.020594,9548.656652
4016.500968,0.000000,148.041188,9770.718434
