#time,accel_x,accel_y,accel_z
3796.106028,0.000000,222.061783,9622.677246
3796.106343,-153.219100,-0.000000,9622.677246
3796.106657,0.000000,-0.000000,9770.718434
3796.106972,-306.438199,444.123565,9770.718434
3796.107287,0.000000,222.061783,9696.697840
3796.107601,0.000000,296.082377,9918.759623
3796.107916,0.000000,-0.000000,9622.677246
3796.108231,0.000000,-74.020594,9474.636058
3796.108545,0.000000,-0.000000,9474.636058
3796.108860,153.219100,148.041188,9770.718434
3796.109175,0.000000,148.041188,9622.677246
3796.109489,0.000000,-0.000000,9474.636058
3796.109804,76.609550,-0.000000,9622.677246
3796.110119,0.000000,296.082377,9474.636058
3796.110433,229.828649,444.123565,9548.656652
3796.110748,383.047749,-0.000000,9474.636058
3796.111063,76.609550,-0.000000,9474.636058
3796.111378,0.000000,-0.000000,9474.636058
3796.111692,0.000000,148.041188,9474.636058
3796.112007,76.609550,74.020594,9252.574275
3796.112322,153.219100,-0.000000,9474.636058
3796.112636,383.047749,-74.020594,9474.636058
3796.112951,-229.828649,-0.000000,9622.677246
3796.113266,153.219100,-0.000000,9400.615463
3796.113580,306.438199,444.123565,9400.615463
3796.113895,76.609550,-0.000000,9622.677246
3796.114210,229.828649,-0.000000,9918.759623
3796.114524,0.000000,-222.061783,9844.739029
3796.114839,153.219100,-0.000000,9252.574275
3796.115154,153.219100,148.041188,9548.656652
3796.115468,306.438199,148.041188,9918.759623
3796.115783,229.828649,-0.000000,9622.677246
3796.116098,0.000000,-0.000000,9918.759623
3796.116412,0.000000,-0.000000,9622.677246
3796.116727,383.047749,296.082377,9622.677246
3796.117042,459.657299,-0.000000,9400.615463
3796.117356,153.219100,222.061783,9548.656652
3796.117671,0.000000,296.082377,9992.780217
3796.117986,153.219100,296.082377,9474.636058
3796.118300,0.000000,-0.000000,9548.656652
3796.118615,0.000000,-0.000000,9474.636058
3796.118930,76.609550,-0.000000,9696.697840
3796.119245,-459.657299,-148.041188,9400.615463
3796.119559,76.609550,-0.000000,9622.677246
3796.119874,0.000000,296.082377,9770.718434
3796.120189,153.219100,-0.000000,9474.636058
3796.120503,0.000000,-0.000000,9548.656652
3796.120818,0.000000,-0.000000,9622.677246
3796.121133,0.000000,-0.000000,9548.656652
3796.121447,229.828649,222.061783,9474.636058
3796.121762,0.000000,-0.000000,9474.636058
3796.122077,0.000000,148.041188,9548.656652
3796.122391,0.000000,-0.000000,9400.615463
3796.122706,0.000000,-0.000000,9622.677246
3796.123021,153.219100,444.123565,9918.759623
3796.123335,536.266849,-0.000000,9400.615463
3796.123650,0.000000,-0.000000,9252.574275
3796.123965,153.219100,222.061783,9252.574275
3796.124279,153.219100,-0.000000,9474.636058
3796.124594,306.438199,148.041188,9696.697840
3796.124909,306.438199,-0.000000,9548.656652
3796.125223,153.219100,222.061783,9770.718434
3796.125538,0.000000,-0.000000,9474.636058
3796.125853,0.000000,-0.000000,9474.636058
3796.126167,153.219100,222.061783,9622.677246
3796.126482,153.219100,-0.000000,9696.697840
3796.126797,153.219100,-0.000000,9474.636058
3796.127112,0.000000,222.061783,9326.594869
3796.127426,0.000000,296.082377,9622.677246
3796.127741,153.219100,222.061783,9696.697840
3796.128056,229.828649,-0.000000,9474.636058
3796.128370,0.000000,148.041188,9474.636058
3796.128685,0.000000,-0.000000,9548.656652
3796.129000,76.609550,-148.041188,10140.821405
3796.129314,306.438199,-0.000000,10140.821405
3796.129629,0.000000,296.082377,9548.656652
3796.129944,306.438199,370.102971,9844.739029
3796.130258,383.047749,740.205942,9474.636058
3796.130573,1072.533697,666.185348,9326.594869
3796.130888,1149.143247,740.205942,8956.491898
3796.131202,995.924147,666.185348,8586.388927
3796.131517,766.095498,296.082377,8956.491898
3796.131832,995.924147,666.185348,9622.677246
3796.132146,1225.752797,-0.000000,9030.512492
3796.132461,612.876398,-0.000000,9548.656652
3796.132776,842.705048,370.102971,9474.636058
3796.133090,459.657299,444.123565,9474.636058
3796.133405,842.705048,592.164754,9696.697840
3796.133720,919.314598,666.185348,9844.739029
3796.134034,766.095498,222.061783,9918.759623
3796.134349,1455.581446,740.205942,9992.780217
3796.134664,1762.019645,666.185348,9918.759623
3796.134979,2451.505594,1036.288319,10140.821405
3796.135293,2528.115143,1258.350101,10140.821405
3796.135608,2451.505594,1850.514855,9844.739029
3796.135923,3447.429741,2220.617826,8882.471304
3796.136237,3370.820191,2368.659014,8512.368333
3796.136552,3524.039291,2516.700203,8956.491898
3796.136867,3524.039291,2368.659014,8808.450710
3796.137181,3524.039291,1998.556043,8364.327145
3796.137496,3370.820191,2146.597232,8956.491898
3796.137811,2987.772442,1924.535449,9104.533087
3796.138125,3064.381992,2072.576638,9178.553681
3796.138440,3217.601092,2442.679609,9548.656652
3796.138755,2451.505594,2368.659014,9992.780217
3796.139069,2757.943793,2886.803174,9178.553681
3796.139384,2911.162892,2960.823768,8956.491898
3796.139699,2834.553343,3256.906145,8956.491898
3796.140013,2834.553343,3627.009116,8956.491898
3796.140328,2528.115143,3775.050304,9030.512492
3796.140643,2604.724693,3627.009116,9252.574275
3796.140957,2298.286494,3552.988522,9548.656652
3796.141272,2145.067394,3849.070898,9918.759623
3796.141587,1838.629195,3627.009116,10510.924376
3796.141901,1532.190996,3330.926739,11399.171507
3796.142216,1302.362347,3627.009116,11029.068536
3796.142531,1762.019645,3627.009116,10658.965565
3796.142846,1225.752797,3627.009116,10584.944971
3796.143160,1608.800546,3627.009116,10807.006753
3796.143475,1915.238745,3701.029710,10807.006753
3796.143790,1991.848295,3849.070898,9844.739029
3796.144104,2451.505594,4219.173869,10066.800811
3796.144419,2451.505594,4219.173869,9400.615463
3796.144734,2681.334243,3775.050304,9474.636058
3796.145048,2451.505594,3330.926739,10066.800811
3796.145363,2451.505594,3256.906145,9622.677246
3796.145678,2145.067394,3256.906145,9918.759623
3796.145992,2145.067394,2590.720797,10214.842000
3796.146307,2145.067394,2368.659014,10362.883188
3796.146622,2068.457845,2664.741391,9992.780217
3796.146936,1762.019645,3034.844362,9696.697840
3796.147251,1762.019645,3034.844362,9918.759623
3796.147566,1762.019645,3108.864956,10140.821405
3796.147880,2145.067394,3108.864956,9548.656652
3796.148195,1762.019645,2738.761985,9326.594869
3796.148510,1991.848295,2886.803174,9252.574275
3796.148824,2068.457845,2442.679609,9918.759623
3796.149139,1762.019645,2072.576638,9844.739029
3796.149454,1762.019645,1554.432478,10362.883188
3796.149768,1608.800546,1258.350101,10436.903782
3796.150083,1532.190996,1480.411884,9918.759623
3796.150398,1225.752797,1628.453072,9992.780217
3796.150713,1991.848295,1628.453072,9992.780217
3796.151027,1991.848295,1628.453072,9622.677246
3796.151342,2145.067394,1924.535449,8882.471304
3796.151657,2451.505594,1998.556043,8512.368333
3796.151971,3064.381992,1998.556043,8438.347739
3796.152286,3370.820191,1776.494261,8216.285956
3796.152601,3064.381992,1184.329507,8586.388927
3796.152915,2987.772442,1332.370696,8660.409521
3796.153230,2834.553343,1110.308913,8512.368333
3796.153545,2528.115143,1480.411884,8734.430116
3796.153859,2068.457845,740.205942,8660.409521
3796.154174,2221.676944,888.247130,9030.512492
3796.154489,1915.238745,962.267725,8882.471304
3796.154803,1608.800546,296.082377,9622.677246
3796.155118,1532.190996,370.102971,10288.862594
3796.155433,1685.410096,740.205942,10288.862594
3796.155747,1915.238745,1184.329507,9992.780217
3796.156062,2451.505594,1480.411884,10140.821405
3796.156377,3217.601092,2146.597232,9400.615463
3796.156691,3907.087040,2516.700203,8956.491898
3796.157006,3753.867940,2664.741391,8438.347739
3796.157321,4290.134789,2516.700203,8364.327145
3796.157635,3600.648841,2294.638420,8438.347739
3796.157950,2834.553343,1480.411884,8068.244768
3796.158265,2221.676944,1258.350101,8808.450710
3796.158580,1302.362347,370.102971,10288.862594
3796.158894,612.876398,-222.061783,11029.068536
3796.159209,76.609550,-370.102971,12139.377449
3796.159524,-229.828649,-296.082377,12657.521608
3796.159838,229.828649,518.144159,12287.418637
3796.160153,1225.752797,1554.432478,11547.212695
3796.160468,2068.457845,2368.659014,10436.903782
3796.160782,3140.991542,3923.091493,9326.594869
3796.161097,4519.963438,4737.318029,7846.182985
3796.161412,4673.182538,5107.421000,7031.956449
3796.161726,4519.963438,4515.256246,7105.977043
3796.162041,4213.525239,3108.864956,7994.224174
3796.162356,3600.648841,2146.597232,9104.533087
3796.162670,1838.629195,1184.329507,10436.903782
3796.162985,306.438199,592.164754,11917.315666
3796.163300,-919.314598,444.123565,11991.336260
3796.163614,-1149.143247,888.247130,12287.418637
3796.163929,-536.266849,1924.535449,11843.295072
3796.164244,0.000000,3034.844362,9548.656652
3796.164558,1455.581446,3478.967927,8734.430116
3796.164873,2834.553343,3552.988522,7402.059420
3796.165188,3907.087040,3849.070898,7476.080014
3796.165502,4519.963438,4293.194464,7550.100608
3796.165817,4136.915689,4145.153275,7994.224174
3796.166132,3677.258390,4367.215058,9992.780217
3796.166447,2451.505594,3256.906145,11029.068536
3796.166761,1762.019645,2960.823768,11251.130318
3796.167076,919.314598,2960.823768,11177.109724
3796.167391,383.047749,3552.988522,10214.842000
3796.167705,1072.533697,2442.679609,10066.800811
3796.168020,1762.019645,1998.556043,9844.739029
3796.168335,2374.896044,1702.473667,9474.636058
3796.168649,2604.724693,2442.679609,7994.224174
3796.168964,2681.334243,3256.906145,8068.244768
3796.169279,3370.820191,3478.967927,8734.430116
3796.169593,3370.820191,3923.091493,8364.327145
3796.169908,3064.381992,3775.050304,8512.368333
3796.170223,2451.505594,2664.741391,9474.636058
3796.170537,1915.238745,1850.514855,11177.109724
3796.170852,1072.533697,1924.535449,11547.212695
3796.171167,766.095498,1480.411884,11843.295072
3796.171481,1302.362347,2072.576638,11843.295072
3796.171796,1685.410096,2886.803174,10658.965565
3796.172111,2298.286494,3923.091493,9548.656652
3796.172425,2681.334243,3997.112087,8216.285956
3796.172740,3907.087040,3404.947333,8068.244768
3796.173055,4366.744339,2738.761985,7698.141797
3796.173369,3830.477490,2220.617826,8364.327145
3796.173684,3294.210641,444.123565,10214.842000
3796.173999,2681.334243,370.102971,10955.047942
3796.174314,1685.410096,962.267725,10510.924376
3796.174628,1072.533697,1480.411884,10362.883188
3796.174943,1685.410096,1776.494261,10436.903782
3796.175258,2221.676944,2442.679609,9622.677246
3796.175572,2298.286494,2516.700203,8660.409521
3796.175887,2757.943793,2516.700203,8734.430116
3796.176202,3064.381992,2516.700203,8438.347739
3796.176516,3294.210641,2590.720797,8068.244768
3796.176831,3294.210641,2146.597232,8290.306550
3796.177146,2911.162892,1554.432478,9474.636058
3796.177460,1838.629195,1406.391290,9474.636058
3796.177775,842.705048,814.226536,10436.903782
3796.178090,459.657299,370.102971,11547.212695
3796.178405,0.000000,888.247130,11325.150913
3796.178719,-919.314598,1480.411884,10732.986159
3796.179034,-306.438199,1184.329507,10214.842000
3796.179349,306.438199,962.267725,10140.821405
3796.179664,919.314598,888.247130,9548.656652
3796.179979,1838.629195,1702.473667,9104.533087
3796.180293,2374.896044,2072.576638,8956.491898
3796.180608,2298.286494,2368.659014,8068.244768
3796.180923,2451.505594,1998.556043,7920.203579
3796.181238,2298.286494,740.205942,8734.430116
3796.181552,842.705048,-0.000000,9696.697840
3796.181867,-306.438199,-518.144159,10510.924376
3796.182182,-1685.410096,-444.123565,10362.883188
3796.182497,-1685.410096,-370.102971,10510.924376
3796.182812,-1072.533697,-0.000000,10140.821405
3796.183126,-1378.971896,-148.041188,9844.739029
3796.183441,-766.095498,-148.041188,10807.006753
3796.183756,-459.657299,-148.041188,10140.821405
3796.184071,-306.438199,222.061783,9844.739029
3796.184385,0.000000,666.185348,9474.636058
3796.184700,536.266849,1480.411884,9030.512492
3796.185015,1302.362347,1110.308913,9326.594869
3796.185330,1838.629195,370.102971,9030.512492
3796.185645,1149.143247,-148.041188,9474.636058
3796.185959,306.438199,-518.144159,9770.718434
3796.186274,76.609550,-444.123565,9622.677246
3796.186589,-536.266849,-0.000000,9622.677246
3796.186904,-842.705048,-0.000000,9104.533087
3796.187219,-229.828649,-518.144159,9030.512492
3796.187533,229.828649,-1628.453072,9104.533087
3796.187848,229.828649,-1554.432478,9326.594869
3796.188163,-229.828649,-1184.329507,9622.677246
3796.188478,0.000000,-296.082377,9030.512492
3796.188792,689.485948,-148.041188,9178.553681
3796.189107,1608.800546,-0.000000,9474.636058
3796.189422,1762.019645,-0.000000,9622.677246
3796.189737,1225.752797,74.020594,9548.656652
3796.190052,689.485948,-0.000000,9992.780217
3796.190366,766.095498,1184.329507,9400.615463
3796.190681,1072.533697,1480.411884,8734.430116
3796.190996,1685.410096,1110.308913,8364.327145
3796.191311,1685.410096,-0.000000,8216.285956
3796.191625,1225.752797,-666.185348,8956.491898
3796.191940,459.657299,-962.267725,9474.636058
3796.192255,0.000000,-740.205942,9474.636058
3796.192570,0.000000,-222.061783,9326.594869
3796.192885,842.705048,-518.144159,9474.636058
3796.193199,612.876398,-518.144159,9474.636058
3796.193514,153.219100,-888.247130,10362.883188
3796.193829,0.000000,-592.164754,10510.924376
3796.194144,-536.266849,666.185348,10584.944971
3796.194458,-153.219100,1702.473667,9992.780217
3796.194773,1072.533697,2220.617826,9326.594869
3796.195088,1225.752797,1850.514855,8512.368333
3796.195403,1532.190996,962.267725,9548.656652
3796.195718,1225.752797,962.267725,9548.656652
3796.196032,383.047749,888.247130,9622.677246
3796.196347,0.000000,1036.288319,9474.636058
3796.196662,919.314598,222.061783,9696.697840
3796.196977,0.000000,-74.020594,10214.842000
3796.197291,-1378.971896,-888.247130,11029.068536
3796.197606,-2068.457845,-888.247130,11103.089130
3796.197921,-1991.848295,-370.102971,10732.986159
3796.198236,-1608.800546,666.185348,10214.842000
3796.198551,-536.266849,1036.288319,9918.759623
3796.198865,0.000000,1110.308913,9400.615463
3796.199180,0.000000,814.226536,9104.533087
3796.199495,536.266849,592.164754,9696.697840
3796.199810,306.438199,740.205942,8956.491898
3796.200124,0.000000,1332.370696,9696.697840
3796.200439,153.219100,1184.329507,9400.615463
3796.200754,76.609550,592.164754,9770.718434
3796.201069,-766.095498,-518.144159,10732.986159
3796.201384,-1608.800546,-888.247130,11621.233289
3796.201698,-2221.676944,-370.102971,10658.965565
3796.202013,-2451.505594,-0.000000,10140.821405
3796.202328,-1455.581446,-74.020594,9696.697840
3796.202643,-229.828649,-370.102971,9252.574275
3796.202957,0.000000,-814.226536,9474.636058
3796.203272,306.438199,-888.247130,9474.636058
3796.203587,76.609550,222.061783,8586.388927
3796.203902,0.000000,370.102971,8956.491898
3796.204217,1302.362347,888.247130,8808.450710
3796.204531,1915.238745,814.226536,9696.697840
3796.204846,689.485948,-0.000000,9326.594869
3796.205161,536.266849,-370.102971,9474.636058
3796.205476,-306.438199,-74.020594,9622.677246
3796.205791,-536.266849,-0.000000,9326.594869
3796.206105,-536.266849,1036.288319,8586.388927
3796.206420,1532.190996,-1184.329507,9770.718434
3796.206735,536.266849,-74.020594,8734.430116
3796.207050,-383.047749,-1258.350101,9622.677246
3796.207364,689.485948,-1258.350101,9992.780217
3796.207679,153.219100,-1110.308913,9400.615463
3796.207994,1149.143247,-74.020594,9474.636058
3796.208309,1838.629195,-518.144159,9104.533087
3796.208624,995.924147,-444.123565,9474.636058
3796.208938,842.705048,-74.020594,9474.636058
3796.209253,536.266849,-222.061783,9992.780217
3796.209568,76.609550,-0.000000,9474.636058
3796.209883,612.876398,296.082377,8882.471304
3796.210197,1608.800546,444.123565,9252.574275
3796.210512,1302.362347,-0.000000,8882.471304
3796.210827,1149.143247,-444.123565,10658.965565
3796.211142,0.000000,-592.164754,10066.800811
3796.211457,-229.828649,-666.185348,9844.739029
3796.211771,229.828649,-222.061783,9770.718434
3796.212086,995.924147,-74.020594,9548.656652
3796.212401,459.657299,-592.164754,10140.821405
3796.212716,0.000000,-814.226536,10807.006753
3796.213030,-766.095498,-444.123565,10584.944971
3796.213345,-919.314598,444.123565,9622.677246
3796.213660,306.438199,1110.308913,9252.574275
3796.213975,1302.362347,888.247130,8882.471304
3796.214290,1149.143247,814.226536,8956.491898
3796.214604,612.876398,148.041188,9326.594869
3796.214919,306.438199,370.102971,9104.533087
3796.215234,0.000000,370.102971,9326.594869
3796.215549,-306.438199,592.164754,9178.553681
3796.215863,-229.828649,592.164754,9622.677246
3796.216178,-766.095498,592.164754,9696.697840
3796.216493,-1762.019645,-592.164754,10881.027347
3796.216808,-2374.896044,-518.144159,11325.150913
3796.217123,-2374.896044,444.123565,10807.006753
3796.217437,-1608.800546,1110.308913,9918.759623
3796.217752,-766.095498,1628.453072,9326.594869
3796.218067,0.000000,1332.370696,9400.615463
3796.218382,0.000000,1036.288319,9992.780217
3796.218696,0.000000,962.267725,9474.636058
3796.219011,0.000000,1406.391290,9104.533087
3796.219326,153.219100,1406.391290,8660.409521
3796.219641,766.095498,1258.350101,8660.409521
3796.219956,459.657299,518.144159,9474.636058
3796.220270,-536.266849,-444.123565,9992.780217
3796.220585,-1072.533697,-666.185348,10362.883188
3796.220900,-1762.019645,-296.082377,10510.924376
3796.221215,-1378.971896,148.041188,10362.883188
3796.221529,0.000000,-148.041188,10436.903782
3796.221844,76.609550,740.205942,9474.636058
3796.222159,612.876398,148.041188,9696.697840
3796.222474,842.705048,370.102971,9326.594869
3796.222789,1149.143247,962.267725,8734.430116
3796.223103,1532.190996,1332.370696,8660.409521
3796.223418,1915.238745,1332.370696,9474.636058
3796.223733,1685.410096,592.164754,9400.615463
3796.224048,689.485948,518.144159,9548.656652
3796.224363,383.047749,-222.061783,10584.944971
3796.224677,-306.438199,-666.185348,11103.089130
3796.224992,-459.657299,-0.000000,11177.109724
3796.225307,153.219100,222.061783,9696.697840
3796.225622,689.485948,222.061783,9548.656652
3796.225936,1225.752797,-0.000000,10140.821405
3796.226251,1455.581446,-74.020594,9178.553681
3796.226566,1378.971896,370.102971,8586.388927
3796.226881,1302.362347,666.185348,8290.306550
3796.227196,2145.067394,888.247130,8290.306550
3796.227510,2221.676944,-0.000000,8290.306550
3796.227825,1149.143247,-222.061783,9548.656652
3796.228140,76.609550,-740.205942,10658.965565
3796.228455,-383.047749,-518.144159,10362.883188
3796.228769,-766.095498,-148.041188,10140.821405
3796.229084,76.609550,-0.000000,10436.903782
3796.229399,536.266849,-0.000000,9548.656652
3796.229714,995.924147,-0.000000,9474.636058
3796.230029,919.314598,-0.000000,9030.512492
3796.230343,459.657299,370.102971,8660.409521
3796.230658,766.095498,370.102971,8142.265362
3796.230973,1149.143247,148.041188,8290.306550
3796.231288,1072.533697,-0.000000,8660.409521
3796.231602,383.047749,-962.267725,9622.677246
3796.231917,-383.047749,-1036.288319,9770.718434
3796.232232,-1302.362347,-1110.308913,10955.047942
3796.232547,-1455.581446,-814.226536,10658.965565
3796.232862,-919.314598,-666.185348,9548.656652
3796.233176,-229.828649,-0.000000,9474.636058
3796.233491,0.000000,-222.061783,10288.862594
3796.233806,0.000000,222.061783,9400.615463
3796.234121,-229.828649,888.247130,8512.368333
3796.234435,-306.438199,962.267725,7920.203579
3796.234750,306.438199,296.082377,8364.327145
3796.235065,306.438199,222.061783,8882.471304
3796.235380,-153.219100,-592.164754,9622.677246
3796.235695,-1225.752797,-962.267725,10807.006753
3796.236009,-2374.896044,-1258.350101,11473.192101
3796.236324,-2757.943793,-74.020594,10807.006753
3796.236639,-2298.286494,-0.000000,10881.027347
3796.236954,-995.924147,518.144159,10510.924376
3796.237268,-766.095498,296.082377,9844.739029
3796.237583,-459.657299,-0.000000,9770.718434
3796.237898,0.000000,370.102971,9696.697840
3796.238213,153.219100,1258.350101,8290.306550
3796.238528,766.095498,962.267725,8808.450710
3796.238842,1608.800546,1702.473667,8586.388927
3796.239157,689.485948,222.061783,9252.574275
3796.239472,536.266849,-0.000000,9992.780217
3796.239787,-766.095498,-888.247130,11103.089130
3796.240101,-1455.581446,-148.041188,10807.006753
3796.240416,-766.095498,-0.000000,10658.965565
3796.240731,0.000000,444.123565,10066.800811
3796.241046,536.266849,-0.000000,10140.821405
3796.241361,536.266849,-0.000000,10066.800811
3796.241675,612.876398,814.226536,9400.615463
3796.241990,919.314598,1406.391290,8068.244768
3796.242305,1838.629195,1702.473667,7846.182985
3796.242620,2528.115143,1258.350101,7846.182985
3796.242935,2068.457845,592.164754,8512.368333
3796.243249,1225.752797,-148.041188,9548.656652
3796.243564,229.828649,-592.164754,10436.903782
3796.243879,-383.047749,-296.082377,10807.006753
3796.244194,-612.876398,-0.000000,10658.965565
3796.244508,-229.828649,-148.041188,10881.027347
3796.244823,0.000000,-518.144159,10732.986159
3796.245138,229.828649,-666.185348,10807.006753
3796.245453,306.438199,-222.061783,10732.986159
3796.245768,612.876398,1036.288319,9104.533087
3796.246082,1225.752797,1480.411884,8586.388927
3796.246397,2374.896044,1036.288319,8216.285956
3796.246712,2757.943793,370.102971,8660.409521
3796.247027,1378.971896,-222.061783,9178.553681
3796.247341,689.485948,-222.061783,9548.656652
3796.247656,-383.047749,-370.102971,10066.800811
3796.247971,-612.876398,-148.041188,9992.780217
3796.248286,-383.047749,-518.144159,9992.780217
3796.248601,-153.219100,-0.000000,9992.780217
3796.248915,-153.219100,-1184.329507,10066.800811
3796.249230,76.609550,-370.102971,9548.656652
3796.249545,-459.657299,370.102971,8734.430116
3796.249860,0.000000,814.226536,8142.265362
3796.250174,1072.533697,1036.288319,7846.182985
3796.250489,1532.190996,518.144159,8438.347739
3796.250804,612.876398,-0.000000,8734.430116
3796.251119,0.000000,-444.123565,9918.759623
3796.251434,-1072.533697,-0.000000,10362.883188
3796.251748,-1378.971896,-0.000000,10436.903782
3796.252063,-842.705048,1110.308913,10658.965565
3796.252378,-536.266849,370.102971,10658.965565
3796.252693,-612.876398,-0.000000,9992.780217
3796.253007,-536.266849,-370.102971,10066.800811
3796.253322,-842.705048,740.205942,8808.450710
3796.253637,0.000000,962.267725,8290.306550
3796.253952,766.095498,1110.308913,7920.203579
3796.254267,1072.533697,370.102971,8290.306550
3796.254581,842.705048,-148.041188,8956.491898
3796.254896,0.000000,-666.185348,9770.718434
3796.255211,-842.705048,-296.082377,9696.697840
3796.255526,-1685.410096,-0.000000,11029.068536
3796.255840,-1608.800546,-0.000000,10584.944971
3796.256155,-1225.752797,-0.000000,11325.150913
3796.256470,-1302.362347,-370.102971,11251.130318
3796.256785,-842.705048,-148.041188,10955.047942
3796.257100,-995.924147,962.267725,9326.594869
3796.257414,0.000000,1702.473667,8216.285956
3796.257729,1149.143247,1480.411884,8512.368333
3796.258044,1915.238745,222.061783,8512.368333
3796.258359,919.314598,444.123565,9178.553681
3796.258674,0.000000,-296.082377,9992.780217
3796.258988,-689.485948,-592.164754,10288.862594
3796.259303,-1378.971896,-370.102971,11029.068536
3796.259618,-766.095498,-74.020594,10436.903782
3796.259933,0.000000,-148.041188,10436.903782
3796.260247,-383.047749,-518.144159,10807.006753
3796.260562,-306.438199,-148.041188,10436.903782
3796.260877,306.438199,592.164754,9770.718434
3796.261192,689.485948,1406.391290,8734.430116
3796.261507,1838.629195,1258.350101,8512.368333
3796.261821,2834.553343,962.267725,7698.141797
3796.262136,2528.115143,-0.000000,8142.265362
3796.262451,1455.581446,-148.041188,9252.574275
3796.262766,459.657299,-296.082377,9770.718434
3796.263080,-383.047749,-296.082377,10362.883188
3796.263395,0.000000,-444.123565,10288.862594
3796.263710,153.219100,-592.164754,10436.903782
3796.264025,76.609550,-814.226536,9696.697840
3796.264340,76.609550,-888.247130,10066.800811
3796.264654,0.000000,-222.061783,9844.739029
3796.264969,153.219100,666.185348,8660.409521
3796.265284,1608.800546,666.185348,7846.182985
3796.265599,2834.553343,888.247130,7698.141797
3796.265913,2298.286494,592.164754,7698.141797
3796.266228,1455.581446,-0.000000,8660.409521
3796.266543,612.876398,-296.082377,9696.697840
3796.266858,-383.047749,-518.144159,10140.821405
3796.267173,-1302.362347,-518.144159,10066.800811
3796.267487,-689.485948,-148.041188,10214.842000
3796.267802,-689.485948,-888.247130,10881.027347
3796.268117,-995.924147,-888.247130,10955.047942
3796.268432,-689.485948,-444.123565,10436.903782
3796.268746,-536.266849,518.144159,8734.430116
3796.269061,383.047749,1184.329507,8586.388927
3796.269376,1762.019645,888.247130,8364.327145
3796.269691,1762.019645,222.061783,8290.306550
3796.270006,689.485948,148.041188,8808.450710
3796.270320,0.000000,296.082377,9104.533087
3796.270635,-689.485948,-0.000000,9622.677246
3796.270950,-459.657299,222.061783,10140.821405
3796.271265,-766.095498,296.082377,10214.842000
3796.271579,-612.876398,-222.061783,10140.821405
3796.271894,-1072.533697,-222.061783,10807.006753
3796.272209,-1608.800546,-0.000000,10955.047942
3796.272524,-1532.190996,444.123565,10066.800811
3796.272839,-766.095498,1110.308913,9104.533087
3796.273153,612.876398,888.247130,9326.594869
3796.273468,1149.143247,888.247130,9030.512492
3796.273783,536.266849,296.082377,8586.388927
3796.274098,0.000000,-0.000000,9548.656652
3796.274412,-612.876398,518.144159,10140.821405
3796.274727,-1149.143247,518.144159,9696.697840
3796.275042,-459.657299,666.185348,9770.718434
3796.275357,-229.828649,370.102971,10362.883188
3796.275672,-689.485948,-222.061783,10955.047942
3796.275986,-919.314598,-74.020594,10510.924376
3796.276301,-995.924147,518.144159,9400.615463
3796.276616,-459.657299,1258.350101,9474.636058
3796.276931,842.705048,888.247130,9178.553681
3796.277246,1302.362347,592.164754,9104.533087
3796.277560,1072.533697,-0.000000,8956.491898
3796.277875,919.314598,-444.123565,9030.512492
3796.278190,-306.438199,-0.000000,9548.656652
3796.278505,-536.266849,370.102971,9844.739029
3796.278820,-306.438199,-0.000000,10362.883188
3796.279134,153.219100,-0.000000,9992.780217
3796.279449,0.000000,-370.102971,9918.759623
3796.279764,0.000000,-888.247130,10881.027347
3796.280079,76.609550,222.061783,10214.842000
3796.280394,153.219100,592.164754,9474.636058
3796.280709,1149.143247,1184.329507,8808.450710
3796.281024,2221.676944,296.082377,8512.368333
3796.281339,1915.238745,-0.000000,8438.347739
3796.281653,1455.581446,-370.102971,9474.636058
3796.281968,536.266849,-0.000000,9474.636058
3796.282283,76.609550,-74.020594,9622.677246
3796.282598,536.266849,666.185348,9030.512492
3796.282913,612.876398,-222.061783,9548.656652
3796.283228,0.000000,-444.123565,10140.821405
3796.283543,-229.828649,-1480.411884,10732.986159
3796.283857,-689.485948,-148.041188,9844.739029
3796.284172,0.000000,222.061783,9622.677246
3796.284487,995.924147,814.226536,8660.409521
3796.284802,1991.848295,666.185348,8216.285956
3796.285117,2145.067394,-0.000000,8290.306550
3796.285432,1455.581446,-148.041188,9178.553681
3796.285747,842.705048,-0.000000,9844.739029
3796.286062,76.609550,222.061783,9474.636058
3796.286376,76.609550,518.144159,9844.739029
3796.286691,459.657299,-0.000000,9400.615463
3796.287006,0.000000,-148.041188,9918.759623
3796.287321,-612.876398,-1036.288319,10510.924376
3796.287636,-1225.752797,-740.205942,10807.006753
3796.287951,-1225.752797,-0.000000,9992.780217
3796.288266,-383.047749,370.102971,9252.574275
3796.288581,842.705048,592.164754,9030.512492
3796.288895,612.876398,222.061783,8956.491898
3796.289210,383.047749,-0.000000,9326.594869
3796.289525,306.438199,-0.000000,9548.656652
3796.289840,-459.657299,222.061783,9400.615463
3796.290155,0.000000,666.185348,8956.491898
3796.290470,76.609550,740.205942,9326.594869
3796.290785,-536.266849,-0.000000,9844.739029
3796.291099,-919.314598,-740.205942,10140.821405
3796.291414,-1225.752797,-592.164754,9548.656652
3796.291729,-1915.238745,-74.020594,9696.697840
3796.292044,-1225.752797,444.123565,9326.594869
3796.292359,-689.485948,-222.061783,9696.697840
3796.292674,-229.828649,-0.000000,9474.636058
3796.292989,-1149.143247,-814.226536,10140.821405
3796.293304,-1302.362347,444.123565,9918.759623
3796.293618,-995.924147,1110.308913,9622.677246
3796.293933,-842.705048,1480.411884,9400.615463
3796.294248,76.609550,1776.494261,9548.656652
3796.294563,229.828649,1406.391290,9548.656652
3796.294878,-306.438199,296.082377,9548.656652
3796.295193,-306.438199,-0.000000,10362.883188
3796.295508,-536.266849,-0.000000,9992.780217
3796.295823,-153.219100,518.144159,9178.553681
3796.296137,612.876398,666.185348,9400.615463
3796.296452,842.705048,-0.000000,9030.512492
3796.296767,612.876398,-592.164754,9992.780217
3796.297082,0.000000,-518.144159,10288.862594
3796.297397,-459.657299,-0.000000,10362.883188
3796.297712,459.657299,666.185348,9918.759623
3796.298027,1378.971896,740.205942,9400.615463
3796.298341,2145.067394,518.144159,9030.512492
3796.298656,2068.457845,-0.000000,9992.780217
3796.298971,1455.581446,370.102971,10362.883188
3796.299286,1302.362347,1036.288319,9622.677246
3796.299601,1608.800546,1702.473667,9030.512492
3796.299916,2374.896044,1332.370696,9178.553681
3796.300231,2298.286494,814.226536,9030.512492
3796.300546,1762.019645,222.061783,9474.636058
3796.300860,536.266849,-296.082377,9918.759623
3796.301175,0.000000,-814.226536,9918.759623
3796.301490,0.000000,-296.082377,9622.677246
3796.301805,76.609550,-74.020594,9548.656652
3796.302120,306.438199,-0.000000,9918.759623
3796.302435,153.219100,-740.205942,10066.800811
3796.302750,229.828649,-592.164754,10140.821405
3796.303065,0.000000,-370.102971,9992.780217
3796.303379,0.000000,666.185348,8882.471304
3796.303694,1455.581446,222.061783,8660.409521
3796.304009,1302.362347,-0.000000,8734.430116
3796.304324,459.657299,-74.020594,8882.471304
3796.304639,0.000000,-74.020594,9474.636058
3796.304954,-306.438199,-296.082377,9696.697840
3796.305269,-612.876398,370.102971,9474.636058
3796.305583,-306.438199,222.061783,9400.615463
3796.305898,0.000000,-0.000000,8808.450710
3796.306213,-842.705048,-962.267725,10658.965565
3796.306528,-1149.143247,-518.144159,10288.862594
3796.306843,-1302.362347,-888.247130,9252.574275
3796.307158,-1149.143247,-370.102971,9252.574275
3796.307473,0.000000,222.061783,9252.574275
3796.307788,459.657299,444.123565,8882.471304
3796.308102,153.219100,222.061783,9400.615463
3796.308417,-383.047749,-0.000000,9548.656652
3796.308732,-995.924147,222.061783,9400.615463
3796.309047,-459.657299,888.247130,8808.450710
3796.309362,0.000000,740.205942,9400.615463
3796.309677,229.828649,444.123565,9178.553681
3796.309992,-842.705048,-296.082377,9770.718434
3796.310307,-1302.362347,-148.041188,9844.739029
3796.310621,-1378.971896,-0.000000,9918.759623
3796.310936,-1532.190996,592.164754,9474.636058
3796.311251,-459.657299,-0.000000,9770.718434
3796.311566,-612.876398,-0.000000,9992.780217
3796.311881,-459.657299,148.041188,9770.718434
3796.312196,-842.705048,-0.000000,9992.780217
3796.312511,-1072.533697,-0.000000,10732.986159
3796.312825,-919.314598,740.205942,10066.800811
3796.313140,0.000000,1184.329507,9844.739029
3796.313455,842.705048,814.226536,9918.759623
3796.313770,766.095498,-0.000000,9696.697840
3796.314085,229.828649,222.061783,9770.718434
3796.314400,0.000000,740.205942,9548.656652
3796.314715,0.000000,666.185348,8956.491898
3796.315030,842.705048,814.226536,8660.409521
3796.315344,1302.362347,-0.000000,9030.512492
3796.315659,1072.533697,-814.226536,9548.656652
3796.315974,536.266849,-740.205942,10362.883188
3796.316289,-229.828649,-592.164754,10510.924376
3796.316604,0.000000,148.041188,10362.883188
3796.316919,536.266849,-0.000000,10214.842000
3796.317234,1608.800546,-0.000000,9770.718434
3796.317549,1532.190996,666.185348,9696.697840
3796.317863,1455.581446,888.247130,9844.739029
3796.318178,1378.971896,1258.350101,9548.656652
3796.318493,1608.800546,1184.329507,8808.450710
3796.318808,2374.896044,1406.391290,8882.471304
3796.319123,2451.505594,518.144159,8660.409521
3796.319438,1915.238745,-0.000000,9178.553681
3796.319753,689.485948,-666.185348,10658.965565
3796.320067,0.000000,-888.247130,11029.068536
3796.320382,-1072.533697,-814.226536,11177.109724
3796.320697,-919.314598,370.102971,10510.924376
3796.321012,306.438199,-74.020594,9474.636058
3796.321327,383.047749,-222.061783,9622.677246
3796.321642,306.438199,148.041188,9696.697840
3796.321957,0.000000,148.041188,9474.636058
3796.322272,0.000000,666.185348,8660.409521
3796.322586,536.266849,1258.350101,8290.306550
3796.322901,1532.190996,666.185348,8142.265362
3796.323216,612.876398,296.082377,9104.533087
3796.323531,0.000000,-518.144159,10140.821405
3796.323846,-1302.362347,-1184.329507,10066.800811
3796.324161,-1685.410096,-888.247130,10955.047942
3796.324476,-1762.019645,-0.000000,10288.862594
3796.324791,-1762.019645,-0.000000,9474.636058
3796.325105,-612.876398,-444.123565,10362.883188
3796.325420,-842.705048,-0.000000,10140.821405
3796.325735,-1302.362347,-444.123565,9770.718434
3796.326050,-612.876398,370.102971,9178.553681
3796.326365,-306.438199,814.226536,8586.388927
3796.326680,1225.752797,740.205942,8512.368333
3796.326995,1378.971896,518.144159,8290.306550
3796.327309,842.705048,-296.082377,9400.615463
3796.327624,76.609550,-370.102971,9474.636058
3796.327939,-919.314598,-0.000000,9548.656652
3796.328254,-1149.143247,-0.000000,9548.656652
3796.328569,-766.095498,592.164754,9326.594869
3796.328884,76.609550,296.082377,9474.636058
3796.329199,153.219100,-0.000000,9178.553681
3796.329514,0.000000,296.082377,9770.718434
3796.329828,-1072.533697,370.102971,9548.656652
3796.330143,-1149.143247,1258.350101,8882.471304
3796.330458,306.438199,888.247130,8882.471304
3796.330773,306.438199,370.102971,9548.656652
3796.331088,-383.047749,592.164754,10362.883188
3796.331403,-842.705048,-222.061783,10732.986159
3796.331718,-1608.800546,-0.000000,11251.130318
3796.332033,-1378.971896,740.205942,11251.130318
3796.332347,-536.266849,888.247130,10658.965565
3796.332662,689.485948,-0.000000,10140.821405
3796.332977,306.438199,-0.000000,10140.821405
3796.333292,536.266849,592.164754,9770.718434
3796.333607,766.095498,666.185348,9178.553681
3796.333922,842.705048,444.123565,8438.347739
3796.334237,1608.800546,888.247130,8438.347739
3796.334551,1838.629195,-74.020594,8142.265362
3796.334866,1532.190996,-814.226536,8882.471304
3796.335181,612.876398,-1406.391290,9844.739029
3796.335496,0.000000,-1184.329507,10066.800811
3796.335811,-536.266849,-518.144159,10140.821405
3796.336126,0.000000,-0.000000,10436.903782
3796.336441,919.314598,-222.061783,10732.986159
3796.336756,919.314598,370.102971,10140.821405
3796.337070,1225.752797,-370.102971,10066.800811
3796.337385,1302.362347,740.205942,9326.594869
3796.337700,1455.581446,1184.329507,8142.265362
3796.338015,2681.334243,1480.411884,7846.182985
3796.338330,3064.381992,962.267725,7920.203579
3796.338645,2298.286494,-148.041188,9400.615463
3796.338960,689.485948,-1258.350101,9696.697840
3796.339275,-306.438199,-962.267725,9548.656652
3796.339589,-1455.581446,-888.247130,9992.780217
3796.339904,-766.095498,-1184.329507,10658.965565
3796.340219,-689.485948,-814.226536,10658.965565
3796.340534,-536.266849,-1332.370696,10214.842000
3796.340849,-306.438199,-1036.288319,10510.924376
3796.341164,-383.047749,-370.102971,9474.636058
3796.341479,-153.219100,888.247130,8734.430116
3796.341793,1838.629195,1702.473667,8364.327145
3796.342108,2374.896044,1480.411884,7846.182985
3796.342423,1838.629195,666.185348,8068.244768
3796.342738,689.485948,-0.000000,9252.574275
3796.343053,0.000000,-0.000000,9918.759623
3796.343368,-1915.238745,-0.000000,9992.780217
3796.343683,-1532.190996,148.041188,10288.862594
3796.343998,-1302.362347,-444.123565,11251.130318
3796.344312,-1915.238745,-148.041188,10510.924376
3796.344627,-1608.800546,-1554.432478,11473.192101
3796.344942,-1532.190996,-518.144159,10140.821405
3796.345257,-1838.629195,740.205942,9844.739029
3796.345572,-229.828649,1332.370696,8142.265362
3796.345887,1225.752797,814.226536,7846.182985
3796.346202,1532.190996,814.226536,8216.285956
3796.346517,1149.143247,-222.061783,8512.368333
3796.346831,-229.828649,-222.061783,9252.574275
3796.347146,-1072.533697,74.020594,10436.903782
3796.347461,-1225.752797,592.164754,10584.944971
3796.347776,-459.657299,-0.000000,10436.903782
3796.348091,-689.485948,-222.061783,10658.965565
3796.348406,-919.314598,-370.102971,10658.965565
3796.348721,-995.924147,-0.000000,10436.903782
3796.349035,-995.924147,740.205942,9474.636058
3796.349350,0.000000,962.267725,8882.471304
3796.349665,995.924147,1480.411884,8142.265362
3796.349980,1378.971896,370.102971,8438.347739
3796.350295,919.314598,-0.000000,8660.409521
3796.350610,229.828649,-0.000000,9992.780217
3796.350925,0.000000,222.061783,11177.109724
3796.351240,-766.095498,740.205942,10955.047942
3796.351554,-383.047749,814.226536,10732.986159
3796.351869,0.000000,296.082377,10732.986159
3796.352184,0.000000,-0.000000,10214.842000
3796.352499,0.000000,222.061783,10955.047942
3796.352814,306.438199,740.205942,9178.553681
3796.353129,1455.581446,1850.514855,8512.368333
3796.353444,2528.115143,1332.370696,7328.038826
3796.353759,2604.724693,370.102971,8142.265362
3796.354073,1302.362347,-296.082377,8586.388927
3796.354388,1072.533697,-740.205942,9844.739029
3796.354703,0.000000,-296.082377,10362.883188
3796.355018,-536.266849,-222.061783,10584.944971
3796.355333,229.828649,-74.020594,10362.883188
3796.355648,306.438199,-296.082377,10362.883188
3796.355963,76.609550,-74.020594,11029.068536
3796.356277,0.000000,-0.000000,10658.965565
3796.356592,612.876398,1184.329507,8956.491898
3796.356907,1225.752797,1184.329507,8142.265362
3796.357222,2528.115143,1628.453072,8216.285956
3796.357537,3140.991542,666.185348,7698.141797
3796.357852,2145.067394,-0.000000,7920.203579
3796.358167,1072.533697,-666.185348,9326.594869
3796.358482,-842.705048,-518.144159,10214.842000
3796.358796,-1302.362347,-666.185348,10288.862594
3796.359111,-995.924147,-370.102971,10510.924376
3796.359426,-919.314598,-1036.288319,10362.883188
3796.359741,-1302.362347,-1406.391290,10807.006753
3796.360056,-1532.190996,-1332.370696,10732.986159
3796.360371,-1302.362347,-74.020594,9770.718434
3796.360686,-766.095498,814.226536,9030.512492
3796.361001,1072.533697,1110.308913,8068.244768
3796.361315,1915.238745,962.267725,7994.224174
3796.361630,1608.800546,518.144159,8364.327145
3796.361945,1149.143247,-148.041188,9770.718434
3796.362260,76.609550,-592.164754,9622.677246
3796.362575,-919.314598,222.061783,9474.636058
3796.362890,-842.705048,592.164754,10140.821405
3796.363205,-689.485948,-148.041188,10436.903782
3796.363519,-1455.581446,-666.185348,11177.109724
3796.363834,-1378.971896,-1184.329507,10584.944971
3796.364149,-1302.362347,-74.020594,10066.800811
3796.364464,-919.314598,518.144159,9326.594869
3796.364779,612.876398,1258.350101,9252.574275
3796.365094,1225.752797,962.267725,8364.327145
3796.365409,1378.971896,666.185348,8512.368333
3796.365724,689.485948,222.061783,8660.409521
3796.366038,612.876398,518.144159,9622.677246
3796.366353,-306.438199,444.123565,9400.615463
3796.366668,-459.657299,518.144159,10066.800811
3796.366983,-459.657299,518.144159,10510.924376
3796.367298,-995.924147,-0.000000,10140.821405
3796.367613,-1302.362347,-296.082377,10584.944971
3796.367928,-1302.362347,-814.226536,10140.821405
3796.368243,-842.705048,518.144159,9918.759623
3796.368557,229.828649,962.267725,9030.512492
3796.368872,842.705048,1258.350101,8808.450710
3796.369187,995.924147,666.185348,8808.450710
3796.369502,1302.362347,-0.000000,9104.533087
3796.369817,383.047749,296.082377,9178.553681
3796.370132,0.000000,370.102971,9474.636058
3796.370447,0.000000,444.123565,9622.677246
3796.370761,306.438199,592.164754,9918.759623
3796.371076,0.000000,-148.041188,9992.780217
3796.371391,-383.047749,-666.185348,10807.006753
3796.371706,-306.438199,-222.061783,10584.944971
3796.372021,-229.828649,592.164754,9696.697840
3796.372336,919.314598,1036.288319,9474.636058
3796.372651,2068.457845,962.267725,9030.512492
3796.372966,1838.629195,888.247130,8734.430116
3796.373280,1608.800546,592.164754,9252.574275
3796.373595,1378.971896,-0.000000,9770.718434
3796.373910,536.266849,-0.000000,9548.656652
3796.374225,536.266849,370.102971,9844.739029
3796.374540,612.876398,222.061783,10362.883188
3796.374855,153.219100,-148.041188,10362.883188
3796.375170,-536.266849,-444.123565,11399.171507
3796.375485,-459.657299,-148.041188,11325.150913
3796.375799,-383.047749,-296.082377,10510.924376
3796.376114,229.828649,888.247130,9474.636058
3796.376429,1455.581446,962.267725,8660.409521
3796.376744,1762.019645,592.164754,8216.285956
3796.377059,1915.238745,-370.102971,8808.450710
3796.377374,919.314598,-0.000000,9178.553681
3796.377689,153.219100,-0.000000,9104.533087
3796.378003,306.438199,444.123565,8734.430116
3796.378318,153.219100,-0.000000,9474.636058
3796.378633,0.000000,-592.164754,9844.739029
3796.378948,-1378.971896,-1184.329507,10584.944971
3796.379263,-2145.067394,-1406.391290,10510.924376
3796.379578,-2068.457845,-1184.329507,10362.883188
3796.379893,-1532.190996,-296.082377,9844.739029
3796.380208,0.000000,-0.000000,9474.636058
3796.380522,919.314598,222.061783,8734.430116
3796.380837,766.095498,-148.041188,8586.388927
3796.381152,459.657299,-0.000000,8882.471304
3796.381467,536.266849,666.185348,8660.409521
3796.381782,229.828649,814.226536,8290.306550
3796.382097,612.876398,148.041188,8808.450710
3796.382412,536.266849,-222.061783,9326.594869
3796.382726,0.000000,-962.267725,9696.697840
3796.383041,-1378.971896,-1332.370696,11029.068536
3796.383356,-1838.629195,-888.247130,9844.739029
3796.383671,-2145.067394,-444.123565,10214.842000
3796.383986,-306.438199,-370.102971,9474.636058
3796.384301,383.047749,-962.267725,9178.553681
3796.384616,766.095498,-444.123565,9104.533087
3796.384931,612.876398,-0.000000,10066.800811
3796.385245,76.609550,1184.329507,8734.430116
3796.385560,536.266849,814.226536,9252.574275
3796.385875,1149.143247,1406.391290,8956.491898
3796.386190,1302.362347,962.267725,9474.636058
3796.386505,536.266849,518.144159,9622.677246
3796.386820,-153.219100,370.102971,10066.800811
3796.387135,-919.314598,518.144159,11029.068536
3796.387449,-1302.362347,-0.000000,10214.842000
3796.387764,-689.485948,222.061783,10066.800811
3796.388079,76.609550,370.102971,9992.780217
3796.388394,-383.047749,-222.061783,10362.883188
3796.388709,-612.876398,-222.061783,9992.780217
3796.389024,-459.657299,740.205942,9992.780217
3796.389339,-536.266849,1332.370696,9474.636058
3796.389653,689.485948,1184.329507,9178.553681
3796.389968,1378.971896,1332.370696,9252.574275
3796.390283,689.485948,518.144159,9622.677246
3796.390598,383.047749,518.144159,10140.821405
3796.390913,0.000000,740.205942,9992.780217
3796.391228,0.000000,962.267725,9622.677246
3796.391543,536.266849,1258.350101,9548.656652
3796.391858,1455.581446,222.061783,9548.656652
3796.392172,766.095498,-0.000000,9696.697840
3796.392487,536.266849,-444.123565,10214.842000
3796.392802,-306.438199,-0.000000,9770.718434
3796.393117,-612.876398,296.082377,9770.718434
3796.393432,229.828649,518.144159,9474.636058
3796.393747,919.314598,444.123565,9770.718434
3796.394062,842.705048,-0.000000,9400.615463
3796.394376,842.705048,-0.000000,9992.780217
3796.394691,0.000000,444.123565,10288.862594
3796.395006,-306.438199,888.247130,9400.615463
3796.395321,229.828649,1332.370696,8956.491898
3796.395636,1455.581446,740.205942,9474.636058
3796.395951,1149.143247,-0.000000,9548.656652
3796.396266,459.657299,-444.123565,9992.780217
3796.396580,-306.438199,-0.000000,9918.759623
3796.396895,-383.047749,296.082377,9474.636058
3796.397210,0.000000,666.185348,9400.615463
3796.397525,383.047749,222.061783,9400.615463
3796.397840,229.828649,-740.205942,9474.636058
3796.398155,-536.266849,-1036.288319,10288.862594
3796.398470,-995.924147,-222.061783,10066.800811
3796.398785,-1378.971896,592.164754,9474.636058
3796.399099,-842.705048,222.061783,9696.697840
3796.399414,383.047749,-74.020594,9844.739029
3796.399729,536.266849,-148.041188,8956.491898
3796.400044,76.609550,-518.144159,9548.656652
3796.400359,-383.047749,-148.041188,9992.780217
3796.400674,-383.047749,444.123565,9252.574275
3796.400989,-229.828649,740.205942,9252.574275
3796.401303,459.657299,296.082377,8734.430116
3796.401618,459.657299,-444.123565,9178.553681
3796.401933,383.047749,-1036.288319,9474.636058
3796.402248,-383.047749,-1110.308913,9992.780217
3796.402563,-919.314598,-370.102971,9474.636058
3796.402878,-536.266849,-0.000000,9030.512492
3796.403193,0.000000,-444.123565,9474.636058
3796.403508,919.314598,-888.247130,9548.656652
3796.403822,306.438199,-740.205942,9474.636058
3796.404137,76.609550,-296.082377,9696.697840
3796.404452,-459.657299,296.082377,9696.697840
3796.404767,0.000000,814.226536,9696.697840
3796.405082,689.485948,518.144159,9548.656652
3796.405397,1685.410096,-148.041188,9104.533087
3796.405712,689.485948,-444.123565,9696.697840
3796.406026,229.828649,-518.144159,10066.800811
3796.406341,-383.047749,518.144159,9696.697840
3796.406656,-383.047749,888.247130,9474.636058
3796.406971,306.438199,-0.000000,9474.636058
3796.407286,306.438199,-0.000000,9030.512492
3796.407601,153.219100,-888.247130,9844.739029
3796.407916,-536.266849,-1184.329507,10362.883188
3796.408230,-995.924147,-740.205942,10288.862594
3796.408545,-459.657299,-0.000000,9844.739029
3796.408860,76.609550,370.102971,9622.677246
3796.409175,153.219100,518.144159,9770.718434
3796.409490,459.657299,370.102971,10066.800811
3796.409805,0.000000,370.102971,10066.800811
3796.410120,-536.266849,740.205942,9622.677246
3796.410435,0.000000,1110.308913,8956.491898
3796.410749,766.095498,962.267725,9030.512492
3796.411064,1072.533697,222.061783,9400.615463
3796.411379,766.095498,-740.205942,9548.656652
3796.411694,0.000000,-592.164754,9992.780217
3796.412009,-383.047749,444.123565,9992.780217
3796.412324,0.000000,222.061783,9474.636058
3796.412639,459.657299,-0.000000,9178.553681
3796.412953,689.485948,-74.020594,8956.491898
3796.413268,0.000000,-0.000000,9548.656652
3796.413583,-229.828649,-148.041188,9918.759623
3796.413898,-306.438199,370.102971,8808.450710
3796.414213,0.000000,1036.288319,8734.430116
3796.414528,842.705048,592.164754,9030.512492
3796.414843,1378.971896,1036.288319,8586.388927
3796.415157,689.485948,370.102971,9474.636058
3796.415472,229.828649,-0.000000,9696.697840
3796.415787,0.000000,222.061783,10658.965565
3796.416102,-689.485948,1258.350101,9918.759623
3796.416417,-306.438199,1258.350101,9622.677246
3796.416732,0.000000,740.205942,10214.842000
3796.417047,0.000000,-222.061783,10658.965565
3796.417362,-229.828649,-518.144159,11103.089130
3796.417676,-612.876398,-74.020594,9770.718434
3796.417991,-612.876398,814.226536,9400.615463
3796.418306,459.657299,666.185348,9474.636058
3796.418621,995.924147,518.144159,9178.553681
3796.418936,995.924147,-518.144159,9770.718434
3796.419251,0.000000,-444.123565,9992.780217
3796.419566,0.000000,-444.123565,10066.800811
3796.419880,-612.876398,370.102971,10140.821405
3796.420195,76.609550,814.226536,9918.759623
3796.420510,536.266849,888.247130,9844.739029
3796.420825,306.438199,-0.000000,9326.594869
3796.421140,689.485948,-444.123565,9844.739029
3796.421455,306.438199,-0.000000,9400.615463
3796.421770,-383.047749,444.123565,8512.368333
3796.422084,842.705048,1110.308913,8734.430116
3796.422399,612.876398,222.061783,8586.388927
3796.422714,229.828649,-296.082377,9400.615463
3796.423029,-689.485948,-962.267725,10584.944971
3796.423344,-919.314598,-1036.288319,11177.109724
3796.423659,-995.924147,-148.041188,10584.944971
3796.423974,0.000000,518.144159,9918.759623
3796.424289,842.705048,444.123565,9252.574275
3796.424603,919.314598,518.144159,9030.512492
3796.424918,1455.581446,518.144159,8660.409521
3796.425233,1072.533697,370.102971,8068.244768
3796.425548,1302.362347,888.247130,8068.244768
3796.425863,842.705048,1184.329507,7772.162391
3796.426178,1149.143247,148.041188,8364.327145
3796.426493,766.095498,-518.144159,9400.615463
3796.426807,-306.438199,-1628.453072,9918.759623
3796.427122,-1225.752797,-2072.576638,11177.109724
3796.427437,-1838.629195,-740.205942,10658.965565
3796.427752,-1608.800546,-0.000000,10881.027347
3796.428067,-153.219100,592.164754,10658.965565
3796.428382,459.657299,222.061783,10140.821405
3796.428697,306.438199,-0.000000,9548.656652
3796.429012,689.485948,370.102971,9548.656652
3796.429326,689.485948,1628.453072,8882.471304
3796.429641,1149.143247,1554.432478,8438.347739
3796.429956,1838.629195,1332.370696,8364.327145
3796.430271,1608.800546,148.041188,8734.430116
3796.430586,459.657299,-370.102971,9548.656652
3796.430901,-229.828649,-1184.329507,10881.027347
3796.431216,-2068.457845,-814.226536,10362.883188
3796.431530,-1838.629195,-296.082377,11029.068536
3796.431845,-766.095498,296.082377,10510.924376
3796.432160,-229.828649,-222.061783,10214.842000
3796.432475,-153.219100,-444.123565,9844.739029
3796.432790,0.000000,-0.000000,9770.718434
3796.433105,306.438199,888.247130,9474.636058
3796.433420,919.314598,1998.556043,8068.244768
3796.433734,1915.238745,2072.576638,8364.327145
3796.434049,1915.238745,814.226536,8882.471304
3796.434364,1608.800546,-444.123565,9844.739029
3796.434679,306.438199,-296.082377,10066.800811
3796.434994,-766.095498,-222.061783,10436.903782
3796.435309,-1762.019645,370.102971,10881.027347
3796.435624,-995.924147,-0.000000,11473.192101
3796.435939,-1149.143247,-0.000000,10140.821405
3796.436253,-1378.971896,-1036.288319,10658.965565
3796.436568,-153.219100,-740.205942,10881.027347
3796.436883,-689.485948,444.123565,9474.636058
3796.437198,153.219100,1332.370696,8290.306550
3796.437513,1455.581446,740.205942,8068.244768
3796.437828,1532.190996,740.205942,8512.368333
3796.438143,1991.848295,-0.000000,8808.450710
3796.438457,919.314598,-666.185348,9400.615463
3796.438772,0.000000,-592.164754,10140.821405
3796.439087,-842.705048,-0.000000,10510.924376
3796.439402,-766.095498,-296.082377,10436.903782
3796.439717,-383.047749,-444.123565,10288.862594
3796.440032,0.000000,-962.267725,10510.924376
3796.440347,-459.657299,-666.185348,9918.759623
3796.440661,-306.438199,-444.123565,9770.718434
3796.440976,383.047749,370.102971,8882.471304
3796.441291,842.705048,814.226536,7698.141797
3796.441606,1838.629195,444.123565,7994.224174
3796.441921,1225.752797,-74.020594,8734.430116
3796.442236,995.924147,-518.144159,9474.636058
3796.442551,306.438199,-592.164754,9918.759623
3796.442866,-536.266849,740.205942,9696.697840
3796.443180,-229.828649,592.164754,10362.883188
3796.443495,153.219100,518.144159,10288.862594
3796.443810,0.000000,-0.000000,9844.739029
3796.444125,0.000000,-222.061783,10214.842000
3796.444440,-306.438199,370.102971,9252.574275
3796.444755,76.609550,1110.308913,8290.306550
3796.445070,1072.533697,1258.350101,7994.224174
3796.445384,1838.629195,592.164754,7846.182985
3796.445699,1455.581446,-0.000000,7772.162391
3796.446014,306.438199,-370.102971,8586.388927
3796.446329,-383.047749,-296.082377,10214.842000
3796.446644,-1149.143247,-148.041188,10436.903782
3796.446959,-1762.019645,-0.000000,10658.965565
3796.447274,-536.266849,444.123565,10214.842000
3796.447588,-766.095498,74.020594,10584.944971
3796.447903,-306.438199,296.082377,10881.027347
3796.448218,76.609550,888.247130,9548.656652
3796.448533,0.000000,1184.329507,8142.265362
3796.448848,995.924147,1776.494261,8290.306550
3796.449163,1991.848295,1480.411884,7772.162391
3796.449478,1608.800546,444.123565,8734.430116
3796.449793,383.047749,-518.144159,10066.800811
3796.450107,-306.438199,-148.041188,11103.089130
3796.450422,-1532.190996,-296.082377,10955.047942
3796.450737,-1149.143247,-0.000000,11103.089130
3796.451052,-919.314598,-0.000000,11695.253884
3796.451367,-842.705048,-0.000000,11473.192101
3796.451682,-383.047749,-518.144159,11029.068536
3796.451997,-536.266849,370.102971,10288.862594
3796.452311,153.219100,1036.288319,9474.636058
3796.452626,1455.581446,1850.514855,8290.306550
3796.452941,2451.505594,1554.432478,7476.080014
3796.453256,2604.724693,444.123565,8808.450710
3796.453571,1608.800546,-592.164754,9474.636058
3796.453886,76.609550,-444.123565,9474.636058
3796.454201,-1072.533697,-296.082377,10732.986159
3796.454516,-1302.362347,-222.061783,11251.130318
3796.454830,-919.314598,-518.144159,10362.883188
3796.455145,-995.924147,-518.144159,11103.089130
3796.455460,-1302.362347,-1184.329507,11029.068536
3796.455775,-1149.143247,-592.164754,10510.924376
3796.456090,0.000000,370.102971,9178.553681
3796.456405,689.485948,1332.370696,8290.306550
3796.456720,1685.410096,1184.329507,7698.141797
3796.457034,2451.505594,444.123565,7624.121203
3796.457349,1532.190996,-666.185348,8364.327145
3796.457664,1455.581446,-370.102971,9178.553681
3796.457979,0.000000,-222.061783,9400.615463
3796.458294,-459.657299,-0.000000,9326.594869
3796.458609,0.000000,-518.144159,10140.821405
3796.458924,-153.219100,-444.123565,9992.780217
3796.459238,-919.314598,-1036.288319,9770.718434
3796.459553,-919.314598,-962.267725,10066.800811
3796.459868,-689.485948,-666.185348,9326.594869
3796.460183,0.000000,370.102971,8438.347739
3796.460498,1149.143247,370.102971,8734.430116
3796.460813,1378.971896,-370.102971,8438.347739
3796.461128,919.314598,-222.061783,8438.347739
3796.461443,689.485948,-148.041188,9400.615463
3796.461757,0.000000,-0.000000,9992.780217
3796.462072,-306.438199,666.185348,9918.759623
3796.462387,-459.657299,-0.000000,9622.677246
3796.462702,-229.828649,-74.020594,10066.800811
3796.463017,-383.047749,-518.144159,10510.924376
3796.463332,-459.657299,-518.144159,10658.965565
3796.463647,-995.924147,-148.041188,9770.718434
3796.463961,-766.095498,1036.288319,9030.512492
3796.464276,995.924147,1184.329507,8660.409521
3796.464591,1378.971896,888.247130,7624.121203
3796.464906,1149.143247,222.061783,8586.388927
3796.465221,766.095498,-0.000000,9474.636058
3796.465536,-306.438199,-296.082377,9696.697840
3796.465851,-919.314598,518.144159,10510.924376
3796.466165,-612.876398,666.185348,10732.986159
3796.466480,-612.876398,666.185348,10436.903782
3796.466795,-842.705048,370.102971,10881.027347
3796.467110,-1149.143247,592.164754,10881.027347
3796.467425,-766.095498,296.082377,10881.027347
3796.467740,-383.047749,1406.391290,9622.677246
3796.468055,536.266849,1776.494261,9104.533087
3796.468370,1685.410096,1258.350101,8734.430116
3796.468684,1225.752797,370.102971,8734.430116
3796.468999,995.924147,148.041188,9770.718434
3796.469314,306.438199,-74.020594,10066.800811
3796.469629,-153.219100,518.144159,9770.718434
3796.469944,153.219100,592.164754,9696.697840
3796.470259,76.609550,666.185348,9992.780217
3796.470574,-229.828649,-0.000000,10658.965565
3796.470888,-459.657299,-222.061783,10732.986159
3796.471203,-536.266849,-148.041188,10362.883188
3796.471518,-383.047749,518.144159,9474.636058
3796.471833,1149.143247,518.144159,9178.553681
3796.472148,1608.800546,740.205942,9030.512492
3796.472463,1455.581446,666.185348,8808.450710
3796.472778,919.314598,-148.041188,9474.636058
3796.473093,612.876398,-0.000000,9696.697840
3796.473407,306.438199,-148.041188,9474.636058
3796.473722,383.047749,370.102971,9326.594869
3796.474037,153.219100,-74.020594,9474.636058
3796.474352,-536.266849,-814.226536,10658.965565
3796.474667,-1149.143247,-1036.288319,10288.862594
3796.474982,-766.095498,-962.267725,9622.677246
3796.475297,-842.705048,-888.247130,9400.615463
3796.475611,306.438199,444.123565,9030.512492
3796.475926,1149.143247,-0.000000,8142.265362
3796.476241,842.705048,-518.144159,8586.388927
3796.476556,766.095498,-888.247130,9030.512492
3796.476871,383.047749,-888.247130,8956.491898
3796.477186,76.609550,-666.185348,9104.533087
3796.477501,229.828649,148.041188,9326.594869
3796.477815,153.219100,296.082377,8956.491898
3796.478130,306.438199,148.041188,9326.594869
3796.478445,-383.047749,-296.082377,9992.780217
3796.478760,-1072.533697,-592.164754,9992.780217
3796.479075,-919.314598,-444.123565,9474.636058
3796.479390,76.609550,-0.000000,9178.553681
3796.479705,842.705048,-74.020594,8586.388927
3796.480019,766.095498,444.123565,8808.450710
3796.480334,229.828649,-370.102971,9622.677246
3796.480649,0.000000,-0.000000,9548.656652
3796.480964,-459.657299,-0.000000,9844.739029
3796.481279,612.876398,666.185348,8660.409521
3796.481594,459.657299,444.123565,9474.636058
3796.481908,383.047749,370.102971,9474.636058
3796.482223,-306.438199,-222.061783,10288.862594
3796.482538,-536.266849,296.082377,9844.739029
3796.482853,-612.876398,370.102971,9918.759623
3796.483168,-229.828649,740.205942,9474.636058
3796.483483,612.876398,592.164754,9326.594869
3796.483798,689.485948,666.185348,9696.697840
3796.484112,536.266849,222.061783,10436.903782
3796.484427,-459.657299,-0.000000,10658.965565
3796.484742,-842.705048,148.041188,10807.006753
3796.485057,-306.438199,962.267725,10510.924376
3796.485372,0.000000,1184.329507,9770.718434
3796.485687,229.828649,962.267725,10066.800811
3796.486001,-229.828649,444.123565,9992.780217
3796.486316,-229.828649,222.061783,10881.027347
3796.486631,-536.266849,888.247130,9770.718434
3796.486946,-459.657299,370.102971,9252.574275
3796.487261,306.438199,222.061783,9400.615463
3796.487576,536.266849,-148.041188,9178.553681
3796.487890,0.000000,-296.082377,9992.780217
3796.488205,-229.828649,-814.226536,10214.842000
3796.488520,-919.314598,-518.144159,10362.883188
3796.488835,-229.828649,962.267725,9030.512492
3796.489150,842.705048,1258.350101,9030.512492
3796.489465,1072.533697,1036.288319,9400.615463
3796.489779,612.876398,296.082377,9474.636058
3796.490094,0.000000,444.123565,9474.636058
3796.490409,0.000000,-0.000000,9622.677246
3796.490724,0.000000,592.164754,9474.636058
3796.491039,919.314598,740.205942,9178.553681
3796.491354,1225.752797,518.144159,8882.471304
3796.491668,459.657299,-0.000000,9474.636058
3796.491983,0.000000,-222.061783,9622.677246
3796.492298,-689.485948,-296.082377,9548.656652
3796.492613,-612.876398,-0.000000,9548.656652
3796.492928,153.219100,-0.000000,9400.615463
3796.493243,459.657299,-0.000000,8660.409521
3796.493557,0.000000,-740.205942,9326.594869
3796.493872,0.000000,-666.185348,9696.697840
3796.494187,-536.266849,-740.205942,9474.636058
3796.494502,0.000000,222.061783,9030.512492
3796.494817,612.876398,592.164754,9474.636058
3796.495132,1455.581446,518.144159,8956.491898
3796.495446,536.266849,222.061783,9178.553681
3796.495761,459.657299,-666.185348,10140.821405
3796.496076,-229.828649,-666.185348,10288.862594
3796.496391,-766.095498,296.082377,9770.718434
3796.496706,0.000000,518.144159,9696.697840
3796.497021,766.095498,222.061783,9548.656652
3796.497335,459.657299,-0.000000,9992.780217
3796.497650,-459.657299,-518.144159,9992.780217
3796.497965,-612.876398,-518.144159,9770.718434
3796.498280,-229.828649,148.041188,9622.677246
3796.498595,306.438199,592.164754,8882.471304
3796.498910,1302.362347,518.144159,9030.512492
3796.499224,919.314598,-0.000000,9178.553681
3796.499539,689.485948,-296.082377,9696.697840
3796.499854,229.828649,-0.000000,9918.759623
3796.500169,0.000000,666.185348,9696.697840
3796.500484,0.000000,666.185348,9474.636058
3796.500799,459.657299,740.205942,9770.718434
3796.501113,689.485948,444.123565,9474.636058
3796.501428,612.876398,-0.000000,9844.739029
3796.501743,153.219100,444.123565,9696.697840
3796.502058,0.000000,1036.288319,9770.718434
3796.502373,0.000000,1406.391290,8882.471304
3796.502688,383.047749,666.185348,8882.471304
3796.503002,612.876398,-74.020594,9252.574275
3796.503317,-306.438199,-444.123565,10584.944971
3796.503632,-1225.752797,-222.061783,11399.171507
3796.503947,-1455.581446,-0.000000,10066.800811
3796.504262,-1302.362347,592.164754,10436.903782
3796.504577,-229.828649,518.144159,9992.780217
3796.504891,0.000000,444.123565,9696.697840
3796.505206,0.000000,-0.000000,10066.800811
3796.505521,383.047749,592.164754,9326.594869
3796.505836,0.000000,962.267725,8956.491898
3796.506151,459.657299,1480.411884,8660.409521
3796.506466,842.705048,740.205942,8660.409521
3796.506780,612.876398,-74.020594,9326.594869
3796.507095,-459.657299,-1184.329507,9992.780217
3796.507410,-766.095498,-962.267725,10288.862594
3796.507725,-1532.190996,-444.123565,9844.739029
3796.508040,-1302.362347,-0.000000,9844.739029
3796.508355,-306.438199,-0.000000,10807.006753
3796.508669,-919.314598,-444.123565,9400.615463
3796.508984,-306.438199,-74.020594,10140.821405
3796.509299,0.000000,222.061783,9474.636058
3796.509614,0.000000,518.144159,9104.533087
3796.509929,689.485948,962.267725,8438.347739
3796.510244,1532.190996,370.102971,8512.368333
3796.510558,1378.971896,518.144159,8956.491898
3796.510873,995.924147,-74.020594,9474.636058
3796.511188,0.000000,-370.102971,9696.697840
3796.511503,-842.705048,-370.102971,10955.047942
3796.511818,-306.438199,370.102971,9844.739029
3796.512133,0.000000,-0.000000,9844.739029
3796.512447,612.876398,-444.123565,10066.800811
3796.512762,76.609550,-370.102971,10362.883188
3796.513077,153.219100,-518.144159,9474.636058
3796.513392,0.000000,148.041188,8882.471304
3796.513707,612.876398,888.247130,8512.368333
3796.514022,1762.019645,-0.000000,8734.430116
3796.514337,1991.848295,-74.020594,8808.450710
3796.514651,1149.143247,-666.185348,9400.615463
3796.514966,383.047749,-592.164754,10066.800811
3796.515281,0.000000,-148.041188,10658.965565
3796.515596,-383.047749,592.164754,10288.862594
3796.515911,459.657299,370.102971,10066.800811
3796.516226,919.314598,-0.000000,9844.739029
3796.516540,689.485948,-296.082377,9548.656652
3796.516855,842.705048,-0.000000,9622.677246
3796.517170,0.000000,296.082377,8512.368333
3796.517485,383.047749,370.102971,8216.285956
3796.517800,995.924147,-0.000000,8142.265362
3796.518115,1378.971896,-370.102971,8142.265362
3796.518429,689.485948,-1258.350101,9548.656652
3796.518744,76.609550,-1258.350101,10584.944971
3796.519059,-766.095498,-222.061783,10955.047942
3796.519374,-919.314598,-0.000000,10288.862594
3796.519689,-306.438199,740.205942,9844.739029
3796.520004,383.047749,888.247130,9992.780217
3796.520318,459.657299,370.102971,9622.677246
3796.520633,842.705048,370.102971,9696.697840
3796.520948,0.000000,592.164754,8956.491898
3796.521263,0.000000,962.267725,8586.388927
3796.521578,612.876398,1258.350101,8142.265362
3796.521893,766.095498,518.144159,8660.409521
3796.522207,76.609550,-814.226536,9548.656652
3796.522522,-995.924147,-1554.432478,9992.780217
3796.522837,-2221.676944,-888.247130,10807.006753
3796.523152,-2374.896044,-0.000000,10955.047942
3796.523467,-1225.752797,1036.288319,10362.883188
3796.523782,-536.266849,1110.308913,10510.924376
3796.524096,-306.438199,592.164754,9770.718434
3796.524411,-229.828649,666.185348,9918.759623
3796.524726,-306.438199,1406.391290,8808.450710
3796.525041,306.438199,1406.391290,8956.491898
3796.525356,842.705048,1924.535449,8586.388927
3796.525671,1225.752797,1406.391290,9104.533087
3796.525985,306.438199,518.144159,9178.553681
3796.526300,-459.657299,-222.061783,11029.068536
3796.526615,-1302.362347,-444.123565,11325.150913
3796.526930,-2221.676944,-0.000000,11177.109724
3796.527245,-1532.190996,740.205942,10881.027347
3796.527560,-766.095498,222.061783,10584.944971
3796.527874,-536.266849,-74.020594,10510.924376
3796.528189,-306.438199,-74.020594,10658.965565
3796.528504,-153.219100,370.102971,9992.780217
3796.528819,229.828649,1406.391290,8660.409521
3796.529134,1302.362347,1406.391290,8290.306550
3796.529449,2604.724693,1258.350101,8290.306550
3796.529763,2528.115143,296.082377,7994.224174
3796.530078,919.314598,-592.164754,9622.677246
3796.530393,0.000000,-962.267725,10658.965565
3796.530708,-1072.533697,-444.123565,10436.903782
3796.531023,-612.876398,-518.144159,11029.068536
3796.531338,0.000000,-518.144159,10510.924376
3796.531652,-229.828649,-592.164754,10510.924376
3796.531967,-229.828649,-814.226536,10807.006753
3796.532282,76.609550,-222.061783,10288.862594
3796.532597,383.047749,222.061783,9178.553681
3796.532912,1455.581446,962.267725,7772.162391
3796.533227,2528.115143,518.144159,7402.059420
3796.533541,2145.067394,-0.000000,7920.203579
3796.533856,1685.410096,-814.226536,9030.512492
3796.534171,766.095498,-1258.350101,9474.636058
3796.534486,-536.266849,-1258.350101,9992.780217
3796.534801,-612.876398,-296.082377,10214.842000
3796.535116,0.000000,-518.144159,9992.780217
3796.535430,153.219100,-444.123565,9252.574275
3796.535745,-459.657299,-592.164754,10066.800811
3796.536060,-306.438199,-444.123565,9770.718434
3796.536375,0.000000,-0.000000,9104.533087
3796.536690,689.485948,814.226536,8142.265362
3796.537005,2068.457845,740.205942,7624.121203
3796.537319,1991.848295,222.061783,7772.162391
3796.537634,1378.971896,-74.020594,8660.409521
3796.537949,306.438199,-518.144159,9918.759623
3796.538264,-766.095498,-444.123565,10214.842000
3796.538579,-1455.581446,-0.000000,9844.739029
3796.538894,-612.876398,740.205942,10362.883188
3796.539208,-306.438199,444.123565,9770.718434
3796.539523,-842.705048,296.082377,9696.697840
3796.539838,-995.924147,-370.102971,9992.780217
3796.540153,-766.095498,-74.020594,9400.615463
3796.540468,0.000000,1036.288319,8586.388927
3796.540783,919.314598,1036.288319,7846.182985
3796.541097,1149.143247,666.185348,8142.265362
3796.541412,0.000000,296.082377,9030.512492
3796.541727,-306.438199,-444.123565,10436.903782
3796.542042,-1225.752797,-296.082377,10732.986159
3796.542357,-1762.019645,148.041188,11103.089130
3796.542672,-1225.752797,592.164754,10881.027347
3796.542987,-1149.143247,666.185348,11251.130318
3796.543301,-842.705048,296.082377,11473.192101
3796.543616,-766.095498,222.061783,10881.027347
3796.543931,-383.047749,1332.370696,9844.739029
3796.544246,229.828649,1702.473667,8734.430116
3796.544561,1915.238745,2072.576638,8512.368333
3796.544876,2298.286494,1184.329507,7994.224174
3796.545190,1608.800546,-0.000000,8734.430116
3796.545505,612.876398,-148.041188,9474.636058
3796.545820,-536.266849,-74.020594,10362.883188
3796.546135,-1225.752797,-0.000000,10584.944971
3796.546450,-536.266849,-0.000000,10955.047942
3796.546765,-842.705048,296.082377,10881.027347
3796.547079,-1225.752797,-74.020594,10881.027347
3796.547394,-1225.752797,296.082377,10658.965565
3796.547709,-919.314598,-0.000000,9992.780217
3796.548024,306.438199,1036.288319,9548.656652
3796.548339,1608.800546,1702.473667,8512.368333
3796.548654,2451.505594,1924.535449,7698.141797
3796.548968,1915.238745,666.185348,8438.347739
3796.549283,1685.410096,370.102971,9326.594869
3796.549598,689.485948,-74.020594,9844.739029
3796.549913,76.609550,-0.000000,9844.739029
3796.550228,-153.219100,-296.082377,10140.821405
3796.550543,76.609550,-148.041188,9696.697840
3796.550857,-459.657299,-518.144159,10066.800811
3796.551172,-766.095498,-1036.288319,10140.821405
3796.551487,-689.485948,-1036.288319,9918.759623
3796.551802,-383.047749,-148.041188,8438.347739
3796.552117,1455.581446,296.082377,7920.203579
3796.552432,1532.190996,-222.061783,8142.265362
3796.552746,1838.629195,-74.020594,8586.388927
3796.553061,995.924147,-518.144159,9104.533087
3796.553376,536.266849,-592.164754,9622.677246
3796.553691,0.000000,-370.102971,10214.842000
3796.554006,0.000000,-222.061783,9844.739029
3796.554321,766.095498,-222.061783,10732.986159
3796.554635,612.876398,-296.082377,10436.903782
3796.554950,-383.047749,-518.144159,10362.883188
3796.555265,-153.219100,-518.144159,9918.759623
3796.555580,-229.828649,-666.185348,9474.636058
3796.555895,995.924147,444.123565,8882.471304
3796.556210,1915.238745,-222.061783,8290.306550
3796.556524,1685.410096,-222.061783,7994.224174
3796.556839,1072.533697,-518.144159,8882.471304
3796.557154,306.438199,-814.226536,9622.677246
3796.557469,-689.485948,-444.123565,10066.800811
3796.557784,0.000000,-0.000000,9622.677246
3796.558099,153.219100,-0.000000,9474.636058
3796.558413,-306.438199,-74.020594,10066.800811
3796.558728,-536.266849,148.041188,10881.027347
3796.559043,-1302.362347,-444.123565,11325.150913
3796.559358,-1302.362347,444.123565,9770.718434
3796.559673,-229.828649,1406.391290,8956.491898
3796.559988,842.705048,1554.432478,8660.409521
3796.560302,919.314598,592.164754,8512.368333
3796.560617,612.876398,-0.000000,9326.594869
3796.560932,-459.657299,-592.164754,9474.636058
3796.561247,-995.924147,-296.082377,9770.718434
3796.561562,-1149.143247,666.185348,9474.636058
3796.561877,-306.438199,148.041188,9844.739029
3796.562191,-383.047749,-0.000000,10362.883188
3796.562506,-1225.752797,-0.000000,10066.800811
3796.562821,-1149.143247,-0.000000,10584.944971
3796.563136,-842.705048,296.082377,10288.862594
3796.563451,-229.828649,1036.288319,8734.430116
3796.563766,1302.362347,1406.391290,8512.368333
3796.564080,1685.410096,1184.329507,8216.285956
3796.564395,1378.971896,444.123565,9326.594869
3796.564710,689.485948,444.123565,9326.594869
3796.565025,0.000000,666.185348,9474.636058
3796.565340,-229.828649,1036.288319,10140.821405
3796.565655,76.609550,1110.308913,9474.636058
3796.565969,306.438199,222.061783,10362.883188
3796.566284,-459.657299,-74.020594,11103.089130
3796.566599,-536.266849,-444.123565,10510.924376
3796.566914,-766.095498,-0.000000,10140.821405
3796.567229,0.000000,1258.350101,9252.574275
3796.567544,1378.971896,1036.288319,9474.636058
3796.567858,2145.067394,666.185348,8660.409521
3796.568173,1915.238745,592.164754,8660.409521
3796.568488,1302.362347,888.247130,9252.574275
3796.568803,536.266849,814.226536,9844.739029
3796.569118,536.266849,1184.329507,9474.636058
3796.569433,766.095498,962.267725,10510.924376
3796.569747,383.047749,148.041188,10436.903782
3796.570062,-153.219100,-222.061783,11103.089130
3796.570377,-1149.143247,-0.000000,11473.192101
3796.570692,-842.705048,-148.041188,10732.986159
3796.571007,-766.095498,518.144159,10140.821405
3796.571322,383.047749,518.144159,9474.636058
3796.571636,1455.581446,370.102971,8882.471304
3796.571951,1072.533697,-148.041188,8808.450710
3796.572266,1149.143247,-222.061783,8956.491898
3796.572581,612.876398,-296.082377,9030.512492
3796.572896,306.438199,592.164754,9104.533087
3796.573211,76.609550,444.123565,9326.594869
3796.573526,842.705048,-74.020594,9252.574275
3796.573840,76.609550,-666.185348,10214.842000
3796.574155,-383.047749,-518.144159,10362.883188
3796.574470,-689.485948,-666.185348,10288.862594
3796.574785,-689.485948,-0.000000,10140.821405
3796.575100,0.000000,222.061783,9400.615463
3796.575415,919.314598,-0.000000,8956.491898
3796.575729,766.095498,-370.102971,8882.471304
3796.576044,536.266849,-888.247130,9252.574275
3796.576359,229.828649,222.061783,9474.636058
3796.576674,-612.876398,370.102971,8956.491898
3796.576989,0.000000,518.144159,9400.615463
3796.577304,0.000000,-0.000000,9622.677246
3796.577618,-229.828649,-592.164754,10066.800811
3796.577933,-383.047749,-518.144159,10140.821405
3796.578248,-1302.362347,-888.247130,9918.759623
3796.578562,-1378.971896,-74.020594,9400.615463
3796.578877,-383.047749,740.205942,9252.574275
3796.579192,306.438199,444.123565,9474.636058
3796.579506,-306.438199,-444.123565,9474.636058
3796.579821,-306.438199,-592.164754,10066.800811
3796.580136,-229.828649,-296.082377,9548.656652
3796.580450,-689.485948,222.061783,9696.697840
3796.580765,153.219100,1406.391290,9252.574275
3796.581080,229.828649,592.164754,9178.553681
3796.581394,0.000000,-0.000000,9400.615463
3796.581709,-536.266849,-222.061783,10362.883188
3796.582024,-1149.143247,-74.020594,10362.883188
3796.582339,-842.705048,-74.020594,10066.800811
3796.582653,-766.095498,-0.000000,9770.718434
3796.582968,612.876398,370.102971,8956.491898
3796.583283,612.876398,-592.164754,9918.759623
3796.583597,459.657299,-666.185348,9474.636058
3796.583912,0.000000,-370.102971,9548.656652
3796.584227,0.000000,518.144159,9400.615463
3796.584541,459.657299,1110.308913,8882.471304
3796.584856,1149.143247,962.267725,9252.574275
3796.585171,995.924147,-74.020594,9326.594869
3796.585485,842.705048,-296.082377,9918.759623
3796.585800,153.219100,-814.226536,9844.739029
3796.586115,-153.219100,-0.000000,9770.718434
3796.586430,153.219100,1036.288319,10288.862594
3796.586744,612.876398,740.205942,9474.636058
3796.587059,919.314598,-74.020594,9326.594869
3796.587374,995.924147,-74.020594,9844.739029
3796.587688,459.657299,-74.020594,9844.739029
3796.588003,153.219100,666.185348,10140.821405
3796.588318,459.657299,666.185348,9400.615463
3796.588632,842.705048,1110.308913,9178.553681
3796.588947,1302.362347,222.061783,9178.553681
3796.589262,612.876398,-666.185348,9770.718434
3796.589576,306.438199,-370.102971,11103.089130
3796.589891,0.000000,518.144159,10436.903782
3796.590206,-689.485948,1850.514855,9400.615463
3796.590520,306.438199,1184.329507,9252.574275
3796.590835,612.876398,296.082377,9474.636058
3796.591150,919.314598,-444.123565,9548.656652
3796.591465,229.828649,-740.205942,10140.821405
3796.591779,-995.924147,-0.000000,9992.780217
3796.592094,0.000000,888.247130,9400.615463
3796.592409,383.047749,1850.514855,8734.430116
3796.592723,1225.752797,814.226536,8660.409521
3796.593038,842.705048,-0.000000,9474.636058
3796.593353,0.000000,-518.144159,9548.656652
3796.593667,-612.876398,-0.000000,9770.718434
3796.593982,-1072.533697,740.205942,9400.615463
3796.594297,-306.438199,592.164754,9104.533087
3796.594611,0.000000,-0.000000,9178.553681
3796.594926,-612.876398,-592.164754,9474.636058
3796.595241,-766.095498,-740.205942,10214.842000
3796.595556,-1225.752797,-518.144159,9918.759623
3796.595870,-1685.410096,666.185348,9844.739029
3796.596185,-689.485948,814.226536,9696.697840
3796.596500,459.657299,370.102971,9030.512492
3796.596814,76.609550,370.102971,9622.677246
3796.597129,0.000000,-370.102971,10066.800811
3796.597444,-689.485948,-370.102971,10066.800811
3796.597758,-1072.533697,296.082377,9178.553681
3796.598073,0.000000,962.267725,9400.615463
3796.598388,536.266849,740.205942,8956.491898
3796.598702,306.438199,-74.020594,9548.656652
3796.599017,0.000000,-1184.329507,10140.821405
3796.599332,-766.095498,-740.205942,10140.821405
3796.599646,-1072.533697,-0.000000,9696.697840
3796.599961,0.000000,888.247130,9474.636058
3796.600276,306.438199,148.041188,9918.759623
3796.600591,153.219100,-0.000000,10288.862594
3796.600905,76.609550,-74.020594,10066.800811
3796.601220,76.609550,370.102971,9696.697840
3796.601535,0.000000,888.247130,9548.656652
3796.601849,842.705048,1628.453072,8882.471304
3796.602164,1685.410096,1332.370696,9326.594869
3796.602479,1378.971896,-0.000000,9252.574275
3796.602793,842.705048,-740.205942,9992.780217
3796.603108,76.609550,-592.164754,10214.842000
3796.603423,-383.047749,518.144159,9918.759623
3796.603737,153.219100,666.185348,9918.759623
3796.604052,612.876398,-0.000000,9252.574275
3796.604367,459.657299,-222.061783,9696.697840
3796.604682,459.657299,-740.205942,9844.739029
3796.604996,383.047749,-962.267725,9474.636058
3796.605311,383.047749,-0.000000,9474.636058
3796.605626,766.095498,1110.308913,8216.285956
3796.605940,1532.190996,148.041188,8660.409521
3796.606255,1608.800546,-0.000000,9178.553681
3796.606570,842.705048,-370.102971,10140.821405
3796.606884,76.609550,-518.144159,9622.677246
3796.607199,-306.438199,-148.041188,9992.780217
3796.607514,-229.828649,222.061783,9992.780217
3796.607828,536.266849,-222.061783,9474.636058
3796.608143,0.000000,-962.267725,9474.636058
3796.608458,-229.828649,-1110.308913,9844.739029
3796.608772,-612.876398,-962.267725,9622.677246
3796.609087,-842.705048,-222.061783,8956.491898
3796.609402,76.609550,148.041188,8734.430116
3796.609717,842.705048,-0.000000,8882.471304
3796.610031,612.876398,-370.102971,8586.388927
3796.610346,0.000000,-888.247130,9548.656652
3796.610661,-383.047749,-814.226536,10140.821405
3796.610975,-306.438199,-74.020594,9918.759623
3796.611290,0.000000,888.247130,10140.821405
3796.611605,612.876398,814.226536,9474.636058
3796.611919,383.047749,592.164754,9474.636058
3796.612234,459.657299,666.185348,9400.615463
3796.612549,0.000000,444.123565,9770.718434
3796.612863,0.000000,740.205942,8586.388927
3796.613178,306.438199,1110.308913,8216.285956
3796.613493,689.485948,666.185348,8660.409521
3796.613808,0.000000,-0.000000,9474.636058
3796.614122,-1302.362347,-296.082377,10732.986159
3796.614437,-842.705048,-518.144159,11103.089130
3796.614752,-1915.238745,-0.000000,10658.965565
3796.615066,-1072.533697,962.267725,10140.821405
3796.615381,0.000000,1332.370696,10140.821405
3796.615696,383.047749,1332.370696,9326.594869
3796.616010,306.438199,1258.350101,9918.759623
3796.616325,0.000000,1480.411884,9400.615463
3796.616640,153.219100,2072.576638,9104.533087
3796.616954,1225.752797,2220.617826,8364.327145
3796.617269,1378.971896,1184.329507,8808.450710
3796.617584,1302.362347,592.164754,9474.636058
3796.617898,0.000000,-444.123565,10362.883188
3796.618213,-1149.143247,-1036.288319,11399.171507
3796.618528,-1608.800546,-740.205942,11917.315666
3796.618843,-1608.800546,-0.000000,11177.109724
3796.619157,-459.657299,370.102971,10288.862594
3796.619472,229.828649,-0.000000,10066.800811
3796.619787,536.266849,-148.041188,10066.800811
3796.620101,612.876398,518.144159,9696.697840
3796.620416,612.876398,888.247130,9030.512492
3796.620731,1608.800546,740.205942,8512.368333
3796.621045,2221.676944,1332.370696,8364.327145
3796.621360,2374.896044,666.185348,8512.368333
3796.621675,1225.752797,-222.061783,9548.656652
3796.621989,459.657299,-666.185348,11251.130318
3796.622304,-919.314598,-592.164754,10732.986159
3796.622619,-919.314598,-666.185348,10658.965565
3796.622934,-229.828649,74.020594,10584.944971
3796.623248,0.000000,-518.144159,10436.903782
3796.623563,76.609550,-1406.391290,10214.842000
3796.623878,0.000000,-592.164754,10214.842000
3796.624192,0.000000,222.061783,8734.430116
3796.624507,459.657299,1036.288319,7476.080014
3796.624822,1762.019645,1628.453072,7402.059420
3796.625136,1838.629195,518.144159,7550.100608
3796.625451,1302.362347,-370.102971,8364.327145
3796.625766,536.266849,-740.205942,9178.553681
3796.626080,-459.657299,-370.102971,9548.656652
3796.626395,-995.924147,-222.061783,9992.780217
3796.626710,-919.314598,-0.000000,9992.780217
3796.627024,-153.219100,-222.061783,9770.718434
3796.627339,-459.657299,-592.164754,10214.842000
3796.627654,-766.095498,-740.205942,9918.759623
3796.627969,-995.924147,-592.164754,9696.697840
3796.628283,-383.047749,592.164754,8364.327145
3796.628598,689.485948,888.247130,7772.162391
3796.628913,1455.581446,592.164754,7402.059420
3796.629227,1225.752797,-592.164754,8364.327145
3796.629542,383.047749,-1332.370696,9474.636058
3796.629857,-689.485948,-1184.329507,10066.800811
3796.630171,-1149.143247,-370.102971,10066.800811
3796.630486,-995.924147,-74.020594,10436.903782
3796.630801,0.000000,-0.000000,10510.924376
3796.631115,-153.219100,-148.041188,10288.862594
3796.631430,-306.438199,-814.226536,10658.965565
3796.631745,0.000000,-0.000000,9696.697840
3796.632060,-459.657299,1036.288319,8808.450710
3796.632374,1072.533697,1924.535449,7550.100608
3796.632689,2145.067394,1036.288319,8586.388927
3796.633004,1685.410096,888.247130,8068.244768
3796.633318,689.485948,-592.164754,10066.800811
3796.633633,-842.705048,-222.061783,10807.006753
3796.633948,-1762.019645,-222.061783,11177.109724
3796.634262,-1762.019645,592.164754,10510.924376
3796.634577,-995.924147,-0.000000,11251.130318
3796.634892,-995.924147,148.041188,11325.150913
3796.635206,-1072.533697,-74.020594,11399.171507
3796.635521,-766.095498,222.061783,9992.780217
3796.635836,-842.705048,888.247130,9474.636058
3796.636150,76.609550,2368.659014,8216.285956
3796.636465,1685.410096,1924.535449,7698.141797
3796.636780,1991.848295,1110.308913,7994.224174
3796.637095,995.924147,-74.020594,9622.677246
3796.637409,-153.219100,-222.061783,10066.800811
3796.637724,-1378.971896,-0.000000,9844.739029
3796.638039,-1378.971896,296.082377,10807.006753
3796.638353,-459.657299,296.082377,10436.903782
3796.638668,-229.828649,-0.000000,10658.965565
3796.638983,-306.438199,-222.061783,10658.965565
3796.639297,-229.828649,74.020594,9918.759623
3796.639612,0.000000,1110.308913,9104.533087
3796.639927,1225.752797,1998.556043,7698.141797
3796.640241,2451.505594,1776.494261,7846.182985
3796.640556,2451.505594,296.082377,7772.162391
3796.640871,1608.800546,-296.082377,8512.368333
3796.641186,766.095498,-740.205942,9622.677246
3796.641500,-153.219100,-592.164754,10140.821405
3796.641815,-536.266849,-370.102971,10807.006753
3796.642130,0.000000,-74.020594,11103.089130
3796.642444,459.657299,-444.123565,10658.965565
3796.642759,0.000000,-592.164754,10214.842000
3796.643074,0.000000,-370.102971,9770.718434
3796.643388,0.000000,888.247130,9252.574275
3796.643703,995.924147,1480.411884,8142.265362
3796.644018,2451.505594,1036.288319,7624.121203
3796.644332,2604.724693,444.123565,7772.162391
3796.644647,1608.800546,-518.144159,8882.471304
3796.644962,612.876398,-1110.308913,9696.697840
3796.645276,-766.095498,-518.144159,10362.883188
3796.645591,-689.485948,-370.102971,11103.089130
3796.645906,-306.438199,-0.000000,10881.027347
3796.646221,-536.266849,-222.061783,10881.027347
3796.646535,-919.314598,-518.144159,11103.089130
3796.646850,-612.876398,-592.164754,10955.047942
3796.647165,-1378.971896,-0.000000,9844.739029
3796.647479,-306.438199,518.144159,8364.327145
3796.647794,1149.143247,888.247130,8068.244768
3796.648109,1991.848295,592.164754,8142.265362
3796.648423,1685.410096,-0.000000,8808.450710
3796.648738,536.266849,-1110.308913,9178.553681
3796.649053,-536.266849,-0.000000,9992.780217
3796.649367,-995.924147,-0.000000,9992.780217
3796.649682,-383.047749,-74.020594,10214.842000
3796.649997,383.047749,74.020594,9918.759623
3796.650312,-383.047749,-0.000000,10288.862594
3796.650626,-689.485948,-222.061783,10362.883188
3796.650941,-766.095498,-0.000000,9548.656652
3796.651256,0.000000,962.267725,8660.409521
3796.651570,766.095498,1332.370696,8290.306550
3796.651885,1685.410096,814.226536,8068.244768
3796.652200,1149.143247,-296.082377,9030.512492
3796.652514,383.047749,-370.102971,9992.780217
3796.652829,-612.876398,-370.102971,10066.800811
3796.653144,-842.705048,-444.123565,10510.924376
3796.653458,-766.095498,888.247130,9548.656652
3796.653773,0.000000,592.164754,9844.739029
3796.654088,-383.047749,-0.000000,10362.883188
3796.654402,-842.705048,-0.000000,10510.924376
3796.654717,-536.266849,-0.000000,10214.842000
3796.655032,-1149.143247,888.247130,9400.615463
3796.655347,0.000000,1480.411884,8808.450710
3796.655661,1072.533697,592.164754,8512.368333
3796.655976,766.095498,-518.144159,9104.533087
3796.656291,459.657299,-666.185348,9104.533087
3796.656605,-612.876398,-814.226536,10214.842000
3796.656920,-1455.581446,-0.000000,10362.883188
3796.657235,-842.705048,888.247130,10214.842000
3796.657549,76.609550,814.226536,10584.944971
3796.657864,0.000000,-0.000000,10140.821405
3796.658179,76.609550,-0.000000,10881.027347
3796.658493,-383.047749,814.226536,9474.636058
3796.658808,-766.095498,518.144159,9400.615463
3796.659123,766.095498,962.267725,8808.450710
3796.659438,1685.410096,666.185348,8586.388927
3796.659752,1608.800546,1036.288319,7476.080014
3796.660067,1149.143247,-0.000000,8660.409521
3796.660382,689.485948,-222.061783,9770.718434
3796.660696,0.000000,-148.041188,9474.636058
3796.661011,0.000000,370.102971,9622.677246
3796.661326,153.219100,-0.000000,10510.924376
3796.661640,306.438199,296.082377,9992.780217
3796.661955,0.000000,-222.061783,10288.862594
3796.662270,0.000000,-444.123565,10066.800811
3796.662584,-153.219100,444.123565,9918.759623
3796.662899,766.095498,1036.288319,9030.512492
3796.663214,2068.457845,888.247130,8734.430116
3796.663528,1838.629195,740.205942,8882.471304
3796.663843,2068.457845,518.144159,9178.553681
3796.664158,1225.752797,-0.000000,9104.533087
3796.664473,306.438199,-0.000000,10214.842000
3796.664787,306.438199,518.144159,10140.821405
3796.665102,536.266849,222.061783,10584.944971
3796.665417,0.000000,-296.082377,10955.047942
3796.665731,-306.438199,-444.123565,10510.924376
3796.666046,-995.924147,-740.205942,10732.986159
3796.666361,-919.314598,-222.061783,10436.903782
3796.666675,0.000000,-444.123565,10066.800811
3796.666990,919.314598,-74.020594,9548.656652
3796.667305,766.095498,-74.020594,8586.388927
3796.667619,1149.143247,-296.082377,8882.471304
3796.667934,612.876398,-888.247130,9992.780217
3796.668249,0.000000,296.082377,9622.677246
3796.668564,-229.828649,444.123565,9178.553681
3796.668878,0.000000,592.164754,9326.594869
3796.669193,306.438199,-0.000000,9918.759623
3796.669508,-229.828649,-222.061783,10288.862594
3796.669822,-919.314598,-444.123565,9918.759623
3796.670137,-1532.190996,-148.041188,9844.739029
3796.670452,-689.485948,666.185348,9030.512492
3796.670766,229.828649,296.082377,8882.471304
3796.671081,536.266849,-296.082377,8512.368333
3796.671396,689.485948,-814.226536,8956.491898
3796.671710,229.828649,-814.226536,9400.615463
3796.672025,-306.438199,148.041188,8956.491898
3796.672340,-383.047749,296.082377,9030.512492
3796.672654,153.219100,-0.000000,8512.368333
3796.672969,383.047749,-592.164754,9030.512492
3796.673284,153.219100,-148.041188,9622.677246
3796.673599,-689.485948,-222.061783,9474.636058
3796.673913,-919.314598,-0.000000,9474.636058
3796.674228,-229.828649,666.185348,9474.636058
3796.674543,383.047749,740.205942,8956.491898
3796.674857,842.705048,296.082377,8808.450710
3796.675172,229.828649,-148.041188,9326.594869
3796.675487,-229.828649,-0.000000,10510.924376
3796.675801,0.000000,148.041188,10584.944971
3796.676116,-459.657299,1332.370696,9474.636058
3796.676431,383.047749,1258.350101,9474.636058
3796.676745,689.485948,592.164754,9992.780217
3796.677060,229.828649,-0.000000,10288.862594
3796.677375,76.609550,-296.082377,10362.883188
3796.677689,-536.266849,444.123565,10510.924376
3796.678004,-536.266849,1036.288319,10140.821405
3796.678319,612.876398,740.205942,9178.553681
3796.678634,1225.752797,444.123565,9326.594869
3796.678948,919.314598,-74.020594,9770.718434
3796.679263,612.876398,-74.020594,9844.739029
3796.679578,229.828649,444.123565,9770.718434
3796.679892,0.000000,1332.370696,9770.718434
3796.680207,689.485948,1480.411884,9622.677246
3796.680522,842.705048,814.226536,9474.636058
3796.680836,689.485948,-0.000000,9696.697840
3796.681151,-153.219100,-370.102971,10658.965565
3796.681466,-612.876398,-148.041188,10732.986159
3796.681780,-995.924147,296.082377,9844.739029
3796.682095,0.000000,296.082377,9326.594869
3796.682410,229.828649,-0.000000,9918.759623
3796.682725,459.657299,-74.020594,10066.800811
3796.683039,76.609550,-0.000000,9918.759623
3796.683354,0.000000,296.082377,9696.697840
3796.683669,-536.266849,962.267725,9474.636058
3796.683983,536.266849,1036.288319,8660.409521
3796.684298,1455.581446,296.082377,8438.347739
3796.684613,995.924147,-0.000000,9178.553681
3796.684927,689.485948,-222.061783,9844.739029
3796.685242,0.000000,-740.205942,9696.697840
3796.685557,-536.266849,-0.000000,9400.615463
3796.685871,0.000000,-0.000000,8882.471304
3796.686186,919.314598,-0.000000,8956.491898
3796.686501,306.438199,-814.226536,9252.574275
3796.686815,0.000000,-1036.288319,9474.636058
3796.687130,-306.438199,-1036.288319,9918.759623
3796.687445,-1149.143247,-222.061783,9474.636058
3796.687760,76.609550,814.226536,9400.615463
3796.688074,919.314598,444.123565,9178.553681
3796.688389,1072.533697,-740.205942,9548.656652
3796.688704,689.485948,-592.164754,9918.759623
3796.689018,0.000000,-0.000000,9622.677246
3796.689333,0.000000,666.185348,9178.553681
3796.689648,0.000000,962.267725,9252.574275
3796.689962,1149.143247,-0.000000,9252.574275
3796.690277,766.095498,-592.164754,9104.533087
3796.690592,-229.828649,-666.185348,9696.697840
3796.690906,153.219100,-1258.350101,10214.842000
3796.691221,-919.314598,-370.102971,10140.821405
3796.691536,-766.095498,740.205942,9844.739029
3796.691850,229.828649,370.102971,9474.636058
3796.692165,383.047749,-74.020594,9104.533087
3796.692480,459.657299,-148.041188,9696.697840
3796.692795,153.219100,-518.144159,10066.800811
3796.693109,-766.095498,740.205942,9474.636058
3796.693424,-306.438199,1406.391290,8586.388927
3796.693739,995.924147,592.164754,8808.450710
3796.694053,995.924147,592.164754,9474.636058
3796.694368,76.609550,-296.082377,9992.780217
3796.694683,-229.828649,-74.020594,9992.780217
3796.694997,-995.924147,-0.000000,9770.718434
3796.695312,-919.314598,444.123565,9696.697840
3796.695627,0.000000,444.123565,10066.800811
3796.695941,153.219100,740.205942,9918.759623
3796.696256,0.000000,-74.020594,9844.739029
3796.696571,0.000000,-74.020594,9770.718434
3796.696886,0.000000,740.205942,9400.615463
3796.697200,766.095498,1332.370696,9178.553681
3796.697515,1072.533697,1480.411884,9104.533087
3796.697830,995.924147,518.144159,9400.615463
3796.698144,536.266849,-0.000000,9030.512492
3796.698459,0.000000,-222.061783,10436.903782
3796.698774,-536.266849,518.144159,10140.821405
3796.699088,-689.485948,518.144159,10140.821405
3796.699403,0.000000,814.226536,10066.800811
3796.699718,0.000000,296.082377,10140.821405
3796.700032,0.000000,296.082377,9844.739029
3796.700347,0.000000,-444.123565,10288.862594
3796.700662,-383.047749,222.061783,9548.656652
3796.700976,153.219100,740.205942,9104.533087
3796.701291,919.314598,1036.288319,8438.347739
3796.701606,1302.362347,-0.000000,8956.491898
3796.701921,842.705048,-222.061783,9696.697840
3796.702235,0.000000,-444.123565,10066.800811
3796.702550,-536.266849,-0.000000,9770.718434
3796.702865,-306.438199,-0.000000,10584.944971
3796.703179,76.609550,888.247130,9918.759623
3796.703494,0.000000,296.082377,9696.697840
3796.703809,76.609550,-296.082377,9918.759623
3796.704123,-383.047749,-148.041188,9918.759623
3796.704438,0.000000,-222.061783,9326.594869
3796.704753,0.000000,222.061783,9474.636058
3796.705067,919.314598,592.164754,8956.491898
3796.705382,1378.971896,296.082377,8808.450710
3796.705697,842.705048,-74.020594,8512.368333
3796.706011,536.266849,-740.205942,9918.759623
3796.706326,76.609550,-592.164754,10510.924376
3796.706641,536.266849,296.082377,9844.739029
3796.706956,0.000000,592.164754,9548.656652
3796.707270,536.266849,592.164754,9326.594869
3796.707585,536.266849,296.082377,9474.636058
3796.707900,0.000000,-222.061783,9474.636058
3796.708214,-383.047749,-592.164754,9770.718434
3796.708529,76.609550,518.144159,9252.574275
3796.708844,766.095498,222.061783,8512.368333
3796.709158,995.924147,-222.061783,9400.615463
3796.709473,459.657299,-74.020594,9844.739029
3796.709788,-306.438199,-666.185348,10807.006753
3796.710102,-766.095498,-518.144159,10807.006753
3796.710417,-995.924147,-0.000000,10584.944971
3796.710732,-229.828649,370.102971,10214.842000
3796.711046,459.657299,518.144159,9548.656652
3796.711361,842.705048,370.102971,9474.636058
3796.711676,459.657299,-296.082377,9548.656652
3796.711991,153.219100,-222.061783,8956.491898
3796.712305,-229.828649,518.144159,8956.491898
3796.712620,383.047749,666.185348,8438.347739
3796.712935,383.047749,-0.000000,8438.347739
3796.713249,0.000000,-518.144159,9326.594869
3796.713564,-306.438199,-1258.350101,10140.821405
3796.713879,-1225.752797,-1036.288319,11029.068536
3796.714193,-2068.457845,-148.041188,10510.924376
3796.714508,-1532.190996,740.205942,10584.944971
3796.714823,-306.438199,814.226536,10584.944971
3796.715137,612.876398,740.205942,10214.842000
3796.715452,459.657299,370.102971,9474.636058
3796.715767,383.047749,814.226536,9178.553681
3796.716081,229.828649,740.205942,8734.430116
3796.716396,689.485948,1702.473667,7698.141797
3796.716711,1455.581446,666.185348,8586.388927
3796.717026,1302.362347,-0.000000,8216.285956
3796.717340,383.047749,-888.247130,9400.615463
3796.717655,-306.438199,-1258.350101,10140.821405
3796.717970,-1838.629195,-814.226536,9696.697840
3796.718284,-1532.190996,-0.000000,9992.780217
3796.718599,-383.047749,370.102971,10140.821405
3796.718914,0.000000,444.123565,9548.656652
3796.719228,229.828649,-0.000000,9992.780217
3796.719543,-76.609550,666.185348,9178.553681
3796.719858,76.609550,1036.288319,8956.491898
3796.720172,612.876398,1998.556043,8956.491898
3796.720487,1685.410096,1110.308913,8956.491898
3796.720802,1838.629195,740.205942,8882.471304
3796.721117,919.314598,-0.000000,9622.677246
3796.721431,0.000000,-0.000000,10510.924376
3796.721746,-1532.190996,-444.123565,11103.089130
3796.722061,-1378.971896,-0.000000,11103.089130
3796.722375,-612.876398,-74.020594,11177.109724
3796.722690,-229.828649,-518.144159,10362.883188
3796.723005,-306.438199,-592.164754,10066.800811
3796.723319,-229.828649,-296.082377,9918.759623
3796.723634,0.000000,444.123565,9918.759623
3796.723949,842.705048,1406.391290,8438.347739
3796.724263,2298.286494,962.267725,8068.244768
3796.724578,2451.505594,592.164754,7624.121203
3796.724893,1838.629195,-444.123565,8882.471304
3796.725207,1149.143247,-370.102971,9844.739029
3796.725522,-612.876398,-444.123565,9918.759623
3796.725837,-919.314598,-296.082377,10955.047942
3796.726152,-306.438199,-444.123565,11251.130318
3796.726466,0.000000,-0.000000,10362.883188
3796.726781,-459.657299,-222.061783,10955.047942
3796.727096,-383.047749,-0.000000,10362.883188
3796.727410,-153.219100,296.082377,9696.697840
3796.727725,383.047749,1184.329507,8216.285956
3796.728040,2221.676944,1258.350101,7698.141797
3796.728354,2298.286494,666.185348,7624.121203
3796.728669,2298.286494,-444.123565,8364.327145
3796.728984,919.314598,-444.123565,9252.574275
3796.729298,0.000000,-148.041188,10066.800811
3796.729613,-766.095498,-0.000000,9918.759623
3796.729928,-459.657299,-0.000000,9918.759623
3796.730242,76.609550,-740.205942,9622.677246
3796.730557,-689.485948,-444.123565,10510.924376
3796.730872,-459.657299,-148.041188,9918.759623
3796.731187,-919.314598,-0.000000,9474.636058
3796.731501,-383.047749,962.267725,8512.368333
3796.731816,919.314598,740.205942,7846.182985
3796.732131,1838.629195,740.205942,7994.224174
3796.732445,1685.410096,-0.000000,8512.368333
3796.732760,306.438199,-592.164754,9696.697840
3796.733075,-766.095498,-518.144159,10362.883188
3796.733389,-1608.800546,370.102971,10584.944971
3796.733704,-1378.971896,814.226536,10732.986159
3796.734019,-766.095498,-0.000000,10881.027347
3796.734333,-459.657299,-740.205942,10881.027347
3796.734648,-919.314598,-296.082377,10288.862594
3796.734963,-612.876398,-0.000000,10066.800811
3796.735277,-536.266849,1110.308913,8808.450710
3796.735592,766.095498,1480.411884,8364.327145
3796.735907,1915.238745,740.205942,7994.224174
3796.736222,1455.581446,-0.000000,8734.430116
3796.736536,842.705048,-666.185348,9178.553681
3796.736851,-383.047749,-592.164754,10140.821405
3796.737166,-689.485948,296.082377,10140.821405
3796.737480,-995.924147,666.185348,10510.924376
3796.737795,-612.876398,518.144159,11029.068536
3796.738110,-459.657299,-0.000000,10658.965565
3796.738424,-689.485948,296.082377,10955.047942
3796.738739,-536.266849,370.102971,10584.944971
3796.739054,-306.438199,1480.411884,9548.656652
3796.739368,383.047749,1554.432478,8364.327145
3796.739683,1762.019645,666.185348,7994.224174
3796.739998,1608.800546,-0.000000,8290.306550
3796.740312,689.485948,-0.000000,9400.615463
3796.740627,0.000000,-0.000000,10066.800811
3796.740942,-689.485948,-0.000000,10140.821405
3796.741257,-459.657299,296.082377,10436.903782
3796.741571,0.000000,-0.000000,10436.903782
3796.741886,-383.047749,-444.123565,10584.944971
3796.742201,-536.266849,-370.102971,10658.965565
3796.742515,0.000000,-518.144159,9992.780217
3796.742830,153.219100,-0.000000,9178.553681
3796.743145,689.485948,1036.288319,8808.450710
3796.743459,1685.410096,888.247130,7476.080014
3796.743774,1608.800546,-222.061783,8216.285956
3796.744089,1455.581446,-666.185348,8808.450710
3796.744403,612.876398,-1110.308913,9548.656652
3796.744718,76.609550,-444.123565,10066.800811
3796.745033,-459.657299,-0.000000,9474.636058
3796.745347,0.000000,-148.041188,9474.636058
3796.745662,383.047749,-888.247130,10140.821405
3796.745977,76.609550,-962.267725,10214.842000
3796.746292,-383.047749,-888.247130,9992.780217
3796.746606,-306.438199,-518.144159,9400.615463
3796.746921,612.876398,444.123565,8882.471304
3796.747236,1149.143247,814.226536,7624.121203
3796.747550,1762.019645,740.205942,8068.244768
3796.747865,1455.581446,-222.061783,9030.512492
3796.748180,689.485948,-814.226536,9474.636058
3796.748494,0.000000,-444.123565,9696.697840
3796.748809,-153.219100,740.205942,9178.553681
3796.749124,0.000000,888.247130,9918.759623
3796.749438,-383.047749,-0.000000,10510.924376
3796.749753,-459.657299,-222.061783,10807.006753
3796.750068,-842.705048,-296.082377,10584.944971
3796.750383,-1532.190996,370.102971,8956.491898
3796.750697,-459.657299,666.185348,9104.533087
3796.751012,995.924147,518.144159,8882.471304
3796.751327,995.924147,888.247130,8734.430116
3796.751641,689.485948,-0.000000,9252.574275
3796.751956,-306.438199,296.082377,9474.636058
3796.752271,-995.924147,222.061783,9992.780217
3796.752585,-766.095498,1110.308913,10066.800811
3796.752900,-612.876398,814.226536,9992.780217
3796.753215,-306.438199,-0.000000,10510.924376
3796.753529,-612.876398,-888.247130,10955.047942
3796.753844,-1455.581446,-0.000000,11325.150913
3796.754159,-1685.410096,296.082377,10881.027347
3796.754473,-995.924147,1036.288319,10288.862594
3796.754788,153.219100,1184.329507,9770.718434
3796.755103,1608.800546,518.144159,8512.368333
3796.755418,1455.581446,-0.000000,9326.594869
3796.755732,306.438199,222.061783,9474.636058
3796.756047,-153.219100,-148.041188,9104.533087
3796.756362,0.000000,370.102971,9474.636058
3796.756676,0.000000,444.123565,9844.739029
3796.756991,153.219100,-444.123565,10140.821405
3796.757306,-229.828649,-1036.288319,10807.006753
3796.757620,-842.705048,-666.185348,11103.089130
3796.757935,-1302.362347,-370.102971,10881.027347
3796.758250,-842.705048,740.205942,10066.800811
3796.758564,536.266849,814.226536,9104.533087
3796.758879,1838.629195,370.102971,9104.533087
3796.759194,1915.238745,-74.020594,9178.553681
3796.759508,1225.752797,296.082377,9104.533087
3796.759823,612.876398,-0.000000,9400.615463
3796.760138,76.609550,888.247130,9030.512492
3796.760453,459.657299,518.144159,9400.615463
3796.760767,1072.533697,-296.082377,8956.491898
3796.761082,842.705048,-1184.329507,9844.739029
3796.761397,-459.657299,-888.247130,9844.739029
3796.761711,-919.314598,-962.267725,9622.677246
3796.762026,-995.924147,-0.000000,9326.594869
3796.762341,842.705048,370.102971,8586.388927
3796.762655,1378.971896,-148.041188,7846.182985
3796.762970,1532.190996,-0.000000,8142.265362
3796.763285,1302.362347,-518.144159,9104.533087
3796.763599,689.485948,-74.020594,9252.574275
3796.763914,153.219100,814.226536,9252.574275
3796.764229,76.609550,592.164754,9178.553681
3796.764543,459.657299,74.020594,9696.697840
3796.764858,383.047749,-0.000000,9844.739029
3796.765173,-229.828649,-592.164754,10140.821405
3796.765488,-995.924147,-814.226536,10066.800811
3796.765802,-1378.971896,-74.020594,10140.821405
3796.766117,-459.657299,740.205942,8882.471304
3796.766432,612.876398,740.205942,8734.430116
3796.766746,919.314598,-296.082377,9178.553681
3796.767061,459.657299,-1036.288319,9030.512492
3796.767376,0.000000,-666.185348,9474.636058
3796.767690,-766.095498,296.082377,9696.697840
3796.768005,0.000000,1406.391290,9474.636058
3796.768320,383.047749,888.247130,9104.533087
3796.768634,383.047749,222.061783,9474.636058
3796.768949,0.000000,-74.020594,10584.944971
3796.769264,-1072.533697,-296.082377,10658.965565
3796.769578,-1532.190996,-0.000000,10436.903782
3796.769893,-612.876398,370.102971,10955.047942
3796.770208,0.000000,666.185348,9844.739029
3796.770523,229.828649,444.123565,9770.718434
3796.770837,306.438199,370.102971,9918.759623
3796.771152,76.609550,222.061783,10510.924376
3796.771467,-229.828649,814.226536,9992.780217
3796.771781,0.000000,1554.432478,9326.594869
3796.772096,689.485948,1554.432478,9178.553681
3796.772411,612.876398,444.123565,9474.636058
3796.772725,306.438199,-74.020594,9770.718434
3796.773040,-689.485948,-888.247130,10066.800811
3796.773355,-1149.143247,370.102971,10140.821405
3796.773669,-383.047749,1036.288319,9548.656652
3796.773984,153.219100,962.267725,9474.636058
3796.774299,842.705048,-0.000000,10214.842000
3796.774613,459.657299,-296.082377,9770.718434
3796.774928,0.000000,-148.041188,9474.636058
3796.775243,-153.219100,296.082377,9918.759623
3796.775558,0.000000,1110.308913,9252.574275
3796.775872,842.705048,1184.329507,9326.594869
3796.776187,1378.971896,-0.000000,9548.656652
3796.776502,842.705048,-0.000000,9474.636058
3796.776816,536.266849,-370.102971,9696.697840
3796.777131,0.000000,-0.000000,9474.636058
3796.777446,0.000000,518.144159,9548.656652
3796.777760,995.924147,-0.000000,8882.471304
3796.778075,536.266849,-518.144159,9030.512492
3796.778390,842.705048,-740.205942,9326.594869
3796.778704,383.047749,-1184.329507,9696.697840
3796.779019,-306.438199,-518.144159,9622.677246
3796.779334,153.219100,444.123565,9030.512492
3796.779649,766.095498,444.123565,8660.409521
3796.779963,1072.533697,-0.000000,8808.450710
3796.780278,689.485948,-592.164754,9696.697840
3796.780593,0.000000,-740.205942,10140.821405
3796.780907,-306.438199,-592.164754,9844.739029
3796.781222,-459.657299,-0.000000,9474.636058
3796.781537,459.657299,-0.000000,9696.697840
3796.781851,842.705048,-0.000000,9844.739029
3796.782166,459.657299,-222.061783,9918.759623
3796.782481,0.000000,-296.082377,9918.759623
3796.782795,-612.876398,-296.082377,9844.739029
3796.783110,-383.047749,370.102971,9400.615463
3796.783425,995.924147,444.123565,8882.471304
3796.783739,1072.533697,370.102971,8734.430116
3796.784054,229.828649,-0.000000,9622.677246
3796.784369,0.000000,-222.061783,9918.759623
3796.784684,-689.485948,-0.000000,9770.718434
3796.784998,-766.095498,148.041188,9548.656652
3796.785312,229.828649,518.144159,9474.636058
3796.785627,919.314598,666.185348,9326.594869
3796.785941,229.828649,148.041188,9622.677246
3796.786256,-229.828649,-0.000000,10288.862594
3796.786570,-842.705048,444.123565,10214.842000
3796.786885,-995.924147,518.144159,9696.697840
3796.787200,229.828649,518.144159,9696.697840
3796.787514,459.657299,444.123565,9918.759623
3796.787829,306.438199,222.061783,9770.718434
3796.788143,-229.828649,-74.020594,10362.883188
3796.788458,-842.705048,222.061783,10288.862594
3796.788773,-1225.752797,1110.308913,9030.512492
3796.789087,-229.828649,814.226536,8956.491898
3796.789402,612.876398,-74.020594,9326.594869
3796.789717,459.657299,-666.185348,9178.553681
3796.790031,0.000000,-1036.288319,9548.656652
3796.790346,-459.657299,-370.102971,10436.903782
3796.790660,-995.924147,296.082377,9548.656652
3796.790975,0.000000,592.164754,9696.697840
3796.791290,766.095498,370.102971,9400.615463
3796.791604,612.876398,-0.000000,9400.615463
3796.791919,536.266849,-0.000000,9030.512492
3796.792233,229.828649,222.061783,9918.759623
3796.792548,0.000000,1184.329507,9400.615463
3796.792863,612.876398,1184.329507,9104.533087
3796.793177,1378.971896,666.185348,9030.512492
3796.793492,1072.533697,-518.144159,9252.574275
3796.793806,766.095498,-222.061783,10066.800811
3796.794121,-383.047749,-74.020594,10584.944971
3796.794436,-842.705048,444.123565,10140.821405
3796.794750,-306.438199,666.185348,9918.759623
3796.795065,383.047749,222.061783,9474.636058
3796.795379,842.705048,-148.041188,9696.697840
3796.795694,612.876398,-444.123565,9178.553681
3796.796009,76.609550,-74.020594,9696.697840
3796.796323,0.000000,1406.391290,9104.533087
3796.796638,766.095498,814.226536,7920.203579
3796.796952,1532.190996,814.226536,8586.388927
3796.797267,1532.190996,-148.041188,8808.450710
3796.797582,689.485948,-222.061783,9474.636058
3796.797896,-153.219100,-814.226536,10214.842000
3796.798211,-1378.971896,-296.082377,10584.944971
3796.798525,-1149.143247,592.164754,10584.944971
3796.798840,-153.219100,444.123565,10140.821405
3796.799155,766.095498,-0.000000,10066.800811
3796.799469,459.657299,-148.041188,10288.862594
3796.799784,-306.438199,518.144159,9696.697840
3796.800098,-229.828649,370.102971,9992.780217
3796.800413,76.609550,1332.370696,8882.471304
3796.800728,1149.143247,666.185348,8956.491898
3796.801042,919.314598,-296.082377,9252.574275
3796.801357,842.705048,-814.226536,9696.697840
3796.801671,-153.219100,-962.267725,10288.862594
3796.801986,-995.924147,-592.164754,10436.903782
3796.802301,-995.924147,518.144159,10214.842000
3796.802615,-306.438199,592.164754,8734.430116
3796.802930,536.266849,-0.000000,9696.697840
3796.803244,842.705048,-518.144159,9548.656652
3796.803559,-383.047749,-222.061783,9474.636058
3796.803874,-766.095498,-296.082377,9474.636058
3796.804188,-766.095498,222.061783,8512.368333
3796.804503,-459.657299,666.185348,8438.347739
3796.804817,383.047749,-148.041188,9992.780217
3796.805132,-689.485948,-1110.308913,10140.821405
3796.805447,-1685.410096,-666.185348,10584.944971
3796.805761,-2068.457845,-814.226536,11917.315666
3796.806076,-3140.991542,592.164754,10955.047942
3796.806391,-1991.848295,222.061783,10658.965565
3796.806705,-919.314598,-0.000000,9918.759623
3796.807020,-459.657299,-0.000000,10066.800811
3796.807334,-1072.533697,-0.000000,9474.636058
3796.807649,-842.705048,-296.082377,8956.491898
3796.807964,-1302.362347,444.123565,8364.327145
3796.808278,-612.876398,444.123565,7920.203579
3796.808593,0.000000,-370.102971,7772.162391
3796.808907,-689.485948,-1776.494261,9030.512492
3796.809222,-1762.019645,-2590.720797,9474.636058
3796.809537,-2757.943793,-2738.761985,10658.965565
3796.809851,-3370.820191,-2220.617826,10584.944971
3796.810166,-3140.991542,-1184.329507,10658.965565
3796.810480,-2298.286494,-592.164754,9696.697840
3796.810795,-1762.019645,-1110.308913,9474.636058
3796.811110,-1455.581446,-1406.391290,9844.739029
3796.811424,-1302.362347,-1850.514855,9548.656652
3796.811739,-1762.019645,-1554.432478,9326.594869
3796.812053,-1378.971896,-814.226536,9474.636058
3796.812368,-1072.533697,-962.267725,9104.533087
3796.812683,-689.485948,-1628.453072,8882.471304
3796.812997,-1149.143247,-2294.638420,9622.677246
3796.813312,-2221.676944,-2960.823768,10584.944971
3796.813626,-2528.115143,-3330.926739,11103.089130
3796.813941,-2604.724693,-2886.803174,10584.944971
3796.814256,-2374.896044,-2072.576638,10288.862594
3796.814570,-2374.896044,-1850.514855,9030.512492
3796.814885,-1838.629195,-2812.782580,9030.512492
3796.815199,-1608.800546,-3182.885551,8882.471304
3796.815514,-1149.143247,-3330.926739,9326.594869
3796.815829,-1149.143247,-2812.782580,9474.636058
3796.816143,-536.266849,-2368.659014,9474.636058
3796.816458,-459.657299,-1776.494261,8660.409521
3796.816772,-306.438199,-1776.494261,8956.491898
3796.817087,-536.266849,-1628.453072,8438.347739
3796.817402,-1149.143247,-2220.617826,8808.450710
3796.817716,-1455.581446,-2368.659014,9474.636058
3796.818031,-2068.457845,-2442.679609,9844.739029
3796.818345,-2604.724693,-2368.659014,9178.553681
3796.818660,-2681.334243,-2812.782580,9474.636058
3796.818975,-2987.772442,-2886.803174,9622.677246
3796.819289,-2987.772442,-3404.947333,9474.636058
3796.819604,-3140.991542,-3552.988522,9918.759623
3796.819918,-2451.505594,-3775.050304,10214.842000
3796.820233,-1991.848295,-3256.906145,9992.780217
3796.820548,-1915.238745,-2368.659014,9696.697840
3796.820862,-1532.190996,-1998.556043,9474.636058
3796.821177,-1225.752797,-1924.535449,8956.491898
3796.821492,-1225.752797,-1184.329507,8882.471304
3796.821806,-1149.143247,-1036.288319,7846.182985
3796.822121,-1149.143247,-1480.411884,7846.182985
3796.822435,-1072.533697,-1998.556043,8142.265362
3796.822750,-1302.362347,-2886.803174,8512.368333
3796.823065,-2451.505594,-3330.926739,9400.615463
3796.823379,-2911.162892,-3849.070898,10584.944971
3796.823694,-3294.210641,-3923.091493,11325.150913
3796.824008,-3064.381992,-3256.906145,11029.068536
3796.824323,-3064.381992,-2294.638420,11029.068536
3796.824638,-3064.381992,-1332.370696,9474.636058
3796.824952,-2451.505594,-814.226536,8882.471304
3796.825267,-1685.410096,-1332.370696,8882.471304
3796.825581,-1608.800546,-1184.329507,8734.430116
3796.825896,-1762.019645,-1480.411884,9252.574275
3796.826211,-1838.629195,-2220.617826,9326.594869
3796.826525,-2068.457845,-1850.514855,10510.924376
3796.826840,-2298.286494,-1184.329507,10140.821405
3796.827154,-3370.820191,-1332.370696,10362.883188
3796.827469,-2757.943793,-1184.329507,9992.780217
3796.827784,-2911.162892,-1332.370696,9918.759623
3796.828098,-2911.162892,-1924.535449,9770.718434
3796.828413,-2911.162892,-2368.659014,9696.697840
3796.828727,-2681.334243,-2812.782580,10510.924376
3796.829042,-3064.381992,-2664.741391,10288.862594
3796.829357,-2987.772442,-2072.576638,10807.006753
3796.829671,-2604.724693,-1554.432478,10732.986159
3796.829986,-1532.190996,-518.144159,10288.862594
3796.830300,-842.705048,-0.000000,9326.594869
3796.830615,0.000000,518.144159,8734.430116
3796.830930,229.828649,-0.000000,8216.285956
3796.831244,0.000000,-444.123565,7772.162391
3796.831559,-383.047749,-1406.391290,7698.141797
3796.831873,-842.705048,-2220.617826,8216.285956
3796.832188,-1608.800546,-2368.659014,9400.615463
3796.832503,-2374.896044,-2294.638420,9622.677246
3796.832817,-2451.505594,-2368.659014,10881.027347
3796.833132,-2451.505594,-2072.576638,11251.130318
3796.833446,-2987.772442,-1998.556043,11103.089130
3796.833761,-2681.334243,-2146.597232,10732.986159
3796.834076,-2298.286494,-1850.514855,10584.944971
3796.834390,-1532.190996,-1110.308913,9548.656652
3796.834705,-1072.533697,-1332.370696,8660.409521
3796.835019,76.609550,-814.226536,8216.285956
3796.835334,229.828649,-222.061783,7994.224174
3796.835649,0.000000,-518.144159,8364.327145
3796.835963,-306.438199,-1332.370696,8882.471304
3796.836278,-1532.190996,-2146.597232,10288.862594
3796.836592,-2451.505594,-2146.597232,11547.212695
3796.836907,-3294.210641,-2590.720797,11547.212695
3796.837222,-3753.867940,-2960.823768,12139.377449
3796.837536,-3524.039291,-2664.741391,11547.212695
3796.837851,-2834.553343,-2072.576638,9918.759623
3796.838166,-1532.190996,-1184.329507,8808.450710
3796.838480,-1072.533697,-962.267725,7772.162391
3796.838795,-612.876398,-592.164754,7254.018232
3796.839109,-612.876398,-888.247130,6587.832884
3796.839424,-919.314598,-1480.411884,7254.018232
3796.839739,-1991.848295,-2442.679609,9030.512492
3796.840053,-2911.162892,-2812.782580,10732.986159
3796.840368,-2834.553343,-3552.988522,12213.398043
3796.840682,-3830.477490,-3182.885551,11621.233289
3796.840997,-3677.258390,-2960.823768,11473.192101
3796.841312,-3370.820191,-2146.597232,11769.274478
3796.841626,-2911.162892,-1702.473667,10955.047942
3796.841941,-2374.896044,-1480.411884,9474.636058
3796.842255,-1149.143247,-1628.453072,7698.141797
3796.842570,-459.657299,-1184.329507,6957.935855
3796.842885,0.000000,-1184.329507,7105.977043
3796.843199,-536.266849,-2368.659014,7550.100608
3796.843514,-842.705048,-2368.659014,8512.368333
3796.843828,-1608.800546,-2442.679609,9992.780217
3796.844143,-2298.286494,-2590.720797,10658.965565
3796.844458,-3064.381992,-3108.864956,10510.924376
3796.844772,-3830.477490,-3108.864956,10807.006753
3796.845087,-3753.867940,-3182.885551,10881.027347
3796.845401,-3983.696590,-3330.926739,9474.636058
3796.845716,-3217.601092,-2960.823768,8956.491898
3796.846031,-2451.505594,-2516.700203,9030.512492
3796.846345,-1838.629195,-2368.659014,8660.409521
3796.846660,-995.924147,-1924.535449,8660.409521
3796.846974,-1455.581446,-1850.514855,9400.615463
3796.847289,-1608.800546,-1850.514855,10214.842000
3796.847604,-1455.581446,-2072.576638,10955.047942
3796.847918,-1378.971896,-2220.617826,11325.150913
3796.848233,-1225.752797,-2294.638420,10807.006753
3796.848547,-2068.457845,-1480.411884,9844.739029
3796.848862,-1838.629195,-1628.453072,9104.533087
3796.849177,-1608.800546,-1628.453072,8882.471304
3796.849491,-1685.410096,-2072.576638,8512.368333
3796.849806,-1838.629195,-2516.700203,7846.182985
3796.850120,-2145.067394,-2294.638420,8068.244768
3796.850435,-2068.457845,-3108.864956,8512.368333
3796.850750,-2068.457845,-3108.864956,9622.677246
3796.851064,-2298.286494,-3034.844362,10362.883188
3796.851379,-2451.505594,-3108.864956,10955.047942
3796.851693,-2068.457845,-2516.700203,10955.047942
3796.852008,-1915.238745,-1480.411884,10510.924376
3796.852323,-842.705048,-666.185348,9696.697840
3796.852637,-612.876398,-666.185348,9104.533087
3796.852952,-459.657299,-0.000000,8290.306550
3796.853266,0.000000,222.061783,7772.162391
3796.853581,-306.438199,-444.123565,8290.306550
3796.853896,-383.047749,-1406.391290,8290.306550
3796.854210,-995.924147,-1850.514855,8808.450710
3796.854525,-1838.629195,-2516.700203,9474.636058
3796.854840,-2068.457845,-2886.803174,10584.944971
3796.855154,-2834.553343,-2960.823768,11029.068536
3796.855469,-2911.162892,-2664.741391,10658.965565
3796.855783,-2911.162892,-2294.638420,10362.883188
3796.856098,-2757.943793,-1480.411884,9992.780217
3796.856413,-2451.505594,-1258.350101,9474.636058
3796.856727,-919.314598,-370.102971,8882.471304
3796.857042,-383.047749,-0.000000,8734.430116
3796.857356,-229.828649,148.041188,8734.430116
3796.857671,-153.219100,-0.000000,9400.615463
3796.857986,-306.438199,-296.082377,9844.739029
3796.858300,0.000000,-444.123565,10362.883188
3796.858615,0.000000,-962.267725,10807.006753
3796.858929,-689.485948,-962.267725,10807.006753
3796.859244,-689.485948,-740.205942,10807.006753
3796.859559,-459.657299,-1258.350101,9696.697840
3796.859873,-766.095498,-370.102971,9548.656652
3796.860188,-612.876398,-592.164754,9030.512492
3796.860502,-842.705048,-148.041188,8438.347739
3796.860817,-1072.533697,-666.185348,8142.265362
3796.861132,-995.924147,-1258.350101,8438.347739
3796.861446,-1608.800546,-1628.453072,9178.553681
3796.861761,-2145.067394,-1924.535449,9696.697840
3796.862075,-2451.505594,-1998.556043,10584.944971
3796.862390,-2834.553343,-1628.453072,10955.047942
3796.862705,-2681.334243,-1480.411884,10955.047942
3796.863019,-2604.724693,-888.247130,11325.150913
3796.863334,-2681.334243,-296.082377,10955.047942
3796.863648,-2604.724693,-148.041188,10362.883188
3796.863963,-2451.505594,-0.000000,9770.718434
3796.864278,-2451.505594,-74.020594,9474.636058
3796.864592,-2374.896044,-666.185348,9326.594869
3796.864907,-2604.724693,-1036.288319,9104.533087
3796.865221,-2834.553343,-1776.494261,9400.615463
3796.865536,-3140.991542,-2368.659014,9326.594869
3796.865851,-3830.477490,-2960.823768,9844.739029
3796.866165,-3983.696590,-3034.844362,10288.862594
3796.866480,-4213.525239,-3552.988522,10288.862594
3796.866794,-4290.134789,-3552.988522,10362.883188
3796.867109,-3983.696590,-2960.823768,10510.924376
3796.867424,-3907.087040,-2960.823768,10214.842000
3796.867738,-3294.210641,-2812.782580,10066.800811
3796.868053,-3064.381992,-2664.741391,9696.697840
3796.868367,-2681.334243,-2146.597232,9548.656652
3796.868682,-1838.629195,-2220.617826,9252.574275
3796.868997,-1378.971896,-1628.453072,9326.594869
3796.869311,-1149.143247,-1924.535449,9696.697840
3796.869626,-1149.143247,-2294.638420,9770.718434
3796.869940,-1455.581446,-3182.885551,9548.656652
3796.870255,-1685.410096,-3849.070898,9548.656652
3796.870570,-1991.848295,-4071.132681,9622.677246
3796.870884,-2528.115143,-3997.112087,9474.636058
3796.871199,-2681.334243,-4441.235652,9474.636058
3796.871514,-2911.162892,-4663.297435,9400.615463
3796.871828,-3294.210641,-4589.276840,9178.553681
3796.872143,-3140.991542,-4515.256246,9030.512492
3796.872457,-2451.505594,-4737.318029,9104.533087
3796.872772,-1762.019645,-4219.173869,8808.450710
3796.873087,-1455.581446,-3997.112087,8586.388927
3796.873401,-1378.971896,-3256.906145,8142.265362
3796.873716,-919.314598,-3034.844362,8438.347739
3796.874030,-536.266849,-2812.782580,8512.368333
3796.874345,-229.828649,-2294.638420,7846.182985
3796.874660,-842.705048,-2738.761985,8290.306550
3796.874974,-1072.533697,-2368.659014,8512.368333
3796.875289,-1149.143247,-2738.761985,9548.656652
3796.875603,-1991.848295,-3108.864956,10066.800811
3796.875918,-2528.115143,-3478.967927,10066.800811
3796.876233,-1915.238745,-3404.947333,9770.718434
3796.876547,-1838.629195,-3256.906145,9474.636058
3796.876862,-995.924147,-2960.823768,9474.636058
3796.877176,-1072.533697,-1998.556043,7994.224174
3796.877491,-919.314598,-1924.535449,7328.038826
3796.877806,-383.047749,-1776.494261,7328.038826
3796.878120,76.609550,-1776.494261,7254.018232
3796.878435,0.000000,-1406.391290,7254.018232
3796.878749,-689.485948,-1554.432478,7772.162391
3796.879064,-1838.629195,-1924.535449,9178.553681
3796.879379,-2528.115143,-2516.700203,10214.842000
3796.879693,-3294.210641,-2072.576638,11029.068536
3796.880008,-3217.601092,-2220.617826,11991.336260
3796.880322,-3064.381992,-1776.494261,11917.315666
3796.880637,-2911.162892,-1406.391290,11621.233289
3796.880952,-2068.457845,-962.267725,10881.027347
3796.881266,-2068.457845,-74.020594,10140.821405
3796.881581,-1455.581446,814.226536,8956.491898
3796.881895,-842.705048,814.226536,8660.409521
3796.882210,-689.485948,740.205942,8956.491898
3796.882525,-1149.143247,-0.000000,9252.574275
3796.882839,-2221.676944,-444.123565,9992.780217
3796.883154,-3140.991542,-962.267725,11399.171507
3796.883468,-3677.258390,-1554.432478,12139.377449
3796.883783,-3830.477490,-2368.659014,13249.686362
3796.884098,-4213.525239,-1850.514855,12583.501014
3796.884412,-3294.210641,-888.247130,12435.459826
3796.884727,-2451.505594,-0.000000,11399.171507
3796.885041,-2068.457845,1184.329507,9104.533087
3796.885356,-1378.971896,1850.514855,7550.100608
3796.885671,0.000000,1628.453072,6809.894666
3796.885985,383.047749,518.144159,7105.977043
3796.886300,-306.438199,-296.082377,8364.327145
3796.886614,-1455.581446,-1480.411884,9548.656652
3796.886929,-2451.505594,-1998.556043,11029.068536
3796.887244,-3140.991542,-2442.679609,13027.624579
3796.887558,-2987.772442,-2072.576638,13915.871710
3796.887873,-3370.820191,-1554.432478,13027.624579
3796.888187,-2987.772442,-1184.329507,11991.336260
3796.888502,-1762.019645,-0.000000,9326.594869
3796.888817,-1149.143247,-0.000000,8142.265362
3796.889131,229.828649,-0.000000,7105.977043
3796.889446,153.219100,-74.020594,5329.482782
3796.889760,153.219100,-1110.308913,5551.544565
3796.890075,306.438199,-2516.700203,7105.977043
3796.890389,-459.657299,-2738.761985,9030.512492
3796.890704,-2068.457845,-3330.926739,10807.006753
3796.891019,-3217.601092,-2886.803174,11621.233289
3796.891333,-3983.696590,-3182.885551,11843.295072
3796.891648,-3524.039291,-2812.782580,11399.171507
3796.891962,-3140.991542,-2368.659014,10510.924376
3796.892277,-3370.820191,-1850.514855,8956.491898
3796.892592,-2604.724693,-2368.659014,8216.285956
3796.892906,-1072.533697,-2738.761985,7698.141797
3796.893221,-229.828649,-2442.679609,7772.162391
3796.893535,-153.219100,-1628.453072,7846.182985
3796.893850,-919.314598,-1406.391290,7994.224174
3796.894164,-1072.533697,-2146.597232,9252.574275
3796.894479,-1915.238745,-2294.638420,10214.842000
3796.894794,-1915.238745,-2812.782580,10584.944971
3796.895108,-2911.162892,-3775.050304,10436.903782
3796.895423,-2987.772442,-4367.215058,10881.027347
3796.895737,-3447.429741,-4071.132681,10955.047942
3796.896052,-2911.162892,-3182.885551,9326.594869
3796.896367,-2681.334243,-2294.638420,7994.224174
3796.896681,-1991.848295,-2368.659014,7254.018232
3796.896996,-1455.581446,-2146.597232,7105.977043
3796.897310,-1302.362347,-1702.473667,7105.977043
3796.897625,-1378.971896,-2442.679609,7994.224174
3796.897939,-1532.190996,-3849.070898,9474.636058
3796.898254,-2298.286494,-4885.359217,10807.006753
3796.898569,-2451.505594,-4071.132681,12213.398043
3796.898883,-3370.820191,-3478.967927,11621.233289
3796.899198,-3600.648841,-2738.761985,11103.089130
3796.899512,-2757.943793,-2072.576638,10140.821405
3796.899827,-2451.505594,-1480.411884,9326.594869
3796.900142,-1838.629195,-1628.453072,8808.450710
3796.900456,-1762.019645,-2146.597232,8734.430116
3796.900771,-1762.019645,-2072.576638,7698.141797
3796.901085,-1532.190996,-2738.761985,8586.388927
3796.901400,-1378.971896,-2960.823768,9252.574275
3796.901714,-1915.238745,-3552.988522,10288.862594
3796.902029,-1915.238745,-3330.926739,10510.924376
3796.902344,-1991.848295,-3330.926739,10881.027347
3796.902658,-2604.724693,-2812.782580,10732.986159
3796.902973,-2528.115143,-1998.556043,10288.862594
3796.903287,-1455.581446,-1850.514855,10066.800811
3796.903602,-2145.067394,-2220.617826,9252.574275
3796.903917,-1762.019645,-1628.453072,8068.244768
