#time,accel_x,accel_y,accel_z
3924.690920,-766.095498,888.247130,8438.347739
3924.691235,-842.705048,666.185348,9178.553681
3924.691549,-1455.581446,592.164754,9400.615463
3924.691864,-1762.019645,-0.000000,9178.553681
3924.692179,-1532.190996,-222.061783,9844.739029
3924.692494,-1532.190996,-370.102971,10066.800811
3924.692809,-689.485948,-888.247130,9844.739029
3924.693123,-919.314598,-666.185348,9770.718434
3924.693438,-306.438199,-0.000000,9474.636058
3924.693753,-383.047749,592.164754,9400.615463
3924.694068,0.000000,814.226536,8734.430116
3924.694382,153.219100,518.144159,8956.491898
3924.694697,383.047749,-0.000000,9474.636058
3924.695012,0.000000,-518.144159,8956.491898
3924.695327,0.000000,-740.205942,9252.574275
3924.695642,-153.219100,-888.247130,9622.677246
3924.695956,0.000000,-962.267725,10066.800811
3924.696271,0.000000,-1480.411884,9326.594869
3924.696586,0.000000,-1628.453072,9400.615463
3924.696901,153.219100,-1110.308913,9252.574275
3924.697216,689.485948,-888.247130,9104.533087
3924.697530,229.828649,-592.164754,8734.430116
3924.697845,76.609550,-518.144159,8660.409521
3924.698160,0.000000,-666.185348,8364.327145
3924.698475,0.000000,-666.185348,8364.327145
3924.698789,0.000000,-1036.288319,8956.491898
3924.699104,-306.438199,-740.205942,9696.697840
3924.699419,-459.657299,-888.247130,9696.697840
3924.699734,-383.047749,-740.205942,9992.780217
3924.700049,-383.047749,-962.267725,9918.759623
3924.700363,-306.438199,-962.267725,10066.800811
3924.700678,-306.438199,-888.247130,9770.718434
3924.700993,-229.828649,-222.061783,9400.615463
3924.701308,0.000000,-0.000000,9178.553681
3924.701623,-766.095498,222.061783,8882.471304
3924.701937,-383.047749,370.102971,9252.574275
3924.702252,-459.657299,148.041188,9252.574275
3924.702567,-383.047749,-0.000000,9400.615463
3924.702882,0.000000,-222.061783,9992.780217
3924.703197,0.000000,-74.020594,10584.944971
3924.703511,0.000000,296.082377,9992.780217
3924.703826,306.438199,444.123565,9622.677246
3924.704141,995.924147,1110.308913,9178.553681
3924.704456,1149.143247,1850.514855,9252.574275
3924.704770,1149.143247,2072.576638,8956.491898
3924.705085,766.095498,2220.617826,8882.471304
3924.705400,459.657299,1924.535449,9178.553681
3924.705715,0.000000,1998.556043,9178.553681
3924.706030,153.219100,1406.391290,9548.656652
3924.706344,153.219100,888.247130,10214.842000
3924.706659,153.219100,962.267725,10362.883188
3924.706974,0.000000,740.205942,9770.718434
3924.707289,0.000000,962.267725,9696.697840
3924.707604,306.438199,1480.411884,9918.759623
3924.707918,612.876398,1480.411884,9474.636058
3924.708233,306.438199,1924.535449,9474.636058
3924.708548,-76.609550,1554.432478,9474.636058
3924.708863,-229.828649,1110.308913,9696.697840
3924.709178,0.000000,1184.329507,9918.759623
3924.709492,0.000000,740.205942,10362.883188
3924.709807,0.000000,592.164754,10362.883188
3924.710122,76.609550,444.123565,10214.842000
3924.710437,383.047749,296.082377,10288.862594
3924.710751,459.657299,222.061783,10288.862594
3924.711066,689.485948,-0.000000,10066.800811
3924.711381,459.657299,222.061783,9474.636058
3924.711696,612.876398,-0.000000,9992.780217
3924.712011,459.657299,-0.000000,10362.883188
3924.712325,459.657299,-518.144159,9400.615463
3924.712640,0.000000,-518.144159,10066.800811
3924.712955,0.000000,-444.123565,10214.842000
3924.713270,0.000000,-370.102971,9548.656652
3924.713585,153.219100,-518.144159,9696.697840
3924.713899,459.657299,-592.164754,9622.677246
3924.714214,612.876398,-370.102971,9844.739029
3924.714529,536.266849,-296.082377,8808.450710
3924.714844,689.485948,-148.041188,8882.471304
3924.715158,612.876398,-222.061783,9548.656652
3924.715473,766.095498,-222.061783,9548.656652
3924.715788,306.438199,-370.102971,9252.574275
3924.716103,0.000000,-370.102971,9178.553681
3924.716418,-76.609550,-296.082377,9104.533087
3924.716732,0.000000,-296.082377,8734.430116
3924.717047,-153.219100,-518.144159,9104.533087
3924.717362,0.000000,-1332.370696,9474.636058
3924.717677,0.000000,-592.164754,9104.533087
3924.717992,153.219100,-444.123565,9030.512492
3924.718306,0.000000,-592.164754,9252.574275
3924.718621,-229.828649,-444.123565,9474.636058
3924.718936,0.000000,-592.164754,9252.574275
3924.719251,0.000000,-592.164754,9178.553681
3924.719566,0.000000,-518.144159,9326.594869
3924.719880,-153.219100,-592.164754,9252.574275
3924.720195,-153.219100,-370.102971,9474.636058
3924.720510,-383.047749,-370.102971,9770.718434
3924.720825,-229.828649,-444.123565,9474.636058
3924.721139,0.000000,-444.123565,9770.718434
3924.721454,0.000000,-666.185348,9844.739029
3924.721769,0.000000,-814.226536,9992.780217
3924.722084,0.000000,-370.102971,9622.677246
3924.722399,0.000000,-74.020594,9548.656652
3924.722713,0.000000,-0.000000,10140.821405
3924.723028,0.000000,-0.000000,9474.636058
3924.723343,229.828649,-296.082377,9622.677246
3924.723658,153.219100,-0.000000,10140.821405
3924.723973,0.000000,-0.000000,9474.636058
3924.724287,153.219100,370.102971,9918.759623
3924.724602,76.609550,518.144159,10214.842000
3924.724917,612.876398,-0.000000,10288.862594
3924.725232,229.828649,666.185348,9844.739029
3924.725547,612.876398,888.247130,9474.636058
3924.725861,229.828649,962.267725,10288.862594
3924.726176,383.047749,1036.288319,10140.821405
3924.726491,153.219100,740.205942,9992.780217
3924.726806,383.047749,888.247130,10140.821405
3924.727120,0.000000,1110.308913,9696.697840
3924.727435,229.828649,1036.288319,9992.780217
3924.727750,229.828649,1036.288319,9844.739029
3924.728065,306.438199,518.144159,10214.842000
3924.728380,153.219100,666.185348,9844.739029
3924.728694,76.609550,962.267725,9622.677246
3924.729009,76.609550,1036.288319,9918.759623
3924.729324,-383.047749,1036.288319,9918.759623
3924.729639,0.000000,1406.391290,10066.800811
3924.729954,0.000000,888.247130,9474.636058
3924.730268,0.000000,592.164754,9474.636058
3924.730583,-153.219100,666.185348,9696.697840
3924.730898,0.000000,666.185348,9622.677246
3924.731213,0.000000,370.102971,9918.759623
3924.731528,0.000000,222.061783,9474.636058
3924.731843,-229.828649,518.144159,9400.615463
3924.732158,229.828649,296.082377,9474.636058
3924.732473,0.000000,444.123565,9252.574275
3924.732788,-306.438199,-148.041188,9252.574275
3924.733103,-229.828649,-0.000000,9548.656652
3924.733419,0.000000,-0.000000,9918.759623
3924.733734,153.219100,-296.082377,9252.574275
3924.734049,0.000000,-148.041188,8882.471304
3924.734364,229.828649,-0.000000,9548.656652
3924.734679,153.219100,-74.020594,9178.553681
3924.734994,76.609550,-148.041188,9400.615463
3924.735309,612.876398,-0.000000,9400.615463
3924.735624,383.047749,-296.082377,9400.615463
3924.735939,306.438199,-74.020594,9178.553681
3924.736254,153.219100,-74.020594,9104.533087
3924.736569,76.609550,-444.123565,9696.697840
3924.736884,306.438199,-370.102971,9770.718434
3924.737200,459.657299,-296.082377,9474.636058
3924.737515,-153.219100,-222.061783,9474.636058
3924.737830,229.828649,-444.123565,9326.594869
3924.738145,76.609550,-148.041188,9474.636058
3924.738460,153.219100,-222.061783,9548.656652
3924.738775,0.000000,-370.102971,9696.697840
3924.739090,0.000000,-148.041188,9474.636058
3924.739405,-153.219100,-74.020594,9104.533087
3924.739720,0.000000,-148.041188,9326.594869
3924.740035,0.000000,-0.000000,9400.615463
3924.740350,306.438199,-74.020594,9400.615463
3924.740665,0.000000,-74.020594,9178.553681
3924.740981,0.000000,-148.041188,9326.594869
3924.741296,153.219100,-0.000000,8956.491898
3924.741611,0.000000,-74.020594,8956.491898
3924.741926,0.000000,-0.000000,9622.677246
3924.742241,0.000000,-222.061783,9474.636058
3924.742556,0.000000,518.144159,9326.594869
3924.742871,0.000000,-0.000000,9252.574275
3924.743186,229.828649,222.061783,9474.636058
3924.743501,153.219100,518.144159,9400.615463
3924.743816,229.828649,296.082377,9400.615463
3924.744131,76.609550,148.041188,9622.677246
3924.744446,0.000000,370.102971,9474.636058
3924.744761,76.609550,518.144159,9474.636058
3924.745077,76.609550,296.082377,9844.739029
3924.745392,383.047749,592.164754,9696.697840
3924.745707,536.266849,592.164754,9844.739029
3924.746022,76.609550,666.185348,10214.842000
3924.746337,0.000000,222.061783,10066.800811
3924.746652,0.000000,592.164754,9992.780217
3924.746967,0.000000,518.144159,9696.697840
3924.747282,229.828649,518.144159,9844.739029
3924.747597,229.828649,666.185348,9992.780217
3924.747912,383.047749,888.247130,10288.862594
3924.748227,0.000000,444.123565,10140.821405
3924.748542,153.219100,592.164754,10214.842000
3924.748858,229.828649,666.185348,9918.759623
3924.749173,229.828649,666.185348,10214.842000
3924.749488,0.000000,518.144159,10362.883188
3924.749803,229.828649,740.205942,9918.759623
3924.750118,76.609550,740.205942,9992.780217
3924.750433,76.609550,518.144159,9918.759623
3924.750748,459.657299,666.185348,9992.780217
3924.751063,0.000000,-0.000000,9770.718434
3924.751378,0.000000,-0.000000,9622.677246
3924.751693,153.219100,222.061783,9992.780217
3924.752008,306.438199,296.082377,9696.697840
3924.752323,383.047749,296.082377,9400.615463
3924.752639,0.000000,370.102971,9844.739029
3924.752954,0.000000,-0.000000,9548.656652
3924.753269,0.000000,-0.000000,9474.636058
3924.753584,0.000000,-0.000000,9474.636058
3924.753899,229.828649,-148.041188,9474.636058
3924.754214,0.000000,-74.020594,9548.656652
3924.754529,229.828649,222.061783,9400.615463
3924.754844,229.828649,-74.020594,9474.636058
3924.755159,383.047749,-0.000000,9400.615463
3924.755474,153.219100,-74.020594,9252.574275
3924.755789,76.609550,-74.020594,9178.553681
3924.756104,0.000000,-0.000000,9400.615463
3924.756419,76.609550,-0.000000,9474.636058
3924.756735,459.657299,-296.082377,9326.594869
3924.757050,229.828649,-0.000000,9548.656652
3924.757365,306.438199,74.020594,9474.636058
3924.757680,0.000000,-370.102971,9030.512492
3924.757995,153.219100,-0.000000,9548.656652
3924.758310,1072.533697,-444.123565,9770.718434
3924.758625,306.438199,-74.020594,9474.636058
3924.758940,153.219100,-74.020594,9474.636058
3924.759255,0.000000,-222.061783,9400.615463
3924.759570,229.828649,-148.041188,9474.636058
3924.759885,0.000000,-296.082377,9770.718434
3924.760200,76.609550,-296.082377,9474.636058
3924.760516,0.000000,-0.000000,9474.636058
3924.760831,153.219100,-74.020594,9400.615463
3924.761146,153.219100,-148.041188,9474.636058
3924.761461,536.266849,-0.000000,9992.780217
3924.761776,0.000000,-74.020594,9622.677246
3924.762091,-153.219100,-0.000000,9400.615463
3924.762406,76.609550,-0.000000,9474.636058
3924.762721,0.000000,-0.000000,9548.656652
3924.763036,0.000000,-0.000000,9844.739029
3924.763351,76.609550,-0.000000,9770.718434
3924.763666,0.000000,-222.061783,9696.697840
3924.763981,0.000000,296.082377,9844.739029
3924.764297,76.609550,-0.000000,9696.697840
3924.764612,76.609550,-0.000000,9400.615463
3924.764927,76.609550,296.082377,9696.697840
3924.765242,153.219100,444.123565,9548.656652
3924.765557,229.828649,-0.000000,9548.656652
3924.765872,306.438199,444.123565,9696.697840
3924.766187,76.609550,888.247130,9844.739029
3924.766502,383.047749,222.061783,9252.574275
3924.766817,153.219100,592.164754,9548.656652
3924.767132,229.828649,296.082377,9844.739029
3924.767447,0.000000,444.123565,9474.636058
3924.767762,0.000000,814.226536,9770.718434
3924.768077,0.000000,444.123565,9622.677246
3924.768393,76.609550,592.164754,9622.677246
3924.768708,0.000000,296.082377,9474.636058
3924.769023,612.876398,296.082377,9918.759623
3924.769338,76.609550,444.123565,9918.759623
3924.769653,0.000000,592.164754,9696.697840
3924.769968,229.828649,518.144159,9696.697840
3924.770283,0.000000,444.123565,9770.718434
3924.770598,0.000000,444.123565,10066.800811
3924.770913,0.000000,-0.000000,9548.656652
3924.771228,0.000000,-0.000000,9696.697840
3924.771543,153.219100,296.082377,9844.739029
3924.771858,76.609550,222.061783,9474.636058
3924.772174,612.876398,296.082377,9918.759623
3924.772489,229.828649,-0.000000,9770.718434
3924.772804,0.000000,-0.000000,9622.677246
3924.773119,0.000000,-0.000000,9548.656652
3924.773434,153.219100,-74.020594,9622.677246
3924.773749,0.000000,148.041188,10066.800811
3924.774064,0.000000,-296.082377,9104.533087
3924.774379,0.000000,-0.000000,9622.677246
3924.774694,0.000000,-222.061783,9770.718434
3924.775009,0.000000,-74.020594,9474.636058
3924.775324,0.000000,-444.123565,9474.636058
3924.775639,229.828649,-148.041188,9474.636058
3924.775954,0.000000,-74.020594,9474.636058
3924.776270,229.828649,-74.020594,9474.636058
3924.776585,229.828649,-0.000000,9326.594869
3924.776900,0.000000,-222.061783,9252.574275
3924.777215,383.047749,-148.041188,9252.574275
3924.777530,306.438199,-74.020594,9104.533087
3924.777845,229.828649,-148.041188,9400.615463
3924.778160,76.609550,-148.041188,9474.636058
3924.778475,0.000000,-222.061783,9622.677246
3924.778790,306.438199,-0.000000,9548.656652
3924.779105,0.000000,-0.000000,9474.636058
3924.779420,153.219100,-0.000000,9474.636058
3924.779735,76.609550,-148.041188,9474.636058
3924.780051,383.047749,-0.000000,9770.718434
3924.780366,0.000000,-148.041188,9400.615463
3924.780681,0.000000,-148.041188,9622.677246
3924.780996,0.000000,-0.000000,9400.615463
3924.781311,0.000000,370.102971,9622.677246
3924.781626,0.000000,-296.082377,9474.636058
3924.781941,-229.828649,-0.000000,9622.677246
3924.782256,153.219100,148.041188,9844.739029
3924.782571,0.000000,-0.000000,9474.636058
3924.782886,0.000000,370.102971,9548.656652
3924.783201,0.000000,-0.000000,9992.780217
3924.783516,-306.438199,222.061783,9474.636058
3924.783832,0.000000,370.102971,9622.677246
3924.784147,0.000000,222.061783,9548.656652
3924.784462,229.828649,296.082377,9918.759623
3924.784777,-306.438199,-0.000000,9622.677246
3924.785092,229.828649,296.082377,9474.636058
3924.785407,76.609550,222.061783,9844.739029
3924.785722,229.828649,518.144159,9622.677246
3924.786037,459.657299,296.082377,9844.739029
3924.786352,306.438199,518.144159,9918.759623
3924.786667,-306.438199,-0.000000,9770.718434
3924.786982,306.438199,370.102971,9400.615463
3924.787297,153.219100,222.061783,9400.615463
3924.787612,0.000000,296.082377,9770.718434
3924.787928,383.047749,296.082377,9548.656652
3924.788243,0.000000,296.082377,9548.656652
3924.788558,0.000000,-0.000000,9548.656652
3924.788873,76.609550,444.123565,9770.718434
3924.789188,229.828649,222.061783,9696.697840
3924.789503,0.000000,592.164754,9992.780217
3924.789818,0.000000,370.102971,9770.718434
3924.790133,229.828649,444.123565,9622.677246
3924.790448,0.000000,666.185348,9918.759623
3924.790763,153.219100,370.102971,9992.780217
3924.791078,153.219100,370.102971,9770.718434
3924.791393,153.219100,518.144159,9474.636058
3924.791709,153.219100,444.123565,9918.759623
3924.792024,153.219100,222.061783,9844.739029
3924.792339,0.000000,370.102971,9696.697840
3924.792654,306.438199,592.164754,9992.780217
3924.792969,459.657299,666.185348,9696.697840
3924.793284,0.000000,222.061783,9104.533087
3924.793599,0.000000,296.082377,9474.636058
3924.793914,-306.438199,370.102971,9474.636058
3924.794229,0.000000,-0.000000,9548.656652
3924.794544,76.609550,-0.000000,9252.574275
3924.794859,229.828649,-0.000000,9548.656652
3924.795174,76.609550,-0.000000,9992.780217
3924.795490,306.438199,-0.000000,9548.656652
3924.795805,0.000000,-0.000000,9030.512492
3924.796120,612.876398,-0.000000,9474.636058
3924.796435,76.609550,-0.000000,9474.636058
3924.796750,153.219100,-74.020594,9474.636058
3924.797065,306.438199,148.041188,9326.594869
3924.797380,306.438199,-0.000000,9548.656652
3924.797695,76.609550,-0.000000,9326.594869
3924.798010,153.219100,-74.020594,9474.636058
3924.798325,229.828649,-0.000000,9696.697840
3924.798640,229.828649,-222.061783,9548.656652
3924.798955,0.000000,-74.020594,9770.718434
3924.799270,76.609550,-0.000000,9770.718434
3924.799586,229.828649,-0.000000,9696.697840
3924.799901,306.438199,-0.000000,9696.697840
3924.800216,153.219100,-74.020594,9104.533087
3924.800531,0.000000,-148.041188,9474.636058
3924.800846,459.657299,222.061783,9400.615463
3924.801161,229.828649,-74.020594,9474.636058
3924.801476,306.438199,-0.000000,9992.780217
3924.801791,0.000000,-0.000000,9770.718434
3924.802106,76.609550,518.144159,9326.594869
3924.802421,0.000000,-0.000000,9696.697840
3924.802736,0.000000,-0.000000,9770.718434
3924.803051,459.657299,296.082377,9622.677246
3924.803367,0.000000,-0.000000,9548.656652
3924.803682,0.000000,222.061783,9992.780217
3924.803997,153.219100,296.082377,9696.697840
3924.804312,0.000000,370.102971,9696.697840
3924.804627,229.828649,-0.000000,9918.759623
3924.804942,-383.047749,148.041188,9474.636058
3924.805257,0.000000,296.082377,9844.739029
3924.805572,0.000000,370.102971,9622.677246
3924.805887,0.000000,-0.000000,10140.821405
3924.806202,-153.219100,518.144159,10066.800811
3924.806517,0.000000,296.082377,9030.512492
3924.806832,0.000000,370.102971,9474.636058
3924.807148,0.000000,370.102971,9696.697840
3924.807463,76.609550,-0.000000,9770.718434
3924.807778,153.219100,222.061783,9770.718434
3924.808093,383.047749,296.082377,9622.677246
3924.808408,76.609550,222.061783,9400.615463
3924.808723,229.828649,444.123565,9622.677246
3924.809038,383.047749,-0.000000,9770.718434
3924.809353,0.000000,-0.000000,9696.697840
3924.809668,76.609550,-0.000000,9474.636058
3924.809983,76.609550,-0.000000,9548.656652
3924.810298,229.828649,-0.000000,9622.677246
3924.810613,459.657299,-0.000000,9696.697840
3924.810928,306.438199,-0.000000,9622.677246
3924.811244,153.219100,222.061783,9548.656652
3924.811559,153.219100,-0.000000,9474.636058
3924.811874,153.219100,222.061783,9622.677246
3924.812189,766.095498,-0.000000,9844.739029
3924.812504,76.609550,-0.000000,9770.718434
3924.812819,153.219100,-0.000000,9548.656652
3924.813134,0.000000,-0.000000,9474.636058
3924.813449,0.000000,-74.020594,9548.656652
3924.813764,229.828649,-0.000000,9696.697840
3924.814079,0.000000,-0.000000,9696.697840
3924.814394,0.000000,-0.000000,9770.718434
3924.814709,153.219100,-74.020594,9696.697840
3924.815025,306.438199,-0.000000,9770.718434
3924.815340,0.000000,-0.000000,9548.656652
3924.815655,0.000000,-74.020594,9474.636058
3924.815970,0.000000,-0.000000,9474.636058
3924.816285,76.609550,-0.000000,9400.615463
3924.816600,76.609550,-222.061783,9326.594869
3924.816915,0.000000,-0.000000,9548.656652
3924.817230,0.000000,-0.000000,9400.615463
3924.817545,76.609550,222.061783,9474.636058
3924.817860,-229.828649,-0.000000,9474.636058
3924.818175,-229.828649,-74.020594,9400.615463
3924.818490,0.000000,296.082377,9474.636058
3924.818806,0.000000,148.041188,9400.615463
3924.819121,76.609550,148.041188,9326.594869
3924.819436,383.047749,-0.000000,9400.615463
3924.819751,76.609550,-0.000000,9474.636058
3924.820066,153.219100,-0.000000,9326.594869
3924.820381,0.000000,-0.000000,9474.636058
3924.820696,153.219100,-0.000000,9400.615463
3924.821011,0.000000,370.102971,9474.636058
3924.821326,459.657299,222.061783,9104.533087
3924.821641,306.438199,-0.000000,9474.636058
3924.821956,76.609550,-0.000000,9770.718434
3924.822271,153.219100,296.082377,9474.636058
3924.822586,76.609550,222.061783,9474.636058
3924.822902,0.000000,296.082377,9770.718434
3924.823217,76.609550,444.123565,9696.697840
3924.823532,0.000000,-0.000000,9844.739029
3924.823847,0.000000,370.102971,9622.677246
3924.824162,0.000000,296.082377,9622.677246
3924.824477,0.000000,296.082377,9918.759623
3924.824792,0.000000,370.102971,9548.656652
3924.825107,-229.828649,296.082377,9918.759623
3924.825422,0.000000,-0.000000,9770.718434
3924.825737,0.000000,148.041188,9770.718434
3924.826052,153.219100,-0.000000,9844.739029
3924.826367,0.000000,296.082377,9918.759623
3924.826683,0.000000,370.102971,9548.656652
3924.826998,0.000000,296.082377,9548.656652
3924.827313,0.000000,148.041188,9548.656652
3924.827628,153.219100,518.144159,9696.697840
3924.827943,153.219100,-0.000000,9326.594869
3924.828258,0.000000,296.082377,9474.636058
3924.828573,76.609550,222.061783,9474.636058
3924.828888,76.609550,296.082377,9696.697840
3924.829203,306.438199,-0.000000,9918.759623
3924.829518,153.219100,370.102971,9548.656652
3924.829833,229.828649,370.102971,9474.636058
3924.830148,229.828649,370.102971,9474.636058
3924.830463,0.000000,370.102971,9770.718434
3924.830779,153.219100,-0.000000,9548.656652
3924.831094,229.828649,-0.000000,9474.636058
3924.831409,383.047749,-0.000000,9104.533087
3924.831724,306.438199,-0.000000,9622.677246
3924.832039,536.266849,-74.020594,9696.697840
3924.832354,383.047749,-0.000000,9400.615463
3924.832669,153.219100,-0.000000,9770.718434
3924.832984,0.000000,296.082377,9400.615463
3924.833299,76.609550,148.041188,9252.574275
3924.833614,153.219100,-0.000000,9474.636058
3924.833929,76.609550,222.061783,9622.677246
3924.834244,76.609550,-74.020594,9548.656652
3924.834559,0.000000,-0.000000,9326.594869
3924.834874,0.000000,148.041188,9548.656652
3924.835190,153.219100,148.041188,9622.677246
3924.835505,229.828649,-0.000000,9770.718434
3924.835820,0.000000,-74.020594,9474.636058
3924.836135,0.000000,-0.000000,9770.718434
3924.836450,612.876398,-74.020594,9770.718434
3924.836765,0.000000,-74.020594,9474.636058
3924.837080,0.000000,222.061783,9992.780217
3924.837395,76.609550,222.061783,10066.800811
3924.837710,0.000000,-148.041188,9474.636058
3924.838025,229.828649,-0.000000,9548.656652
3924.838340,0.000000,296.082377,9696.697840
3924.838655,0.000000,222.061783,9474.636058
3924.838970,76.609550,-74.020594,9548.656652
3924.839285,76.609550,222.061783,9622.677246
3924.839600,0.000000,-0.000000,9474.636058
3924.839915,-536.266849,-0.000000,9474.636058
3924.840231,0.000000,-0.000000,9474.636058
3924.840546,0.000000,518.144159,9474.636058
3924.840861,-229.828649,592.164754,9770.718434
3924.841176,-459.657299,296.082377,10140.821405
3924.841491,-459.657299,666.185348,10214.842000
3924.841806,0.000000,296.082377,9696.697840
3924.842121,76.609550,148.041188,9400.615463
3924.842436,459.657299,370.102971,9474.636058
3924.842751,536.266849,370.102971,9696.697840
3924.843066,1225.752797,518.144159,9918.759623
3924.843381,459.657299,592.164754,9326.594869
3924.843696,306.438199,740.205942,9400.615463
3924.844011,229.828649,1036.288319,9400.615463
3924.844326,0.000000,740.205942,9326.594869
3924.844641,0.000000,518.144159,9548.656652
3924.844956,-459.657299,148.041188,10066.800811
3924.845272,-536.266849,-0.000000,10066.800811
3924.845587,-536.266849,-0.000000,10362.883188
3924.845902,-766.095498,-0.000000,10510.924376
3924.846217,0.000000,296.082377,10214.842000
3924.846532,76.609550,222.061783,9548.656652
3924.846847,306.438199,814.226536,9400.615463
3924.847162,536.266849,1184.329507,9400.615463
3924.847477,306.438199,1332.370696,9326.594869
3924.847792,153.219100,814.226536,9252.574275
3924.848107,0.000000,888.247130,9474.636058
3924.848422,0.000000,444.123565,9400.615463
3924.848737,-383.047749,-0.000000,9548.656652
3924.849052,-536.266849,-296.082377,10510.924376
3924.849367,-1378.971896,-222.061783,10362.883188
3924.849682,-842.705048,-296.082377,10288.862594
3924.849997,-766.095498,-0.000000,9992.780217
3924.850313,-536.266849,370.102971,9548.656652
3924.850628,-306.438199,592.164754,9326.594869
3924.850943,536.266849,1184.329507,9178.553681
3924.851258,306.438199,1554.432478,8956.491898
3924.851573,536.266849,1480.411884,8512.368333
3924.851888,76.609550,962.267725,8808.450710
3924.852203,-229.828649,814.226536,9474.636058
3924.852518,-459.657299,666.185348,9548.656652
3924.852833,-766.095498,518.144159,9474.636058
3924.853148,-1225.752797,-0.000000,10066.800811
3924.853463,-1225.752797,-74.020594,10288.862594
3924.853778,-1378.971896,-0.000000,10510.924376
3924.854093,-1072.533697,-0.000000,9844.739029
3924.854408,-919.314598,444.123565,9474.636058
3924.854723,-536.266849,740.205942,9770.718434
3924.855038,0.000000,1332.370696,9400.615463
3924.855354,229.828649,1406.391290,9326.594869
3924.855669,459.657299,1184.329507,9326.594869
3924.855984,153.219100,1184.329507,8660.409521
3924.856299,76.609550,888.247130,9030.512492
3924.856614,153.219100,962.267725,9474.636058
3924.856929,0.000000,666.185348,10288.862594
3924.857244,0.000000,-0.000000,9992.780217
3924.857559,-459.657299,-0.000000,10140.821405
3924.857874,-459.657299,-296.082377,10362.883188
3924.858189,-153.219100,-0.000000,10140.821405
3924.858504,0.000000,222.061783,9992.780217
3924.858819,306.438199,-0.000000,9770.718434
3924.859134,153.219100,518.144159,9696.697840
3924.859449,612.876398,518.144159,9400.615463
3924.859764,1072.533697,740.205942,9400.615463
3924.860079,1225.752797,592.164754,9548.656652
3924.860395,995.924147,444.123565,9252.574275
3924.860710,612.876398,296.082377,9696.697840
3924.861025,842.705048,-0.000000,9770.718434
3924.861340,612.876398,-296.082377,9770.718434
3924.861655,612.876398,-518.144159,9770.718434
3924.861970,153.219100,-1036.288319,10140.821405
3924.862285,459.657299,-370.102971,9696.697840
3924.862600,306.438199,-814.226536,9474.636058
3924.862915,76.609550,-740.205942,9548.656652
3924.863230,383.047749,-370.102971,9474.636058
3924.863545,1302.362347,-0.000000,9104.533087
3924.863860,919.314598,-74.020594,9252.574275
3924.864175,995.924147,-0.000000,9474.636058
3924.864490,995.924147,-74.020594,9474.636058
3924.864805,689.485948,-444.123565,9252.574275
3924.865120,459.657299,-518.144159,8882.471304
3924.865436,383.047749,-444.123565,9770.718434
3924.865751,76.609550,-518.144159,9548.656652
3924.866066,229.828649,-666.185348,9474.636058
3924.866381,0.000000,-962.267725,9622.677246
3924.866696,0.000000,-592.164754,9474.636058
3924.867011,-306.438199,-518.144159,9252.574275
3924.867326,-229.828649,-444.123565,9474.636058
3924.867641,-229.828649,-592.164754,9622.677246
3924.867956,0.000000,-518.144159,9178.553681
3924.868271,76.609550,-740.205942,9400.615463
3924.868586,153.219100,-222.061783,9178.553681
3924.868901,-76.609550,-74.020594,9326.594869
3924.869216,0.000000,-296.082377,9400.615463
3924.869531,-153.219100,-370.102971,9326.594869
3924.869846,-229.828649,-444.123565,9326.594869
3924.870161,-306.438199,-74.020594,9474.636058
3924.870477,0.000000,-222.061783,9770.718434
3924.870792,-306.438199,-370.102971,9548.656652
3924.871107,0.000000,-370.102971,9400.615463
3924.871422,-383.047749,-518.144159,9474.636058
3924.871737,153.219100,-148.041188,9548.656652
3924.872052,383.047749,-444.123565,9622.677246
3924.872367,459.657299,-148.041188,9104.533087
3924.872682,153.219100,222.061783,9400.615463
3924.872997,0.000000,296.082377,9178.553681
3924.873312,153.219100,222.061783,8808.450710
3924.873627,-229.828649,222.061783,9326.594869
3924.873942,-229.828649,-0.000000,9696.697840
3924.874257,-995.924147,-0.000000,9918.759623
3924.874572,-842.705048,-0.000000,10510.924376
3924.874887,-306.438199,-74.020594,10584.944971
3924.875202,-306.438199,-0.000000,10955.047942
3924.875518,0.000000,222.061783,10140.821405
3924.875833,76.609550,592.164754,9696.697840
3924.876148,459.657299,1406.391290,9844.739029
3924.876463,919.314598,1332.370696,9326.594869
3924.876778,842.705048,1406.391290,9178.553681
3924.877093,383.047749,1332.370696,9104.533087
3924.877408,383.047749,1258.350101,9400.615463
3924.877723,76.609550,888.247130,9474.636058
3924.878038,0.000000,666.185348,9844.739029
3924.878353,-306.438199,444.123565,10584.944971
3924.878668,-306.438199,222.061783,10288.862594
3924.878983,-689.485948,-0.000000,10510.924376
3924.879298,0.000000,518.144159,10510.924376
3924.879613,153.219100,1110.308913,9918.759623
3924.879928,383.047749,1258.350101,9622.677246
3924.880243,612.876398,1554.432478,9326.594869
3924.880559,995.924147,1406.391290,9104.533087
3924.880874,459.657299,1258.350101,9104.533087
3924.881189,306.438199,1110.308913,9696.697840
3924.881504,0.000000,1110.308913,9918.759623
3924.881819,0.000000,592.164754,9992.780217
3924.882134,0.000000,444.123565,9918.759623
3924.882449,0.000000,-0.000000,10066.800811
3924.882764,0.000000,-0.000000,10288.862594
3924.883079,0.000000,-0.000000,9992.780217
3924.883394,76.609550,296.082377,9622.677246
3924.883709,76.609550,-0.000000,9696.697840
3924.884024,383.047749,518.144159,9104.533087
3924.884339,229.828649,444.123565,9104.533087
3924.884654,383.047749,296.082377,9548.656652
3924.884969,383.047749,592.164754,9326.594869
3924.885285,459.657299,370.102971,9178.553681
3924.885600,306.438199,370.102971,9696.697840
3924.885915,229.828649,-0.000000,9918.759623
3924.886230,0.000000,-0.000000,9770.718434
3924.886545,-229.828649,-0.000000,9696.697840
3924.886860,-306.438199,-296.082377,10288.862594
3924.887175,-306.438199,-370.102971,9918.759623
3924.887490,-306.438199,-370.102971,9992.780217
3924.887805,0.000000,-74.020594,9696.697840
3924.888120,306.438199,-148.041188,9622.677246
3924.888435,76.609550,-0.000000,9104.533087
3924.888750,0.000000,370.102971,9252.574275
3924.889065,0.000000,-0.000000,9474.636058
3924.889380,0.000000,-74.020594,9030.512492
3924.889695,0.000000,-148.041188,9104.533087
3924.890010,0.000000,-222.061783,9548.656652
3924.890326,0.000000,-296.082377,9696.697840
3924.890641,-383.047749,-888.247130,10066.800811
3924.890956,-383.047749,-592.164754,9844.739029
3924.891271,-306.438199,-518.144159,10140.821405
3924.891586,0.000000,-0.000000,9474.636058
3924.891901,153.219100,-0.000000,9104.533087
3924.892216,383.047749,-0.000000,9622.677246
3924.892531,766.095498,-148.041188,9400.615463
3924.892846,229.828649,-0.000000,9178.553681
3924.893161,229.828649,-74.020594,9252.574275
3924.893476,306.438199,-444.123565,9474.636058
3924.893791,459.657299,-296.082377,9696.697840
3924.894106,689.485948,-666.185348,9696.697840
3924.894421,229.828649,-666.185348,10214.842000
3924.894736,459.657299,-370.102971,9844.739029
3924.895051,229.828649,-444.123565,9326.594869
3924.895367,459.657299,-148.041188,9622.677246
3924.895682,153.219100,-296.082377,9178.553681
3924.895997,459.657299,222.061783,9178.553681
3924.896312,459.657299,-222.061783,9252.574275
3924.896627,536.266849,-148.041188,9474.636058
3924.896942,76.609550,-74.020594,9400.615463
3924.897257,229.828649,-0.000000,9252.574275
3924.897572,229.828649,-74.020594,9844.739029
3924.897887,0.000000,-370.102971,9992.780217
3924.898202,-229.828649,-222.061783,9918.759623
3924.898517,0.000000,-74.020594,9844.739029
3924.898832,0.000000,-0.000000,9622.677246
3924.899147,153.219100,518.144159,9844.739029
3924.899462,306.438199,666.185348,9474.636058
3924.899777,153.219100,444.123565,9252.574275
3924.900092,306.438199,888.247130,9400.615463
3924.900408,153.219100,962.267725,9178.553681
3924.900723,76.609550,888.247130,9474.636058
3924.901038,0.000000,518.144159,9548.656652
3924.901353,-229.828649,666.185348,9622.677246
3924.901668,-459.657299,148.041188,9548.656652
3924.901983,-689.485948,222.061783,9844.739029
3924.902298,-612.876398,370.102971,9548.656652
3924.902613,-383.047749,666.185348,9622.677246
3924.902928,0.000000,518.144159,10066.800811
3924.903243,0.000000,814.226536,9622.677246
3924.903558,76.609550,1332.370696,9474.636058
3924.903873,76.609550,1110.308913,9252.574275
3924.904188,76.609550,1184.329507,9326.594869
3924.904503,306.438199,1110.308913,9474.636058
3924.904818,76.609550,1110.308913,9474.636058
3924.905133,0.000000,444.123565,9844.739029
3924.905449,-229.828649,518.144159,9844.739029
3924.905764,0.000000,444.123565,9770.718434
3924.906079,-153.219100,518.144159,9992.780217
3924.906394,0.000000,-0.000000,10140.821405
3924.906709,-153.219100,518.144159,10140.821405
3924.907024,0.000000,444.123565,9622.677246
3924.907339,76.609550,592.164754,9918.759623
3924.907654,229.828649,814.226536,9474.636058
3924.907969,383.047749,740.205942,9178.553681
3924.908284,383.047749,518.144159,9548.656652
3924.908599,459.657299,814.226536,9622.677246
3924.908914,383.047749,592.164754,9844.739029
3924.909229,383.047749,518.144159,9696.697840
3924.909544,0.000000,148.041188,10066.800811
3924.909859,-153.219100,148.041188,10214.842000
3924.910174,76.609550,-0.000000,10436.903782
3924.910490,229.828649,-0.000000,10288.862594
3924.910805,76.609550,-0.000000,9918.759623
3924.911120,153.219100,148.041188,9474.636058
3924.911435,306.438199,148.041188,9400.615463
3924.911750,689.485948,370.102971,9770.718434
3924.912065,612.876398,-0.000000,9548.656652
3924.912380,383.047749,222.061783,9104.533087
3924.912695,612.876398,-0.000000,9400.615463
3924.913010,459.657299,-148.041188,9104.533087
3924.913325,306.438199,-222.061783,9104.533087
3924.913640,306.438199,-296.082377,9548.656652
3924.913955,153.219100,-666.185348,9696.697840
3924.914270,306.438199,-592.164754,9622.677246
3924.914585,229.828649,-444.123565,9548.656652
3924.914900,229.828649,-592.164754,9548.656652
3924.915215,306.438199,-444.123565,9474.636058
3924.915531,383.047749,-370.102971,9178.553681
3924.915846,306.438199,-666.185348,9030.512492
3924.916161,383.047749,-74.020594,9326.594869
3924.916476,229.828649,-370.102971,9104.533087
3924.916791,0.000000,-444.123565,9252.574275
3924.917106,76.609550,-518.144159,9252.574275
3924.917421,76.609550,-592.164754,9770.718434
3924.917736,229.828649,-740.205942,9696.697840
3924.918051,383.047749,-962.267725,9844.739029
3924.918366,229.828649,-592.164754,9770.718434
3924.918681,76.609550,-592.164754,9548.656652
3924.918996,0.000000,-518.144159,9548.656652
3924.919311,306.438199,-370.102971,9474.636058
3924.919626,536.266849,-444.123565,9474.636058
3924.919941,383.047749,-296.082377,8882.471304
3924.920256,153.219100,-296.082377,8956.491898
3924.920572,-153.219100,-222.061783,9252.574275
3924.920887,0.000000,-222.061783,9474.636058
3924.921202,-612.876398,-444.123565,9548.656652
3924.921517,-842.705048,-296.082377,9696.697840
3924.921832,-612.876398,-666.185348,9844.739029
3924.922147,-306.438199,-666.185348,10288.862594
3924.922462,-919.314598,-592.164754,10140.821405
3924.922777,0.000000,-222.061783,10214.842000
3924.923092,229.828649,296.082377,9474.636058
3924.923407,153.219100,740.205942,9252.574275
3924.923722,306.438199,962.267725,8882.471304
3924.924037,306.438199,962.267725,8734.430116
3924.924352,153.219100,962.267725,8956.491898
3924.924667,-229.828649,370.102971,9474.636058
3924.924982,-153.219100,518.144159,9696.697840
3924.925297,-842.705048,444.123565,9770.718434
3924.925613,-383.047749,-0.000000,10140.821405
3924.925928,-459.657299,-74.020594,10288.862594
3924.926243,-459.657299,222.061783,9770.718434
3924.926558,76.609550,74.020594,9548.656652
3924.926873,0.000000,1036.288319,9770.718434
3924.927188,153.219100,1258.350101,9548.656652
3924.927503,306.438199,1406.391290,9030.512492
3924.927818,536.266849,1776.494261,8882.471304
3924.928133,612.876398,1628.453072,9104.533087
3924.928448,383.047749,1480.411884,9474.636058
3924.928763,459.657299,1332.370696,9696.697840
3924.929078,0.000000,1036.288319,10214.842000
3924.929393,0.000000,740.205942,10362.883188
3924.929708,-536.266849,962.267725,10807.006753
3924.930023,-153.219100,518.144159,10362.883188
3924.930338,0.000000,666.185348,10510.924376
3924.930654,0.000000,814.226536,9918.759623
3924.930969,229.828649,814.226536,9622.677246
3924.931284,612.876398,888.247130,9548.656652
3924.931599,536.266849,1258.350101,9622.677246
3924.931914,459.657299,1036.288319,9252.574275
3924.932229,689.485948,1110.308913,9622.677246
3924.932544,383.047749,888.247130,9992.780217
3924.932859,76.609550,888.247130,9622.677246
3924.933174,229.828649,518.144159,10140.821405
3924.933489,0.000000,296.082377,10510.924376
3924.933804,76.609550,222.061783,10066.800811
3924.934119,0.000000,222.061783,10288.862594
3924.934434,76.609550,296.082377,10140.821405
3924.934749,383.047749,370.102971,9696.697840
3924.935064,306.438199,296.082377,9474.636058
3924.935379,306.438199,148.041188,9400.615463
3924.935695,76.609550,518.144159,9326.594869
3924.936009,229.828649,444.123565,8956.491898
3924.936324,306.438199,148.041188,9252.574275
3924.936639,76.609550,-0.000000,9622.677246
3924.936954,306.438199,-148.041188,9400.615463
3924.937269,0.000000,-370.102971,9696.697840
3924.937584,229.828649,-296.082377,9696.697840
3924.937899,229.828649,-444.123565,9696.697840
3924.938214,153.219100,-370.102971,9474.636058
3924.938529,306.438199,-74.020594,9474.636058
3924.938844,229.828649,-296.082377,9474.636058
3924.939159,459.657299,-0.000000,9178.553681
3924.939474,153.219100,-0.000000,9178.553681
3924.939788,229.828649,-0.000000,9178.553681
3924.940103,0.000000,-74.020594,9104.533087
3924.940418,0.000000,-370.102971,9400.615463
3924.940733,153.219100,-666.185348,9622.677246
3924.941048,76.609550,-814.226536,9622.677246
3924.941363,0.000000,-740.205942,9770.718434
3924.941678,0.000000,-740.205942,9622.677246
3924.941993,0.000000,-814.226536,9696.697840
3924.942308,76.609550,-444.123565,9844.739029
3924.942623,153.219100,-518.144159,9474.636058
3924.942938,153.219100,-74.020594,9326.594869
3924.943252,689.485948,-148.041188,9474.636058
3924.943567,229.828649,-74.020594,9326.594869
3924.943882,153.219100,-148.041188,9104.533087
3924.944197,229.828649,-370.102971,9474.636058
3924.944512,-229.828649,-370.102971,9696.697840
3924.944827,-306.438199,-518.144159,9844.739029
3924.945142,-306.438199,-740.205942,10362.883188
3924.945457,0.000000,-666.185348,10436.903782
3924.945772,0.000000,-592.164754,9696.697840
3924.946087,-306.438199,-370.102971,9696.697840
3924.946402,0.000000,-296.082377,9770.718434
3924.946716,383.047749,-0.000000,9326.594869
3924.947031,459.657299,148.041188,9104.533087
3924.947346,612.876398,518.144159,9400.615463
3924.947661,229.828649,518.144159,9104.533087
3924.947976,229.828649,222.061783,9178.553681
3924.948291,76.609550,296.082377,9474.636058
3924.948606,-229.828649,-0.000000,9696.697840
3924.948921,-229.828649,-0.000000,9918.759623
3924.949236,-306.438199,148.041188,9696.697840
3924.949551,-153.219100,-0.000000,9918.759623
3924.949866,153.219100,222.061783,9622.677246
3924.950181,0.000000,666.185348,9770.718434
3924.950495,383.047749,888.247130,9844.739029
3924.950810,383.047749,1184.329507,9474.636058
3924.951125,689.485948,1258.350101,9178.553681
3924.951440,459.657299,1332.370696,9178.553681
3924.951755,383.047749,1036.288319,9844.739029
3924.952070,229.828649,888.247130,9844.739029
3924.952385,0.000000,592.164754,9622.677246
3924.952700,153.219100,740.205942,9918.759623
3924.953015,-229.828649,666.185348,9992.780217
3924.953330,-383.047749,444.123565,9992.780217
3924.953645,0.000000,740.205942,9992.780217
3924.953959,0.000000,666.185348,10140.821405
3924.954274,229.828649,666.185348,9548.656652
3924.954589,383.047749,1036.288319,9400.615463
3924.954904,459.657299,962.267725,9474.636058
3924.955219,383.047749,740.205942,9548.656652
3924.955534,0.000000,666.185348,9326.594869
3924.955849,306.438199,740.205942,9548.656652
3924.956164,306.438199,370.102971,9918.759623
3924.956479,153.219100,222.061783,9844.739029
3924.956794,0.000000,-0.000000,9622.677246
3924.957109,76.609550,-0.000000,10140.821405
3924.957423,76.609550,370.102971,10066.800811
3924.957738,0.000000,370.102971,9992.780217
3924.958053,306.438199,-0.000000,9844.739029
3924.958368,459.657299,-0.000000,9696.697840
3924.958683,306.438199,296.082377,9326.594869
3924.958998,459.657299,444.123565,9474.636058
3924.959313,536.266849,370.102971,9548.656652
3924.959628,229.828649,-0.000000,9474.636058
3924.959943,689.485948,-74.020594,9326.594869
3924.960258,153.219100,296.082377,9696.697840
3924.960573,459.657299,222.061783,9622.677246
3924.960888,306.438199,-148.041188,9622.677246
3924.961202,153.219100,-222.061783,9918.759623
3924.961517,153.219100,-592.164754,10214.842000
3924.961832,76.609550,-0.000000,9326.594869
3924.962147,229.828649,-148.041188,9252.574275
3924.962462,229.828649,-222.061783,9918.759623
3924.962777,229.828649,-148.041188,9400.615463
3924.963092,229.828649,-296.082377,9178.553681
3924.963407,0.000000,-74.020594,9474.636058
3924.963722,229.828649,-148.041188,9474.636058
3924.964037,0.000000,-148.041188,9474.636058
3924.964352,0.000000,-666.185348,9326.594869
3924.964666,0.000000,-592.164754,9844.739029
3924.964981,229.828649,-592.164754,9844.739029
3924.965296,229.828649,-592.164754,9548.656652
3924.965611,229.828649,-814.226536,9622.677246
3924.965926,0.000000,-666.185348,9622.677246
3924.966241,306.438199,-444.123565,9252.574275
3924.966556,383.047749,-518.144159,9030.512492
3924.966871,612.876398,-814.226536,9178.553681
3924.967186,459.657299,-518.144159,9030.512492
3924.967501,766.095498,-296.082377,8660.409521
3924.967816,0.000000,-370.102971,9252.574275
3924.968130,-383.047749,-518.144159,9400.615463
3924.968445,-306.438199,-444.123565,9992.780217
3924.968760,-689.485948,-814.226536,9992.780217
3924.969075,-536.266849,-1110.308913,10066.800811
3924.969390,-459.657299,-1110.308913,9992.780217
3924.969705,-229.828649,-592.164754,10066.800811
3924.970020,0.000000,-222.061783,9918.759623
3924.970335,383.047749,-0.000000,9400.615463
3924.970650,919.314598,592.164754,9400.615463
3924.970965,689.485948,592.164754,8734.430116
3924.971280,459.657299,888.247130,9178.553681
3924.971595,76.609550,592.164754,9178.553681
3924.971909,76.609550,-0.000000,8956.491898
3924.972224,536.266849,-0.000000,10140.821405
3924.972539,-612.876398,-296.082377,9622.677246
3924.972854,-612.876398,-222.061783,9548.656652
3924.973169,-536.266849,-74.020594,10436.903782
3924.973484,-383.047749,148.041188,9992.780217
3924.973799,0.000000,444.123565,9918.759623
3924.974114,0.000000,962.267725,9474.636058
3924.974429,229.828649,1480.411884,9252.574275
3924.974744,383.047749,1480.411884,9178.553681
3924.975059,229.828649,1776.494261,8956.491898
3924.975373,383.047749,1406.391290,9548.656652
3924.975688,229.828649,1110.308913,9252.574275
3924.976003,0.000000,1258.350101,9770.718434
3924.976318,-383.047749,666.185348,9918.759623
3924.976633,-383.047749,814.226536,10362.883188
3924.976948,-612.876398,666.185348,10140.821405
3924.977263,-306.438199,592.164754,9918.759623
3924.977578,0.000000,370.102971,10066.800811
3924.977893,76.609550,666.185348,9770.718434
3924.978208,153.219100,740.205942,9474.636058
3924.978523,153.219100,1480.411884,9622.677246
3924.978838,153.219100,1406.391290,9622.677246
3924.979152,383.047749,1332.370696,9770.718434
3924.979467,459.657299,962.267725,9622.677246
3924.979782,76.609550,1110.308913,9770.718434
3924.980097,76.609550,666.185348,9918.759623
3924.980412,0.000000,518.144159,10214.842000
3924.980727,0.000000,370.102971,10510.924376
3924.981042,76.609550,222.061783,9918.759623
3924.981357,153.219100,370.102971,10140.821405
3924.981672,229.828649,592.164754,9622.677246
3924.981987,306.438199,370.102971,10140.821405
3924.982302,459.657299,370.102971,9992.780217
3924.982616,383.047749,444.123565,9696.697840
3924.982931,383.047749,296.082377,9622.677246
3924.983246,536.266849,444.123565,9474.636058
3924.983561,459.657299,592.164754,9104.533087
3924.983876,383.047749,222.061783,9326.594869
3924.984191,842.705048,518.144159,9548.656652
3924.984506,383.047749,-0.000000,9992.780217
3924.984821,76.609550,-0.000000,10140.821405
3924.985136,0.000000,-0.000000,9992.780217
3924.985451,0.000000,148.041188,9844.739029
3924.985766,229.828649,-148.041188,9474.636058
3924.986080,153.219100,-0.000000,9474.636058
3924.986395,306.438199,-0.000000,9474.636058
3924.986710,306.438199,-0.000000,9178.553681
3924.987025,229.828649,-0.000000,9030.512492
3924.987340,0.000000,-222.061783,9178.553681
3924.987655,153.219100,-74.020594,9326.594869
3924.987970,229.828649,-296.082377,9252.574275
3924.988285,306.438199,-518.144159,9400.615463
3924.988600,153.219100,-740.205942,9622.677246
3924.988915,-689.485948,-1110.308913,9622.677246
3924.989230,0.000000,-666.185348,9474.636058
3924.989545,229.828649,-666.185348,9400.615463
3924.989859,229.828649,-370.102971,9178.553681
3924.990174,842.705048,-296.082377,9104.533087
3924.990489,306.438199,-592.164754,9326.594869
3924.990804,0.000000,-370.102971,9030.512492
3924.991119,229.828649,-444.123565,9400.615463
3924.991434,229.828649,-444.123565,9474.636058
3924.991749,229.828649,-740.205942,9844.739029
3924.992064,0.000000,-962.267725,9918.759623
3924.992379,-383.047749,-888.247130,9696.697840
3924.992694,-383.047749,-740.205942,10066.800811
3924.993009,0.000000,-518.144159,9992.780217
3924.993323,-306.438199,-666.185348,9696.697840
3924.993638,153.219100,-222.061783,9770.718434
3924.993953,383.047749,-0.000000,9326.594869
3924.994268,306.438199,370.102971,9178.553681
3924.994583,76.609550,-0.000000,9178.553681
3924.994898,153.219100,148.041188,9474.636058
3924.995213,0.000000,-0.000000,9474.636058
3924.995528,0.000000,-74.020594,9622.677246
3924.995843,-459.657299,-74.020594,9696.697840
3924.996158,-459.657299,-296.082377,10140.821405
3924.996473,-383.047749,-0.000000,10066.800811
3924.996787,-383.047749,148.041188,9844.739029
3924.997102,-229.828649,-0.000000,9992.780217
3924.997417,76.609550,444.123565,9770.718434
3924.997732,0.000000,814.226536,9030.512492
3924.998047,229.828649,888.247130,9326.594869
3924.998362,153.219100,1184.329507,9030.512492
3924.998677,153.219100,1110.308913,9178.553681
3924.998992,76.609550,888.247130,9400.615463
3924.999307,153.219100,740.205942,9474.636058
3924.999622,0.000000,740.205942,9548.656652
3924.999937,-229.828649,444.123565,9548.656652
3925.000252,-383.047749,444.123565,9770.718434
3925.000566,-306.438199,592.164754,9918.759623
3925.000881,153.219100,814.226536,9844.739029
3925.001196,383.047749,888.247130,9696.697840
3925.001511,229.828649,962.267725,9474.636058
3925.001826,536.266849,1110.308913,9252.574275
3925.002141,612.876398,1258.350101,9474.636058
3925.002456,612.876398,814.226536,9770.718434
3925.002771,689.485948,1036.288319,9696.697840
3925.003086,229.828649,962.267725,9474.636058
3925.003401,383.047749,592.164754,9770.718434
3925.003716,459.657299,518.144159,10214.842000
3925.004030,459.657299,592.164754,10510.924376
3925.004345,0.000000,148.041188,10288.862594
3925.004660,383.047749,296.082377,10214.842000
3925.004975,383.047749,592.164754,10214.842000
3925.005290,459.657299,444.123565,9918.759623
3925.005605,76.609550,666.185348,9918.759623
3925.005920,306.438199,592.164754,9918.759623
3925.006235,306.438199,518.144159,9326.594869
3925.006550,459.657299,592.164754,9474.636058
3925.006865,306.438199,518.144159,10066.800811
3925.007180,536.266849,296.082377,9548.656652
3925.007495,76.609550,444.123565,9992.780217
3925.007809,76.609550,-74.020594,9548.656652
3925.008124,0.000000,-74.020594,9844.739029
3925.008439,153.219100,-0.000000,9844.739029
3925.008754,0.000000,-0.000000,9844.739029
3925.009069,0.000000,-0.000000,9622.677246
3925.009384,0.000000,-0.000000,9400.615463
3925.009699,76.609550,-0.000000,9326.594869
3925.010014,153.219100,-0.000000,9326.594869
3925.010329,76.609550,-74.020594,9252.574275
3925.010644,0.000000,-296.082377,9178.553681
3925.010959,76.609550,-148.041188,9178.553681
3925.011273,153.219100,-222.061783,9474.636058
3925.011588,153.219100,-444.123565,9400.615463
3925.011903,153.219100,-592.164754,9326.594869
3925.012218,153.219100,-518.144159,9622.677246
3925.012533,229.828649,-666.185348,9622.677246
3925.012848,306.438199,-666.185348,9474.636058
3925.013163,459.657299,-888.247130,9696.697840
3925.013478,153.219100,-370.102971,9622.677246
3925.013793,766.095498,-666.185348,8660.409521
3925.014108,536.266849,-444.123565,8808.450710
3925.014423,612.876398,-222.061783,9252.574275
3925.014737,459.657299,-592.164754,9178.553681
3925.015052,-306.438199,-666.185348,9030.512492
3925.015367,-229.828649,-370.102971,9252.574275
3925.015682,-612.876398,-814.226536,9918.759623
3925.015997,-383.047749,-962.267725,10140.821405
3925.016312,-612.876398,-1110.308913,10288.862594
3925.016627,-306.438199,-1110.308913,10658.965565
3925.016942,-536.266849,-814.226536,10140.821405
3925.017257,0.000000,-222.061783,9918.759623
3925.017572,229.828649,222.061783,9622.677246
3925.017887,383.047749,370.102971,9326.594869
3925.018202,612.876398,296.082377,8808.450710
3925.018516,383.047749,666.185348,8882.471304
3925.018831,306.438199,296.082377,9326.594869
3925.019146,0.000000,-0.000000,9622.677246
3925.019461,-153.219100,-592.164754,9474.636058
3925.019776,-612.876398,-740.205942,9918.759623
3925.020091,-842.705048,-740.205942,9992.780217
3925.020406,-459.657299,-592.164754,9918.759623
3925.020721,-612.876398,-296.082377,9992.780217
3925.021036,536.266849,518.144159,9696.697840
3925.021351,0.000000,1036.288319,9104.533087
3925.021666,76.609550,1258.350101,8734.430116
3925.021980,459.657299,1184.329507,8882.471304
3925.022295,459.657299,1406.391290,8882.471304
3925.022610,536.266849,1702.473667,9178.553681
3925.022925,0.000000,1110.308913,9252.574275
3925.023240,0.000000,962.267725,9992.780217
3925.023555,0.000000,814.226536,9696.697840
3925.023870,-306.438199,518.144159,9918.759623
3925.024185,-229.828649,-0.000000,9992.780217
3925.024500,-459.657299,370.102971,9992.780217
3925.024815,76.609550,592.164754,9696.697840
3925.025130,306.438199,1036.288319,9918.759623
3925.025444,153.219100,1036.288319,9548.656652
3925.025759,689.485948,1258.350101,9252.574275
3925.026074,766.095498,1406.391290,9400.615463
3925.026389,766.095498,1480.411884,9918.759623
3925.026704,536.266849,1184.329507,9548.656652
3925.027019,229.828649,1258.350101,9992.780217
3925.027334,0.000000,888.247130,10362.883188
3925.027649,0.000000,592.164754,10140.821405
3925.027964,0.000000,444.123565,10362.883188
3925.028279,0.000000,444.123565,10510.924376
3925.028594,153.219100,370.102971,10658.965565
3925.028909,459.657299,666.185348,9696.697840
3925.029223,0.000000,666.185348,9622.677246
3925.029538,229.828649,740.205942,9770.718434
3925.029853,536.266849,814.226536,9844.739029
3925.030168,383.047749,592.164754,9622.677246
3925.030483,0.000000,518.144159,9104.533087
3925.030798,229.828649,444.123565,9474.636058
3925.031113,0.000000,148.041188,9474.636058
3925.031428,0.000000,222.061783,9844.739029
3925.031743,229.828649,-222.061783,9992.780217
3925.032058,-229.828649,-296.082377,9474.636058
3925.032373,153.219100,-0.000000,9474.636058
3925.032687,76.609550,-0.000000,9252.574275
3925.033002,0.000000,296.082377,9326.594869
3925.033317,229.828649,444.123565,9252.574275
3925.033632,153.219100,296.082377,8956.491898
3925.033947,459.657299,444.123565,9030.512492
3925.034262,306.438199,-0.000000,8808.450710
3925.034577,76.609550,-222.061783,9030.512492
3925.034892,229.828649,-222.061783,9474.636058
3925.035207,0.000000,-666.185348,9474.636058
3925.035522,0.000000,-518.144159,9548.656652
3925.035837,76.609550,-444.123565,9696.697840
3925.036151,0.000000,-666.185348,9622.677246
3925.036466,229.828649,-296.082377,9474.636058
3925.036781,306.438199,-296.082377,9104.533087
3925.037096,536.266849,-370.102971,9252.574275
3925.037411,383.047749,-0.000000,9252.574275
3925.037726,459.657299,-74.020594,9326.594869
3925.038041,153.219100,-148.041188,9178.553681
3925.038356,0.000000,-370.102971,9696.697840
3925.038671,-76.609550,-518.144159,9548.656652
3925.038986,-383.047749,-666.185348,10140.821405
3925.039300,-153.219100,-814.226536,10362.883188
3925.039615,-229.828649,-1110.308913,10214.842000
3925.039930,-153.219100,-740.205942,9918.759623
3925.040245,0.000000,-518.144159,10066.800811
3925.040560,0.000000,-222.061783,9696.697840
3925.040875,0.000000,-370.102971,9548.656652
3925.041190,153.219100,-0.000000,9474.636058
3925.041505,0.000000,-222.061783,9178.553681
3925.041820,0.000000,-148.041188,9030.512492
3925.042135,153.219100,-0.000000,8808.450710
3925.042449,0.000000,-222.061783,9770.718434
3925.042764,-306.438199,-296.082377,9992.780217
3925.043079,-383.047749,-370.102971,9696.697840
3925.043394,-383.047749,-444.123565,9696.697840
3925.043709,-383.047749,-370.102971,9992.780217
3925.044024,76.609550,-74.020594,10140.821405
3925.044339,-229.828649,444.123565,9622.677246
3925.044654,306.438199,444.123565,9622.677246
3925.044969,229.828649,518.144159,8956.491898
3925.045284,306.438199,740.205942,8882.471304
3925.045598,536.266849,888.247130,9326.594869
3925.045913,536.266849,814.226536,9104.533087
3925.046228,153.219100,592.164754,9326.594869
3925.046543,383.047749,814.226536,9548.656652
3925.046858,76.609550,444.123565,9992.780217
3925.047173,76.609550,370.102971,9918.759623
3925.047488,0.000000,148.041188,9696.697840
3925.047803,0.000000,370.102971,9918.759623
3925.048118,0.000000,592.164754,9918.759623
3925.048432,153.219100,962.267725,9696.697840
3925.048747,76.609550,962.267725,9474.636058
3925.049062,536.266849,814.226536,9474.636058
3925.049377,536.266849,1258.350101,9696.697840
3925.049692,536.266849,1184.329507,9696.697840
3925.050007,0.000000,1036.288319,9844.739029
3925.050322,766.095498,370.102971,9844.739029
3925.050637,0.000000,592.164754,10066.800811
3925.050952,153.219100,592.164754,10066.800811
3925.051267,76.609550,444.123565,10436.903782
3925.051581,229.828649,444.123565,10362.883188
3925.051896,0.000000,222.061783,9696.697840
3925.052211,229.828649,296.082377,10066.800811
3925.052526,0.000000,370.102971,9696.697840
3925.052841,229.828649,666.185348,9400.615463
3925.053156,459.657299,814.226536,10214.842000
3925.053471,229.828649,222.061783,9696.697840
3925.053786,0.000000,444.123565,9622.677246
3925.054101,229.828649,444.123565,9622.677246
3925.054416,229.828649,74.020594,9622.677246
3925.054730,153.219100,-0.000000,9918.759623
3925.055045,76.609550,-0.000000,9696.697840
3925.055360,0.000000,-74.020594,9918.759623
3925.055675,0.000000,-74.020594,9918.759623
3925.055990,229.828649,-74.020594,9474.636058
3925.056305,306.438199,-74.020594,9474.636058
3925.056620,306.438199,-0.000000,9252.574275
3925.056935,306.438199,148.041188,9474.636058
3925.057250,612.876398,222.061783,9178.553681
3925.057564,153.219100,-0.000000,9400.615463
3925.057879,76.609550,-74.020594,9104.533087
3925.058194,0.000000,-0.000000,9252.574275
3925.058509,0.000000,-222.061783,9474.636058
3925.058824,153.219100,-296.082377,9622.677246
3925.059139,459.657299,-888.247130,9474.636058
3925.059454,306.438199,-370.102971,9622.677246
3925.059769,306.438199,-444.123565,9548.656652
3925.060084,229.828649,-444.123565,9696.697840
3925.060399,306.438199,-222.061783,9696.697840
3925.060713,536.266849,-222.061783,9622.677246
3925.061028,536.266849,-296.082377,8882.471304
3925.061343,689.485948,-0.000000,8512.368333
3925.061658,229.828649,-444.123565,8734.430116
3925.061973,0.000000,-444.123565,9622.677246
3925.062288,0.000000,-740.205942,9622.677246
3925.062603,-689.485948,-740.205942,9770.718434
3925.062918,-842.705048,-814.226536,9918.759623
3925.063233,-612.876398,-1110.308913,10066.800811
3925.063548,-536.266849,-1332.370696,9918.759623
3925.063862,-383.047749,-1184.329507,10288.862594
3925.064177,-153.219100,-666.185348,10140.821405
3925.064492,76.609550,-0.000000,9474.636058
3925.064807,383.047749,296.082377,9178.553681
3925.065122,536.266849,148.041188,9030.512492
3925.065437,919.314598,-0.000000,8734.430116
3925.065752,153.219100,296.082377,8956.491898
3925.066067,0.000000,-444.123565,8956.491898
3925.066382,-153.219100,-444.123565,9474.636058
3925.066696,-612.876398,-666.185348,9696.697840
3925.067011,0.000000,-962.267725,9622.677246
3925.067326,-689.485948,-888.247130,9844.739029
3925.067641,0.000000,-444.123565,9844.739029
3925.067956,0.000000,-0.000000,9696.697840
3925.068271,0.000000,518.144159,9474.636058
3925.068586,76.609550,1036.288319,9252.574275
3925.068901,383.047749,1258.350101,8956.491898
3925.069216,229.828649,1406.391290,9178.553681
3925.069531,536.266849,1184.329507,9178.553681
3925.069845,383.047749,962.267725,9474.636058
3925.070160,383.047749,814.226536,9770.718434
3925.070475,0.000000,444.123565,9844.739029
3925.070790,-689.485948,666.185348,10140.821405
3925.071105,-229.828649,518.144159,10140.821405
3925.071420,-229.828649,296.082377,10066.800811
3925.071735,-383.047749,444.123565,10066.800811
3925.072050,0.000000,962.267725,9696.697840
3925.072365,0.000000,1110.308913,9178.553681
3925.072680,459.657299,1332.370696,9474.636058
3925.072994,536.266849,1258.350101,9400.615463
3925.073309,76.609550,1332.370696,9474.636058
3925.073624,0.000000,1406.391290,9548.656652
3925.073939,612.876398,1184.329507,9548.656652
3925.074254,459.657299,1036.288319,10066.800811
3925.074569,383.047749,814.226536,9992.780217
3925.074884,153.219100,444.123565,10214.842000
3925.075199,229.828649,666.185348,10955.047942
3925.075514,76.609550,666.185348,10362.883188
3925.075828,306.438199,740.205942,10214.842000
3925.076143,0.000000,296.082377,9918.759623
3925.076458,919.314598,444.123565,9696.697840
3925.076773,536.266849,444.123565,9400.615463
3925.077088,306.438199,740.205942,9548.656652
3925.077403,383.047749,592.164754,9474.636058
3925.077718,383.047749,518.144159,9474.636058
3925.078033,229.828649,222.061783,9326.594869
3925.078348,153.219100,-0.000000,9548.656652
3925.078663,153.219100,-0.000000,9770.718434
3925.078977,229.828649,-0.000000,9918.759623
3925.079292,229.828649,-148.041188,9770.718434
3925.079607,0.000000,-74.020594,9622.677246
3925.079922,306.438199,-0.000000,9400.615463
3925.080237,153.219100,592.164754,9474.636058
3925.080552,306.438199,370.102971,9548.656652
3925.080867,0.000000,296.082377,9252.574275
3925.081182,153.219100,-0.000000,9400.615463
3925.081497,0.000000,148.041188,9474.636058
3925.081812,0.000000,-0.000000,9326.594869
3925.082126,0.000000,-296.082377,9104.533087
3925.082441,153.219100,-222.061783,9844.739029
3925.082756,306.438199,-370.102971,10066.800811
3925.083071,0.000000,-740.205942,9400.615463
3925.083386,0.000000,-74.020594,9622.677246
3925.083701,0.000000,-296.082377,9696.697840
3925.084016,-306.438199,-222.061783,9400.615463
3925.084331,306.438199,-74.020594,8882.471304
3925.084646,229.828649,-148.041188,8956.491898
3925.084960,76.609550,-222.061783,9474.636058
3925.085275,76.609550,-370.102971,8956.491898
3925.085590,0.000000,-814.226536,8882.471304
3925.085905,0.000000,-518.144159,9844.739029
3925.086220,-459.657299,-370.102971,10066.800811
3925.086535,-383.047749,-740.205942,10140.821405
3925.086850,-383.047749,-962.267725,10214.842000
3925.087165,-153.219100,-666.185348,9918.759623
3925.087480,0.000000,-592.164754,9548.656652
3925.087795,0.000000,-444.123565,9474.636058
3925.088109,306.438199,-222.061783,9474.636058
3925.088424,306.438199,-74.020594,9178.553681
3925.088739,306.438199,-0.000000,9178.553681
3925.089054,0.000000,-0.000000,9252.574275
3925.089369,0.000000,-222.061783,9400.615463
3925.089684,76.609550,-444.123565,9474.636058
3925.089999,-229.828649,-518.144159,9696.697840
3925.090314,-229.828649,-592.164754,9992.780217
3925.090629,-153.219100,-444.123565,9992.780217
3925.090944,-306.438199,-296.082377,9770.718434
3925.091258,0.000000,-0.000000,10214.842000
3925.091573,0.000000,222.061783,9622.677246
3925.091888,383.047749,-0.000000,9252.574275
3925.092203,306.438199,592.164754,9696.697840
3925.092518,0.000000,666.185348,9326.594869
3925.092833,0.000000,518.144159,9326.594869
3925.093148,306.438199,666.185348,9474.636058
3925.093463,153.219100,740.205942,9696.697840
3925.093778,153.219100,370.102971,9696.697840
3925.094092,229.828649,370.102971,9548.656652
3925.094407,0.000000,370.102971,9844.739029
3925.094722,0.000000,296.082377,9992.780217
3925.095037,-383.047749,444.123565,9548.656652
3925.095352,0.000000,1258.350101,9622.677246
3925.095667,153.219100,666.185348,9844.739029
3925.095982,306.438199,666.185348,9252.574275
3925.096297,306.438199,888.247130,9178.553681
3925.096612,536.266849,1110.308913,9696.697840
3925.096927,766.095498,1036.288319,9400.615463
3925.097241,459.657299,962.267725,9474.636058
3925.097556,459.657299,740.205942,9770.718434
3925.097871,306.438199,666.185348,9844.739029
3925.098186,0.000000,444.123565,9844.739029
3925.098501,76.609550,740.205942,10214.842000
3925.098816,229.828649,370.102971,10066.800811
3925.099131,0.000000,296.082377,9992.780217
3925.099446,229.828649,296.082377,9474.636058
3925.099761,229.828649,592.164754,9622.677246
3925.100076,153.219100,814.226536,9992.780217
3925.100390,383.047749,592.164754,9770.718434
3925.100705,306.438199,592.164754,9696.697840
3925.101020,76.609550,370.102971,9548.656652
3925.101335,229.828649,444.123565,9474.636058
3925.101650,0.000000,-0.000000,9622.677246
3925.101965,76.609550,-222.061783,10140.821405
3925.102280,0.000000,296.082377,10288.862594
3925.102595,0.000000,222.061783,10140.821405
3925.102910,383.047749,74.020594,9622.677246
3925.103224,153.219100,-0.000000,9992.780217
3925.103539,0.000000,-0.000000,9548.656652
3925.103854,229.828649,148.041188,9400.615463
3925.104169,229.828649,296.082377,9622.677246
3925.104484,229.828649,-0.000000,9326.594869
3925.104799,459.657299,-0.000000,9326.594869
3925.105114,0.000000,-0.000000,9474.636058
3925.105429,0.000000,-0.000000,9474.636058
3925.105744,0.000000,-74.020594,9474.636058
3925.106059,229.828649,-222.061783,9326.594869
3925.106373,306.438199,-666.185348,9992.780217
3925.106688,306.438199,-518.144159,9622.677246
3925.107003,229.828649,-592.164754,9326.594869
3925.107318,153.219100,-444.123565,9400.615463
3925.107633,0.000000,-148.041188,9326.594869
3925.107948,459.657299,-296.082377,9030.512492
3925.108263,536.266849,-296.082377,9030.512492
3925.108578,536.266849,-444.123565,8808.450710
3925.108893,76.609550,-0.000000,8882.471304
3925.109208,76.609550,-296.082377,9326.594869
3925.109522,-229.828649,-444.123565,9918.759623
3925.109837,-689.485948,-962.267725,9474.636058
3925.110152,-229.828649,-814.226536,9474.636058
3925.110467,-459.657299,-1184.329507,9770.718434
3925.110782,-536.266849,-962.267725,10214.842000
3925.111097,0.000000,-1110.308913,9992.780217
3925.111412,0.000000,-592.164754,9844.739029
3925.111727,229.828649,-370.102971,9696.697840
3925.112042,689.485948,148.041188,9104.533087
3925.112356,919.314598,518.144159,8216.285956
3925.112671,766.095498,370.102971,9104.533087
3925.112986,229.828649,-0.000000,8956.491898
3925.113301,0.000000,-148.041188,9400.615463
3925.113616,-306.438199,-444.123565,9770.718434
3925.113931,76.609550,-888.247130,9992.780217
3925.114246,-612.876398,-962.267725,10140.821405
3925.114561,-842.705048,-814.226536,10066.800811
3925.114876,-459.657299,-518.144159,10140.821405
3925.115191,-229.828649,-74.020594,9918.759623
3925.115505,-306.438199,-0.000000,9918.759623
3925.115820,76.609550,888.247130,9474.636058
3925.116135,76.609550,962.267725,9030.512492
3925.116450,229.828649,1110.308913,8956.491898
3925.116765,229.828649,1184.329507,9104.533087
3925.117080,76.609550,592.164754,9252.574275
3925.117395,76.609550,814.226536,9918.759623
3925.117710,0.000000,888.247130,9548.656652
3925.118025,-306.438199,518.144159,10140.821405
3925.118340,-229.828649,444.123565,9918.759623
3925.118654,-383.047749,444.123565,10140.821405
3925.118969,0.000000,592.164754,9770.718434
3925.119284,153.219100,814.226536,9474.636058
3925.119599,76.609550,1036.288319,9326.594869
3925.119914,383.047749,1110.308913,9474.636058
3925.120229,842.705048,1332.370696,9474.636058
3925.120544,229.828649,1184.329507,9548.656652
3925.120859,536.266849,1480.411884,9474.636058
3925.121174,306.438199,1184.329507,9474.636058
3925.121488,0.000000,962.267725,9844.739029
3925.121803,153.219100,814.226536,10288.862594
3925.122118,0.000000,666.185348,10140.821405
3925.122433,0.000000,296.082377,10288.862594
3925.122748,153.219100,370.102971,10066.800811
3925.123063,536.266849,592.164754,10140.821405
3925.123378,0.000000,-0.000000,9918.759623
3925.123693,536.266849,666.185348,9770.718434
3925.124008,536.266849,740.205942,9696.697840
3925.124323,306.438199,814.226536,9326.594869
3925.124637,383.047749,740.205942,9622.677246
3925.124952,383.047749,518.144159,9548.656652
3925.125267,536.266849,666.185348,9696.697840
3925.125582,229.828649,296.082377,9696.697840
3925.125897,306.438199,148.041188,9992.780217
3925.126212,0.000000,-0.000000,9992.780217
3925.126527,-229.828649,-0.000000,9844.739029
3925.126842,0.000000,-222.061783,9992.780217
3925.127157,153.219100,222.061783,9548.656652
3925.127472,306.438199,296.082377,9400.615463
3925.127786,0.000000,444.123565,9326.594869
3925.128101,383.047749,444.123565,9252.574275
3925.128416,229.828649,370.102971,9178.553681
3925.128731,0.000000,-0.000000,8956.491898
3925.129046,-229.828649,-0.000000,9326.594869
3925.129361,76.609550,-592.164754,9548.656652
3925.129676,-153.219100,-518.144159,9548.656652
3925.129991,0.000000,-370.102971,9844.739029
3925.130306,0.000000,-296.082377,9548.656652
3925.130620,0.000000,-444.123565,9696.697840
3925.130935,229.828649,-444.123565,9622.677246
3925.131250,459.657299,-74.020594,9474.636058
3925.131565,229.828649,-74.020594,9252.574275
3925.131880,536.266849,-74.020594,8512.368333
3925.132195,766.095498,-74.020594,9252.574275
3925.132510,153.219100,-0.000000,9474.636058
3925.132825,153.219100,-222.061783,9474.636058
3925.133140,-306.438199,-518.144159,9696.697840
3925.133455,-153.219100,-666.185348,9844.739029
3925.133769,0.000000,-740.205942,9844.739029
3925.134084,-306.438199,-814.226536,9992.780217
3925.134399,-153.219100,-740.205942,10066.800811
3925.134714,0.000000,-592.164754,9992.780217
3925.135029,0.000000,-444.123565,9400.615463
3925.135344,229.828649,-148.041188,9474.636058
3925.135659,153.219100,-0.000000,9474.636058
3925.135974,383.047749,-0.000000,9474.636058
3925.136289,153.219100,-0.000000,9178.553681
3925.136604,0.000000,-74.020594,9474.636058
3925.136918,229.828649,-0.000000,10140.821405
3925.137233,-153.219100,-444.123565,9844.739029
3925.137548,-306.438199,-370.102971,10066.800811
3925.137863,-306.438199,-518.144159,9992.780217
3925.138178,-229.828649,-444.123565,9770.718434
3925.138493,-229.828649,-222.061783,9622.677246
3925.138808,0.000000,-0.000000,9918.759623
3925.139123,0.000000,148.041188,9548.656652
3925.139438,153.219100,444.123565,9030.512492
3925.139753,383.047749,518.144159,9030.512492
3925.140068,536.266849,888.247130,9178.553681
3925.140383,459.657299,370.102971,9400.615463
3925.140698,383.047749,592.164754,9548.656652
3925.141013,0.000000,222.061783,9474.636058
3925.141328,0.000000,444.123565,9770.718434
3925.141643,76.609550,-0.000000,10066.800811
3925.141958,153.219100,148.041188,9696.697840
3925.142273,0.000000,222.061783,9844.739029
3925.142588,0.000000,592.164754,9474.636058
3925.142903,459.657299,592.164754,9474.636058
3925.143218,306.438199,740.205942,9474.636058
3925.143533,459.657299,888.247130,9400.615463
3925.143848,459.657299,1036.288319,9474.636058
3925.144163,383.047749,1332.370696,9030.512492
3925.144478,842.705048,518.144159,9992.780217
3925.144793,306.438199,1110.308913,9770.718434
3925.145108,383.047749,592.164754,9992.780217
3925.145423,76.609550,518.144159,10140.821405
3925.145738,153.219100,370.102971,9844.739029
3925.146053,459.657299,814.226536,10140.821405
3925.146368,383.047749,370.102971,10214.842000
3925.146683,0.000000,370.102971,10066.800811
3925.146998,0.000000,666.185348,9548.656652
3925.147313,0.000000,592.164754,9622.677246
3925.147628,459.657299,370.102971,9696.697840
3925.147943,383.047749,814.226536,9770.718434
3925.148258,383.047749,592.164754,9770.718434
3925.148573,306.438199,444.123565,9770.718434
3925.148888,0.000000,370.102971,9992.780217
3925.149203,306.438199,-0.000000,9696.697840
3925.149518,0.000000,-0.000000,9918.759623
3925.149833,76.609550,-0.000000,9992.780217
3925.150148,0.000000,-74.020594,9696.697840
3925.150463,153.219100,-0.000000,10066.800811
3925.150778,229.828649,148.041188,9622.677246
3925.151093,306.438199,-0.000000,9474.636058
3925.151408,76.609550,296.082377,9252.574275
3925.151723,153.219100,222.061783,9474.636058
3925.152038,536.266849,-0.000000,10140.821405
3925.152353,0.000000,-148.041188,9104.533087
3925.152668,306.438199,-444.123565,9474.636058
3925.152983,153.219100,-148.041188,9844.739029
3925.153298,76.609550,-222.061783,9252.574275
3925.153613,229.828649,-444.123565,9622.677246
3925.153928,383.047749,-296.082377,9696.697840
3925.154243,383.047749,-222.061783,9844.739029
3925.154558,76.609550,-444.123565,9104.533087
3925.154873,383.047749,-370.102971,8734.430116
3925.155188,612.876398,-370.102971,9252.574275
3925.155503,383.047749,-370.102971,9030.512492
3925.155818,536.266849,-222.061783,9030.512492
3925.156133,153.219100,-0.000000,8956.491898
3925.156448,-383.047749,-148.041188,9030.512492
3925.156763,-459.657299,-740.205942,9400.615463
3925.157078,-612.876398,-518.144159,9992.780217
3925.157393,-612.876398,-1036.288319,10584.944971
3925.157708,-919.314598,-1184.329507,9992.780217
3925.158023,-383.047749,-962.267725,10066.800811
3925.158338,-383.047749,-814.226536,9918.759623
3925.158653,0.000000,-148.041188,10066.800811
3925.158968,153.219100,-0.000000,9474.636058
3925.159283,76.609550,-0.000000,8882.471304
3925.159598,612.876398,444.123565,8808.450710
3925.159913,536.266849,370.102971,8660.409521
3925.160228,153.219100,-0.000000,9178.553681
3925.160543,-229.828649,-444.123565,9252.574275
3925.160858,-383.047749,-518.144159,9622.677246
3925.161173,-766.095498,-1036.288319,9844.739029
3925.161488,-612.876398,-888.247130,10066.800811
3925.161803,-536.266849,-740.205942,10140.821405
3925.162118,-459.657299,-148.041188,9844.739029
3925.162433,76.609550,-0.000000,9326.594869
3925.162748,0.000000,740.205942,9474.636058
3925.163063,383.047749,888.247130,8882.471304
3925.163378,383.047749,814.226536,8586.388927
3925.163693,383.047749,1036.288319,9030.512492
3925.164008,0.000000,1036.288319,9104.533087
3925.164323,229.828649,1110.308913,9548.656652
3925.164638,0.000000,518.144159,9844.739029
3925.164953,0.000000,222.061783,10066.800811
3925.165268,-383.047749,74.020594,9992.780217
3925.165583,-536.266849,74.020594,9696.697840
3925.165898,-383.047749,370.102971,10140.821405
3925.166213,76.609550,518.144159,10140.821405
3925.166528,229.828649,962.267725,9622.677246
3925.166843,229.828649,1036.288319,9400.615463
3925.167158,689.485948,1332.370696,9104.533087
3925.167473,306.438199,1480.411884,9326.594869
3925.167788,766.095498,1332.370696,9474.636058
3925.168103,306.438199,1258.350101,9696.697840
3925.168418,229.828649,1110.308913,9918.759623
3925.168733,0.000000,1184.329507,9770.718434
3925.169048,0.000000,666.185348,10140.821405
3925.169363,0.000000,592.164754,10140.821405
3925.169678,153.219100,592.164754,10288.862594
3925.169993,76.609550,370.102971,10066.800811
3925.170308,0.000000,370.102971,9844.739029
3925.170623,229.828649,592.164754,9696.697840
3925.170938,689.485948,444.123565,9400.615463
3925.171253,0.000000,740.205942,9622.677246
3925.171568,153.219100,814.226536,9400.615463
3925.171883,459.657299,518.144159,9252.574275
3925.172198,153.219100,222.061783,9474.636058
3925.172513,229.828649,148.041188,9770.718434
3925.172828,153.219100,222.061783,9696.697840
3925.173143,0.000000,-0.000000,9844.739029
3925.173458,153.219100,-370.102971,10066.800811
3925.173773,306.438199,-0.000000,10066.800811
3925.174087,0.000000,-74.020594,9178.553681
3925.174402,0.000000,-0.000000,9696.697840
3925.174717,76.609550,518.144159,9474.636058
3925.175032,306.438199,296.082377,9178.553681
3925.175347,919.314598,148.041188,9326.594869
3925.175662,306.438199,222.061783,9474.636058
3925.175977,153.219100,-0.000000,9400.615463
3925.176292,0.000000,-0.000000,9178.553681
3925.176607,0.000000,-444.123565,9548.656652
3925.176922,0.000000,-370.102971,9918.759623
3925.177237,76.609550,-666.185348,9696.697840
3925.177552,0.000000,-148.041188,9474.636058
3925.177867,76.609550,-222.061783,9622.677246
3925.178182,383.047749,-0.000000,9400.615463
3925.178497,229.828649,-296.082377,9178.553681
3925.178812,76.609550,-0.000000,9178.553681
3925.179127,0.000000,-0.000000,9104.533087
3925.179442,306.438199,-0.000000,8956.491898
3925.179757,0.000000,-74.020594,9104.533087
3925.180072,0.000000,-296.082377,9770.718434
3925.180387,-383.047749,-666.185348,9622.677246
3925.180702,-459.657299,-814.226536,9696.697840
3925.181017,-306.438199,-740.205942,9770.718434
3925.181332,-153.219100,-518.144159,9548.656652
3925.181647,306.438199,-592.164754,9844.739029
3925.181962,153.219100,-370.102971,9918.759623
3925.182277,0.000000,-518.144159,9770.718434
3925.182592,153.219100,-444.123565,9104.533087
3925.182907,153.219100,-0.000000,8956.491898
3925.183222,536.266849,-296.082377,9400.615463
3925.183537,76.609550,-296.082377,9474.636058
3925.183852,76.609550,-222.061783,9474.636058
3925.184167,-153.219100,-666.185348,9918.759623
3925.184482,0.000000,-518.144159,9770.718434
3925.184797,0.000000,-592.164754,9696.697840
3925.185112,-229.828649,-592.164754,9770.718434
3925.185427,0.000000,-370.102971,9770.718434
3925.185742,0.000000,-222.061783,9474.636058
3925.186057,0.000000,296.082377,9622.677246
3925.186372,459.657299,296.082377,9474.636058
3925.186687,306.438199,592.164754,9326.594869
3925.187002,383.047749,666.185348,9252.574275
3925.187317,76.609550,444.123565,9474.636058
3925.187632,229.828649,518.144159,9548.656652
3925.187947,153.219100,-0.000000,9474.636058
3925.188262,0.000000,592.164754,9770.718434
3925.188577,0.000000,-0.000000,9622.677246
3925.188892,-229.828649,444.123565,10066.800811
3925.189207,0.000000,518.144159,9770.718434
3925.189522,-229.828649,-148.041188,9548.656652
3925.189837,0.000000,888.247130,9474.636058
3925.190152,459.657299,962.267725,9326.594869
3925.190467,229.828649,740.205942,9178.553681
3925.190782,459.657299,1110.308913,9252.574275
3925.191097,229.828649,740.205942,9696.697840
3925.191412,229.828649,1036.288319,9178.553681
3925.191727,306.438199,888.247130,9474.636058
3925.192042,306.438199,814.226536,9622.677246
3925.192357,536.266849,740.205942,9696.697840
3925.192672,76.609550,-0.000000,10214.842000
3925.192987,-153.219100,-0.000000,10214.842000
3925.193302,0.000000,222.061783,10288.862594
3925.193617,0.000000,518.144159,9844.739029
3925.193932,383.047749,444.123565,10066.800811
3925.194247,306.438199,592.164754,10066.800811
3925.194562,536.266849,592.164754,9696.697840
3925.194877,536.266849,370.102971,9474.636058
3925.195192,536.266849,740.205942,9622.677246
3925.195507,536.266849,740.205942,9548.656652
3925.195822,536.266849,-0.000000,9548.656652
3925.196137,153.219100,222.061783,9548.656652
3925.196452,0.000000,-0.000000,9918.759623
3925.196767,0.000000,-148.041188,9770.718434
3925.197082,229.828649,-0.000000,9992.780217
3925.197397,383.047749,-0.000000,10362.883188
3925.197712,153.219100,222.061783,9844.739029
3925.198027,306.438199,74.020594,9474.636058
3925.198342,306.438199,296.082377,9548.656652
3925.198657,153.219100,-0.000000,9474.636058
3925.198972,306.438199,370.102971,9474.636058
3925.199287,229.828649,-0.000000,9252.574275
3925.199602,229.828649,-0.000000,9770.718434
3925.199917,306.438199,222.061783,9474.636058
3925.200232,229.828649,-74.020594,9844.739029
3925.200547,0.000000,-0.000000,9770.718434
3925.200862,76.609550,-296.082377,9548.656652
3925.201177,76.609550,-222.061783,9622.677246
3925.201492,229.828649,-444.123565,9770.718434
3925.201807,459.657299,-148.041188,9400.615463
3925.202122,459.657299,-74.020594,8956.491898
3925.202437,306.438199,-518.144159,8808.450710
3925.202752,383.047749,-148.041188,8734.430116
3925.203067,153.219100,296.082377,9104.533087
3925.203382,0.000000,-444.123565,8438.347739
3925.203697,-383.047749,-444.123565,9252.574275
3925.204012,-536.266849,-518.144159,9696.697840
3925.204327,-689.485948,-666.185348,9548.656652
3925.204642,-536.266849,-962.267725,9918.759623
3925.204957,-612.876398,-962.267725,10214.842000
3925.205272,-383.047749,-814.226536,10066.800811
3925.205587,383.047749,-814.226536,9696.697840
3925.205902,459.657299,-148.041188,9474.636058
3925.206217,383.047749,-0.000000,9474.636058
3925.206532,536.266849,222.061783,8734.430116
3925.206847,1149.143247,-0.000000,8586.388927
3925.207162,76.609550,-0.000000,9030.512492
3925.207477,0.000000,-0.000000,9178.553681
3925.207792,-459.657299,-444.123565,9474.636058
3925.208107,0.000000,-666.185348,9844.739029
3925.208422,-229.828649,-1332.370696,10140.821405
3925.208737,-383.047749,-1036.288319,10066.800811
3925.209052,-229.828649,-518.144159,9770.718434
3925.209367,-229.828649,-148.041188,10288.862594
3925.209682,0.000000,592.164754,9992.780217
3925.209997,0.000000,888.247130,9696.697840
3925.210312,383.047749,962.267725,9252.574275
3925.210627,459.657299,1110.308913,9104.533087
3925.210942,229.828649,1258.350101,9104.533087
3925.211257,383.047749,1036.288319,9548.656652
3925.211572,0.000000,1406.391290,9474.636058
3925.211887,0.000000,592.164754,9844.739029
3925.212202,0.000000,666.185348,10214.842000
3925.212517,-383.047749,222.061783,10140.821405
3925.212832,-229.828649,-0.000000,9992.780217
3925.213147,-153.219100,-0.000000,9918.759623
3925.213462,-153.219100,740.205942,9474.636058
3925.213777,229.828649,814.226536,9770.718434
3925.214092,383.047749,1184.329507,9030.512492
3925.214407,306.438199,1332.370696,8734.430116
3925.214722,153.219100,1110.308913,9400.615463
3925.215037,459.657299,1406.391290,9030.512492
3925.215352,76.609550,962.267725,9622.677246
3925.215667,153.219100,740.205942,9696.697840
3925.215982,76.609550,666.185348,10140.821405
3925.216297,0.000000,296.082377,10140.821405
3925.216612,0.000000,222.061783,10140.821405
3925.216927,229.828649,370.102971,10436.903782
3925.217242,0.000000,518.144159,10066.800811
3925.217557,306.438199,370.102971,9918.759623
3925.217872,383.047749,962.267725,9696.697840
3925.218187,536.266849,740.205942,9992.780217
3925.218502,689.485948,814.226536,9770.718434
3925.218817,459.657299,592.164754,9696.697840
3925.219131,153.219100,740.205942,9918.759623
3925.219446,306.438199,370.102971,9474.636058
3925.219761,229.828649,-0.000000,9844.739029
3925.220076,0.000000,-0.000000,10288.862594
3925.220391,0.000000,-0.000000,10288.862594
3925.220706,383.047749,-0.000000,10510.924376
3925.221021,0.000000,-0.000000,9918.759623
3925.221336,229.828649,444.123565,9770.718434
3925.221651,76.609550,444.123565,9252.574275
3925.221966,0.000000,444.123565,9400.615463
3925.222281,459.657299,740.205942,9844.739029
3925.222596,229.828649,666.185348,9326.594869
3925.222911,0.000000,370.102971,9104.533087
3925.223226,0.000000,-0.000000,9326.594869
3925.223541,0.000000,-0.000000,9548.656652
3925.223856,0.000000,-370.102971,9696.697840
3925.224171,-306.438199,-444.123565,9474.636058
3925.224486,-306.438199,-814.226536,9918.759623
3925.224801,0.000000,-370.102971,9770.718434
3925.225116,0.000000,-74.020594,9252.574275
3925.225431,229.828649,-0.000000,9252.574275
3925.225746,0.000000,-0.000000,8882.471304
3925.226061,459.657299,-0.000000,8660.409521
3925.226376,383.047749,-0.000000,8808.450710
3925.226691,536.266849,-0.000000,9252.574275
3925.227006,0.000000,-518.144159,8882.471304
3925.227321,0.000000,-740.205942,9400.615463
3925.227636,0.000000,-518.144159,10066.800811
3925.227951,-383.047749,-962.267725,9992.780217
3925.228266,-383.047749,-814.226536,9918.759623
3925.228581,0.000000,-666.185348,9696.697840
3925.228896,0.000000,-444.123565,9696.697840
3925.229211,536.266849,-148.041188,9474.636058
3925.229526,0.000000,-222.061783,9400.615463
3925.229841,842.705048,-74.020594,9474.636058
3925.230156,459.657299,-222.061783,9178.553681
3925.230471,383.047749,-0.000000,9178.553681
3925.230786,153.219100,-74.020594,9326.594869
3925.231101,0.000000,-370.102971,9474.636058
3925.231416,0.000000,-518.144159,10066.800811
3925.231731,-459.657299,-518.144159,10066.800811
3925.232046,-459.657299,-296.082377,10362.883188
3925.232361,0.000000,-444.123565,9918.759623
3925.232676,0.000000,-0.000000,9770.718434
3925.232991,-306.438199,-148.041188,9622.677246
3925.233306,229.828649,444.123565,9622.677246
3925.233621,229.828649,740.205942,9548.656652
3925.233936,229.828649,518.144159,9474.636058
3925.234251,76.609550,444.123565,9474.636058
3925.234566,229.828649,370.102971,9400.615463
3925.234881,0.000000,666.185348,9474.636058
3925.235196,0.000000,-0.000000,9622.677246
3925.235511,153.219100,296.082377,9770.718434
3925.235826,153.219100,-0.000000,9548.656652
3925.236141,0.000000,296.082377,9474.636058
3925.236456,0.000000,592.164754,9474.636058
3925.236771,0.000000,666.185348,9400.615463
3925.237086,229.828649,370.102971,9326.594869
3925.237401,229.828649,740.205942,8956.491898
3925.237716,229.828649,962.267725,9252.574275
3925.238031,459.657299,1036.288319,9252.574275
3925.238345,306.438199,740.205942,9474.636058
3925.238660,612.876398,444.123565,9548.656652
3925.238975,76.609550,444.123565,9474.636058
3925.239290,76.609550,666.185348,9622.677246
3925.239605,0.000000,444.123565,9770.718434
3925.239920,383.047749,518.144159,10140.821405
3925.240234,459.657299,444.123565,10288.862594
3925.240549,153.219100,666.185348,10214.842000
3925.240864,76.609550,370.102971,9770.718434
3925.241179,306.438199,222.061783,9844.739029
3925.241494,612.876398,444.123565,9918.759623
3925.241809,689.485948,444.123565,9992.780217
3925.242124,383.047749,592.164754,9548.656652
3925.242439,306.438199,370.102971,9474.636058
3925.242754,229.828649,370.102971,9696.697840
3925.243069,76.609550,296.082377,9844.739029
3925.243383,0.000000,592.164754,10362.883188
3925.243698,76.609550,-0.000000,9918.759623
3925.244013,76.609550,-0.000000,10066.800811
3925.244328,153.219100,222.061783,10140.821405
3925.244643,0.000000,-0.000000,9696.697840
3925.244958,153.219100,-0.000000,9696.697840
3925.245273,0.000000,370.102971,9474.636058
3925.245588,153.219100,-0.000000,9326.594869
3925.245903,383.047749,-0.000000,9252.574275
3925.246217,306.438199,-0.000000,9326.594869
3925.246532,76.609550,-0.000000,8660.409521
3925.246847,-229.828649,-148.041188,9104.533087
3925.247162,0.000000,-0.000000,9326.594869
3925.247477,0.000000,-222.061783,9400.615463
3925.247792,76.609550,-444.123565,9548.656652
3925.248107,383.047749,-296.082377,9400.615463
3925.248422,153.219100,-444.123565,9696.697840
3925.248737,536.266849,-296.082377,9326.594869
3925.249052,459.657299,-222.061783,9252.574275
3925.249366,306.438199,-370.102971,9252.574275
3925.249681,536.266849,-74.020594,8956.491898
3925.249996,689.485948,-0.000000,8808.450710
3925.250311,306.438199,-74.020594,8882.471304
3925.250626,76.609550,-296.082377,9252.574275
3925.250941,-306.438199,-0.000000,9548.656652
3925.251256,-612.876398,-740.205942,9622.677246
3925.251571,-842.705048,-518.144159,9844.739029
3925.251886,-689.485948,-814.226536,10288.862594
3925.252201,-153.219100,-1036.288319,10362.883188
3925.252515,-153.219100,-962.267725,10436.903782
3925.252830,0.000000,-222.061783,10066.800811
3925.253145,229.828649,296.082377,9474.636058
3925.253460,306.438199,370.102971,9326.594869
3925.253775,383.047749,592.164754,9252.574275
3925.254090,306.438199,296.082377,9548.656652
3925.254405,153.219100,370.102971,9104.533087
3925.254720,-306.438199,-148.041188,9326.594869
3925.255035,-459.657299,-370.102971,9992.780217
3925.255349,-306.438199,-814.226536,9992.780217
3925.255664,-459.657299,-962.267725,10732.986159
3925.255979,-995.924147,-740.205942,10214.842000
3925.256294,-689.485948,-740.205942,9992.780217
3925.256609,-306.438199,-222.061783,9696.697840
3925.256924,0.000000,592.164754,9548.656652
3925.257239,153.219100,666.185348,9104.533087
3925.257554,459.657299,888.247130,8734.430116
3925.257869,612.876398,1184.329507,8660.409521
3925.258184,383.047749,1110.308913,8882.471304
3925.258498,76.609550,740.205942,8882.471304
3925.258813,153.219100,592.164754,9548.656652
3925.259128,0.000000,370.102971,9770.718434
3925.259443,-229.828649,222.061783,9770.718434
3925.259758,-459.657299,222.061783,9992.780217
3925.260073,0.000000,-296.082377,10140.821405
3925.260388,-229.828649,-0.000000,9918.759623
3925.260703,76.609550,518.144159,9548.656652
3925.261018,306.438199,740.205942,9178.553681
3925.261333,612.876398,1258.350101,9326.594869
3925.261647,536.266849,1184.329507,9400.615463
3925.261962,612.876398,888.247130,9400.615463
3925.262277,459.657299,814.226536,9400.615463
3925.262592,383.047749,1036.288319,9992.780217
3925.262907,536.266849,888.247130,9918.759623
3925.263222,766.095498,370.102971,10288.862594
3925.263537,229.828649,222.061783,10362.883188
3925.263852,153.219100,222.061783,10066.800811
3925.264167,76.609550,518.144159,10214.842000
3925.264481,0.000000,222.061783,10214.842000
3925.264796,383.047749,370.102971,10584.944971
3925.265111,0.000000,592.164754,9622.677246
3925.265426,383.047749,740.205942,9474.636058
3925.265741,306.438199,666.185348,9622.677246
3925.266056,153.219100,592.164754,9622.677246
3925.266371,0.000000,444.123565,9844.739029
3925.266686,229.828649,296.082377,9770.718434
3925.267001,153.219100,-0.000000,9622.677246
3925.267316,0.000000,-0.000000,9770.718434
3925.267630,0.000000,-0.000000,9918.759623
3925.267945,0.000000,370.102971,9992.780217
3925.268260,0.000000,148.041188,9770.718434
3925.268575,0.000000,296.082377,9622.677246
3925.268890,229.828649,444.123565,9474.636058
3925.269205,536.266849,-0.000000,9326.594869
3925.269520,306.438199,296.082377,9178.553681
3925.269835,153.219100,296.082377,9400.615463
3925.270150,76.609550,-0.000000,8956.491898
3925.270465,0.000000,-0.000000,9178.553681
3925.270779,0.000000,-444.123565,9622.677246
3925.271094,0.000000,-296.082377,9474.636058
3925.271409,153.219100,-518.144159,9252.574275
3925.271724,306.438199,-444.123565,9696.697840
3925.272039,76.609550,-222.061783,9622.677246
3925.272354,153.219100,-222.061783,9474.636058
3925.272669,306.438199,-74.020594,8956.491898
3925.272984,153.219100,-0.000000,8586.388927
3925.273299,383.047749,-0.000000,9178.553681
3925.273614,383.047749,-0.000000,9178.553681
3925.273928,153.219100,-148.041188,9474.636058
3925.274243,0.000000,-222.061783,9770.718434
3925.274558,0.000000,-444.123565,9474.636058
3925.274873,-459.657299,-518.144159,9844.739029
3925.275188,0.000000,-666.185348,10214.842000
3925.275503,-229.828649,-740.205942,10807.006753
3925.275818,0.000000,-666.185348,9844.739029
3925.276133,0.000000,-148.041188,9474.636058
3925.276448,306.438199,-148.041188,9548.656652
3925.276762,459.657299,-74.020594,9474.636058
3925.277077,153.219100,-0.000000,9548.656652
3925.277392,229.828649,-0.000000,9548.656652
3925.277707,229.828649,-148.041188,9400.615463
3925.278022,229.828649,-0.000000,9474.636058
3925.278337,0.000000,-296.082377,9918.759623
3925.278652,-383.047749,-370.102971,9992.780217
3925.278967,-459.657299,-518.144159,9992.780217
3925.279282,0.000000,-222.061783,9696.697840
3925.279597,-306.438199,-148.041188,9548.656652
3925.279911,0.000000,-0.000000,9844.739029
3925.280226,76.609550,-0.000000,9400.615463
3925.280541,229.828649,444.123565,9252.574275
3925.280856,766.095498,666.185348,9252.574275
3925.281171,612.876398,1110.308913,8956.491898
3925.281486,383.047749,518.144159,9622.677246
3925.281801,459.657299,814.226536,9326.594869
3925.282116,153.219100,444.123565,9178.553681
3925.282431,0.000000,370.102971,9400.615463
3925.282746,0.000000,-0.000000,9622.677246
3925.283060,76.609550,370.102971,9918.759623
3925.283375,0.000000,296.082377,9474.636058
3925.283690,76.609550,296.082377,9474.636058
3925.284005,76.609550,592.164754,9770.718434
3925.284320,842.705048,370.102971,9992.780217
3925.284635,383.047749,444.123565,9474.636058
3925.284950,153.219100,814.226536,9548.656652
3925.285265,536.266849,814.226536,9400.615463
3925.285580,536.266849,962.267725,9548.656652
3925.285894,306.438199,592.164754,9622.677246
3925.286209,383.047749,518.144159,10214.842000
3925.286524,153.219100,518.144159,9844.739029
3925.286839,76.609550,444.123565,9548.656652
3925.287154,153.219100,222.061783,9992.780217
3925.287469,76.609550,370.102971,10436.903782
3925.287784,459.657299,-0.000000,9770.718434
3925.288099,153.219100,-0.000000,9844.739029
3925.288414,383.047749,296.082377,9844.739029
3925.288729,383.047749,444.123565,9696.697840
3925.289043,995.924147,444.123565,9622.677246
3925.289358,383.047749,222.061783,9474.636058
3925.289673,0.000000,296.082377,9696.697840
3925.289988,153.219100,518.144159,9474.636058
3925.290303,229.828649,296.082377,9474.636058
3925.290618,76.609550,148.041188,9770.718434
3925.290933,229.828649,-0.000000,9474.636058
3925.291248,153.219100,-0.000000,9696.697840
3925.291563,0.000000,-222.061783,10066.800811
3925.291878,0.000000,-74.020594,9326.594869
3925.292192,-229.828649,-74.020594,9474.636058
3925.292507,0.000000,-74.020594,9622.677246
3925.292822,0.000000,-0.000000,9252.574275
3925.293137,76.609550,296.082377,9326.594869
3925.293452,76.609550,-0.000000,9400.615463
3925.293767,153.219100,-0.000000,9474.636058
3925.294082,76.609550,-0.000000,9178.553681
3925.294397,383.047749,-0.000000,9178.553681
3925.294712,229.828649,-0.000000,9770.718434
3925.295026,459.657299,-296.082377,9696.697840
3925.295341,383.047749,-370.102971,9622.677246
3925.295656,153.219100,-518.144159,9548.656652
3925.295971,306.438199,-222.061783,9622.677246
3925.296286,153.219100,-444.123565,9474.636058
3925.296601,842.705048,-0.000000,9474.636058
3925.296916,459.657299,-74.020594,9252.574275
3925.297231,229.828649,-74.020594,8956.491898
3925.297546,76.609550,-0.000000,9104.533087
3925.297861,0.000000,-74.020594,9326.594869
3925.298175,-306.438199,-296.082377,9474.636058
3925.298490,-612.876398,-740.205942,9844.739029
3925.298805,-612.876398,-666.185348,10066.800811
3925.299120,-536.266849,-888.247130,10362.883188
3925.299435,-459.657299,-888.247130,10288.862594
3925.299750,153.219100,-740.205942,9992.780217
3925.300065,536.266849,-814.226536,9696.697840
3925.300380,76.609550,74.020594,9548.656652
3925.300695,229.828649,370.102971,9030.512492
3925.301010,459.657299,444.123565,8660.409521
3925.301324,229.828649,518.144159,8956.491898
3925.301639,229.828649,-0.000000,9178.553681
3925.301954,-153.219100,-148.041188,9252.574275
3925.302269,-229.828649,-592.164754,9992.780217
3925.302584,-919.314598,-814.226536,10066.800811
3925.302899,-536.266849,-962.267725,9844.739029
3925.303214,-842.705048,-888.247130,9918.759623
3925.303529,-306.438199,-592.164754,10140.821405
3925.303844,0.000000,-0.000000,9622.677246
3925.304158,76.609550,666.185348,9474.636058
3925.304473,383.047749,1110.308913,9030.512492
3925.304788,919.314598,1258.350101,9030.512492
3925.305103,689.485948,1406.391290,8734.430116
3925.305418,459.657299,1258.350101,9178.553681
3925.305733,0.000000,740.205942,9400.615463
3925.306048,-229.828649,296.082377,10288.862594
3925.306363,-229.828649,-0.000000,10288.862594
3925.306678,-306.438199,-0.000000,10066.800811
3925.306993,-459.657299,296.082377,9770.718434
3925.307307,-306.438199,222.061783,9992.780217
3925.307622,-153.219100,296.082377,9844.739029
3925.307937,0.000000,814.226536,9474.636058
3925.308252,229.828649,962.267725,9252.574275
3925.308567,229.828649,1036.288319,9474.636058
3925.308882,306.438199,1036.288319,9474.636058
3925.309197,536.266849,1258.350101,9696.697840
3925.309512,383.047749,1110.308913,9622.677246
3925.309827,306.438199,888.247130,9770.718434
3925.310142,229.828649,666.185348,9844.739029
3925.310456,76.609550,518.144159,10288.862594
3925.310771,0.000000,296.082377,10436.903782
3925.311086,0.000000,-0.000000,10214.842000
3925.311401,0.000000,222.061783,9844.739029
3925.311716,0.000000,222.061783,10066.800811
3925.312031,383.047749,370.102971,9844.739029
3925.312346,383.047749,444.123565,9770.718434
3925.312661,536.266849,814.226536,9696.697840
3925.312976,536.266849,370.102971,9400.615463
3925.313290,383.047749,592.164754,9400.615463
3925.313605,383.047749,518.144159,9400.615463
3925.313920,153.219100,296.082377,9178.553681
3925.314235,229.828649,222.061783,9696.697840
3925.314550,76.609550,-0.000000,9622.677246
3925.314865,0.000000,-0.000000,9770.718434
3925.315180,0.000000,-0.000000,9992.780217
3925.315495,153.219100,-0.000000,9918.759623
3925.315810,0.000000,-0.000000,9844.739029
3925.316125,306.438199,296.082377,9252.574275
3925.316439,306.438199,370.102971,8956.491898
3925.316754,459.657299,444.123565,9474.636058
3925.317069,612.876398,-0.000000,9178.553681
3925.317384,229.828649,296.082377,9548.656652
3925.317699,76.609550,-0.000000,9474.636058
3925.318014,76.609550,-74.020594,9622.677246
3925.318329,229.828649,-444.123565,9696.697840
3925.318644,536.266849,-444.123565,9844.739029
3925.318959,0.000000,-296.082377,9770.718434
3925.319274,76.609550,-444.123565,9548.656652
3925.319588,459.657299,-74.020594,9474.636058
3925.319903,383.047749,-0.000000,9400.615463
3925.320218,689.485948,-148.041188,9326.594869
3925.320533,229.828649,-74.020594,9030.512492
3925.320848,306.438199,-148.041188,9030.512492
3925.321163,76.609550,-370.102971,9400.615463
3925.321478,0.000000,-740.205942,9474.636058
3925.321793,0.000000,-370.102971,9844.739029
3925.322108,0.000000,-444.123565,9918.759623
3925.322422,0.000000,-592.164754,9992.780217
3925.322737,0.000000,-1036.288319,9844.739029
3925.323052,0.000000,-592.164754,9992.780217
3925.323367,306.438199,-444.123565,9696.697840
3925.323682,153.219100,-444.123565,9252.574275
3925.323997,153.219100,-0.000000,9104.533087
3925.324312,689.485948,-0.000000,9474.636058
3925.324627,229.828649,-0.000000,8882.471304
3925.324942,153.219100,-74.020594,9252.574275
3925.325257,229.828649,-148.041188,9030.512492
3925.325571,0.000000,-370.102971,9326.594869
3925.325886,-229.828649,-370.102971,9770.718434
3925.326201,-153.219100,-222.061783,9696.697840
3925.326516,-306.438199,-444.123565,10288.862594
3925.326831,-153.219100,-222.061783,9548.656652
3925.327146,-229.828649,-0.000000,9474.636058
3925.327461,0.000000,370.102971,9696.697840
3925.327776,153.219100,666.185348,9474.636058
3925.328091,76.609550,666.185348,9178.553681
3925.328406,76.609550,962.267725,9030.512492
3925.328720,536.266849,962.267725,9104.533087
3925.329035,306.438199,962.267725,9474.636058
3925.329350,0.000000,518.144159,9548.656652
3925.329665,0.000000,666.185348,9992.780217
3925.329980,-153.219100,444.123565,9770.718434
3925.330295,-229.828649,370.102971,10066.800811
3925.330610,-229.828649,296.082377,9918.759623
3925.330925,0.000000,-0.000000,9844.739029
3925.331240,0.000000,666.185348,9844.739029
3925.331555,153.219100,370.102971,9474.636058
3925.331869,536.266849,592.164754,9474.636058
3925.332184,459.657299,962.267725,9474.636058
3925.332499,383.047749,740.205942,9252.574275
3925.332814,306.438199,1110.308913,9622.677246
3925.333129,153.219100,740.205942,9696.697840
3925.333444,383.047749,518.144159,9918.759623
3925.333759,153.219100,296.082377,9844.739029
3925.334074,612.876398,370.102971,9918.759623
3925.334389,76.609550,222.061783,9474.636058
3925.334703,0.000000,592.164754,9918.759623
3925.335018,306.438199,444.123565,10510.924376
3925.335333,306.438199,592.164754,9992.780217
3925.335648,306.438199,740.205942,9474.636058
3925.335963,689.485948,518.144159,9474.636058
3925.336278,536.266849,296.082377,9326.594869
3925.336593,459.657299,592.164754,9548.656652
3925.336908,459.657299,592.164754,9696.697840
3925.337223,459.657299,370.102971,9844.739029
3925.337538,229.828649,148.041188,9844.739029
3925.337852,153.219100,-0.000000,9770.718434
3925.338167,153.219100,-0.000000,9918.759623
3925.338482,383.047749,-0.000000,9992.780217
3925.338797,0.000000,370.102971,9622.677246
3925.339112,153.219100,74.020594,9622.677246
3925.339427,383.047749,370.102971,9622.677246
3925.339742,76.609550,370.102971,9474.636058
3925.340057,76.609550,296.082377,9474.636058
3925.340371,0.000000,592.164754,9548.656652
3925.340686,306.438199,-0.000000,9178.553681
3925.341001,459.657299,-0.000000,9326.594869
3925.341316,459.657299,370.102971,9178.553681
3925.341631,0.000000,-222.061783,9252.574275
3925.341946,76.609550,-814.226536,9696.697840
3925.342261,153.219100,-370.102971,9770.718434
3925.342576,153.219100,-592.164754,10066.800811
3925.342890,229.828649,-296.082377,9622.677246
3925.343205,0.000000,-666.185348,8808.450710
3925.343520,612.876398,-814.226536,9400.615463
3925.343835,536.266849,-148.041188,9104.533087
3925.344150,689.485948,-74.020594,8956.491898
3925.344465,459.657299,-0.000000,9104.533087
3925.344780,229.828649,-222.061783,9178.553681
3925.345094,-229.828649,-296.082377,9030.512492
3925.345409,-153.219100,-518.144159,9252.574275
3925.345724,-612.876398,-814.226536,10214.842000
3925.346039,-689.485948,-1110.308913,10140.821405
3925.346354,-995.924147,-1406.391290,10288.862594
3925.346669,-995.924147,-814.226536,10214.842000
3925.346984,0.000000,-222.061783,9622.677246
3925.347299,306.438199,-74.020594,9770.718434
3925.347613,536.266849,296.082377,9474.636058
3925.347928,536.266849,-74.020594,8956.491898
3925.348243,306.438199,296.082377,8734.430116
3925.348558,0.000000,370.102971,8734.430116
3925.348873,0.000000,148.041188,9252.574275
3925.349188,-229.828649,-0.000000,9622.677246
3925.349503,-536.266849,-370.102971,9918.759623
3925.349817,-536.266849,-592.164754,9992.780217
3925.350132,-536.266849,-296.082377,9992.780217
3925.350447,-689.485948,-148.041188,10140.821405
3925.350762,-383.047749,-0.000000,9992.780217
3925.351077,0.000000,-0.000000,9548.656652
3925.351392,76.609550,666.185348,8956.491898
3925.351707,229.828649,1258.350101,9400.615463
3925.352022,229.828649,1332.370696,9252.574275
3925.352336,612.876398,1258.350101,9030.512492
3925.352651,229.828649,888.247130,9474.636058
3925.352966,76.609550,888.247130,9252.574275
3925.353281,76.609550,666.185348,9770.718434
3925.353596,-153.219100,444.123565,10140.821405
3925.353911,0.000000,296.082377,9844.739029
3925.354226,0.000000,-0.000000,9770.718434
3925.354541,-383.047749,444.123565,9770.718434
3925.354855,0.000000,296.082377,9622.677246
3925.355170,229.828649,740.205942,9548.656652
3925.355485,459.657299,1184.329507,9400.615463
3925.355800,536.266849,1332.370696,9400.615463
3925.356115,536.266849,1480.411884,9178.553681
3925.356430,689.485948,1258.350101,9770.718434
3925.356745,-229.828649,666.185348,9696.697840
3925.357059,306.438199,666.185348,9844.739029
3925.357374,0.000000,592.164754,10066.800811
3925.357689,76.609550,444.123565,10140.821405
3925.358004,229.828649,592.164754,10288.862594
3925.358319,229.828649,222.061783,10214.842000
3925.358634,153.219100,444.123565,9992.780217
3925.358949,76.609550,592.164754,9770.718434
3925.359264,383.047749,814.226536,9548.656652
3925.359578,766.095498,666.185348,9622.677246
3925.359893,919.314598,370.102971,9474.636058
3925.360208,76.609550,666.185348,9474.636058
3925.360523,0.000000,296.082377,9474.636058
3925.360838,153.219100,444.123565,9474.636058
3925.361153,153.219100,444.123565,9696.697840
3925.361468,0.000000,222.061783,10214.842000
3925.361782,0.000000,-0.000000,9696.697840
3925.362097,0.000000,-0.000000,9918.759623
3925.362412,0.000000,-0.000000,9918.759623
3925.362727,0.000000,-0.000000,9622.677246
3925.363042,229.828649,-222.061783,9030.512492
3925.363357,153.219100,592.164754,9178.553681
3925.363672,306.438199,370.102971,9030.512492
3925.363987,153.219100,-0.000000,9030.512492
3925.364301,0.000000,-0.000000,9400.615463
3925.364616,0.000000,-0.000000,9400.615463
3925.364931,0.000000,-222.061783,8882.471304
3925.365246,-229.828649,-296.082377,9474.636058
3925.365561,0.000000,-444.123565,9548.656652
3925.365876,0.000000,-518.144159,9992.780217
3925.366191,229.828649,-592.164754,9326.594869
3925.366505,306.438199,-0.000000,9252.574275
3925.366820,229.828649,-148.041188,9548.656652
3925.367135,306.438199,-148.041188,9326.594869
3925.367450,536.266849,-296.082377,9178.553681
3925.367765,76.609550,-444.123565,9326.594869
3925.368080,306.438199,-296.082377,9030.512492
3925.368395,383.047749,-370.102971,9474.636058
3925.368710,0.000000,-370.102971,9622.677246
3925.369024,0.000000,-666.185348,9918.759623
3925.369339,0.000000,-962.267725,9548.656652
3925.369654,-383.047749,-962.267725,9918.759623
3925.369969,-306.438199,-740.205942,10066.800811
3925.370284,0.000000,-740.205942,9844.739029
3925.370599,76.609550,-296.082377,9918.759623
3925.370914,229.828649,-74.020594,9400.615463
3925.371228,229.828649,222.061783,9400.615463
3925.371543,229.828649,148.041188,9400.615463
3925.371858,306.438199,370.102971,8882.471304
3925.372173,229.828649,-0.000000,9622.677246
3925.372488,-459.657299,-0.000000,9548.656652
3925.372803,0.000000,-296.082377,9548.656652
3925.373118,-76.609550,-222.061783,10288.862594
3925.373433,0.000000,-444.123565,9918.759623
3925.373747,-153.219100,-370.102971,9918.759623
3925.374062,0.000000,-444.123565,9992.780217
3925.374377,0.000000,222.061783,9622.677246
3925.374692,229.828649,-0.000000,9326.594869
3925.375007,153.219100,518.144159,9178.553681
3925.375322,229.828649,518.144159,9326.594869
3925.375637,-229.828649,592.164754,9104.533087
3925.375952,689.485948,962.267725,9474.636058
3925.376266,76.609550,666.185348,9178.553681
3925.376581,153.219100,444.123565,9548.656652
3925.376896,306.438199,518.144159,9548.656652
3925.377211,153.219100,444.123565,9400.615463
3925.377526,0.000000,370.102971,9844.739029
3925.377841,0.000000,296.082377,9770.718434
3925.378156,0.000000,370.102971,9770.718434
3925.378470,612.876398,370.102971,9548.656652
3925.378785,229.828649,370.102971,9326.594869
3925.379100,612.876398,1110.308913,9474.636058
3925.379415,459.657299,740.205942,9696.697840
3925.379730,612.876398,962.267725,9474.636058
3925.380045,536.266849,740.205942,9474.636058
3925.380360,612.876398,444.123565,9622.677246
3925.380675,383.047749,740.205942,9918.759623
3925.380989,306.438199,666.185348,9696.697840
3925.381304,0.000000,740.205942,10288.862594
3925.381619,0.000000,444.123565,9918.759623
3925.381934,459.657299,888.247130,10066.800811
3925.382249,76.609550,370.102971,10140.821405
3925.382564,0.000000,296.082377,10140.821405
3925.382879,229.828649,370.102971,10214.842000
3925.383193,383.047749,666.185348,9548.656652
3925.383508,383.047749,740.205942,9400.615463
3925.383823,306.438199,518.144159,9548.656652
3925.384138,306.438199,444.123565,9622.677246
3925.384453,153.219100,222.061783,9474.636058
3925.384768,76.609550,-0.000000,9622.677246
3925.385083,0.000000,-222.061783,9474.636058
3925.385398,0.000000,-222.061783,9474.636058
3925.385712,383.047749,-0.000000,9548.656652
3925.386027,0.000000,296.082377,10066.800811
3925.386342,0.000000,-0.000000,9622.677246
3925.386657,153.219100,148.041188,9474.636058
3925.386972,76.609550,222.061783,9104.533087
3925.387287,76.609550,-0.000000,9178.553681
3925.387602,153.219100,222.061783,9326.594869
3925.387916,383.047749,370.102971,9474.636058
3925.388231,0.000000,-296.082377,9622.677246
3925.388546,153.219100,-296.082377,9400.615463
3925.388861,306.438199,-518.144159,9622.677246
3925.389176,153.219100,-370.102971,9548.656652
3925.389491,76.609550,-444.123565,9474.636058
3925.389806,459.657299,-592.164754,9548.656652
3925.390121,383.047749,-296.082377,9770.718434
3925.390435,689.485948,-296.082377,9474.636058
3925.390750,536.266849,-148.041188,9252.574275
3925.391065,612.876398,-444.123565,8956.491898
3925.391380,229.828649,-370.102971,8808.450710
3925.391695,0.000000,-222.061783,8882.471304
3925.392010,0.000000,-296.082377,9696.697840
3925.392325,-153.219100,-222.061783,9252.574275
3925.392639,-612.876398,-592.164754,9696.697840
3925.392954,-459.657299,-1258.350101,9696.697840
3925.393269,-842.705048,-888.247130,10288.862594
3925.393584,-459.657299,-1258.350101,10658.965565
3925.393899,-383.047749,-740.205942,10066.800811
3925.394214,612.876398,-592.164754,9474.636058
3925.394529,842.705048,296.082377,9622.677246
3925.394844,689.485948,592.164754,9178.553681
3925.395158,536.266849,296.082377,8808.450710
3925.395473,306.438199,518.144159,8808.450710
3925.395788,0.000000,444.123565,9030.512492
3925.396103,153.219100,-444.123565,9178.553681
3925.396418,-229.828649,-370.102971,9326.594869
3925.396733,-536.266849,-592.164754,10436.903782
3925.397048,-842.705048,-962.267725,10066.800811
3925.397363,-919.314598,-666.185348,10066.800811
3925.397677,-536.266849,-518.144159,9918.759623
3925.397992,76.609550,-222.061783,9548.656652
3925.398307,76.609550,296.082377,9474.636058
3925.398622,306.438199,814.226536,9326.594869
3925.398937,766.095498,1110.308913,9104.533087
3925.399252,995.924147,814.226536,8142.265362
3925.399567,459.657299,1036.288319,8956.491898
3925.399881,0.000000,1110.308913,9622.677246
3925.400196,153.219100,592.164754,9696.697840
3925.400511,76.609550,296.082377,10140.821405
3925.400826,-383.047749,222.061783,9918.759623
3925.401141,-612.876398,-0.000000,10436.903782
3925.401456,-306.438199,-0.000000,9844.739029
3925.401771,-76.609550,592.164754,9622.677246
3925.402086,-229.828649,740.205942,9548.656652
3925.402400,229.828649,1110.308913,9474.636058
3925.402715,459.657299,1110.308913,9474.636058
3925.403030,383.047749,1036.288319,9400.615463
3925.403345,383.047749,1258.350101,9178.553681
3925.403660,612.876398,1406.391290,9548.656652
3925.403975,459.657299,1184.329507,9992.780217
3925.404290,0.000000,666.185348,9992.780217
3925.404604,0.000000,592.164754,9918.759623
3925.404919,0.000000,666.185348,9992.780217
3925.405234,76.609550,444.123565,10140.821405
3925.405549,76.609550,592.164754,10584.944971
3925.405864,0.000000,222.061783,10066.800811
3925.406179,0.000000,444.123565,9918.759623
3925.406494,76.609550,444.123565,9400.615463
3925.406809,229.828649,666.185348,9696.697840
3925.407123,612.876398,370.102971,9400.615463
3925.407438,536.266849,666.185348,9326.594869
3925.407753,229.828649,296.082377,9326.594869
3925.408068,0.000000,370.102971,9400.615463
3925.408383,153.219100,518.144159,9696.697840
3925.408698,76.609550,-74.020594,9770.718434
3925.409013,0.000000,-0.000000,9992.780217
3925.409327,229.828649,-0.000000,9918.759623
3925.409642,153.219100,-74.020594,9696.697840
3925.409957,76.609550,-0.000000,9474.636058
3925.410272,153.219100,-0.000000,9622.677246
3925.410587,153.219100,370.102971,9178.553681
3925.410902,76.609550,296.082377,9178.553681
3925.411217,306.438199,296.082377,9326.594869
3925.411532,306.438199,-148.041188,9178.553681
3925.411846,306.438199,-148.041188,9474.636058
3925.412161,0.000000,-0.000000,9622.677246
3925.412476,0.000000,-0.000000,9474.636058
3925.412791,306.438199,-518.144159,9696.697840
3925.413106,229.828649,-370.102971,10362.883188
3925.413421,383.047749,-444.123565,9770.718434
3925.413736,0.000000,-296.082377,9622.677246
3925.414050,383.047749,-148.041188,9326.594869
3925.414365,229.828649,-0.000000,9252.574275
3925.414680,612.876398,-0.000000,9474.636058
3925.414995,306.438199,-444.123565,9104.533087
3925.415310,0.000000,-74.020594,9400.615463
3925.415625,-229.828649,-148.041188,9326.594869
3925.415940,0.000000,-296.082377,9474.636058
3925.416255,0.000000,-518.144159,9696.697840
3925.416569,-459.657299,-1036.288319,10214.842000
3925.416884,-459.657299,-962.267725,9770.718434
3925.417199,0.000000,-888.247130,9622.677246
3925.417514,0.000000,-444.123565,9770.718434
3925.417829,0.000000,-296.082377,9474.636058
3925.418144,459.657299,-0.000000,9326.594869
3925.418459,76.609550,-0.000000,9104.533087
3925.418773,0.000000,148.041188,9400.615463
3925.419088,76.609550,-0.000000,9252.574275
3925.419403,0.000000,-148.041188,9400.615463
3925.419718,0.000000,-148.041188,9696.697840
3925.420033,-306.438199,-444.123565,9474.636058
3925.420348,0.000000,-444.123565,9918.759623
3925.420663,0.000000,-518.144159,9770.718434
3925.420978,-229.828649,-370.102971,9918.759623
3925.421292,0.000000,-148.041188,9622.677246
3925.421607,0.000000,-0.000000,9474.636058
3925.421922,306.438199,296.082377,9622.677246
3925.422237,689.485948,666.185348,9474.636058
3925.422552,842.705048,592.164754,9474.636058
3925.422867,229.828649,888.247130,9178.553681
3925.423182,383.047749,592.164754,9474.636058
3925.423497,0.000000,370.102971,9252.574275
3925.423811,76.609550,222.061783,9696.697840
3925.424126,153.219100,-0.000000,10362.883188
3925.424441,0.000000,222.061783,9918.759623
3925.424756,76.609550,296.082377,9844.739029
3925.425071,0.000000,370.102971,9992.780217
3925.425386,153.219100,814.226536,9844.739029
3925.425701,153.219100,370.102971,9696.697840
3925.426015,153.219100,1036.288319,9474.636058
3925.426330,76.609550,1110.308913,9844.739029
3925.426645,459.657299,962.267725,9252.574275
3925.426960,612.876398,1110.308913,9474.636058
3925.427275,306.438199,296.082377,9474.636058
3925.427590,76.609550,740.205942,9696.697840
3925.427905,76.609550,518.144159,9696.697840
3925.428220,0.000000,370.102971,9918.759623
3925.428534,0.000000,296.082377,9992.780217
3925.428849,0.000000,296.082377,9844.739029
3925.429164,0.000000,74.020594,9992.780217
3925.429479,229.828649,444.123565,9770.718434
3925.429794,306.438199,592.164754,9770.718434
3925.430109,612.876398,296.082377,9622.677246
3925.430424,689.485948,-0.000000,9918.759623
3925.430738,229.828649,296.082377,9474.636058
3925.431053,306.438199,444.123565,9474.636058
3925.431368,306.438199,370.102971,9622.677246
3925.431683,0.000000,-0.000000,9696.697840
3925.431998,0.000000,-74.020594,9548.656652
3925.432313,76.609550,-0.000000,9696.697840
3925.432628,306.438199,-0.000000,9918.759623
3925.432943,229.828649,-0.000000,9844.739029
3925.433257,306.438199,-0.000000,9696.697840
3925.433572,306.438199,148.041188,9770.718434
3925.433887,229.828649,-0.000000,9474.636058
3925.434202,306.438199,370.102971,9400.615463
3925.434517,76.609550,-0.000000,9178.553681
3925.434832,306.438199,-0.000000,9770.718434
3925.435147,153.219100,-592.164754,9474.636058
3925.435461,0.000000,-74.020594,9400.615463
3925.435776,-153.219100,-148.041188,9548.656652
3925.436091,76.609550,-296.082377,9770.718434
3925.436406,229.828649,-296.082377,9770.718434
3925.436721,76.609550,-370.102971,9548.656652
3925.437036,76.609550,-296.082377,9696.697840
3925.437351,153.219100,-0.000000,9474.636058
3925.437666,536.266849,-0.000000,9400.615463
3925.437980,766.095498,-0.000000,9252.574275
3925.438295,229.828649,-74.020594,9104.533087
3925.438610,153.219100,-74.020594,8956.491898
3925.438925,0.000000,-0.000000,9178.553681
3925.439240,-306.438199,-0.000000,9326.594869
3925.439555,-689.485948,-148.041188,9474.636058
3925.439870,-612.876398,-666.185348,9844.739029
3925.440184,-842.705048,-814.226536,9992.780217
3925.440499,-612.876398,-962.267725,10066.800811
3925.440814,-536.266849,-888.247130,10362.883188
3925.441129,-306.438199,-814.226536,9770.718434
3925.441444,-229.828649,-370.102971,9696.697840
3925.441759,459.657299,296.082377,9104.533087
3925.442074,1072.533697,814.226536,8734.430116
3925.442389,689.485948,444.123565,8956.491898
3925.442703,383.047749,296.082377,9030.512492
3925.443018,76.609550,-148.041188,8956.491898
3925.443333,-153.219100,-370.102971,9326.594869
3925.443648,-383.047749,-444.123565,9844.739029
3925.443963,-306.438199,-814.226536,10066.800811
3925.444278,-306.438199,-1184.329507,10436.903782
3925.444593,-459.657299,-666.185348,10584.944971
3925.444908,-383.047749,-444.123565,9992.780217
3925.445223,76.609550,296.082377,9400.615463
3925.445538,459.657299,592.164754,9696.697840
3925.445853,153.219100,888.247130,9400.615463
3925.446168,459.657299,1184.329507,9104.533087
3925.446483,459.657299,1184.329507,8956.491898
3925.446798,383.047749,888.247130,9474.636058
3925.447113,229.828649,814.226536,10066.800811
3925.447428,0.000000,592.164754,9548.656652
3925.447743,-153.219100,592.164754,9844.739029
3925.448058,-459.657299,-0.000000,10066.800811
3925.448373,-766.095498,592.164754,10214.842000
3925.448688,-306.438199,296.082377,9918.759623
3925.449003,0.000000,444.123565,9696.697840
3925.449318,0.000000,666.185348,9474.636058
3925.449633,0.000000,962.267725,9104.533087
3925.449948,536.266849,888.247130,9030.512492
3925.450262,229.828649,1258.350101,9178.553681
3925.450577,306.438199,1258.350101,9474.636058
3925.450892,383.047749,1406.391290,9622.677246
3925.451207,229.828649,1036.288319,9622.677246
3925.451522,0.000000,518.144159,10140.821405
3925.451837,383.047749,296.082377,9992.780217
3925.452152,0.000000,370.102971,10140.821405
3925.452467,0.000000,370.102971,10140.821405
3925.452782,76.609550,592.164754,9696.697840
3925.453097,229.828649,518.144159,10066.800811
3925.453412,229.828649,518.144159,9622.677246
3925.453727,383.047749,370.102971,9252.574275
3925.454042,383.047749,666.185348,9104.533087
3925.454357,536.266849,444.123565,9474.636058
3925.454672,153.219100,666.185348,9622.677246
3925.454987,383.047749,666.185348,10140.821405
3925.455302,0.000000,148.041188,10140.821405
3925.455617,0.000000,-0.000000,9770.718434
3925.455932,153.219100,-0.000000,9622.677246
3925.456247,153.219100,-0.000000,9992.780217
3925.456562,229.828649,-0.000000,10214.842000
3925.456877,306.438199,518.144159,9918.759623
3925.457192,229.828649,592.164754,9622.677246
3925.457507,459.657299,296.082377,9548.656652
3925.457822,383.047749,370.102971,9622.677246
3925.458137,0.000000,296.082377,9178.553681
3925.458451,306.438199,-0.000000,9400.615463
3925.458766,0.000000,-0.000000,9400.615463
3925.459081,0.000000,-0.000000,9474.636058
3925.459396,0.000000,-296.082377,9548.656652
3925.459711,0.000000,-666.185348,9770.718434
3925.460026,-306.438199,-444.123565,9696.697840
3925.460341,0.000000,-370.102971,9770.718434
3925.460656,383.047749,-74.020594,9474.636058
3925.460971,383.047749,-0.000000,9474.636058
3925.461286,306.438199,296.082377,9030.512492
3925.461601,76.609550,-74.020594,8882.471304
3925.461916,0.000000,-0.000000,9326.594869
3925.462231,229.828649,-0.000000,9400.615463
3925.462546,76.609550,-222.061783,9474.636058
3925.462861,-306.438199,-518.144159,9252.574275
3925.463176,-229.828649,-814.226536,9474.636058
3925.463491,0.000000,-666.185348,9474.636058
3925.463806,0.000000,-962.267725,9992.780217
3925.464121,-306.438199,-814.226536,9992.780217
3925.464436,-306.438199,-592.164754,9696.697840
3925.464751,153.219100,-222.061783,9548.656652
3925.465066,459.657299,-296.082377,9178.553681
3925.465381,536.266849,-0.000000,9178.553681
3925.465696,459.657299,-74.020594,9178.553681
3925.466011,383.047749,-222.061783,9400.615463
3925.466326,153.219100,-74.020594,9252.574275
3925.466640,0.000000,-222.061783,9400.615463
3925.466955,-229.828649,-518.144159,9622.677246
3925.467270,-383.047749,-518.144159,9992.780217
3925.467585,-229.828649,-740.205942,10362.883188
3925.467900,-459.657299,-296.082377,9844.739029
3925.468215,-229.828649,-148.041188,9992.780217
3925.468530,229.828649,-0.000000,9696.697840
3925.468845,306.438199,222.061783,9770.718434
3925.469160,229.828649,814.226536,9622.677246
3925.469475,153.219100,296.082377,9178.553681
3925.469790,383.047749,814.226536,9104.533087
3925.470105,383.047749,444.123565,9400.615463
3925.470420,0.000000,740.205942,9474.636058
3925.470735,153.219100,444.123565,9474.636058
3925.471050,0.000000,296.082377,9770.718434
3925.471365,-153.219100,-0.000000,9918.759623
3925.471680,0.000000,222.061783,10140.821405
3925.471995,0.000000,592.164754,9474.636058
3925.472310,0.000000,370.102971,9400.615463
3925.472625,0.000000,888.247130,9474.636058
3925.472940,536.266849,814.226536,9474.636058
3925.473255,229.828649,962.267725,9178.553681
3925.473570,689.485948,1258.350101,9548.656652
3925.473885,612.876398,888.247130,9178.553681
3925.474200,612.876398,1110.308913,9326.594869
3925.474514,536.266849,666.185348,9474.636058
3925.474829,76.609550,592.164754,9992.780217
3925.475144,306.438199,370.102971,9992.780217
3925.475459,0.000000,370.102971,9696.697840
3925.475774,306.438199,518.144159,9918.759623
3925.476089,383.047749,444.123565,10066.800811
3925.476404,76.609550,444.123565,10288.862594
3925.476719,459.657299,370.102971,9844.739029
3925.477034,459.657299,222.061783,9400.615463
3925.477349,612.876398,740.205942,9844.739029
3925.477664,612.876398,592.164754,9696.697840
3925.477979,689.485948,-0.000000,10214.842000
3925.478294,76.609550,296.082377,9844.739029
3925.478609,229.828649,518.144159,9622.677246
3925.478924,153.219100,370.102971,10066.800811
3925.479239,76.609550,370.102971,9992.780217
3925.479554,0.000000,-74.020594,10288.862594
3925.479869,0.000000,-0.000000,9992.780217
3925.480184,0.000000,-0.000000,9770.718434
3925.480499,0.000000,148.041188,9992.780217
3925.480814,153.219100,370.102971,9474.636058
3925.481129,153.219100,222.061783,9474.636058
3925.481444,229.828649,296.082377,9548.656652
3925.481759,153.219100,222.061783,9400.615463
3925.482074,76.609550,-0.000000,9326.594869
3925.482389,0.000000,-0.000000,9844.739029
3925.482703,229.828649,-0.000000,9474.636058
3925.483018,0.000000,-0.000000,9178.553681
3925.483333,0.000000,-148.041188,9326.594869
3925.483648,306.438199,-370.102971,9622.677246
3925.483963,459.657299,-592.164754,9474.636058
3925.484278,229.828649,-222.061783,9474.636058
3925.484593,229.828649,-296.082377,9326.594869
3925.484908,612.876398,-0.000000,9178.553681
3925.485223,689.485948,-148.041188,9104.533087
3925.485538,995.924147,-444.123565,9326.594869
3925.485853,153.219100,-222.061783,8808.450710
3925.486168,153.219100,-74.020594,8808.450710
3925.486483,0.000000,-592.164754,9104.533087
3925.486798,-229.828649,-370.102971,9770.718434
3925.487113,-383.047749,-814.226536,9992.780217
3925.487428,-459.657299,-962.267725,9844.739029
3925.487743,-612.876398,-814.226536,10066.800811
3925.488058,-536.266849,-740.205942,10214.842000
3925.488373,229.828649,-444.123565,10214.842000
3925.488688,842.705048,-296.082377,9474.636058
3925.489003,229.828649,-0.000000,9474.636058
3925.489318,383.047749,444.123565,9030.512492
3925.489633,383.047749,592.164754,8956.491898
3925.489948,76.609550,222.061783,9104.533087
3925.490263,-306.438199,-0.000000,9770.718434
3925.490577,-306.438199,-74.020594,9548.656652
3925.490892,-536.266849,-666.185348,9844.739029
3925.491207,-459.657299,-814.226536,10288.862594
3925.491522,-766.095498,-888.247130,10584.944971
3925.491837,-536.266849,-740.205942,10066.800811
3925.492152,-153.219100,-370.102971,9918.759623
3925.492467,-536.266849,444.123565,9696.697840
3925.492782,0.000000,370.102971,8956.491898
3925.493097,306.438199,1036.288319,9252.574275
3925.493412,306.438199,962.267725,9178.553681
3925.493727,383.047749,1184.329507,8660.409521
3925.494042,383.047749,962.267725,9178.553681
3925.494357,-229.828649,444.123565,9326.594869
3925.494672,0.000000,370.102971,9844.739029
3925.494987,76.609550,-0.000000,9918.759623
3925.495302,-459.657299,-0.000000,9844.739029
3925.495617,-229.828649,-0.000000,9992.780217
3925.495932,0.000000,296.082377,9548.656652
3925.496247,0.000000,-0.000000,9400.615463
3925.496562,306.438199,814.226536,9622.677246
3925.496877,306.438199,1110.308913,9104.533087
3925.497192,612.876398,1258.350101,9104.533087
3925.497507,612.876398,1332.370696,9326.594869
3925.497822,1149.143247,1184.329507,9474.636058
3925.498137,536.266849,592.164754,9400.615463
3925.498452,0.000000,740.205942,9622.677246
3925.498766,0.000000,740.205942,10510.924376
3925.499081,0.000000,666.185348,10510.924376
3925.499396,76.609550,444.123565,10066.800811
3925.499711,0.000000,296.082377,10288.862594
3925.500026,76.609550,592.164754,10214.842000
3925.500341,383.047749,518.144159,10066.800811
3925.500656,459.657299,592.164754,9992.780217
3925.500971,383.047749,518.144159,9770.718434
3925.501286,459.657299,888.247130,9548.656652
3925.501601,306.438199,888.247130,9696.697840
3925.501916,76.609550,444.123565,9770.718434
3925.502231,0.000000,296.082377,9918.759623
3925.502546,76.609550,148.041188,10214.842000
3925.502861,0.000000,-0.000000,10066.800811
3925.503176,0.000000,-0.000000,10140.821405
3925.503491,0.000000,-74.020594,9844.739029
3925.503806,-306.438199,-0.000000,9844.739029
3925.504121,153.219100,-0.000000,10140.821405
3925.504436,306.438199,444.123565,9326.594869
3925.504751,229.828649,444.123565,8956.491898
3925.505066,153.219100,296.082377,9400.615463
3925.505381,536.266849,444.123565,9104.533087
3925.505696,76.609550,444.123565,8956.491898
3925.506011,76.609550,-74.020594,9252.574275
3925.506326,153.219100,-74.020594,9474.636058
3925.506640,0.000000,-222.061783,9400.615463
3925.506955,0.000000,-592.164754,9622.677246
3925.507270,0.000000,-592.164754,9770.718434
3925.507585,-76.609550,-592.164754,9474.636058
3925.507900,229.828649,-148.041188,9474.636058
3925.508215,689.485948,-148.041188,9178.553681
3925.508530,459.657299,-0.000000,9178.553681
3925.508845,383.047749,-0.000000,8882.471304
3925.509160,842.705048,148.041188,8882.471304
3925.509475,229.828649,-148.041188,9104.533087
3925.509790,153.219100,-296.082377,9474.636058
3925.510105,0.000000,-370.102971,9770.718434
3925.510420,-536.266849,-518.144159,9696.697840
3925.510735,-153.219100,-222.061783,10066.800811
3925.511050,0.000000,-740.205942,10288.862594
3925.511365,-153.219100,-518.144159,9844.739029
3925.511680,-229.828649,-666.185348,10510.924376
3925.511995,0.000000,-296.082377,9844.739029
3925.512310,459.657299,222.061783,9400.615463
3925.512625,536.266849,-74.020594,9548.656652
3925.512940,383.047749,-0.000000,9326.594869
3925.513255,0.000000,-148.041188,9326.594869
3925.513570,0.000000,-0.000000,9326.594869
3925.513885,0.000000,-370.102971,9770.718434
