#time,accel_x,accel_y,accel_z
3862.959920,76.609550,-0.000000,9696.697840
3862.960235,229.828649,222.061783,9696.697840
3862.960550,0.000000,148.041188,9844.739029
3862.960864,536.266849,-0.000000,9474.636058
3862.961179,0.000000,-0.000000,9400.615463
3862.961494,0.000000,-0.000000,9844.739029
3862.961809,153.219100,-0.000000,9844.739029
3862.962123,0.000000,296.082377,9918.759623
3862.962438,76.609550,-0.000000,9622.677246
3862.962753,0.000000,-0.000000,9326.594869
3862.963068,153.219100,-0.000000,9548.656652
3862.963382,0.000000,-74.020594,9696.697840
3862.963697,0.000000,296.082377,9474.636058
3862.964012,0.000000,148.041188,9474.636058
3862.964327,0.000000,-0.000000,9696.697840
3862.964641,76.609550,370.102971,9548.656652
3862.964956,-153.219100,-0.000000,9696.697840
3862.965271,0.000000,222.061783,9548.656652
3862.965586,0.000000,222.061783,9474.636058
3862.965900,0.000000,148.041188,9474.636058
3862.966215,0.000000,-0.000000,9770.718434
3862.966530,0.000000,370.102971,9252.574275
3862.966845,0.000000,222.061783,9252.574275
3862.967159,0.000000,222.061783,9548.656652
3862.967474,153.219100,-0.000000,9548.656652
3862.967789,153.219100,-148.041188,9696.697840
3862.968104,229.828649,222.061783,9548.656652
3862.968418,153.219100,222.061783,9622.677246
3862.968733,229.828649,-0.000000,9326.594869
3862.969048,153.219100,148.041188,9474.636058
3862.969363,383.047749,-74.020594,9474.636058
3862.969677,306.438199,-0.000000,9696.697840
3862.969992,459.657299,-74.020594,9474.636058
3862.970307,76.609550,-148.041188,9548.656652
3862.970622,306.438199,-222.061783,9622.677246
3862.970936,0.000000,-0.000000,9770.718434
3862.971251,76.609550,148.041188,9696.697840
3862.971566,229.828649,74.020594,9696.697840
3862.971881,153.219100,-0.000000,9770.718434
3862.972195,306.438199,-148.041188,9622.677246
3862.972510,153.219100,148.041188,9622.677246
3862.972825,0.000000,296.082377,9992.780217
3862.973140,76.609550,-0.000000,9548.656652
3862.973454,76.609550,-296.082377,9474.636058
3862.973769,459.657299,444.123565,9918.759623
3862.974084,-229.828649,148.041188,9474.636058
3862.974399,0.000000,296.082377,9474.636058
3862.974713,0.000000,296.082377,9918.759623
3862.975028,0.000000,-0.000000,9622.677246
3862.975343,0.000000,222.061783,9474.636058
3862.975658,0.000000,370.102971,9696.697840
3862.975972,-229.828649,-0.000000,9400.615463
3862.976287,76.609550,148.041188,9326.594869
3862.976602,229.828649,-0.000000,9548.656652
3862.976917,0.000000,-0.000000,9918.759623
3862.977231,153.219100,-0.000000,9400.615463
3862.977546,0.000000,74.020594,9104.533087
3862.977861,0.000000,-0.000000,9474.636058
3862.978176,0.000000,-0.000000,9326.594869
3862.978490,306.438199,-0.000000,9548.656652
3862.978805,229.828649,-0.000000,9548.656652
3862.979120,229.828649,-0.000000,9474.636058
3862.979435,153.219100,-0.000000,9326.594869
3862.979749,842.705048,-0.000000,9474.636058
3862.980064,0.000000,-0.000000,9622.677246
3862.980379,76.609550,-0.000000,9474.636058
3862.980694,76.609550,-0.000000,9474.636058
3862.981008,0.000000,-74.020594,9474.636058
3862.981323,306.438199,-0.000000,9770.718434
3862.981638,306.438199,-0.000000,9918.759623
3862.981953,0.000000,518.144159,9696.697840
3862.982267,153.219100,-0.000000,9770.718434
3862.982582,0.000000,-74.020594,9844.739029
3862.982897,76.609550,-0.000000,9622.677246
3862.983212,459.657299,-0.000000,9622.677246
3862.983526,153.219100,-0.000000,9622.677246
3862.983841,0.000000,-0.000000,9548.656652
3862.984156,0.000000,222.061783,9622.677246
3862.984471,306.438199,-0.000000,9548.656652
3862.984785,-229.828649,-0.000000,9696.697840
3862.985100,0.000000,370.102971,9400.615463
3862.985415,-229.828649,148.041188,9770.718434
3862.985730,0.000000,-0.000000,9696.697840
3862.986044,229.828649,-0.000000,9326.594869
3862.986359,229.828649,370.102971,9770.718434
3862.986674,76.609550,296.082377,9474.636058
3862.986989,153.219100,296.082377,9622.677246
3862.987303,0.000000,370.102971,9326.594869
3862.987618,229.828649,-74.020594,9548.656652
3862.987933,0.000000,444.123565,9474.636058
3862.988248,153.219100,148.041188,9252.574275
3862.988562,0.000000,-0.000000,9400.615463
3862.988877,229.828649,222.061783,9474.636058
3862.989192,0.000000,296.082377,9548.656652
3862.989507,0.000000,296.082377,9548.656652
3862.989821,76.609550,370.102971,9548.656652
3862.990136,76.609550,148.041188,9326.594869
3862.990451,229.828649,-0.000000,9474.636058
3862.990766,76.609550,-74.020594,9770.718434
3862.991081,153.219100,-0.000000,9474.636058
3862.991395,229.828649,-0.000000,9622.677246
3862.991710,76.609550,-0.000000,9474.636058
3862.992025,612.876398,-0.000000,9400.615463
3862.992340,842.705048,-0.000000,9622.677246
3862.992654,76.609550,-0.000000,10140.821405
3862.992969,153.219100,-0.000000,10140.821405
3862.993284,306.438199,-0.000000,10066.800811
3862.993599,229.828649,370.102971,9474.636058
3862.993913,306.438199,296.082377,9918.759623
3862.994228,689.485948,814.226536,9770.718434
3862.994543,919.314598,740.205942,9474.636058
3862.994858,536.266849,814.226536,9178.553681
3862.995172,612.876398,444.123565,9104.533087
3862.995487,1225.752797,370.102971,9326.594869
3862.995802,995.924147,888.247130,9474.636058
3862.996117,919.314598,296.082377,9474.636058
3862.996431,612.876398,370.102971,9696.697840
3862.996746,536.266849,518.144159,9844.739029
3862.997061,612.876398,592.164754,9992.780217
3862.997376,612.876398,592.164754,9474.636058
3862.997690,612.876398,740.205942,9548.656652
3862.998005,1225.752797,740.205942,9548.656652
3862.998320,1455.581446,518.144159,9696.697840
3862.998635,1838.629195,962.267725,9918.759623
3862.998949,2374.896044,1332.370696,9474.636058
3862.999264,2528.115143,1406.391290,9696.697840
3862.999579,2834.553343,1998.556043,9474.636058
3862.999894,3294.210641,2220.617826,9030.512492
3863.000208,3217.601092,2368.659014,8660.409521
3863.000523,3294.210641,2590.720797,8586.388927
3863.000838,3677.258390,2442.679609,8438.347739
3863.001153,3524.039291,2294.638420,8660.409521
3863.001467,3753.867940,2072.576638,9400.615463
3863.001782,3983.696590,2072.576638,9326.594869
3863.002097,3600.648841,2146.597232,9252.574275
3863.002412,3217.601092,2368.659014,9326.594869
3863.002726,3217.601092,2664.741391,9326.594869
3863.003041,3140.991542,3034.844362,9474.636058
3863.003356,3064.381992,3182.885551,9474.636058
3863.003671,2911.162892,3108.864956,9030.512492
3863.003985,2757.943793,3627.009116,9178.553681
3863.004300,2911.162892,3701.029710,9400.615463
3863.004615,2681.334243,3182.885551,9622.677246
3863.004930,2528.115143,3627.009116,10584.944971
3863.005244,2221.676944,3404.947333,10584.944971
3863.005559,1762.019645,3701.029710,10658.965565
3863.005874,1838.629195,3997.112087,10658.965565
3863.006189,1991.848295,3552.988522,11029.068536
3863.006503,1991.848295,3775.050304,10732.986159
3863.006818,1762.019645,3849.070898,10584.944971
3863.007133,1838.629195,3404.947333,10436.903782
3863.007448,1915.238745,3256.906145,10881.027347
3863.007762,1838.629195,3849.070898,10510.924376
3863.008077,1838.629195,3997.112087,10066.800811
3863.008392,2145.067394,4071.132681,10066.800811
3863.008707,2374.896044,3404.947333,9918.759623
3863.009021,2451.505594,3034.844362,10066.800811
3863.009336,1838.629195,3256.906145,9918.759623
3863.009651,1838.629195,3034.844362,9918.759623
3863.009966,1762.019645,2886.803174,9844.739029
3863.010280,2221.676944,2960.823768,9992.780217
3863.010595,1991.848295,2442.679609,9770.718434
3863.010910,1608.800546,2812.782580,9844.739029
3863.011225,1685.410096,2960.823768,9918.759623
3863.011539,1608.800546,3034.844362,9474.636058
3863.011854,1838.629195,3108.864956,9474.636058
3863.012169,2068.457845,2442.679609,9548.656652
3863.012484,1608.800546,2442.679609,9252.574275
3863.012798,1608.800546,2220.617826,9326.594869
3863.013113,1608.800546,1554.432478,9622.677246
3863.013428,2068.457845,1184.329507,10214.842000
3863.013743,1608.800546,1332.370696,10436.903782
3863.014057,1378.971896,1850.514855,9918.759623
3863.014372,1455.581446,1776.494261,9622.677246
3863.014687,1762.019645,2072.576638,9548.656652
3863.015002,2221.676944,2146.597232,9400.615463
3863.015316,2451.505594,2146.597232,8438.347739
3863.015631,2834.553343,2220.617826,8734.430116
3863.015946,3217.601092,1702.473667,8734.430116
3863.016261,3524.039291,1924.535449,8512.368333
3863.016575,3447.429741,1332.370696,8882.471304
3863.016890,2834.553343,1480.411884,9104.533087
3863.017205,3140.991542,1480.411884,9178.553681
3863.017520,2298.286494,1406.391290,8734.430116
3863.017834,2145.067394,1110.308913,9030.512492
3863.018149,1915.238745,962.267725,9252.574275
3863.018464,1608.800546,740.205942,9622.677246
3863.018779,1685.410096,296.082377,10066.800811
3863.019093,1915.238745,-0.000000,10510.924376
3863.019408,2374.896044,814.226536,10584.944971
3863.019723,2451.505594,1480.411884,9844.739029
3863.020038,3064.381992,2368.659014,9548.656652
3863.020352,3600.648841,2664.741391,8660.409521
3863.020667,3677.258390,2442.679609,8364.327145
3863.020982,3907.087040,2664.741391,8068.244768
3863.021297,3370.820191,2146.597232,7772.162391
3863.021611,2834.553343,1628.453072,8216.285956
3863.021926,2528.115143,1332.370696,8882.471304
3863.022241,1608.800546,296.082377,9326.594869
3863.022556,995.924147,-370.102971,10807.006753
3863.022870,76.609550,-592.164754,11843.295072
3863.023185,-536.266849,-370.102971,12657.521608
3863.023500,-229.828649,370.102971,12879.583391
3863.023815,919.314598,1480.411884,11473.192101
3863.024129,2221.676944,2146.597232,10881.027347
3863.024444,3524.039291,3330.926739,9844.739029
3863.024759,4136.915689,4515.256246,8734.430116
3863.025074,4749.792088,4663.297435,7031.956449
3863.025388,5209.449386,4811.338623,6587.832884
3863.025703,4903.011187,4293.194464,7402.059420
3863.026018,4136.915689,3034.844362,8216.285956
3863.026333,2451.505594,1776.494261,9474.636058
3863.026647,459.657299,962.267725,10881.027347
3863.026962,-1225.752797,-0.000000,12213.398043
3863.027277,-1608.800546,-0.000000,12509.480420
3863.027592,-1225.752797,888.247130,12435.459826
3863.027906,-536.266849,1924.535449,11473.192101
3863.028221,306.438199,2960.823768,9770.718434
3863.028536,1915.238745,4589.276840,8290.306550
3863.028851,3294.210641,4441.235652,7328.038826
3863.029165,4673.182538,4811.338623,7698.141797
3863.029480,4443.353888,4811.338623,7698.141797
3863.029795,3983.696590,4441.235652,8364.327145
3863.030110,3677.258390,3627.009116,10140.821405
3863.030424,2604.724693,2812.782580,11103.089130
3863.030739,1302.362347,2960.823768,11695.253884
3863.031054,229.828649,3034.844362,10658.965565
3863.031369,0.000000,2516.700203,9992.780217
3863.031684,1072.533697,1776.494261,10140.821405
3863.031998,1455.581446,1554.432478,9400.615463
3863.032313,1991.848295,1776.494261,8956.491898
3863.032628,2298.286494,2368.659014,8586.388927
3863.032943,2911.162892,2664.741391,8142.265362
3863.033257,4366.744339,3256.906145,8808.450710
3863.033572,3830.477490,3701.029710,8142.265362
3863.033887,3370.820191,3552.988522,8290.306550
3863.034202,2757.943793,2664.741391,10066.800811
3863.034516,2145.067394,1850.514855,11029.068536
3863.034831,1378.971896,1628.453072,11621.233289
3863.035146,1532.190996,1924.535449,11769.274478
3863.035461,1838.629195,2590.720797,11325.150913
3863.035775,2068.457845,3256.906145,9844.739029
3863.036090,2604.724693,3330.926739,8956.491898
3863.036405,3370.820191,3627.009116,8364.327145
3863.036720,3677.258390,3330.926739,8290.306550
3863.037034,4060.306139,2738.761985,8586.388927
3863.037349,3447.429741,1628.453072,9030.512492
3863.037664,3217.601092,666.185348,9992.780217
3863.037974,2757.943793,666.185348,10955.047942
3863.038289,1838.629195,1406.391290,10658.965565
3863.038604,1302.362347,2072.576638,10955.047942
3863.038919,1915.238745,2368.659014,10288.862594
3863.039234,2298.286494,3034.844362,9474.636058
3863.039549,3217.601092,2590.720797,9400.615463
3863.039864,2757.943793,2812.782580,8734.430116
3863.040179,2987.772442,2294.638420,8512.368333
3863.040494,2681.334243,2368.659014,8660.409521
3863.040809,2911.162892,2368.659014,8660.409521
3863.041124,2451.505594,1258.350101,9474.636058
3863.041439,1685.410096,1036.288319,10881.027347
3863.041754,842.705048,666.185348,11251.130318
3863.042069,153.219100,666.185348,11325.150913
3863.042384,0.000000,1628.453072,11325.150913
3863.042699,536.266849,1628.453072,10066.800811
3863.043014,1378.971896,1258.350101,10362.883188
3863.043329,2068.457845,1850.514855,9918.759623
3863.043644,2374.896044,2294.638420,8808.450710
3863.043959,3600.648841,2368.659014,8586.388927
3863.044274,3294.210641,2590.720797,7476.080014
3863.044589,3524.039291,2516.700203,7328.038826
3863.044904,3677.258390,2146.597232,8068.244768
3863.045219,2911.162892,888.247130,8512.368333
3863.045534,1838.629195,592.164754,9548.656652
3863.045849,536.266849,-148.041188,10584.944971
3863.046165,-229.828649,296.082377,10955.047942
3863.046480,-229.828649,592.164754,10658.965565
3863.046795,459.657299,962.267725,10214.842000
3863.047110,1225.752797,1258.350101,10214.842000
3863.047425,1225.752797,1850.514855,10436.903782
3863.047740,1532.190996,2220.617826,9844.739029
3863.048055,2374.896044,3404.947333,8734.430116
3863.048370,3217.601092,3404.947333,8216.285956
3863.048685,4519.963438,2886.803174,8290.306550
3863.049000,4443.353888,2590.720797,8808.450710
3863.049315,3217.601092,2220.617826,9548.656652
3863.049630,2528.115143,1924.535449,9992.780217
3863.049945,1225.752797,2294.638420,9770.718434
3863.050260,842.705048,1924.535449,10436.903782
3863.050575,1532.190996,1258.350101,10436.903782
3863.050890,1532.190996,1554.432478,10140.821405
3863.051205,1378.971896,1332.370696,10362.883188
3863.051520,1608.800546,1702.473667,9622.677246
3863.051835,2068.457845,2664.741391,8364.327145
3863.052150,3830.477490,2960.823768,9474.636058
3863.052465,4213.525239,4071.132681,9326.594869
3863.052780,3600.648841,3182.885551,8142.265362
3863.053095,3294.210641,3256.906145,8956.491898
3863.053410,2298.286494,3108.864956,9030.512492
3863.053725,1915.238745,2220.617826,10732.986159
3863.054040,2298.286494,2072.576638,10658.965565
3863.054355,1225.752797,2220.617826,10807.006753
3863.054670,842.705048,2368.659014,11621.233289
3863.054985,153.219100,2368.659014,10658.965565
3863.055300,919.314598,2146.597232,10214.842000
3863.055615,2068.457845,2368.659014,10362.883188
3863.055930,2221.676944,2664.741391,9030.512492
3863.056245,2987.772442,2664.741391,8734.430116
3863.056560,2374.896044,2738.761985,8364.327145
3863.056875,2451.505594,1998.556043,8290.306550
3863.057190,2451.505594,1554.432478,9474.636058
3863.057505,1838.629195,1998.556043,9178.553681
3863.057820,995.924147,1998.556043,10066.800811
3863.058135,-306.438199,2368.659014,10584.944971
3863.058450,-842.705048,1850.514855,10732.986159
3863.058765,-689.485948,1036.288319,11251.130318
3863.059080,-229.828649,1184.329507,11177.109724
3863.059395,-306.438199,1480.411884,10658.965565
3863.059710,-459.657299,1850.514855,10066.800811
3863.060025,459.657299,1776.494261,9548.656652
3863.060340,1685.410096,1036.288319,9400.615463
3863.060655,2145.067394,1332.370696,9178.553681
3863.060970,995.924147,1036.288319,9104.533087
3863.061285,-153.219100,1258.350101,9178.553681
3863.061600,-306.438199,814.226536,8808.450710
3863.061915,0.000000,-222.061783,10288.862594
3863.062230,-842.705048,-0.000000,9770.718434
3863.062545,-1378.971896,-74.020594,9696.697840
3863.062860,-1302.362347,296.082377,9474.636058
3863.063175,-1149.143247,-518.144159,9770.718434
3863.063490,-306.438199,-814.226536,9770.718434
3863.063805,229.828649,-592.164754,9326.594869
3863.064120,-383.047749,-74.020594,9104.533087
3863.064435,-383.047749,-0.000000,9178.553681
3863.064750,0.000000,-0.000000,9326.594869
3863.065065,766.095498,-1554.432478,10807.006753
3863.065380,153.219100,-592.164754,9918.759623
3863.065695,-536.266849,-148.041188,10214.842000
3863.066010,-306.438199,-0.000000,9474.636058
3863.066325,306.438199,-296.082377,9548.656652
3863.066640,1685.410096,-148.041188,9326.594869
3863.066955,1608.800546,-592.164754,7994.224174
3863.067270,1072.533697,-148.041188,8216.285956
3863.067585,1149.143247,-370.102971,7846.182985
3863.067900,995.924147,-1258.350101,8216.285956
3863.068215,1532.190996,-2368.659014,8734.430116
3863.068530,1455.581446,-2072.576638,9178.553681
3863.068845,-612.876398,-1998.556043,10140.821405
3863.069160,-1225.752797,-1184.329507,10510.924376
3863.069475,-612.876398,-2072.576638,11473.192101
3863.069790,-383.047749,-1850.514855,11399.171507
3863.070105,-229.828649,-1110.308913,10362.883188
3863.070421,-383.047749,370.102971,9548.656652
3863.070736,0.000000,296.082377,8808.450710
3863.071051,1149.143247,-222.061783,9178.553681
3863.071366,2451.505594,-0.000000,8882.471304
3863.071681,1685.410096,-444.123565,8216.285956
3863.071996,919.314598,74.020594,8660.409521
3863.072311,0.000000,-666.185348,9696.697840
3863.072626,0.000000,-1184.329507,10510.924376
3863.072941,0.000000,-1628.453072,10214.842000
3863.073256,-1072.533697,-1702.473667,10066.800811
3863.073571,-2145.067394,-888.247130,9770.718434
3863.073886,-2451.505594,-1258.350101,9770.718434
3863.074201,-1685.410096,-1480.411884,10362.883188
3863.074516,-1532.190996,-1184.329507,8734.430116
3863.074831,-995.924147,-666.185348,9252.574275
3863.075146,-689.485948,666.185348,8290.306550
3863.075461,0.000000,666.185348,9104.533087
3863.075776,689.485948,518.144159,9622.677246
3863.076091,306.438199,592.164754,9622.677246
3863.076406,0.000000,1702.473667,9474.636058
3863.076721,-536.266849,2146.597232,8438.347739
3863.077036,-612.876398,518.144159,10584.944971
3863.077351,-229.828649,-0.000000,9918.759623
3863.077666,-229.828649,444.123565,9474.636058
3863.077981,-1149.143247,666.185348,9326.594869
3863.078296,-536.266849,962.267725,8734.430116
3863.078611,-306.438199,-0.000000,9400.615463
3863.078926,0.000000,592.164754,8882.471304
3863.079241,229.828649,-0.000000,8512.368333
3863.079556,-229.828649,888.247130,9252.574275
3863.079871,76.609550,1258.350101,9474.636058
3863.080186,383.047749,1480.411884,10140.821405
3863.080501,766.095498,1332.370696,10362.883188
3863.080816,0.000000,1776.494261,10066.800811
3863.081131,229.828649,2368.659014,10510.924376
3863.081446,459.657299,1998.556043,10658.965565
3863.081761,1225.752797,1850.514855,10807.006753
3863.082076,1455.581446,2368.659014,10066.800811
3863.082391,1225.752797,2368.659014,9474.636058
3863.082706,1072.533697,2442.679609,9326.594869
3863.083021,842.705048,740.205942,9030.512492
3863.083336,1685.410096,-74.020594,10214.842000
3863.083651,1302.362347,-370.102971,9844.739029
3863.083966,0.000000,-0.000000,10658.965565
3863.084281,-383.047749,592.164754,10214.842000
3863.084596,-229.828649,-0.000000,11103.089130
3863.084911,766.095498,-74.020594,11399.171507
3863.085226,842.705048,-0.000000,10436.903782
3863.085541,919.314598,1258.350101,8956.491898
3863.085856,1072.533697,1628.453072,8512.368333
3863.086171,1608.800546,1702.473667,9252.574275
3863.086486,2604.724693,962.267725,8956.491898
3863.086801,2298.286494,296.082377,8882.471304
3863.087116,1532.190996,888.247130,8734.430116
3863.087431,536.266849,-0.000000,9030.512492
3863.087746,459.657299,-666.185348,10214.842000
3863.088061,-383.047749,-962.267725,10732.986159
3863.088376,-919.314598,-1110.308913,9696.697840
3863.088691,-1838.629195,-0.000000,10140.821405
3863.089006,-1225.752797,-74.020594,9548.656652
3863.089321,-383.047749,-444.123565,10066.800811
3863.089636,689.485948,74.020594,9030.512492
3863.089951,153.219100,296.082377,8364.327145
3863.090266,-153.219100,888.247130,8660.409521
3863.090581,536.266849,-0.000000,8882.471304
3863.090896,1072.533697,-296.082377,9696.697840
3863.091211,1072.533697,-74.020594,9252.574275
3863.091526,-153.219100,-0.000000,9548.656652
3863.091841,-1455.581446,666.185348,9178.553681
3863.092156,-1608.800546,-518.144159,10066.800811
3863.092471,-995.924147,-1184.329507,10288.862594
3863.092786,-306.438199,-666.185348,9548.656652
3863.093101,-1225.752797,-0.000000,8660.409521
3863.093416,-536.266849,-0.000000,8068.244768
3863.093731,-229.828649,-814.226536,9474.636058
3863.094046,229.828649,-814.226536,9474.636058
3863.094362,0.000000,-962.267725,9474.636058
3863.094677,-995.924147,-74.020594,9030.512492
3863.094992,-995.924147,-0.000000,9474.636058
3863.095307,-306.438199,-666.185348,9474.636058
3863.095622,-536.266849,-1184.329507,10140.821405
3863.095937,-919.314598,-962.267725,10510.924376
3863.096252,-1225.752797,-296.082377,9992.780217
3863.096567,-1455.581446,-444.123565,9918.759623
3863.096882,-76.609550,-1406.391290,11177.109724
3863.097197,766.095498,-814.226536,9474.636058
3863.097512,459.657299,-222.061783,9474.636058
3863.097827,-459.657299,814.226536,8808.450710
3863.098142,0.000000,-0.000000,9252.574275
3863.098457,1072.533697,-518.144159,9770.718434
3863.098772,995.924147,-666.185348,9252.574275
3863.099087,-229.828649,-74.020594,9104.533087
3863.099402,306.438199,-518.144159,9474.636058
3863.099717,0.000000,-370.102971,9844.739029
3863.100032,536.266849,-444.123565,10436.903782
3863.100347,536.266849,-296.082377,10214.842000
3863.100662,842.705048,-0.000000,9178.553681
3863.100977,459.657299,888.247130,8734.430116
3863.101292,1225.752797,814.226536,9696.697840
3863.101607,1608.800546,370.102971,9252.574275
3863.101922,1608.800546,-0.000000,9178.553681
3863.102237,766.095498,370.102971,9104.533087
3863.102552,383.047749,814.226536,8290.306550
3863.102867,536.266849,-0.000000,10362.883188
3863.103182,1149.143247,-74.020594,10140.821405
3863.103497,766.095498,-0.000000,9992.780217
3863.103812,0.000000,1110.308913,9548.656652
3863.104127,-383.047749,1184.329507,9548.656652
3863.104442,536.266849,370.102971,9992.780217
3863.104757,1072.533697,888.247130,9696.697840
3863.105072,1072.533697,1406.391290,8068.244768
3863.105387,689.485948,-0.000000,8142.265362
3863.105702,689.485948,370.102971,9178.553681
3863.106017,229.828649,370.102971,9770.718434
3863.106332,306.438199,-0.000000,9474.636058
3863.106647,-383.047749,222.061783,10214.842000
3863.106962,-842.705048,962.267725,9696.697840
3863.107277,-766.095498,1776.494261,10140.821405
3863.107592,0.000000,1110.308913,10510.924376
3863.107907,383.047749,1110.308913,9992.780217
3863.108222,306.438199,814.226536,9844.739029
3863.108537,-306.438199,1924.535449,9178.553681
3863.108852,0.000000,962.267725,9548.656652
3863.109167,766.095498,370.102971,10436.903782
3863.109482,766.095498,-0.000000,9770.718434
3863.109797,-536.266849,962.267725,9622.677246
3863.110112,-1225.752797,962.267725,8808.450710
3863.110427,-766.095498,-0.000000,10066.800811
3863.110742,-229.828649,-0.000000,10732.986159
3863.111057,-459.657299,222.061783,9844.739029
3863.111372,-1072.533697,296.082377,9770.718434
3863.111687,-689.485948,888.247130,9400.615463
3863.112002,229.828649,222.061783,9696.697840
3863.112317,689.485948,370.102971,9622.677246
3863.112632,919.314598,888.247130,9548.656652
3863.112947,-229.828649,1332.370696,9474.636058
3863.113262,-383.047749,1998.556043,9474.636058
3863.113577,229.828649,1110.308913,9844.739029
3863.113892,689.485948,370.102971,9992.780217
3863.114207,0.000000,-222.061783,10362.883188
3863.114522,-612.876398,-0.000000,9622.677246
3863.114837,-1149.143247,-222.061783,9696.697840
3863.115152,-306.438199,-444.123565,10955.047942
3863.115467,153.219100,-518.144159,9992.780217
3863.115782,0.000000,-444.123565,9474.636058
3863.116097,-612.876398,444.123565,8882.471304
3863.116412,0.000000,-0.000000,9474.636058
3863.116727,1072.533697,-222.061783,9622.677246
3863.117042,1455.581446,-888.247130,9326.594869
3863.117357,1149.143247,-222.061783,8734.430116
3863.117672,76.609550,-0.000000,9104.533087
3863.117987,612.876398,-74.020594,9326.594869
3863.118302,1072.533697,-1332.370696,10807.006753
3863.118618,1532.190996,-0.000000,8882.471304
3863.118933,0.000000,-370.102971,9474.636058
3863.119248,-306.438199,592.164754,8142.265362
3863.119563,76.609550,-1184.329507,10140.821405
3863.119878,995.924147,-1258.350101,9622.677246
3863.120193,1378.971896,-1554.432478,9622.677246
3863.120508,0.000000,-370.102971,8956.491898
3863.120823,-153.219100,-222.061783,8660.409521
3863.121138,229.828649,-518.144159,9696.697840
3863.121453,1225.752797,-1036.288319,9622.677246
3863.121768,1302.362347,-1184.329507,9474.636058
3863.122083,306.438199,-370.102971,9178.553681
3863.122398,-689.485948,-0.000000,8586.388927
3863.122713,-383.047749,-444.123565,9918.759623
3863.123028,536.266849,-592.164754,10214.842000
3863.123343,0.000000,-74.020594,9622.677246
3863.123658,-612.876398,-0.000000,8956.491898
3863.123973,-459.657299,148.041188,8808.450710
3863.124288,0.000000,-1036.288319,10510.924376
3863.124603,536.266849,-814.226536,9770.718434
3863.124918,-383.047749,-518.144159,9918.759623
3863.125233,-459.657299,-0.000000,9252.574275
3863.125548,-689.485948,-74.020594,9696.697840
3863.125863,0.000000,-222.061783,10362.883188
3863.126178,229.828649,-296.082377,9696.697840
3863.126493,0.000000,888.247130,8956.491898
3863.126808,-459.657299,1554.432478,8734.430116
3863.127123,536.266849,666.185348,8956.491898
3863.127438,1455.581446,370.102971,9548.656652
3863.127753,612.876398,370.102971,9252.574275
3863.128068,0.000000,-0.000000,9844.739029
3863.128383,-766.095498,1184.329507,8734.430116
3863.128698,-612.876398,370.102971,9696.697840
3863.129013,0.000000,-814.226536,11029.068536
3863.129328,-306.438199,-814.226536,10510.924376
3863.129643,-1838.629195,-0.000000,10214.842000
3863.129958,-1991.848295,370.102971,10436.903782
3863.130273,-1378.971896,-0.000000,10658.965565
3863.130588,-153.219100,-74.020594,10584.944971
3863.130903,536.266849,962.267725,9844.739029
3863.131218,229.828649,1702.473667,8660.409521
3863.131533,153.219100,2146.597232,8364.327145
3863.131848,1302.362347,1258.350101,9770.718434
3863.132163,1685.410096,740.205942,9770.718434
3863.132478,995.924147,888.247130,9474.636058
3863.132793,766.095498,814.226536,8586.388927
3863.133108,229.828649,370.102971,8734.430116
3863.133423,306.438199,-888.247130,10881.027347
3863.133738,0.000000,-1184.329507,10288.862594
3863.134053,-842.705048,-296.082377,10066.800811
3863.134368,-1149.143247,740.205942,9474.636058
3863.134683,-229.828649,592.164754,9770.718434
3863.134998,1149.143247,370.102971,9918.759623
3863.135313,1685.410096,592.164754,9326.594869
3863.135628,766.095498,1184.329507,9622.677246
3863.135943,76.609550,2072.576638,9030.512492
3863.136258,536.266849,1554.432478,9400.615463
3863.136573,1915.238745,814.226536,10584.944971
3863.136888,1685.410096,1110.308913,9474.636058
3863.137203,536.266849,592.164754,9178.553681
3863.137518,-689.485948,-0.000000,9178.553681
3863.137833,-383.047749,-296.082377,10066.800811
3863.138148,229.828649,-592.164754,10436.903782
3863.138463,0.000000,-666.185348,9474.636058
3863.138778,-459.657299,-370.102971,9178.553681
3863.139093,-383.047749,370.102971,8438.347739
3863.139408,0.000000,-740.205942,9548.656652
3863.139722,459.657299,-1258.350101,9992.780217
3863.140037,612.876398,-666.185348,9622.677246
3863.140352,229.828649,666.185348,8956.491898
3863.140667,229.828649,1110.308913,8586.388927
3863.140982,1149.143247,-222.061783,10140.821405
3863.141296,1608.800546,-444.123565,9696.697840
3863.141611,459.657299,-0.000000,9326.594869
3863.141926,-306.438199,1184.329507,9252.574275
3863.142241,153.219100,-0.000000,9548.656652
3863.142555,153.219100,-592.164754,9844.739029
3863.142870,689.485948,-1184.329507,10214.842000
3863.143185,-383.047749,-1554.432478,10140.821405
3863.143500,-1532.190996,-740.205942,9622.677246
3863.143815,-1225.752797,-74.020594,9400.615463
3863.144129,153.219100,-296.082377,10288.862594
3863.144444,76.609550,-666.185348,9474.636058
3863.144759,-306.438199,-370.102971,9400.615463
3863.145074,-689.485948,592.164754,8216.285956
3863.145389,-383.047749,-222.061783,9622.677246
3863.145703,306.438199,-518.144159,9696.697840
3863.146018,459.657299,-666.185348,9770.718434
3863.146333,-459.657299,444.123565,9104.533087
3863.146648,-1149.143247,518.144159,9104.533087
3863.146962,-842.705048,-0.000000,9770.718434
3863.147277,153.219100,-814.226536,10362.883188
3863.147592,-153.219100,-814.226536,9918.759623
3863.147907,-1378.971896,-0.000000,9474.636058
3863.148222,-1455.581446,444.123565,9474.636058
3863.148536,-383.047749,-0.000000,9992.780217
3863.148851,459.657299,148.041188,9992.780217
3863.149166,306.438199,-0.000000,9326.594869
3863.149481,-229.828649,740.205942,8290.306550
3863.149795,0.000000,1110.308913,8660.409521
3863.150110,919.314598,296.082377,9326.594869
3863.150425,1455.581446,-74.020594,9400.615463
3863.150740,536.266849,-0.000000,8512.368333
3863.151055,-536.266849,740.205942,9104.533087
3863.151369,-612.876398,592.164754,9400.615463
3863.151684,153.219100,-814.226536,10732.986159
3863.151999,383.047749,-518.144159,10362.883188
3863.152314,-383.047749,-148.041188,9992.780217
3863.152628,-842.705048,740.205942,9474.636058
3863.152943,306.438199,740.205942,9696.697840
3863.153258,919.314598,296.082377,10436.903782
3863.153573,1225.752797,444.123565,10214.842000
3863.153888,689.485948,740.205942,9104.533087
3863.154202,383.047749,1258.350101,8734.430116
3863.154517,306.438199,-0.000000,9622.677246
3863.154832,1685.410096,-0.000000,10362.883188
3863.155147,842.705048,296.082377,9992.780217
3863.155461,153.219100,814.226536,9474.636058
3863.155776,-689.485948,814.226536,9622.677246
3863.156091,0.000000,-0.000000,10140.821405
3863.156406,919.314598,-74.020594,10658.965565
3863.156721,153.219100,74.020594,10140.821405
3863.157035,383.047749,592.164754,9252.574275
3863.157350,0.000000,1036.288319,9622.677246
3863.157665,306.438199,370.102971,10881.027347
3863.157980,1378.971896,-0.000000,9992.780217
3863.158295,1072.533697,-0.000000,9696.697840
3863.158609,0.000000,888.247130,8956.491898
3863.158924,-383.047749,814.226536,9104.533087
3863.159239,689.485948,444.123565,9400.615463
3863.159554,842.705048,-592.164754,10288.862594
3863.159868,76.609550,-0.000000,9326.594869
3863.160183,-766.095498,148.041188,9622.677246
3863.160498,-1072.533697,-0.000000,9992.780217
3863.160813,0.000000,-148.041188,10436.903782
3863.161128,306.438199,-0.000000,9474.636058
3863.161442,153.219100,518.144159,8956.491898
3863.161757,0.000000,1332.370696,8290.306550
3863.162072,536.266849,1110.308913,8290.306550
3863.162387,995.924147,222.061783,9474.636058
3863.162701,1225.752797,444.123565,9548.656652
3863.163016,0.000000,1036.288319,9030.512492
3863.163331,-1532.190996,444.123565,8808.450710
3863.163646,-766.095498,-444.123565,10288.862594
3863.163961,-306.438199,-962.267725,10436.903782
3863.164275,-536.266849,-814.226536,9992.780217
3863.164590,-1608.800546,-222.061783,9696.697840
3863.164905,-1762.019645,962.267725,9104.533087
3863.165220,-1072.533697,740.205942,9622.677246
3863.165534,536.266849,-222.061783,10288.862594
3863.165849,306.438199,-222.061783,9400.615463
3863.166164,-459.657299,-0.000000,8512.368333
3863.166479,-229.828649,592.164754,8956.491898
3863.166794,229.828649,148.041188,9326.594869
3863.167108,1072.533697,-814.226536,10436.903782
3863.167423,306.438199,-74.020594,9474.636058
3863.167738,-612.876398,444.123565,8882.471304
3863.168053,-689.485948,-0.000000,9400.615463
3863.168368,0.000000,-592.164754,9474.636058
3863.168682,-383.047749,-1258.350101,9622.677246
3863.168997,-766.095498,-518.144159,9400.615463
3863.169312,-1225.752797,-222.061783,9326.594869
3863.169627,-536.266849,-0.000000,9622.677246
3863.169941,612.876398,-370.102971,10362.883188
3863.170256,1455.581446,-666.185348,9696.697840
3863.170571,153.219100,-0.000000,9918.759623
3863.170886,0.000000,888.247130,9474.636058
3863.171201,306.438199,1332.370696,9474.636058
3863.171515,995.924147,1554.432478,9548.656652
3863.171830,1532.190996,444.123565,9622.677246
3863.172145,1149.143247,666.185348,9326.594869
3863.172460,459.657299,370.102971,9178.553681
3863.172774,612.876398,-0.000000,9400.615463
3863.173089,1225.752797,-1332.370696,10436.903782
3863.173404,1455.581446,-1184.329507,10066.800811
3863.173719,0.000000,-296.082377,9696.697840
3863.174034,-459.657299,-0.000000,9252.574275
3863.174348,0.000000,-592.164754,9622.677246
3863.174663,919.314598,-888.247130,10362.883188
3863.174978,1532.190996,-370.102971,9696.697840
3863.175293,229.828649,888.247130,8586.388927
3863.175607,383.047749,740.205942,9104.533087
3863.175922,1072.533697,222.061783,10584.944971
3863.176237,2068.457845,-296.082377,10140.821405
3863.176552,1532.190996,-296.082377,9844.739029
3863.176867,153.219100,962.267725,8956.491898
3863.177181,-536.266849,740.205942,9400.615463
3863.177496,306.438199,-0.000000,10140.821405
3863.177811,766.095498,-222.061783,10436.903782
3863.178126,0.000000,-0.000000,9548.656652
3863.178440,-995.924147,-222.061783,9474.636058
3863.178755,-1225.752797,-370.102971,10288.862594
3863.179070,0.000000,-592.164754,10732.986159
3863.179385,459.657299,-222.061783,10066.800811
3863.179700,-306.438199,1036.288319,9326.594869
3863.180014,-1072.533697,1110.308913,8660.409521
3863.180329,-306.438199,1258.350101,8956.491898
3863.180644,842.705048,148.041188,9474.636058
3863.180959,612.876398,222.061783,8734.430116
3863.181274,-536.266849,518.144159,8882.471304
3863.181588,-1225.752797,370.102971,9178.553681
3863.181903,-1072.533697,-0.000000,10140.821405
3863.182218,-229.828649,-370.102971,10584.944971
3863.182533,-306.438199,-370.102971,9844.739029
3863.182847,-1225.752797,222.061783,9548.656652
3863.183162,-1302.362347,740.205942,9400.615463
3863.183477,-689.485948,666.185348,9622.677246
3863.183792,153.219100,-0.000000,9696.697840
3863.184107,-153.219100,-0.000000,9548.656652
3863.184421,-536.266849,1480.411884,8586.388927
3863.184736,-612.876398,740.205942,8438.347739
3863.185051,842.705048,-0.000000,9770.718434
3863.185366,1302.362347,-222.061783,10362.883188
3863.185680,766.095498,148.041188,9622.677246
3863.185995,-612.876398,1184.329507,9252.574275
3863.186310,-919.314598,888.247130,9474.636058
3863.186625,459.657299,518.144159,10807.006753
3863.186940,842.705048,-0.000000,9622.677246
3863.187254,0.000000,370.102971,9548.656652
3863.187569,-919.314598,518.144159,9400.615463
3863.187884,-689.485948,-0.000000,9474.636058
3863.188199,766.095498,-296.082377,10510.924376
3863.188513,1455.581446,-0.000000,9548.656652
3863.188828,383.047749,296.082377,9844.739029
3863.189143,229.828649,814.226536,9548.656652
3863.189458,0.000000,592.164754,10066.800811
3863.189773,689.485948,296.082377,10436.903782
3863.190087,1149.143247,-0.000000,10510.924376
3863.190402,0.000000,666.185348,9474.636058
3863.190717,0.000000,444.123565,9474.636058
3863.191032,766.095498,-518.144159,9696.697840
3863.191347,1225.752797,-1258.350101,10658.965565
3863.191661,1225.752797,-592.164754,9844.739029
3863.191976,0.000000,518.144159,9474.636058
3863.192291,0.000000,370.102971,9104.533087
3863.192606,766.095498,-370.102971,9548.656652
3863.192920,1302.362347,-740.205942,9622.677246
3863.193235,995.924147,-592.164754,9030.512492
3863.193550,0.000000,666.185348,8734.430116
3863.193865,0.000000,592.164754,8808.450710
3863.194180,995.924147,-370.102971,9992.780217
3863.194494,1455.581446,-444.123565,9474.636058
3863.194809,689.485948,-740.205942,9474.636058
3863.195124,-536.266849,148.041188,9474.636058
3863.195439,-689.485948,370.102971,9474.636058
3863.195753,306.438199,-370.102971,9770.718434
3863.196068,1072.533697,-370.102971,9326.594869
3863.196383,306.438199,814.226536,8882.471304
3863.196698,-306.438199,740.205942,8142.265362
3863.197013,-689.485948,222.061783,9326.594869
3863.197327,536.266849,-444.123565,10658.965565
3863.197642,536.266849,-888.247130,10066.800811
3863.197957,-612.876398,-0.000000,9474.636058
3863.198272,-1302.362347,444.123565,9252.574275
3863.198586,-1225.752797,-74.020594,9770.718434
3863.198901,-536.266849,148.041188,9992.780217
3863.199216,-459.657299,-148.041188,9992.780217
3863.199531,-1149.143247,296.082377,9474.636058
3863.199846,-1302.362347,666.185348,9104.533087
3863.200160,0.000000,-296.082377,9474.636058
3863.200475,536.266849,-444.123565,10362.883188
3863.200790,383.047749,296.082377,10066.800811
3863.201105,-612.876398,518.144159,9770.718434
3863.201419,-995.924147,1702.473667,9400.615463
3863.201734,-306.438199,740.205942,9918.759623
3863.202049,842.705048,-444.123565,9474.636058
3863.202364,383.047749,-0.000000,9770.718434
3863.202679,-383.047749,740.205942,9030.512492
3863.202993,-1149.143247,-74.020594,9252.574275
3863.203308,-689.485948,-444.123565,10436.903782
3863.203623,689.485948,-1332.370696,10584.944971
3863.203938,306.438199,-370.102971,9474.636058
3863.204253,-536.266849,740.205942,9622.677246
3863.204567,0.000000,814.226536,9474.636058
3863.204882,766.095498,-444.123565,10584.944971
3863.205197,995.924147,-592.164754,9696.697840
3863.205512,536.266849,296.082377,9622.677246
3863.205826,-306.438199,1110.308913,9252.574275
3863.206141,459.657299,666.185348,9844.739029
3863.206456,1378.971896,-0.000000,10288.862594
3863.206771,1762.019645,-148.041188,9474.636058
3863.207086,1302.362347,-0.000000,9770.718434
3863.207400,229.828649,962.267725,8956.491898
3863.207715,306.438199,814.226536,9400.615463
3863.208030,1072.533697,-0.000000,9622.677246
3863.208345,1072.533697,-222.061783,9400.615463
3863.208659,76.609550,-370.102971,8956.491898
3863.208974,-536.266849,-222.061783,8734.430116
3863.209289,0.000000,-370.102971,9844.739029
3863.209604,689.485948,-148.041188,9696.697840
3863.209919,306.438199,370.102971,9918.759623
3863.210233,0.000000,814.226536,8956.491898
3863.210548,-306.438199,592.164754,8956.491898
3863.210863,689.485948,814.226536,9400.615463
3863.211178,1991.848295,-148.041188,9030.512492
3863.211492,1149.143247,-0.000000,8882.471304
3863.211807,0.000000,814.226536,9104.533087
3863.212122,-612.876398,1406.391290,9400.615463
3863.212437,0.000000,-0.000000,9844.739029
3863.212752,842.705048,-296.082377,9918.759623
3863.213066,-76.609550,-148.041188,9548.656652
3863.213381,-919.314598,444.123565,9474.636058
3863.213696,-1302.362347,296.082377,9844.739029
3863.214011,-229.828649,296.082377,10066.800811
3863.214326,536.266849,-444.123565,9622.677246
3863.214640,-383.047749,518.144159,9770.718434
3863.214955,-842.705048,1036.288319,9474.636058
3863.215270,-383.047749,814.226536,9696.697840
3863.215585,766.095498,740.205942,10288.862594
3863.215899,1532.190996,148.041188,9770.718434
3863.216214,153.219100,962.267725,9548.656652
3863.216529,-1149.143247,1110.308913,9844.739029
3863.216844,-1072.533697,222.061783,10214.842000
3863.217159,229.828649,-74.020594,10436.903782
3863.217473,306.438199,-296.082377,9992.780217
3863.217788,-306.438199,-0.000000,9918.759623
3863.218103,-1072.533697,888.247130,9474.636058
3863.218418,-689.485948,962.267725,9770.718434
3863.218732,689.485948,-296.082377,10288.862594
3863.219047,1378.971896,-962.267725,9548.656652
3863.219362,-153.219100,666.185348,9326.594869
3863.219677,-306.438199,814.226536,9030.512492
3863.219992,306.438199,-0.000000,9918.759623
3863.220306,766.095498,-370.102971,10288.862594
3863.220621,383.047749,222.061783,9918.759623
3863.220936,-689.485948,740.205942,9622.677246
3863.221251,-459.657299,666.185348,9696.697840
3863.221565,229.828649,-592.164754,10140.821405
3863.221880,995.924147,-518.144159,10658.965565
3863.222195,153.219100,-0.000000,9548.656652
3863.222510,-766.095498,296.082377,8808.450710
3863.222825,-306.438199,-0.000000,9326.594869
3863.223139,612.876398,-296.082377,9178.553681
3863.223454,1225.752797,-1258.350101,9104.533087
3863.223769,383.047749,-518.144159,9252.574275
3863.224084,-153.219100,-0.000000,9252.574275
3863.224399,229.828649,-222.061783,9770.718434
3863.224713,612.876398,-962.267725,9918.759623
3863.225028,612.876398,-444.123565,9474.636058
3863.225343,0.000000,-222.061783,8586.388927
3863.225658,0.000000,518.144159,8216.285956
3863.225972,766.095498,-222.061783,9326.594869
3863.226287,1608.800546,-296.082377,9622.677246
3863.226602,766.095498,-888.247130,9030.512492
3863.226917,0.000000,-444.123565,8882.471304
3863.227232,-689.485948,-0.000000,9474.636058
3863.227546,-536.266849,-814.226536,9992.780217
3863.227861,383.047749,-1036.288319,10584.944971
3863.228176,306.438199,-1110.308913,9622.677246
3863.228491,-229.828649,-148.041188,9474.636058
3863.228805,-995.924147,518.144159,9326.594869
3863.229120,-229.828649,-296.082377,9622.677246
3863.229435,612.876398,-222.061783,9918.759623
3863.229750,0.000000,-296.082377,9326.594869
3863.230065,0.000000,592.164754,8808.450710
3863.230379,-153.219100,518.144159,9474.636058
3863.230694,383.047749,-0.000000,9474.636058
3863.231009,919.314598,-0.000000,9474.636058
3863.231324,153.219100,444.123565,10066.800811
3863.231638,-459.657299,1406.391290,9326.594869
3863.231953,-536.266849,888.247130,9178.553681
3863.232268,76.609550,518.144159,9918.759623
3863.232583,0.000000,-370.102971,10584.944971
3863.232898,-919.314598,444.123565,9992.780217
3863.233212,-1378.971896,518.144159,9770.718434
3863.233527,-1455.581446,370.102971,10584.944971
3863.233842,-229.828649,-0.000000,10362.883188
3863.234157,0.000000,-0.000000,9992.780217
3863.234471,-842.705048,444.123565,9844.739029
3863.234786,-1378.971896,1406.391290,9474.636058
3863.235101,-536.266849,740.205942,9918.759623
3863.235416,766.095498,-0.000000,9918.759623
3863.235731,842.705048,222.061783,10214.842000
3863.236045,153.219100,1036.288319,9178.553681
3863.236360,-153.219100,1924.535449,8956.491898
3863.236675,306.438199,1184.329507,9696.697840
3863.236990,1455.581446,296.082377,10066.800811
3863.237305,1532.190996,-0.000000,9696.697840
3863.237619,766.095498,296.082377,8734.430116
3863.237934,-459.657299,222.061783,9992.780217
3863.238249,-229.828649,-0.000000,9326.594869
3863.238564,995.924147,-666.185348,10510.924376
3863.238878,383.047749,74.020594,9992.780217
3863.239193,-229.828649,444.123565,9992.780217
3863.239508,0.000000,740.205942,9770.718434
3863.239823,919.314598,-0.000000,10955.047942
3863.240138,1685.410096,518.144159,10510.924376
3863.240452,1532.190996,962.267725,9992.780217
3863.240767,842.705048,2146.597232,8734.430116
3863.241082,1149.143247,1332.370696,9104.533087
3863.241397,1838.629195,740.205942,9622.677246
3863.241711,2221.676944,518.144159,9030.512492
3863.242026,1302.362347,518.144159,8660.409521
3863.242341,-306.438199,592.164754,9104.533087
3863.242656,-306.438199,-296.082377,9918.759623
3863.242971,612.876398,-666.185348,9622.677246
3863.243286,153.219100,-1110.308913,10510.924376
3863.243600,-766.095498,-370.102971,10066.800811
3863.243915,-1072.533697,-0.000000,9326.594869
3863.244230,-689.485948,666.185348,10066.800811
3863.244545,689.485948,148.041188,9474.636058
3863.244860,1149.143247,370.102971,8734.430116
3863.245175,536.266849,592.164754,8734.430116
3863.245490,459.657299,888.247130,8512.368333
3863.245805,766.095498,-0.000000,9696.697840
3863.246119,1302.362347,-148.041188,9696.697840
3863.246434,536.266849,-0.000000,9400.615463
3863.246749,-919.314598,-148.041188,9474.636058
3863.247064,-1149.143247,592.164754,9770.718434
3863.247379,-766.095498,-296.082377,10214.842000
3863.247694,76.609550,-1036.288319,10066.800811
3863.248009,-1302.362347,-1036.288319,9252.574275
3863.248323,-1685.410096,-296.082377,9326.594869
3863.248638,-1532.190996,-0.000000,9474.636058
3863.248953,-536.266849,-1036.288319,9992.780217
3863.249268,766.095498,-1110.308913,10140.821405
3863.249583,306.438199,-296.082377,9400.615463
3863.249898,-306.438199,1628.453072,9252.574275
3863.250213,-76.609550,1924.535449,9474.636058
3863.250528,689.485948,814.226536,9992.780217
3863.250842,1838.629195,370.102971,9474.636058
3863.251157,0.000000,74.020594,9178.553681
3863.251472,-766.095498,814.226536,9178.553681
3863.251787,-612.876398,-962.267725,9992.780217
3863.252102,-229.828649,-1702.473667,10658.965565
3863.252417,-689.485948,-1258.350101,11399.171507
3863.252732,-1225.752797,-0.000000,10066.800811
3863.253046,-1838.629195,-0.000000,9622.677246
3863.253361,-919.314598,-518.144159,9548.656652
3863.253676,919.314598,-962.267725,9178.553681
3863.253991,1149.143247,-888.247130,8734.430116
3863.254306,153.219100,740.205942,8882.471304
3863.254621,76.609550,370.102971,8660.409521
3863.254936,459.657299,518.144159,9548.656652
3863.255251,1378.971896,-370.102971,9622.677246
3863.255565,1608.800546,-296.082377,9326.594869
3863.255880,0.000000,1258.350101,8438.347739
3863.256195,-536.266849,888.247130,9400.615463
3863.256510,0.000000,-370.102971,9696.697840
3863.256825,76.609550,-1184.329507,9770.718434
3863.257140,76.609550,-1036.288319,9548.656652
3863.257455,-1072.533697,-888.247130,9548.656652
3863.257769,-689.485948,518.144159,9474.636058
3863.258084,229.828649,-888.247130,10214.842000
3863.258399,842.705048,-0.000000,10066.800811
3863.258714,153.219100,-0.000000,9474.636058
3863.259029,0.000000,1554.432478,8808.450710
3863.259344,383.047749,1406.391290,8660.409521
3863.259659,1838.629195,1036.288319,8956.491898
3863.259974,2145.067394,740.205942,8808.450710
3863.260288,1225.752797,740.205942,8290.306550
3863.260603,229.828649,592.164754,8512.368333
3863.260918,0.000000,740.205942,9918.759623
3863.261233,459.657299,-74.020594,9992.780217
3863.261548,612.876398,-814.226536,10732.986159
3863.261863,-229.828649,-0.000000,10288.862594
3863.262178,-919.314598,740.205942,10436.903782
3863.262492,-612.876398,888.247130,10584.944971
3863.262807,153.219100,370.102971,10288.862594
3863.263122,612.876398,296.082377,9992.780217
3863.263437,76.609550,1406.391290,9844.739029
3863.263752,0.000000,1702.473667,9030.512492
3863.264067,995.924147,1036.288319,10066.800811
3863.264382,1378.971896,296.082377,10436.903782
3863.264697,995.924147,222.061783,9770.718434
3863.265011,76.609550,1036.288319,8882.471304
3863.265326,-536.266849,1332.370696,9104.533087
3863.265641,-229.828649,222.061783,10510.924376
3863.265956,0.000000,-0.000000,9992.780217
3863.266271,-919.314598,296.082377,9622.677246
3863.266586,-1378.971896,370.102971,9770.718434
3863.266901,-1302.362347,296.082377,10140.821405
3863.267215,-612.876398,-296.082377,10658.965565
3863.267530,229.828649,-1110.308913,10510.924376
3863.267845,0.000000,518.144159,9844.739029
3863.268160,-612.876398,888.247130,9326.594869
3863.268475,0.000000,1184.329507,9770.718434
3863.268790,612.876398,740.205942,10140.821405
3863.269105,689.485948,518.144159,9326.594869
3863.269420,306.438199,592.164754,8512.368333
3863.269734,229.828649,592.164754,9252.574275
3863.270049,0.000000,-0.000000,9696.697840
3863.270364,383.047749,-888.247130,9548.656652
3863.270679,229.828649,-814.226536,9696.697840
3863.270994,-1225.752797,-370.102971,9326.594869
3863.271309,-306.438199,518.144159,8956.491898
3863.271624,76.609550,148.041188,9326.594869
3863.271938,689.485948,-1258.350101,9696.697840
3863.272253,383.047749,-222.061783,9548.656652
3863.272568,0.000000,666.185348,8364.327145
3863.272883,-612.876398,518.144159,8586.388927
3863.273198,306.438199,-962.267725,9992.780217
3863.273513,1532.190996,-1110.308913,9474.636058
3863.273828,842.705048,-962.267725,9252.574275
3863.274143,0.000000,296.082377,9178.553681
3863.274457,-766.095498,592.164754,10214.842000
3863.274772,306.438199,74.020594,9844.739029
3863.275087,1072.533697,-148.041188,9622.677246
3863.275402,459.657299,-518.144159,8290.306550
3863.275717,76.609550,-666.185348,8808.450710
3863.276032,-229.828649,-74.020594,9622.677246
3863.276347,306.438199,-518.144159,10807.006753
3863.276661,612.876398,-888.247130,9548.656652
3863.276976,0.000000,-666.185348,9400.615463
3863.277291,-229.828649,296.082377,9252.574275
3863.277606,76.609550,-148.041188,9252.574275
3863.277921,1302.362347,-444.123565,9844.739029
3863.278236,1072.533697,-0.000000,9474.636058
3863.278551,0.000000,740.205942,8734.430116
3863.278866,0.000000,296.082377,8956.491898
3863.279180,229.828649,-0.000000,9474.636058
3863.279495,1378.971896,-1036.288319,10214.842000
3863.279810,1149.143247,-814.226536,9548.656652
3863.280125,-689.485948,444.123565,9696.697840
3863.280440,-995.924147,814.226536,9548.656652
3863.280755,-306.438199,296.082377,10214.842000
3863.281070,766.095498,-666.185348,10362.883188
3863.281384,229.828649,-666.185348,9622.677246
3863.281699,0.000000,148.041188,9844.739029
3863.282014,-995.924147,888.247130,9474.636058
3863.282329,0.000000,370.102971,9770.718434
3863.282644,842.705048,-0.000000,10140.821405
3863.282959,383.047749,-222.061783,9474.636058
3863.283274,-306.438199,666.185348,9030.512492
3863.283589,-153.219100,296.082377,9918.759623
3863.283903,0.000000,-74.020594,9548.656652
3863.284218,0.000000,-814.226536,9696.697840
3863.284533,-612.876398,-0.000000,9548.656652
3863.284848,-459.657299,222.061783,9844.739029
3863.285163,-689.485948,666.185348,9770.718434
3863.285478,229.828649,-0.000000,10732.986159
3863.285793,459.657299,296.082377,10214.842000
3863.286107,-383.047749,888.247130,9326.594869
3863.286422,-536.266849,1554.432478,8882.471304
3863.286737,-612.876398,1258.350101,9622.677246
3863.287052,153.219100,-370.102971,10288.862594
3863.287367,536.266849,-296.082377,9622.677246
3863.287682,-306.438199,-0.000000,8882.471304
3863.287997,-1072.533697,888.247130,9326.594869
3863.288312,-612.876398,666.185348,9326.594869
3863.288626,229.828649,-444.123565,10288.862594
3863.288941,153.219100,-444.123565,9548.656652
3863.289256,76.609550,444.123565,9178.553681
3863.289571,-536.266849,888.247130,8882.471304
3863.289886,153.219100,444.123565,9030.512492
3863.290201,689.485948,-0.000000,9474.636058
3863.290516,612.876398,296.082377,8956.491898
3863.290830,76.609550,518.144159,8882.471304
3863.291145,-383.047749,888.247130,9252.574275
3863.291460,229.828649,-0.000000,10214.842000
3863.291775,536.266849,-222.061783,10214.842000
3863.292090,153.219100,296.082377,9548.656652
3863.292405,-459.657299,592.164754,9770.718434
3863.292720,-459.657299,296.082377,10436.903782
3863.293035,153.219100,592.164754,9844.739029
3863.293349,995.924147,-296.082377,10510.924376
3863.293664,612.876398,444.123565,8808.450710
3863.293979,306.438199,1628.453072,8882.471304
3863.294294,689.485948,1184.329507,9696.697840
3863.294609,995.924147,-0.000000,9696.697840
3863.294924,1149.143247,-518.144159,10658.965565
3863.295239,229.828649,-148.041188,9548.656652
3863.295553,-76.609550,296.082377,9474.636058
3863.295868,-306.438199,-0.000000,10214.842000
3863.296183,153.219100,-370.102971,10510.924376
3863.296498,612.876398,-888.247130,10510.924376
3863.296813,0.000000,-74.020594,9474.636058
3863.297128,-383.047749,148.041188,9548.656652
3863.297443,0.000000,-0.000000,9918.759623
3863.297758,919.314598,-666.185348,10362.883188
3863.298072,1072.533697,-296.082377,9918.759623
3863.298387,536.266849,518.144159,8734.430116
3863.298702,76.609550,-148.041188,8808.450710
3863.299017,1149.143247,-0.000000,9326.594869
3863.299332,1762.019645,-666.185348,9770.718434
3863.299647,995.924147,-296.082377,8956.491898
3863.299962,0.000000,814.226536,8956.491898
3863.300276,-536.266849,814.226536,9030.512492
3863.300591,459.657299,-444.123565,9770.718434
3863.300906,1608.800546,-592.164754,9104.533087
3863.301221,383.047749,-296.082377,9400.615463
3863.301536,-612.876398,666.185348,8438.347739
3863.301851,-536.266849,740.205942,9104.533087
3863.302166,-459.657299,296.082377,9548.656652
3863.302481,0.000000,-814.226536,9104.533087
3863.302795,-842.705048,-222.061783,9474.636058
3863.303110,-1532.190996,-592.164754,9104.533087
3863.303425,-1302.362347,-74.020594,10066.800811
3863.303740,-612.876398,-444.123565,10955.047942
3863.304055,-383.047749,-0.000000,10140.821405
3863.304370,-229.828649,222.061783,9622.677246
3863.304685,-689.485948,1480.411884,8290.306550
3863.304999,229.828649,1110.308913,9474.636058
3863.305314,1302.362347,740.205942,9474.636058
3863.305629,1072.533697,370.102971,8808.450710
3863.305944,229.828649,814.226536,8142.265362
3863.306259,-536.266849,-0.000000,9548.656652
3863.306574,-153.219100,-444.123565,9918.759623
3863.306889,153.219100,-814.226536,10066.800811
3863.307204,-689.485948,-814.226536,10510.924376
3863.307518,-383.047749,-222.061783,10140.821405
3863.307833,-1302.362347,296.082377,10362.883188
3863.308148,-612.876398,814.226536,10436.903782
3863.308463,0.000000,-0.000000,10510.924376
3863.308778,229.828649,222.061783,9622.677246
3863.309093,536.266849,518.144159,9548.656652
3863.309408,536.266849,1406.391290,9474.636058
3863.309722,919.314598,740.205942,9844.739029
3863.310037,1149.143247,-74.020594,10140.821405
3863.310352,1072.533697,-0.000000,9992.780217
3863.310667,-229.828649,1332.370696,9622.677246
3863.310982,-383.047749,814.226536,9696.697840
3863.311297,153.219100,-592.164754,10510.924376
3863.311612,612.876398,-962.267725,9844.739029
3863.311927,76.609550,-740.205942,9178.553681
3863.312241,-229.828649,-0.000000,8882.471304
3863.312556,0.000000,-74.020594,10288.862594
3863.312871,995.924147,-0.000000,9696.697840
3863.313186,1455.581446,-148.041188,9400.615463
3863.313501,689.485948,518.144159,9474.636058
3863.313816,229.828649,1036.288319,8660.409521
3863.314131,766.095498,740.205942,9326.594869
3863.314445,1302.362347,518.144159,9696.697840
3863.314760,1378.971896,-0.000000,9696.697840
3863.315075,995.924147,-0.000000,8882.471304
3863.315390,383.047749,296.082377,9178.553681
3863.315705,383.047749,444.123565,10436.903782
3863.316020,612.876398,-74.020594,10362.883188
3863.316335,766.095498,-0.000000,9844.739029
3863.316650,-306.438199,296.082377,8956.491898
3863.316964,0.000000,518.144159,8512.368333
3863.317279,0.000000,-370.102971,9326.594869
3863.317594,612.876398,-1258.350101,9696.697840
3863.317909,229.828649,-814.226536,9474.636058
3863.318224,-383.047749,370.102971,7698.141797
3863.318539,-689.485948,666.185348,9252.574275
3863.318854,-229.828649,370.102971,10066.800811
3863.319168,995.924147,-518.144159,10140.821405
3863.319483,0.000000,-0.000000,9622.677246
3863.319798,-842.705048,888.247130,9252.574275
3863.320113,-1072.533697,1110.308913,9770.718434
3863.320428,-229.828649,740.205942,9622.677246
3863.320743,0.000000,-0.000000,9992.780217
3863.321058,-459.657299,-0.000000,9548.656652
3863.321373,-842.705048,296.082377,9252.574275
3863.321687,-612.876398,222.061783,9622.677246
3863.322002,-536.266849,666.185348,10510.924376
3863.322317,-153.219100,-0.000000,10140.821405
3863.322632,-612.876398,-0.000000,10066.800811
3863.322947,-995.924147,222.061783,9992.780217
3863.323262,-689.485948,518.144159,10214.842000
3863.323577,-383.047749,-74.020594,9770.718434
3863.323891,76.609550,222.061783,9474.636058
3863.324206,-536.266849,666.185348,9252.574275
3863.324521,-459.657299,1184.329507,8438.347739
3863.324836,0.000000,814.226536,9992.780217
3863.325151,689.485948,-444.123565,10510.924376
3863.325466,306.438199,-740.205942,10510.924376
3863.325781,-383.047749,-0.000000,9696.697840
3863.326095,-1149.143247,1184.329507,9696.697840
3863.326410,-1072.533697,1554.432478,9844.739029
3863.326725,229.828649,-518.144159,10140.821405
3863.327040,995.924147,-1850.514855,10510.924376
3863.327355,-459.657299,592.164754,9622.677246
3863.327670,-842.705048,222.061783,9622.677246
3863.327985,0.000000,-444.123565,9474.636058
3863.328300,842.705048,-814.226536,9844.739029
3863.328614,1455.581446,-888.247130,9548.656652
3863.328929,612.876398,-222.061783,7624.121203
3863.329244,306.438199,-74.020594,9400.615463
3863.329559,1225.752797,518.144159,9474.636058
3863.329874,766.095498,222.061783,9474.636058
3863.330189,995.924147,222.061783,9178.553681
3863.330504,306.438199,74.020594,9104.533087
3863.330818,153.219100,-740.205942,10140.821405
3863.331133,995.924147,-1258.350101,10362.883188
3863.331448,459.657299,-740.205942,10066.800811
3863.331763,0.000000,-666.185348,9548.656652
3863.332078,-459.657299,370.102971,8216.285956
3863.332393,153.219100,-0.000000,9326.594869
3863.332708,1302.362347,-0.000000,9030.512492
3863.333023,1225.752797,-592.164754,8586.388927
3863.333337,459.657299,-518.144159,8142.265362
3863.333652,383.047749,-0.000000,8438.347739
3863.333967,459.657299,222.061783,9178.553681
3863.334282,1072.533697,-888.247130,9474.636058
3863.334597,1149.143247,-740.205942,9030.512492
3863.334912,229.828649,222.061783,9178.553681
3863.335227,-459.657299,740.205942,8364.327145
3863.335541,0.000000,666.185348,9400.615463
3863.335856,383.047749,444.123565,9548.656652
3863.336171,76.609550,222.061783,9474.636058
3863.336486,-459.657299,370.102971,9104.533087
3863.336801,-766.095498,370.102971,10066.800811
3863.337116,-153.219100,-0.000000,10436.903782
3863.337431,0.000000,-0.000000,11103.089130
3863.337746,-459.657299,222.061783,10436.903782
3863.338060,-1149.143247,1554.432478,9622.677246
3863.338375,-766.095498,1184.329507,9844.739029
3863.338690,153.219100,1036.288319,10288.862594
3863.339005,229.828649,518.144159,10288.862594
3863.339320,-229.828649,962.267725,9400.615463
3863.339635,-612.876398,1332.370696,8512.368333
3863.339950,-689.485948,1110.308913,9400.615463
3863.340264,383.047749,296.082377,10066.800811
3863.340579,153.219100,-296.082377,10658.965565
3863.340894,-842.705048,-222.061783,9992.780217
3863.341209,-1149.143247,370.102971,10362.883188
3863.341524,-1302.362347,666.185348,10807.006753
3863.341839,-383.047749,-0.000000,11399.171507
3863.342154,-766.095498,-222.061783,10807.006753
3863.342469,-459.657299,370.102971,9918.759623
3863.342783,-536.266849,1036.288319,9474.636058
3863.343098,76.609550,666.185348,10288.862594
3863.343413,1149.143247,370.102971,10362.883188
3863.343728,1149.143247,-0.000000,9844.739029
3863.344043,459.657299,666.185348,8956.491898
3863.344358,229.828649,-0.000000,9104.533087
3863.344673,612.876398,222.061783,10140.821405
3863.344987,1072.533697,-296.082377,10140.821405
3863.345302,229.828649,-148.041188,8882.471304
3863.345617,153.219100,-296.082377,9104.533087
3863.345932,0.000000,-0.000000,8956.491898
3863.346247,995.924147,-370.102971,9400.615463
3863.346562,842.705048,-444.123565,9474.636058
3863.346877,459.657299,-814.226536,9178.553681
3863.347191,76.609550,148.041188,8808.450710
3863.347506,229.828649,666.185348,8586.388927
3863.347821,1455.581446,444.123565,9548.656652
3863.348136,1762.019645,222.061783,9474.636058
3863.348451,1072.533697,296.082377,8290.306550
3863.348766,459.657299,1184.329507,7994.224174
3863.349081,919.314598,222.061783,9474.636058
3863.349396,919.314598,-370.102971,9178.553681
3863.349710,1149.143247,-518.144159,9622.677246
3863.350025,-153.219100,-0.000000,8734.430116
3863.350340,-536.266849,-666.185348,9474.636058
3863.350655,-229.828649,296.082377,9178.553681
3863.350970,0.000000,-444.123565,10066.800811
3863.351285,612.876398,-74.020594,9400.615463
3863.351600,0.000000,-0.000000,8142.265362
3863.351914,76.609550,370.102971,8660.409521
3863.352229,536.266849,-740.205942,9400.615463
3863.352544,919.314598,-222.061783,9548.656652
3863.352859,536.266849,-148.041188,9918.759623
3863.353174,-383.047749,518.144159,9178.553681
3863.353489,-459.657299,962.267725,9548.656652
3863.353804,306.438199,888.247130,9918.759623
3863.354119,612.876398,518.144159,10140.821405
3863.354433,0.000000,296.082377,10066.800811
3863.354748,-995.924147,888.247130,9548.656652
3863.355063,-612.876398,592.164754,9622.677246
3863.355378,-459.657299,-592.164754,10955.047942
3863.355693,536.266849,-1184.329507,11325.150913
3863.356008,-229.828649,-296.082377,9474.636058
3863.356323,-919.314598,518.144159,10140.821405
3863.356637,-229.828649,518.144159,9696.697840
3863.356952,153.219100,518.144159,10436.903782
3863.357267,612.876398,296.082377,10066.800811
3863.357582,76.609550,666.185348,9696.697840
3863.357897,-612.876398,740.205942,9326.594869
3863.358212,0.000000,592.164754,9474.636058
3863.358527,383.047749,-0.000000,10362.883188
3863.358841,0.000000,-148.041188,10288.862594
3863.359156,-689.485948,740.205942,9770.718434
3863.359471,-919.314598,592.164754,9104.533087
3863.359786,-229.828649,296.082377,10214.842000
3863.360101,229.828649,222.061783,10140.821405
3863.360416,-229.828649,-0.000000,10288.862594
3863.360731,-536.266849,740.205942,9474.636058
3863.361046,-536.266849,370.102971,9844.739029
3863.361360,-459.657299,370.102971,9770.718434
3863.361675,536.266849,-0.000000,9622.677246
3863.361990,689.485948,296.082377,8808.450710
3863.362305,0.000000,444.123565,8512.368333
3863.362620,153.219100,222.061783,9178.553681
3863.362935,536.266849,-0.000000,9178.553681
3863.363250,612.876398,-296.082377,9252.574275
3863.363564,76.609550,-222.061783,8438.347739
3863.363879,-766.095498,-148.041188,8512.368333
3863.364194,-229.828649,-74.020594,9400.615463
3863.364509,229.828649,-222.061783,9474.636058
3863.364824,459.657299,-888.247130,9474.636058
3863.365139,76.609550,-740.205942,9770.718434
3863.365454,-306.438199,814.226536,8734.430116
3863.365768,0.000000,370.102971,9400.615463
3863.366083,689.485948,-0.000000,10288.862594
3863.366398,1455.581446,-592.164754,9548.656652
3863.366713,919.314598,-74.020594,9030.512492
3863.367028,383.047749,888.247130,8882.471304
3863.367343,689.485948,370.102971,8808.450710
3863.367658,1378.971896,-370.102971,10066.800811
3863.367973,919.314598,-370.102971,9844.739029
3863.368287,536.266849,-444.123565,9696.697840
3863.368602,0.000000,296.082377,9030.512492
3863.368917,76.609550,296.082377,10066.800811
3863.369232,1072.533697,-0.000000,10214.842000
3863.369547,766.095498,518.144159,9548.656652
3863.369862,0.000000,666.185348,8956.491898
3863.370177,0.000000,518.144159,9696.697840
3863.370491,536.266849,592.164754,10214.842000
3863.370806,1225.752797,-222.061783,10510.924376
3863.371121,383.047749,-0.000000,10584.944971
3863.371436,-766.095498,814.226536,9770.718434
3863.371751,-766.095498,888.247130,9548.656652
3863.372066,-383.047749,-148.041188,10584.944971
3863.372381,-153.219100,-74.020594,11029.068536
3863.372695,-689.485948,-148.041188,10214.842000
3863.373010,-1072.533697,592.164754,8882.471304
3863.373325,-1378.971896,444.123565,10362.883188
3863.373640,-383.047749,-740.205942,10214.842000
3863.373955,612.876398,-370.102971,9992.780217
3863.374270,0.000000,222.061783,9104.533087
3863.374585,-383.047749,814.226536,8734.430116
3863.374900,306.438199,1184.329507,8364.327145
3863.375214,689.485948,148.041188,9326.594869
3863.375529,842.705048,-592.164754,8882.471304
3863.375844,-383.047749,-296.082377,8808.450710
3863.376159,-1149.143247,-296.082377,9326.594869
3863.376474,-1072.533697,-0.000000,9770.718434
3863.376789,-842.705048,-666.185348,10881.027347
3863.377104,-766.095498,-1332.370696,10436.903782
3863.377418,-1378.971896,-0.000000,9326.594869
3863.377733,-1149.143247,-0.000000,8882.471304
3863.378048,459.657299,-296.082377,9696.697840
3863.378363,995.924147,-0.000000,9696.697840
3863.378678,766.095498,-0.000000,9030.512492
3863.378993,0.000000,222.061783,8438.347739
3863.379308,76.609550,296.082377,8956.491898
3863.379622,0.000000,-0.000000,9178.553681
3863.379937,919.314598,-740.205942,9770.718434
3863.380252,383.047749,-370.102971,9622.677246
3863.380567,-459.657299,-74.020594,9178.553681
3863.380882,-919.314598,-0.000000,8512.368333
3863.381197,306.438199,-444.123565,9326.594869
3863.381512,612.876398,-740.205942,9548.656652
3863.381827,306.438199,-444.123565,9548.656652
3863.382141,0.000000,-0.000000,9030.512492
3863.382456,76.609550,370.102971,9770.718434
3863.382771,1149.143247,-0.000000,10288.862594
3863.383086,1378.971896,148.041188,9474.636058
3863.383401,612.876398,296.082377,9992.780217
3863.383716,766.095498,1702.473667,8882.471304
3863.384031,842.705048,1036.288319,9400.615463
3863.384345,1225.752797,1258.350101,9548.656652
3863.384660,1685.410096,-0.000000,9844.739029
3863.384975,689.485948,592.164754,9326.594869
3863.385290,-459.657299,370.102971,8956.491898
3863.385605,153.219100,370.102971,9548.656652
3863.385920,1378.971896,-814.226536,9992.780217
3863.386235,919.314598,-0.000000,9770.718434
3863.386549,76.609550,-0.000000,9918.759623
3863.386864,-612.876398,962.267725,9474.636058
3863.387179,-306.438199,592.164754,9622.677246
3863.387494,842.705048,-0.000000,10288.862594
3863.387809,766.095498,-592.164754,9992.780217
3863.388124,76.609550,518.144159,9696.697840
3863.388439,0.000000,888.247130,9918.759623
3863.388754,306.438199,1406.391290,10214.842000
3863.389068,1072.533697,444.123565,10362.883188
3863.389383,536.266849,222.061783,9918.759623
3863.389698,153.219100,1258.350101,9252.574275
3863.390013,-76.609550,1258.350101,9178.553681
3863.390328,0.000000,222.061783,9992.780217
3863.390643,306.438199,-148.041188,10140.821405
3863.390958,0.000000,-518.144159,10436.903782
3863.391272,-1225.752797,-0.000000,9696.697840
3863.391587,-1225.752797,-0.000000,10362.883188
3863.391902,0.000000,-222.061783,10658.965565
3863.392217,306.438199,-0.000000,10066.800811
3863.392532,0.000000,370.102971,9548.656652
3863.392847,-842.705048,962.267725,8734.430116
3863.393162,-612.876398,740.205942,9252.574275
3863.393477,459.657299,-74.020594,9770.718434
3863.393791,459.657299,222.061783,9252.574275
3863.394106,383.047749,-0.000000,9622.677246
3863.394421,-383.047749,-0.000000,9474.636058
3863.394736,-153.219100,444.123565,9548.656652
3863.395051,153.219100,-222.061783,9992.780217
3863.395366,76.609550,-0.000000,9844.739029
3863.395681,-459.657299,-296.082377,9696.697840
3863.395995,-612.876398,888.247130,8882.471304
3863.396310,-459.657299,-0.000000,9030.512492
3863.396625,229.828649,-518.144159,9622.677246
3863.396940,153.219100,-666.185348,8956.491898
3863.397255,76.609550,370.102971,8142.265362
3863.397570,76.609550,444.123565,8882.471304
3863.397885,842.705048,-0.000000,9178.553681
3863.398199,1302.362347,-592.164754,9030.512492
3863.398514,689.485948,-740.205942,9622.677246
3863.398829,153.219100,-74.020594,9696.697840
3863.399144,-459.657299,296.082377,9178.553681
3863.399459,536.266849,-74.020594,9770.718434
3863.399774,1225.752797,-296.082377,9696.697840
3863.400089,153.219100,-74.020594,9474.636058
3863.400404,0.000000,-0.000000,9104.533087
3863.400718,0.000000,296.082377,9622.677246
3863.401033,383.047749,-222.061783,9844.739029
3863.401348,842.705048,-962.267725,10288.862594
3863.401663,153.219100,-1258.350101,10510.924376
3863.401978,-153.219100,-444.123565,9548.656652
3863.402293,-995.924147,148.041188,10214.842000
3863.402608,153.219100,148.041188,9844.739029
3863.402922,229.828649,148.041188,9474.636058
3863.403237,536.266849,814.226536,9696.697840
3863.403552,76.609550,1184.329507,9030.512492
3863.403867,689.485948,592.164754,9030.512492
3863.404182,689.485948,-444.123565,9918.759623
3863.404497,229.828649,-222.061783,9400.615463
3863.404812,-306.438199,-0.000000,10214.842000
3863.405126,-1225.752797,518.144159,10510.924376
3863.405441,-383.047749,370.102971,10584.944971
3863.405756,0.000000,222.061783,9918.759623
3863.406071,-229.828649,-0.000000,10436.903782
3863.406386,-766.095498,-0.000000,10362.883188
3863.406701,-1225.752797,-0.000000,9474.636058
3863.407016,-459.657299,-518.144159,9400.615463
3863.407331,689.485948,-962.267725,9918.759623
3863.407645,383.047749,-0.000000,9474.636058
3863.407960,0.000000,1258.350101,8808.450710
3863.408275,-383.047749,1776.494261,8586.388927
3863.408590,766.095498,1036.288319,8660.409521
3863.408905,1302.362347,-148.041188,8512.368333
3863.409220,766.095498,-74.020594,8808.450710
3863.409535,-306.438199,-148.041188,9178.553681
3863.409849,-612.876398,-222.061783,9474.636058
3863.410164,0.000000,-666.185348,9844.739029
3863.410479,153.219100,-296.082377,10066.800811
3863.410794,-689.485948,518.144159,10140.821405
3863.411109,-919.314598,1036.288319,9474.636058
3863.411424,-459.657299,962.267725,9770.718434
3863.411739,229.828649,814.226536,9770.718434
3863.412053,76.609550,148.041188,9178.553681
3863.412368,0.000000,666.185348,9252.574275
3863.412683,995.924147,1332.370696,9474.636058
3863.412998,842.705048,1184.329507,9178.553681
3863.413313,1149.143247,-0.000000,10066.800811
3863.413628,1302.362347,-0.000000,10066.800811
3863.413943,0.000000,814.226536,9992.780217
3863.414258,0.000000,1258.350101,9622.677246
3863.414572,0.000000,740.205942,8882.471304
3863.414887,766.095498,-148.041188,10288.862594
3863.415202,383.047749,-74.020594,9548.656652
3863.415517,-536.266849,-0.000000,9474.636058
3863.415832,-229.828649,-0.000000,9918.759623
3863.416147,919.314598,-0.000000,9992.780217
3863.416462,1455.581446,-592.164754,9474.636058
3863.416776,1072.533697,-0.000000,10362.883188
3863.417091,919.314598,888.247130,9992.780217
3863.417406,76.609550,740.205942,10066.800811
3863.417721,612.876398,-0.000000,9844.739029
3863.418036,766.095498,-0.000000,10288.862594
3863.418351,919.314598,-0.000000,9326.594869
3863.418666,153.219100,592.164754,9178.553681
3863.418980,-153.219100,444.123565,9992.780217
3863.419295,612.876398,-222.061783,9844.739029
3863.419610,306.438199,-1110.308913,9474.636058
3863.419925,-229.828649,-222.061783,9252.574275
3863.420240,-459.657299,-444.123565,9918.759623
3863.420555,-306.438199,296.082377,9548.656652
3863.420870,306.438199,-518.144159,9918.759623
3863.421185,612.876398,-148.041188,9474.636058
3863.421499,76.609550,-222.061783,9326.594869
3863.421814,-383.047749,888.247130,9252.574275
3863.422129,153.219100,1258.350101,9104.533087
3863.422444,383.047749,370.102971,9400.615463
3863.422759,229.828649,370.102971,10066.800811
3863.423074,-306.438199,666.185348,9548.656652
3863.423389,-536.266849,-0.000000,9104.533087
3863.423703,-536.266849,222.061783,9992.780217
3863.424018,153.219100,-74.020594,9474.636058
3863.424333,0.000000,370.102971,9474.636058
3863.424648,-919.314598,296.082377,9696.697840
3863.424963,-995.924147,-0.000000,9474.636058
3863.425278,-383.047749,-518.144159,8808.450710
3863.425593,0.000000,-888.247130,9770.718434
3863.425908,0.000000,-0.000000,9104.533087
3863.426222,-612.876398,222.061783,9400.615463
3863.426537,-766.095498,888.247130,9326.594869
3863.426852,0.000000,-74.020594,9474.636058
3863.427167,229.828649,-74.020594,8882.471304
3863.427482,0.000000,-444.123565,9104.533087
3863.427797,-306.438199,296.082377,9030.512492
3863.428112,-383.047749,-0.000000,9400.615463
3863.428426,0.000000,-222.061783,9696.697840
3863.428741,229.828649,-1036.288319,10510.924376
3863.429056,-459.657299,-222.061783,10362.883188
3863.429371,76.609550,666.185348,9622.677246
3863.429686,229.828649,592.164754,9918.759623
3863.430001,995.924147,-0.000000,9844.739029
3863.430316,689.485948,-0.000000,9474.636058
3863.430630,76.609550,370.102971,9252.574275
3863.430945,-306.438199,-370.102971,9770.718434
3863.431260,0.000000,370.102971,9474.636058
3863.431575,995.924147,-0.000000,9622.677246
3863.431890,1149.143247,-444.123565,9622.677246
3863.432205,766.095498,-0.000000,9992.780217
3863.432520,153.219100,370.102971,8808.450710
3863.432835,689.485948,-0.000000,9918.759623
3863.433149,1072.533697,-222.061783,10066.800811
3863.433464,612.876398,296.082377,10510.924376
3863.433779,229.828649,814.226536,9474.636058
3863.434094,536.266849,370.102971,9770.718434
3863.434409,766.095498,-0.000000,9992.780217
3863.434724,995.924147,-0.000000,9548.656652
3863.435039,766.095498,-0.000000,9844.739029
3863.435353,536.266849,666.185348,9622.677246
3863.435668,306.438199,1332.370696,9622.677246
3863.435983,536.266849,592.164754,9622.677246
3863.436298,689.485948,-0.000000,10288.862594
3863.436613,0.000000,296.082377,10436.903782
3863.436928,-919.314598,666.185348,9770.718434
3863.437243,-536.266849,370.102971,9844.739029
3863.437557,229.828649,-0.000000,9992.780217
3863.437872,383.047749,-296.082377,9696.697840
3863.438187,0.000000,296.082377,8956.491898
3863.438502,229.828649,666.185348,9104.533087
3863.438817,-229.828649,1036.288319,9178.553681
3863.439132,1149.143247,296.082377,9326.594869
3863.439447,919.314598,666.185348,8808.450710
3863.439762,0.000000,-0.000000,9030.512492
3863.440076,-459.657299,296.082377,9548.656652
3863.440391,-689.485948,-148.041188,10140.821405
3863.440706,-612.876398,-518.144159,11103.089130
3863.441021,-919.314598,-740.205942,10288.862594
3863.441336,-1072.533697,-518.144159,10510.924376
3863.441651,-1685.410096,296.082377,9918.759623
3863.441965,-1378.971896,-148.041188,10658.965565
3863.442280,-153.219100,-370.102971,10288.862594
3863.442595,-229.828649,-74.020594,9548.656652
3863.442910,76.609550,666.185348,8882.471304
3863.443225,-229.828649,1110.308913,8734.430116
3863.443539,919.314598,1036.288319,8808.450710
3863.443854,1455.581446,296.082377,8956.491898
3863.444169,1225.752797,518.144159,9326.594869
3863.444484,153.219100,814.226536,8956.491898
3863.444799,-229.828649,962.267725,8956.491898
3863.445114,153.219100,-148.041188,9622.677246
3863.445428,459.657299,-296.082377,9918.759623
3863.445743,-306.438199,-74.020594,9326.594869
3863.446058,-842.705048,-518.144159,9400.615463
3863.446373,-1149.143247,296.082377,10362.883188
3863.446688,-229.828649,444.123565,9622.677246
3863.447002,536.266849,-74.020594,9844.739029
3863.447317,306.438199,222.061783,9474.636058
3863.447632,0.000000,-0.000000,9400.615463
3863.447947,306.438199,370.102971,10140.821405
3863.448262,1608.800546,888.247130,9548.656652
3863.448577,1455.581446,370.102971,9178.553681
3863.448891,766.095498,370.102971,8956.491898
3863.449206,459.657299,-148.041188,9770.718434
3863.449521,536.266849,444.123565,9030.512492
3863.449836,1072.533697,-962.267725,9696.697840
3863.450151,306.438199,-296.082377,8956.491898
3863.450465,153.219100,-370.102971,9548.656652
3863.450780,0.000000,-444.123565,9918.759623
3863.451095,76.609550,-1184.329507,10510.924376
3863.451410,383.047749,-1036.288319,10288.862594
3863.451725,229.828649,-1258.350101,9918.759623
3863.452039,0.000000,222.061783,9326.594869
3863.452354,0.000000,592.164754,10658.965565
3863.452669,919.314598,222.061783,10288.862594
3863.452984,1378.971896,-370.102971,9696.697840
3863.453299,1225.752797,518.144159,9622.677246
3863.453614,383.047749,1036.288319,9326.594869
3863.453928,306.438199,814.226536,9622.677246
3863.454243,612.876398,-370.102971,9622.677246
3863.454558,306.438199,-740.205942,9474.636058
3863.454873,-153.219100,-666.185348,9474.636058
3863.455188,-766.095498,-222.061783,9326.594869
3863.455502,-612.876398,-1184.329507,9844.739029
3863.455817,-306.438199,-962.267725,10658.965565
3863.456132,-76.609550,-666.185348,10066.800811
3863.456447,-689.485948,148.041188,9326.594869
3863.456762,-842.705048,888.247130,9400.615463
3863.457077,383.047749,592.164754,9326.594869
3863.457391,1225.752797,666.185348,8586.388927
3863.457706,919.314598,740.205942,8512.368333
3863.458021,153.219100,1628.453072,8438.347739
3863.458336,-229.828649,1184.329507,8438.347739
3863.458651,-229.828649,-0.000000,9622.677246
3863.458965,612.876398,-148.041188,9326.594869
3863.459280,0.000000,-74.020594,9622.677246
3863.459595,-1072.533697,148.041188,10140.821405
3863.459910,-1608.800546,370.102971,10436.903782
3863.460225,-1225.752797,444.123565,9918.759623
3863.460540,-459.657299,296.082377,9474.636058
3863.460854,-229.828649,-0.000000,9696.697840
3863.461169,0.000000,370.102971,8956.491898
3863.461484,-229.828649,592.164754,9474.636058
3863.461799,919.314598,592.164754,9844.739029
3863.462114,612.876398,-0.000000,9548.656652
3863.462428,689.485948,296.082377,9326.594869
3863.462743,306.438199,592.164754,9104.533087
3863.463058,0.000000,962.267725,9696.697840
3863.463373,153.219100,-296.082377,9844.739029
3863.463688,229.828649,-222.061783,9770.718434
3863.464002,-306.438199,-296.082377,10510.924376
3863.464317,-536.266849,444.123565,10288.862594
3863.464632,0.000000,296.082377,10436.903782
3863.464947,459.657299,666.185348,9696.697840
3863.465262,1149.143247,-1406.391290,10955.047942
3863.465577,536.266849,370.102971,10214.842000
3863.465891,-383.047749,814.226536,9770.718434
3863.466206,766.095498,814.226536,9992.780217
3863.466521,1378.971896,296.082377,10214.842000
3863.466836,1762.019645,148.041188,9474.636058
3863.467151,995.924147,518.144159,9178.553681
3863.467465,306.438199,444.123565,8882.471304
3863.467780,612.876398,-0.000000,10214.842000
3863.468095,766.095498,-222.061783,10288.862594
3863.468410,0.000000,-0.000000,9770.718434
3863.468725,-306.438199,-0.000000,9548.656652
3863.469040,-689.485948,296.082377,9474.636058
3863.469354,153.219100,-444.123565,9622.677246
3863.469669,689.485948,-962.267725,9844.739029
3863.469984,0.000000,-296.082377,9770.718434
3863.470299,-689.485948,444.123565,9104.533087
3863.470614,-229.828649,666.185348,9474.636058
3863.470928,306.438199,370.102971,9474.636058
3863.471243,766.095498,-444.123565,9770.718434
3863.471558,229.828649,-148.041188,8882.471304
3863.471873,0.000000,592.164754,8734.430116
3863.472188,0.000000,962.267725,8808.450710
3863.472503,536.266849,370.102971,8438.347739
3863.472817,1225.752797,-0.000000,7994.224174
3863.473132,76.609550,-0.000000,7402.059420
3863.473447,-306.438199,-74.020594,8142.265362
3863.473762,-306.438199,-592.164754,9622.677246
3863.474077,-536.266849,-592.164754,9030.512492
3863.474391,0.000000,-518.144159,9770.718434
3863.474706,-766.095498,666.185348,9400.615463
3863.475021,-995.924147,962.267725,9622.677246
3863.475336,-919.314598,-0.000000,10584.944971
3863.475651,-536.266849,-296.082377,10510.924376
3863.475965,0.000000,-0.000000,10955.047942
3863.476280,-459.657299,740.205942,9548.656652
3863.476595,-766.095498,888.247130,10214.842000
3863.476910,-383.047749,148.041188,10436.903782
3863.477225,306.438199,-666.185348,10362.883188
3863.477540,0.000000,-1036.288319,10288.862594
3863.477854,0.000000,-148.041188,9622.677246
3863.478169,-306.438199,-0.000000,9696.697840
3863.478484,76.609550,444.123565,9030.512492
3863.478799,1149.143247,-518.144159,9622.677246
3863.479114,689.485948,-1184.329507,9400.615463
3863.479428,-306.438199,-888.247130,9104.533087
3863.479743,-383.047749,-740.205942,9326.594869
3863.480058,76.609550,-666.185348,10140.821405
3863.480373,229.828649,-518.144159,9844.739029
3863.480688,0.000000,-518.144159,9696.697840
3863.481003,-689.485948,148.041188,9474.636058
3863.481317,76.609550,-0.000000,10510.924376
3863.481632,919.314598,-0.000000,10436.903782
3863.481947,1455.581446,-0.000000,9548.656652
3863.482262,919.314598,814.226536,9696.697840
3863.482577,383.047749,1332.370696,9030.512492
3863.482891,459.657299,518.144159,9918.759623
3863.483206,1225.752797,-148.041188,9992.780217
3863.483521,1608.800546,-222.061783,9474.636058
3863.483836,536.266849,296.082377,8808.450710
3863.484151,919.314598,1036.288319,7994.224174
3863.484466,612.876398,222.061783,8586.388927
3863.484780,842.705048,-296.082377,9252.574275
3863.485095,1072.533697,-518.144159,8956.491898
3863.485410,229.828649,370.102971,8586.388927
3863.485725,229.828649,222.061783,8734.430116
3863.486040,459.657299,370.102971,9104.533087
3863.486354,842.705048,-0.000000,9992.780217
3863.486669,383.047749,-0.000000,10140.821405
3863.486984,-153.219100,1036.288319,9992.780217
3863.487299,-536.266849,1036.288319,10510.924376
3863.487614,153.219100,1110.308913,10362.883188
3863.487928,995.924147,518.144159,10288.862594
3863.488243,842.705048,888.247130,9474.636058
3863.488558,76.609550,1554.432478,9178.553681
3863.488873,-153.219100,666.185348,9770.718434
3863.489188,229.828649,222.061783,9992.780217
3863.489503,0.000000,148.041188,9548.656652
3863.489817,0.000000,-0.000000,9696.697840
3863.490132,-459.657299,148.041188,9622.677246
3863.490447,-766.095498,-148.041188,9770.718434
3863.490762,0.000000,-592.164754,10214.842000
3863.491077,-536.266849,444.123565,9844.739029
3863.491391,-306.438199,296.082377,9548.656652
3863.491706,-459.657299,518.144159,9400.615463
3863.492021,-383.047749,666.185348,9770.718434
3863.492336,383.047749,222.061783,10288.862594
3863.492651,153.219100,-370.102971,10510.924376
3863.492966,-536.266849,296.082377,10066.800811
3863.493280,-383.047749,518.144159,9992.780217
3863.493595,0.000000,1184.329507,10066.800811
3863.493910,689.485948,740.205942,10140.821405
3863.494225,153.219100,296.082377,10066.800811
3863.494540,-229.828649,370.102971,9548.656652
3863.494854,-536.266849,518.144159,9252.574275
3863.495169,-153.219100,-148.041188,8956.491898
3863.495484,689.485948,-814.226536,9474.636058
3863.495799,842.705048,-1184.329507,9474.636058
3863.496114,0.000000,-370.102971,9326.594869
3863.496429,0.000000,592.164754,9178.553681
3863.496743,612.876398,444.123565,9252.574275
3863.497058,306.438199,-0.000000,9474.636058
3863.497373,536.266849,-148.041188,9178.553681
3863.497688,229.828649,222.061783,8734.430116
3863.498003,76.609550,-74.020594,9696.697840
3863.498317,536.266849,-148.041188,9844.739029
3863.498632,306.438199,-518.144159,10140.821405
3863.498947,689.485948,-296.082377,9474.636058
3863.499262,229.828649,222.061783,9178.553681
3863.499577,0.000000,592.164754,9622.677246
3863.499891,766.095498,-444.123565,9474.636058
3863.500206,995.924147,-666.185348,9400.615463
3863.500521,0.000000,-148.041188,9030.512492
3863.500836,76.609550,-592.164754,8734.430116
3863.501151,153.219100,-740.205942,9622.677246
3863.501466,153.219100,-1110.308913,9992.780217
3863.501780,612.876398,-1184.329507,9622.677246
3863.502095,-229.828649,-814.226536,9400.615463
3863.502410,-612.876398,296.082377,9474.636058
3863.502725,0.000000,-0.000000,9474.636058
3863.503040,459.657299,-592.164754,9622.677246
3863.503354,-612.876398,888.247130,8142.265362
3863.503669,995.924147,-2072.576638,10510.924376
3863.503984,229.828649,1184.329507,9474.636058
3863.504299,-919.314598,-74.020594,9178.553681
3863.504614,306.438199,-1480.411884,10881.027347
3863.504929,0.000000,-0.000000,9918.759623
3863.505243,0.000000,666.185348,9770.718434
3863.505558,-229.828649,148.041188,9252.574275
3863.505873,0.000000,222.061783,9770.718434
3863.506188,383.047749,-222.061783,9474.636058
3863.506503,383.047749,-0.000000,8660.409521
3863.506817,0.000000,1110.308913,9104.533087
3863.507132,-536.266849,814.226536,8586.388927
3863.507447,612.876398,-518.144159,10214.842000
3863.507762,229.828649,222.061783,9548.656652
3863.508077,-229.828649,-518.144159,9992.780217
3863.508392,-536.266849,518.144159,9622.677246
3863.508706,-689.485948,888.247130,9992.780217
3863.509021,-995.924147,444.123565,10214.842000
3863.509336,-306.438199,-0.000000,9918.759623
3863.509651,-229.828649,370.102971,9992.780217
3863.509966,-919.314598,814.226536,10066.800811
3863.510280,-459.657299,444.123565,10214.842000
3863.510595,0.000000,740.205942,10955.047942
3863.510910,-229.828649,518.144159,10066.800811
3863.511225,-229.828649,592.164754,9400.615463
3863.511540,-536.266849,444.123565,9918.759623
3863.511854,76.609550,296.082377,10214.842000
3863.512169,1302.362347,-0.000000,9992.780217
3863.512484,0.000000,-0.000000,10584.944971
3863.512799,-459.657299,1036.288319,8808.450710
3863.513114,-383.047749,222.061783,9474.636058
3863.513429,229.828649,296.082377,9696.697840
3863.513743,612.876398,-518.144159,9918.759623
3863.514058,995.924147,-0.000000,9770.718434
3863.514373,229.828649,518.144159,8586.388927
3863.514688,0.000000,814.226536,8512.368333
3863.515003,153.219100,-148.041188,9696.697840
3863.515317,689.485948,-444.123565,9326.594869
3863.515632,536.266849,-740.205942,9400.615463
3863.515947,0.000000,518.144159,9178.553681
3863.516262,-459.657299,592.164754,9622.677246
3863.516577,76.609550,-296.082377,9474.636058
3863.516892,153.219100,-296.082377,9474.636058
3863.517206,153.219100,-0.000000,9770.718434
3863.517521,0.000000,592.164754,8956.491898
3863.517836,76.609550,814.226536,9474.636058
3863.518151,995.924147,444.123565,9474.636058
3863.518466,536.266849,-0.000000,8512.368333
3863.518780,995.924147,666.185348,8660.409521
3863.519095,153.219100,1036.288319,8364.327145
3863.519410,689.485948,222.061783,9622.677246
3863.519725,919.314598,444.123565,9622.677246
3863.520040,536.266849,-0.000000,9844.739029
3863.520355,153.219100,296.082377,9622.677246
3863.520669,-229.828649,518.144159,9474.636058
3863.520984,-306.438199,370.102971,10362.883188
3863.521299,0.000000,-74.020594,10510.924376
3863.521614,153.219100,-74.020594,9918.759623
3863.521929,0.000000,962.267725,9252.574275
3863.522243,-153.219100,666.185348,9622.677246
3863.522558,459.657299,592.164754,9992.780217
3863.522873,766.095498,-0.000000,10140.821405
3863.523188,536.266849,-222.061783,9844.739029
3863.523503,0.000000,370.102971,9474.636058
3863.523817,0.000000,518.144159,9918.759623
3863.524132,306.438199,-0.000000,9992.780217
3863.524447,153.219100,-592.164754,9992.780217
3863.524762,0.000000,-296.082377,10066.800811
3863.525077,-689.485948,-1036.288319,9992.780217
3863.525392,-383.047749,-740.205942,10214.842000
3863.525706,0.000000,-740.205942,9770.718434
3863.526021,306.438199,-1258.350101,9696.697840
3863.526336,0.000000,-592.164754,9474.636058
3863.526651,-536.266849,518.144159,9178.553681
3863.526966,0.000000,-0.000000,9104.533087
3863.527280,229.828649,-740.205942,10362.883188
3863.527595,689.485948,-222.061783,9622.677246
3863.527910,-459.657299,-296.082377,8956.491898
3863.528225,-536.266849,-74.020594,9474.636058
3863.528540,0.000000,-0.000000,9918.759623
3863.528855,0.000000,-296.082377,9918.759623
3863.529169,-459.657299,-222.061783,9696.697840
3863.529484,-766.095498,370.102971,9178.553681
3863.529799,-306.438199,370.102971,8586.388927
3863.530114,0.000000,-296.082377,8882.471304
3863.530429,-383.047749,-370.102971,9252.574275
3863.530743,-842.705048,-592.164754,9030.512492
3863.531058,-766.095498,-1258.350101,9178.553681
3863.531373,-1608.800546,-814.226536,10214.842000
3863.531688,-1838.629195,-1184.329507,10214.842000
3863.532003,-1532.190996,-888.247130,10140.821405
3863.532318,-1991.848295,-370.102971,10584.944971
3863.532632,-2451.505594,518.144159,9548.656652
3863.532947,-1608.800546,-296.082377,9844.739029
3863.533262,-1072.533697,-0.000000,9252.574275
3863.533577,-612.876398,-222.061783,9474.636058
3863.533892,-306.438199,222.061783,8216.285956
3863.534206,0.000000,518.144159,8438.347739
3863.534521,-536.266849,222.061783,9104.533087
3863.534836,-842.705048,-962.267725,9326.594869
3863.535151,-995.924147,-1628.453072,9770.718434
3863.535466,-1378.971896,-1554.432478,10140.821405
3863.535780,-1991.848295,-1924.535449,9474.636058
3863.536095,-2681.334243,-1776.494261,9918.759623
3863.536410,-2451.505594,-1702.473667,10066.800811
3863.536725,-1608.800546,-2072.576638,10436.903782
3863.537040,-1532.190996,-1924.535449,10436.903782
3863.537355,-1915.238745,-1554.432478,10140.821405
3863.537669,-1915.238745,-888.247130,10066.800811
3863.537984,-1302.362347,-888.247130,9844.739029
3863.538299,-689.485948,-1332.370696,9474.636058
3863.538614,-306.438199,-1258.350101,9474.636058
3863.538929,-919.314598,-1258.350101,9548.656652
3863.539243,-1072.533697,-1776.494261,9918.759623
3863.539558,-1455.581446,-1480.411884,10066.800811
3863.539873,-1915.238745,-1998.556043,9844.739029
3863.540188,-1608.800546,-2220.617826,10436.903782
3863.540503,-2068.457845,-2590.720797,10510.924376
3863.540818,-2374.896044,-2516.700203,10658.965565
3863.541132,-2451.505594,-2664.741391,10288.862594
3863.541447,-1991.848295,-2220.617826,9992.780217
3863.541762,-995.924147,-2072.576638,9696.697840
3863.542077,-612.876398,-1554.432478,8882.471304
3863.542392,-612.876398,-1184.329507,8956.491898
3863.542706,0.000000,-1554.432478,8586.388927
3863.543021,-536.266849,-814.226536,7254.018232
3863.543336,0.000000,-1332.370696,7550.100608
3863.543651,-153.219100,-1554.432478,8660.409521
3863.543966,-1225.752797,-2072.576638,8734.430116
3863.544281,-2068.457845,-2368.659014,9178.553681
3863.544595,-2681.334243,-3108.864956,9400.615463
3863.544910,-3064.381992,-3182.885551,9548.656652
3863.545225,-2911.162892,-3256.906145,10584.944971
3863.545540,-2834.553343,-3034.844362,10362.883188
3863.545855,-3217.601092,-2886.803174,10066.800811
3863.546169,-2834.553343,-2812.782580,10066.800811
3863.546484,-3140.991542,-2368.659014,9326.594869
3863.546799,-2221.676944,-1110.308913,8586.388927
3863.547114,-1072.533697,-1554.432478,9104.533087
3863.547429,-1225.752797,-2146.597232,8734.430116
3863.547744,-1532.190996,-2146.597232,9548.656652
3863.548058,-2221.676944,-2516.700203,9326.594869
3863.548373,-3064.381992,-2072.576638,9844.739029
3863.548688,-3370.820191,-2294.638420,10510.924376
3863.549003,-2757.943793,-2516.700203,10140.821405
3863.549318,-2451.505594,-3330.926739,9992.780217
3863.549633,-2757.943793,-3701.029710,10066.800811
3863.549948,-3447.429741,-3330.926739,10584.944971
3863.550263,-2911.162892,-2516.700203,9918.759623
3863.550578,-2987.772442,-2220.617826,8734.430116
3863.550893,-1915.238745,-1332.370696,7698.141797
3863.551207,-1149.143247,-1406.391290,8068.244768
3863.551522,-1302.362347,-1998.556043,8882.471304
3863.551837,-1915.238745,-2442.679609,9474.636058
3863.552152,-2834.553343,-3108.864956,10436.903782
3863.552467,-3370.820191,-2368.659014,10807.006753
3863.552782,-2757.943793,-1924.535449,10066.800811
3863.553097,-2834.553343,-1924.535449,10066.800811
3863.553412,-2145.067394,-1998.556043,10584.944971
3863.553727,-2221.676944,-1850.514855,10362.883188
3863.554042,-2451.505594,-2146.597232,9844.739029
3863.554356,-2068.457845,-1998.556043,9696.697840
3863.554671,-1685.410096,-1554.432478,9104.533087
3863.554986,-1225.752797,-1184.329507,8438.347739
3863.555301,-919.314598,-1406.391290,7772.162391
3863.555616,-459.657299,-1776.494261,7994.224174
3863.555931,-1225.752797,-2442.679609,9178.553681
3863.556246,-1991.848295,-2960.823768,10288.862594
3863.556561,-1838.629195,-2368.659014,10140.821405
3863.556876,-1608.800546,-2220.617826,10807.006753
3863.557191,-1991.848295,-1258.350101,9992.780217
3863.557505,-1838.629195,-1776.494261,9622.677246
3863.557820,-1455.581446,-1406.391290,9474.636058
3863.558135,-689.485948,-1628.453072,9252.574275
3863.558450,-459.657299,-1258.350101,8364.327145
3863.558765,-612.876398,-1258.350101,8808.450710
3863.559080,-766.095498,-1184.329507,8882.471304
3863.559395,-612.876398,-2072.576638,9326.594869
3863.559710,-995.924147,-2146.597232,9622.677246
3863.560025,-1838.629195,-1702.473667,9918.759623
3863.560340,-2298.286494,-1702.473667,10362.883188
3863.560654,-2145.067394,-2294.638420,10140.821405
3863.560969,-2374.896044,-2294.638420,10584.944971
3863.561284,-2528.115143,-2072.576638,10584.944971
3863.561599,-3140.991542,-1554.432478,10436.903782
3863.561914,-2604.724693,-2368.659014,10881.027347
3863.562229,-2068.457845,-1480.411884,10955.047942
3863.562544,-1685.410096,-888.247130,9548.656652
3863.562859,-1302.362347,-296.082377,9474.636058
3863.563174,-766.095498,-444.123565,9178.553681
3863.563489,-995.924147,-740.205942,9326.594869
3863.563803,-842.705048,-1702.473667,9474.636058
3863.564118,-1762.019645,-1924.535449,9696.697840
3863.564433,-1762.019645,-2294.638420,10807.006753
3863.564748,-1762.019645,-2146.597232,10066.800811
3863.565063,-2298.286494,-1036.288319,10584.944971
3863.565378,-2374.896044,-518.144159,9844.739029
3863.565693,-2757.943793,-148.041188,8512.368333
3863.566008,-2298.286494,-518.144159,8068.244768
3863.566323,-1838.629195,-1184.329507,7920.203579
3863.566638,-1762.019645,-1924.535449,8512.368333
3863.566952,-2451.505594,-2664.741391,8808.450710
3863.567267,-3064.381992,-3182.885551,10140.821405
3863.567582,-3983.696590,-3404.947333,11547.212695
3863.567897,-3140.991542,-2442.679609,11251.130318
3863.568212,-2987.772442,-1554.432478,11695.253884
3863.568527,-2911.162892,-1036.288319,11177.109724
3863.568842,-2374.896044,-222.061783,9474.636058
3863.569157,-1838.629195,370.102971,8956.491898
3863.569472,-1608.800546,-148.041188,7994.224174
3863.569787,-1302.362347,-1036.288319,8068.244768
3863.570101,-1532.190996,-2368.659014,7772.162391
3863.570416,-1608.800546,-3108.864956,8512.368333
3863.570731,-1838.629195,-3182.885551,9548.656652
3863.571046,-2451.505594,-2960.823768,10436.903782
3863.571361,-2451.505594,-3034.844362,11547.212695
3863.571676,-2451.505594,-2664.741391,11325.150913
3863.571991,-2451.505594,-2220.617826,10955.047942
3863.572306,-1991.848295,-1850.514855,9696.697840
3863.572621,-1455.581446,-1554.432478,8438.347739
3863.572936,-1225.752797,-1184.329507,7772.162391
3863.573251,-842.705048,-1480.411884,7550.100608
3863.573565,-689.485948,-1628.453072,7402.059420
3863.573880,-1149.143247,-2146.597232,7846.182985
3863.574195,-1302.362347,-2590.720797,9178.553681
3863.574510,-2298.286494,-3108.864956,10510.924376
3863.574825,-2374.896044,-3034.844362,12139.377449
3863.575140,-2757.943793,-3182.885551,13101.645173
3863.575455,-3064.381992,-3034.844362,12361.439231
3863.575770,-2757.943793,-2368.659014,12065.356855
3863.576085,-2145.067394,-1554.432478,11177.109724
3863.576400,-1532.190996,-962.267725,8882.471304
3863.576714,-766.095498,-296.082377,7179.997637
3863.577029,0.000000,-518.144159,6217.729913
3863.577344,612.876398,-518.144159,5995.668130
3863.577659,0.000000,-1406.391290,6291.750507
3863.577974,-766.095498,-2738.761985,7846.182985
3863.578289,-1991.848295,-3849.070898,9474.636058
3863.578604,-2604.724693,-4293.194464,11177.109724
3863.578919,-3370.820191,-4145.153275,11991.336260
3863.579234,-3983.696590,-4145.153275,12361.439231
3863.579549,-3524.039291,-3108.864956,11991.336260
3863.579863,-3064.381992,-1850.514855,10881.027347
3863.580178,-2757.943793,-666.185348,9696.697840
3863.580493,-2145.067394,-296.082377,8364.327145
3863.580808,-689.485948,-666.185348,7402.059420
3863.581123,153.219100,-1258.350101,7254.018232
3863.581438,689.485948,-1406.391290,7698.141797
3863.581753,459.657299,-1702.473667,8660.409521
3863.582068,76.609550,-2072.576638,9474.636058
3863.582383,-689.485948,-2072.576638,10288.862594
3863.582698,-1532.190996,-2072.576638,10584.944971
3863.583012,-2298.286494,-2516.700203,9844.739029
3863.583327,-3140.991542,-2220.617826,9622.677246
3863.583642,-4060.306139,-2738.761985,9474.636058
3863.583957,-4673.182538,-2738.761985,8808.450710
3863.584272,-4213.525239,-3182.885551,8882.471304
3863.584587,-3907.087040,-2738.761985,9400.615463
3863.584902,-2987.772442,-2516.700203,9992.780217
3863.585217,-2681.334243,-2294.638420,10584.944971
3863.585532,-2145.067394,-1702.473667,11103.089130
3863.585847,-1838.629195,-888.247130,11843.295072
3863.586161,-1378.971896,-740.205942,11473.192101
3863.586476,-919.314598,-0.000000,11029.068536
3863.586791,-919.314598,296.082377,10140.821405
3863.587106,-1302.362347,962.267725,8512.368333
3863.587421,-1532.190996,-0.000000,7476.080014
3863.587736,-2298.286494,-666.185348,7402.059420
3863.588051,-1838.629195,-1554.432478,7846.182985
3863.588366,-2987.772442,-2664.741391,8512.368333
3863.588681,-3524.039291,-3923.091493,9548.656652
3863.588996,-4136.915689,-4293.194464,10955.047942
3863.589310,-3830.477490,-4219.173869,11769.274478
3863.589625,-3524.039291,-3775.050304,11843.295072
3863.589940,-2911.162892,-2738.761985,11399.171507
3863.590255,-1915.238745,-1258.350101,10584.944971
3863.590570,-766.095498,-74.020594,9178.553681
3863.590885,76.609550,1036.288319,7994.224174
3863.591200,459.657299,1628.453072,7476.080014
3863.591515,689.485948,1258.350101,6957.935855
3863.591830,842.705048,-0.000000,7476.080014
3863.592145,0.000000,-814.226536,8808.450710
3863.592459,-383.047749,-1702.473667,9252.574275
3863.592774,-1608.800546,-2738.761985,10066.800811
3863.593089,-2757.943793,-3701.029710,11473.192101
3863.593404,-3600.648841,-3997.112087,12065.356855
3863.593719,-3370.820191,-4071.132681,11103.089130
3863.594034,-3294.210641,-3108.864956,10436.903782
3863.594349,-2604.724693,-2368.659014,9992.780217
3863.594664,-2451.505594,-1332.370696,9030.512492
3863.594979,-1608.800546,-592.164754,8216.285956
3863.595294,-306.438199,-888.247130,7846.182985
3863.595608,383.047749,-444.123565,8512.368333
3863.595923,1072.533697,-666.185348,8808.450710
3863.596238,919.314598,-296.082377,9178.553681
3863.596553,536.266849,-666.185348,10140.821405
3863.596868,153.219100,-1406.391290,11103.089130
3863.597183,-612.876398,-1702.473667,10584.944971
3863.597498,-612.876398,-1628.453072,10510.924376
3863.597813,-1225.752797,-1628.453072,9770.718434
3863.598128,-1302.362347,-1776.494261,8882.471304
3863.598443,-1302.362347,-1850.514855,8808.450710
3863.598758,-995.924147,-1480.411884,8068.244768
3863.599072,-1378.971896,-1702.473667,7994.224174
3863.599387,-1762.019645,-1998.556043,8438.347739
3863.599702,-1149.143247,-2516.700203,8882.471304
3863.600017,-1302.362347,-2368.659014,9400.615463
3863.600332,-1532.190996,-2368.659014,10066.800811
3863.600647,-2068.457845,-1850.514855,10288.862594
3863.600962,-2221.676944,-1332.370696,10510.924376
3863.601277,-2298.286494,-666.185348,10510.924376
3863.601592,-2221.676944,-296.082377,10658.965565
3863.601907,-2451.505594,-74.020594,10140.821405
3863.602221,-2757.943793,-222.061783,9622.677246
3863.602536,-2681.334243,-518.144159,9252.574275
3863.602851,-3140.991542,-1110.308913,9992.780217
3863.603166,-2834.553343,-1998.556043,9770.718434
3863.603481,-3217.601092,-2294.638420,9918.759623
3863.603796,-3600.648841,-2368.659014,10436.903782
3863.604111,-3600.648841,-2664.741391,10288.862594
3863.604426,-4060.306139,-2812.782580,10214.842000
3863.604741,-4060.306139,-2442.679609,9844.739029
3863.605056,-3983.696590,-2442.679609,10510.924376
3863.605370,-4213.525239,-2368.659014,10362.883188
3863.605685,-3983.696590,-2590.720797,9844.739029
3863.606000,-3677.258390,-2812.782580,10362.883188
3863.606315,-3140.991542,-2664.741391,10140.821405
3863.606630,-2911.162892,-2516.700203,9992.780217
3863.606945,-2681.334243,-2072.576638,9696.697840
3863.607260,-2145.067394,-1554.432478,10288.862594
3863.607575,-1532.190996,-2368.659014,10658.965565
3863.607890,-1532.190996,-2146.597232,9918.759623
3863.608205,-1991.848295,-2442.679609,9844.739029
3863.608519,-2298.286494,-2886.803174,9474.636058
3863.608834,-2298.286494,-2960.823768,9474.636058
3863.609149,-2604.724693,-3108.864956,9992.780217
3863.609464,-2374.896044,-3627.009116,9400.615463
3863.609779,-2451.505594,-4219.173869,9548.656652
3863.610094,-2604.724693,-4219.173869,9474.636058
3863.610409,-2911.162892,-4293.194464,9326.594869
3863.610724,-2374.896044,-3775.050304,9104.533087
3863.611039,-1762.019645,-4071.132681,8808.450710
3863.611354,-1225.752797,-3627.009116,8216.285956
3863.611668,-842.705048,-3478.967927,7698.141797
3863.611983,-919.314598,-2590.720797,7179.997637
3863.612298,-153.219100,-2368.659014,7772.162391
3863.612613,-689.485948,-1702.473667,8290.306550
3863.612928,-1072.533697,-2072.576638,7994.224174
3863.613243,-1532.190996,-2812.782580,8586.388927
3863.613558,-1608.800546,-3330.926739,9844.739029
3863.613873,-1838.629195,-3701.029710,10288.862594
3863.614188,-1838.629195,-3552.988522,10510.924376
3863.614503,-1532.190996,-2960.823768,10288.862594
3863.614817,-1378.971896,-2886.803174,10140.821405
3863.615132,-76.609550,-2368.659014,9030.512492
3863.615447,0.000000,-1258.350101,7179.997637
3863.615762,-153.219100,-740.205942,6957.935855
3863.616077,0.000000,-1036.288319,7105.977043
3863.616392,76.609550,-1554.432478,6587.832884
3863.616707,-306.438199,-1628.453072,6957.935855
3863.617022,-995.924147,-2220.617826,7698.141797
3863.617337,-1991.848295,-2590.720797,9326.594869
3863.617652,-2834.553343,-2886.803174,10140.821405
3863.617966,-3370.820191,-2590.720797,10955.047942
3863.618281,-3907.087040,-2442.679609,11251.130318
3863.618596,-3294.210641,-2072.576638,11991.336260
3863.618911,-3294.210641,-1480.411884,11399.171507
3863.619226,-2987.772442,-1110.308913,10881.027347
3863.619541,-2145.067394,-0.000000,10436.903782
3863.619856,-2068.457845,370.102971,9178.553681
3863.620171,-1378.971896,1036.288319,8512.368333
3863.620486,-766.095498,962.267725,8586.388927
3863.620801,-1455.581446,518.144159,9326.594869
3863.621115,-2298.286494,-444.123565,10288.862594
3863.621430,-2834.553343,-1258.350101,11103.089130
3863.621745,-3677.258390,-1702.473667,12065.356855
3863.622060,-3907.087040,-1924.535449,12657.521608
3863.622375,-4366.744339,-1776.494261,13397.727550
3863.622690,-3907.087040,-1332.370696,12583.501014
3863.623005,-3294.210641,-444.123565,11769.274478
3863.623320,-2757.943793,666.185348,10510.924376
3863.623635,-2068.457845,1184.329507,8512.368333
3863.623950,-919.314598,888.247130,7105.977043
3863.624265,-383.047749,370.102971,7254.018232
3863.624579,0.000000,-296.082377,8068.244768
3863.624894,-842.705048,-1258.350101,9474.636058
3863.625209,-2068.457845,-1850.514855,11325.150913
3863.625524,-2604.724693,-2590.720797,12879.583391
3863.625839,-2681.334243,-2220.617826,13027.624579
3863.626154,-3217.601092,-1850.514855,12953.603985
3863.626469,-3064.381992,-1110.308913,12361.439231
3863.626784,-2681.334243,-74.020594,11177.109724
3863.627099,-1455.581446,-0.000000,9400.615463
3863.627414,-842.705048,-296.082377,7772.162391
3863.627728,76.609550,-592.164754,6735.874072
3863.628043,0.000000,-1184.329507,6217.729913
3863.628358,76.609550,-2146.597232,6587.832884
3863.628673,0.000000,-3330.926739,8734.430116
3863.628988,-1149.143247,-3256.906145,9696.697840
3863.629303,-2374.896044,-2886.803174,10807.006753
3863.629618,-2987.772442,-2738.761985,11177.109724
3863.629933,-2911.162892,-2738.761985,11621.233289
3863.630248,-3140.991542,-2146.597232,10584.944971
3863.630563,-2604.724693,-2294.638420,9178.553681
3863.630877,-2374.896044,-1998.556043,7550.100608
3863.631192,-1455.581446,-2368.659014,7105.977043
3863.631507,-1149.143247,-2960.823768,7328.038826
3863.631822,0.000000,-2516.700203,7624.121203
3863.632137,-459.657299,-1924.535449,7994.224174
3863.632452,-766.095498,-2146.597232,8512.368333
3863.632767,-689.485948,-2442.679609,9622.677246
3863.633082,-995.924147,-2516.700203,9918.759623
3863.633397,-2298.286494,-3108.864956,10362.883188
3863.633712,-2911.162892,-3627.009116,9992.780217
3863.634026,-2757.943793,-4071.132681,10955.047942
3863.634341,-2757.943793,-3478.967927,9622.677246
3863.634656,-2528.115143,-2220.617826,8734.430116
3863.634971,-2681.334243,-1332.370696,7179.997637
3863.635286,-1455.581446,-1480.411884,7031.956449
3863.635601,-1072.533697,-1332.370696,7179.997637
3863.635916,-1532.190996,-2294.638420,7772.162391
3863.636231,-1915.238745,-3923.091493,9474.636058
3863.636546,-2374.896044,-4515.256246,10510.924376
3863.636861,-2987.772442,-4293.194464,11769.274478
3863.637175,-3217.601092,-2886.803174,11769.274478
3863.637490,-3370.820191,-2812.782580,11251.130318
3863.637805,-3753.867940,-2368.659014,10807.006753
3863.638120,-3294.210641,-1258.350101,9622.677246
3863.638435,-3064.381992,-1184.329507,8956.491898
3863.638750,-2451.505594,-1998.556043,9104.533087
3863.639065,-2451.505594,-2220.617826,8882.471304
3863.639380,-2221.676944,-2294.638420,8882.471304
3863.639695,-1915.238745,-2960.823768,9400.615463
3863.640010,-1838.629195,-2442.679609,10140.821405
3863.640324,-2068.457845,-2590.720797,10732.986159
3863.640639,-1838.629195,-2590.720797,11325.150913
3863.640954,-2374.896044,-2294.638420,10955.047942
3863.641269,-2757.943793,-1258.350101,10436.903782
3863.641584,-2911.162892,-1480.411884,9844.739029
3863.641899,-2604.724693,-1628.453072,8586.388927
3863.642214,-2068.457845,-2072.576638,7994.224174
3863.642529,-1991.848295,-1776.494261,7476.080014
3863.642844,-1762.019645,-2368.659014,7994.224174
3863.643159,-2068.457845,-2368.659014,9030.512492
3863.643473,-2068.457845,-1850.514855,9252.574275
3863.643788,-1991.848295,-2294.638420,10584.944971
3863.644103,-1762.019645,-2738.761985,10658.965565
3863.644418,-1532.190996,-2812.782580,11177.109724
3863.644733,-1762.019645,-2368.659014,12139.377449
3863.645048,-2374.896044,-1628.453072,11103.089130
3863.645363,-2145.067394,-222.061783,9918.759623
3863.645678,-1225.752797,296.082377,8734.430116
3863.645993,-229.828649,296.082377,7772.162391
3863.646308,229.828649,222.061783,7105.977043
3863.646622,919.314598,-1258.350101,7328.038826
3863.646937,0.000000,-2294.638420,8660.409521
3863.647252,-995.924147,-1850.514855,9104.533087
3863.647567,-1378.971896,-1998.556043,9252.574275
3863.647882,-1378.971896,-2294.638420,10510.924376
3863.648197,-1532.190996,-1998.556043,10584.944971
3863.648512,-1608.800546,-2516.700203,11251.130318
3863.648827,-2145.067394,-1998.556043,10436.903782
3863.649142,-2451.505594,-592.164754,9696.697840
3863.649457,-1762.019645,592.164754,8956.491898
3863.649772,-919.314598,592.164754,8068.244768
3863.650087,-612.876398,-0.000000,8512.368333
3863.650402,-536.266849,-888.247130,8956.491898
3863.650716,-1149.143247,-1406.391290,8956.491898
3863.651031,-1072.533697,-1924.535449,9844.739029
3863.651346,-1455.581446,-1998.556043,10510.924376
3863.651661,-1838.629195,-1628.453072,11325.150913
3863.651976,-2145.067394,-2072.576638,11843.295072
3863.652291,-2987.772442,-1628.453072,11399.171507
3863.652606,-3830.477490,-962.267725,10807.006753
3863.652921,-3294.210641,-1332.370696,10584.944971
3863.653236,-2604.724693,-444.123565,9030.512492
3863.653551,-2145.067394,-888.247130,8512.368333
3863.653866,-1302.362347,-1332.370696,9252.574275
3863.654181,-2068.457845,-962.267725,8364.327145
3863.654496,-1072.533697,-1702.473667,9178.553681
3863.654811,-919.314598,-2294.638420,9548.656652
3863.655125,-1149.143247,-2294.638420,10732.986159
3863.655440,-919.314598,-1998.556043,11769.274478
3863.655755,-1838.629195,-1184.329507,10584.944971
3863.656070,-2145.067394,-74.020594,9696.697840
3863.656385,-1685.410096,-814.226536,9548.656652
3863.656700,-536.266849,-444.123565,9178.553681
3863.657015,-612.876398,-814.226536,8660.409521
3863.657330,-689.485948,-0.000000,7772.162391
3863.657645,-689.485948,-666.185348,7105.977043
3863.657960,0.000000,-1628.453072,7698.141797
3863.658275,383.047749,-1776.494261,9178.553681
3863.658590,0.000000,-2072.576638,10066.800811
3863.658905,-919.314598,-2220.617826,9918.759623
3863.659220,-919.314598,-1924.535449,10214.842000
3863.659535,-1149.143247,-1850.514855,10288.862594
3863.659849,-689.485948,-1702.473667,11029.068536
3863.660164,-1225.752797,-666.185348,10362.883188
3863.660479,-1302.362347,-74.020594,9326.594869
3863.660794,-383.047749,740.205942,7994.224174
3863.661109,689.485948,148.041188,7772.162391
3863.661424,1532.190996,-444.123565,8734.430116
3863.661739,1225.752797,-962.267725,8808.450710
3863.662054,0.000000,-370.102971,9030.512492
3863.662369,76.609550,-1258.350101,9770.718434
3863.662684,536.266849,-1554.432478,10436.903782
3863.662999,1149.143247,-2146.597232,11251.130318
3863.663314,612.876398,-814.226536,10362.883188
3863.663629,995.924147,-0.000000,9252.574275
3863.663944,-153.219100,814.226536,8734.430116
3863.664259,306.438199,962.267725,8068.244768
3863.664573,995.924147,518.144159,8364.327145
3863.664888,1149.143247,-0.000000,7328.038826
3863.665203,689.485948,-0.000000,8512.368333
3863.665518,153.219100,222.061783,7994.224174
3863.665833,689.485948,-518.144159,9474.636058
3863.666148,459.657299,-814.226536,10584.944971
3863.666463,-689.485948,-1110.308913,11029.068536
3863.666778,-1532.190996,-0.000000,11177.109724
3863.667093,-1225.752797,-0.000000,10658.965565
3863.667408,-689.485948,296.082377,11473.192101
3863.667723,-383.047749,1332.370696,10436.903782
3863.668038,-842.705048,2664.741391,9918.759623
3863.668353,-612.876398,2368.659014,8956.491898
3863.668668,76.609550,2146.597232,8512.368333
3863.668983,919.314598,962.267725,9252.574275
3863.669297,1378.971896,-0.000000,9844.739029
3863.669612,0.000000,666.185348,11029.068536
3863.669927,-1225.752797,296.082377,10436.903782
3863.670242,-1225.752797,-296.082377,10732.986159
3863.670557,-536.266849,-1036.288319,11991.336260
3863.670872,-459.657299,592.164754,10658.965565
3863.671187,-1532.190996,1554.432478,10066.800811
3863.671502,-1149.143247,2220.617826,9918.759623
3863.671817,-229.828649,1924.535449,9474.636058
3863.672132,612.876398,1702.473667,9548.656652
3863.672447,1149.143247,1702.473667,8734.430116
3863.672762,0.000000,1110.308913,8068.244768
3863.673077,1072.533697,666.185348,8660.409521
3863.673392,1378.971896,-0.000000,9622.677246
3863.673707,1302.362347,-0.000000,9992.780217
3863.674021,459.657299,370.102971,9696.697840
3863.674336,-153.219100,888.247130,9770.718434
3863.674651,306.438199,592.164754,10658.965565
3863.674966,612.876398,370.102971,10658.965565
3863.675281,76.609550,1184.329507,9400.615463
3863.675596,229.828649,740.205942,8882.471304
3863.675911,689.485948,1628.453072,9548.656652
3863.676226,76.609550,1480.411884,8512.368333
3863.676541,1608.800546,-0.000000,9400.615463
3863.676856,2068.457845,222.061783,9104.533087
3863.677171,1378.971896,296.082377,9030.512492
3863.677486,919.314598,370.102971,8882.471304
3863.677801,536.266849,444.123565,9326.594869
3863.678116,1225.752797,-0.000000,10584.944971
3863.678431,689.485948,296.082377,9696.697840
3863.678745,76.609550,666.185348,9622.677246
3863.679060,-306.438199,1258.350101,9178.553681
3863.679375,0.000000,666.185348,9474.636058
3863.679690,612.876398,518.144159,9844.739029
3863.680005,919.314598,370.102971,9252.574275
3863.680320,689.485948,370.102971,8956.491898
3863.680635,306.438199,296.082377,9178.553681
3863.680950,536.266849,-296.082377,9400.615463
3863.681265,1072.533697,-962.267725,10288.862594
3863.681580,383.047749,-222.061783,9474.636058
3863.681895,-612.876398,-74.020594,9696.697840
3863.682210,-995.924147,-0.000000,9770.718434
3863.682525,0.000000,-148.041188,9844.739029
3863.682840,-153.219100,-444.123565,10066.800811
3863.683155,-842.705048,222.061783,9326.594869
3863.683469,-1225.752797,-148.041188,9474.636058
3863.683784,-1455.581446,-444.123565,8882.471304
3863.684099,-459.657299,-1258.350101,9770.718434
3863.684414,153.219100,-1702.473667,10214.842000
3863.684729,-689.485948,-1184.329507,9622.677246
3863.685044,-612.876398,-666.185348,9252.574275
3863.685359,-1072.533697,-444.123565,9770.718434
3863.685674,-536.266849,-888.247130,10362.883188
3863.685989,-459.657299,-740.205942,10066.800811
3863.686304,-1378.971896,-0.000000,9104.533087
3863.686619,-1378.971896,-148.041188,9400.615463
3863.686934,-995.924147,-222.061783,9030.512492
3863.687249,-229.828649,-962.267725,10066.800811
3863.687564,536.266849,-1110.308913,9474.636058
3863.687878,-306.438199,-444.123565,8882.471304
3863.688193,0.000000,148.041188,8734.430116
3863.688508,0.000000,-740.205942,9178.553681
3863.688823,459.657299,-888.247130,10436.903782
3863.689138,536.266849,-222.061783,9622.677246
3863.689453,-689.485948,370.102971,9178.553681
3863.689768,0.000000,666.185348,9474.636058
3863.690083,229.828649,-296.082377,9400.615463
3863.690398,536.266849,-0.000000,9844.739029
3863.690713,0.000000,-222.061783,9696.697840
3863.691028,-536.266849,296.082377,9474.636058
3863.691343,-306.438199,222.061783,9252.574275
3863.691658,459.657299,-0.000000,9696.697840
3863.691973,1378.971896,-296.082377,9474.636058
3863.692288,612.876398,-148.041188,8734.430116
3863.692602,689.485948,-0.000000,8660.409521
3863.692917,536.266849,-296.082377,9548.656652
3863.693232,1378.971896,-148.041188,9548.656652
3863.693547,1532.190996,-0.000000,9104.533087
3863.693862,612.876398,666.185348,9622.677246
3863.694177,229.828649,740.205942,9770.718434
3863.694492,1072.533697,814.226536,9844.739029
3863.694807,1302.362347,-296.082377,10288.862594
3863.695122,1608.800546,-0.000000,10214.842000
3863.695437,842.705048,814.226536,9326.594869
3863.695752,459.657299,1036.288319,8660.409521
3863.696067,766.095498,148.041188,9992.780217
3863.696382,1378.971896,-0.000000,9770.718434
3863.696697,1378.971896,222.061783,8882.471304
3863.697012,536.266849,592.164754,9770.718434
3863.697326,-306.438199,1036.288319,9696.697840
3863.697641,766.095498,370.102971,10436.903782
3863.697956,919.314598,222.061783,10510.924376
3863.698271,153.219100,962.267725,10140.821405
3863.698586,-995.924147,1110.308913,9844.739029
3863.698901,-536.266849,1110.308913,9474.636058
3863.699216,0.000000,666.185348,9474.636058
3863.699531,536.266849,666.185348,10140.821405
3863.699846,153.219100,962.267725,9696.697840
3863.700161,-766.095498,740.205942,9844.739029
3863.700476,-766.095498,888.247130,10140.821405
3863.700791,-383.047749,740.205942,10584.944971
3863.701106,229.828649,740.205942,9770.718434
3863.701421,-612.876398,962.267725,9770.718434
3863.701736,-1225.752797,1850.514855,9474.636058
3863.702050,-1838.629195,1628.453072,9696.697840
3863.702365,-995.924147,666.185348,9992.780217
3863.702680,-229.828649,-0.000000,10584.944971
3863.702995,-919.314598,444.123565,9474.636058
3863.703310,-1532.190996,592.164754,9548.656652
3863.703625,-1225.752797,296.082377,10214.842000
3863.703940,0.000000,-296.082377,10140.821405
3863.704255,229.828649,-148.041188,9622.677246
3863.704570,-459.657299,888.247130,9326.594869
3863.704885,-612.876398,1110.308913,9326.594869
3863.705200,-153.219100,370.102971,9104.533087
3863.705515,766.095498,-148.041188,9400.615463
3863.705830,306.438199,-1036.288319,9770.718434
3863.706145,-536.266849,-370.102971,9326.594869
3863.706460,-612.876398,-814.226536,8216.285956
3863.706774,229.828649,-1480.411884,9844.739029
3863.707089,459.657299,-1776.494261,9918.759623
3863.707404,536.266849,-370.102971,8734.430116
3863.707719,0.000000,-296.082377,8882.471304
3863.708034,-306.438199,-0.000000,9252.574275
3863.708349,76.609550,-814.226536,9400.615463
3863.708664,1915.238745,-1554.432478,9474.636058
3863.708979,1302.362347,-1036.288319,8808.450710
3863.709294,306.438199,-148.041188,8586.388927
3863.709609,1072.533697,-0.000000,8882.471304
3863.709924,1608.800546,-666.185348,10214.842000
3863.710239,1532.190996,-148.041188,9844.739029
3863.710554,842.705048,-370.102971,9622.677246
3863.710869,842.705048,-0.000000,9252.574275
3863.711184,1072.533697,-370.102971,9548.656652
3863.711498,1149.143247,-740.205942,9252.574275
3863.711813,1685.410096,-888.247130,9252.574275
3863.712128,1302.362347,-148.041188,9030.512492
3863.712443,153.219100,-296.082377,9252.574275
3863.712758,153.219100,-148.041188,9400.615463
3863.713073,1302.362347,-518.144159,9696.697840
3863.713388,766.095498,-296.082377,9548.656652
3863.713703,-306.438199,296.082377,9326.594869
3863.714018,-842.705048,592.164754,9474.636058
3863.714333,-153.219100,-0.000000,10510.924376
3863.714648,0.000000,-740.205942,10732.986159
3863.714963,0.000000,-814.226536,10066.800811
3863.715278,-689.485948,-148.041188,9918.759623
3863.715593,-766.095498,888.247130,9548.656652
3863.715908,0.000000,666.185348,9918.759623
3863.716222,306.438199,-0.000000,9918.759623
3863.716537,919.314598,74.020594,9548.656652
3863.716852,-229.828649,888.247130,8882.471304
3863.717167,-689.485948,1480.411884,7994.224174
3863.717482,0.000000,222.061783,9326.594869
3863.717797,229.828649,-222.061783,9548.656652
3863.718112,0.000000,-592.164754,9696.697840
3863.718427,-689.485948,-0.000000,8512.368333
3863.718742,612.876398,-148.041188,9030.512492
3863.719057,689.485948,222.061783,9548.656652
3863.719372,612.876398,-222.061783,9622.677246
3863.719687,-612.876398,444.123565,8586.388927
3863.720002,-1685.410096,740.205942,9326.594869
3863.720317,-1455.581446,1110.308913,9622.677246
3863.720631,-766.095498,-0.000000,10807.006753
3863.720946,0.000000,444.123565,10436.903782
3863.721261,-612.876398,1258.350101,10732.986159
3863.721576,-1455.581446,1924.535449,10140.821405
3863.721891,-842.705048,740.205942,11103.089130
3863.722206,383.047749,814.226536,11547.212695
3863.722521,766.095498,1036.288319,10214.842000
3863.722836,612.876398,2368.659014,9622.677246
3863.723151,153.219100,2294.638420,8734.430116
3863.723466,842.705048,1702.473667,9104.533087
3863.723781,1302.362347,888.247130,9474.636058
3863.724096,766.095498,1036.288319,7698.141797
3863.724411,229.828649,-0.000000,8660.409521
3863.724726,0.000000,740.205942,8512.368333
3863.725041,229.828649,-444.123565,10436.903782
3863.725355,383.047749,-222.061783,10288.862594
3863.725670,153.219100,-0.000000,9844.739029
3863.725985,0.000000,-0.000000,9770.718434
3863.726300,-153.219100,518.144159,10807.006753
3863.726615,766.095498,1776.494261,9770.718434
3863.726930,1685.410096,666.185348,9770.718434
3863.727245,1532.190996,1998.556043,8956.491898
3863.727560,536.266849,740.205942,9474.636058
3863.727875,459.657299,814.226536,9326.594869
3863.728190,919.314598,-296.082377,10362.883188
3863.728505,919.314598,-148.041188,10658.965565
3863.728820,229.828649,-592.164754,10140.821405
3863.729135,-842.705048,-74.020594,10140.821405
3863.729450,-612.876398,-740.205942,10140.821405
3863.729765,0.000000,-592.164754,9992.780217
3863.730079,229.828649,-1406.391290,9918.759623
3863.730394,76.609550,-296.082377,8956.491898
3863.730709,76.609550,-0.000000,8512.368333
3863.731024,383.047749,-222.061783,8808.450710
3863.731339,995.924147,-740.205942,9400.615463
3863.731654,1149.143247,-444.123565,9474.636058
3863.731969,229.828649,-0.000000,9696.697840
3863.732284,-383.047749,518.144159,9326.594869
3863.732599,0.000000,296.082377,9918.759623
3863.732914,689.485948,-148.041188,10436.903782
3863.733229,459.657299,-370.102971,9474.636058
3863.733544,-306.438199,-0.000000,9844.739029
3863.733859,-1455.581446,444.123565,9548.656652
3863.734174,-842.705048,-444.123565,9844.739029
3863.734489,0.000000,-888.247130,10362.883188
3863.734803,0.000000,-74.020594,9252.574275
3863.735118,-919.314598,-296.082377,9030.512492
3863.735433,-995.924147,-0.000000,8734.430116
3863.735748,-383.047749,-0.000000,9844.739029
3863.736063,76.609550,-666.185348,9104.533087
3863.736378,0.000000,-222.061783,9030.512492
3863.736693,153.219100,-296.082377,8956.491898
3863.737008,-383.047749,-444.123565,8808.450710
3863.737323,0.000000,-222.061783,10214.842000
3863.737638,0.000000,-296.082377,9992.780217
3863.737953,-612.876398,-0.000000,9474.636058
3863.738268,-842.705048,962.267725,9030.512492
3863.738583,-536.266849,666.185348,9030.512492
3863.738898,459.657299,-222.061783,9622.677246
3863.739213,612.876398,-888.247130,9326.594869
3863.739527,0.000000,-518.144159,9474.636058
3863.739842,-459.657299,-74.020594,9622.677246
3863.740157,0.000000,-370.102971,10362.883188
3863.740472,1302.362347,-74.020594,10288.862594
3863.740787,1378.971896,296.082377,8808.450710
3863.741102,1991.848295,-0.000000,9400.615463
3863.741417,229.828649,518.144159,8956.491898
3863.741732,766.095498,444.123565,9030.512492
3863.742047,995.924147,370.102971,9252.574275
3863.742362,1072.533697,296.082377,9178.553681
3863.742677,1455.581446,-0.000000,9770.718434
3863.742992,76.609550,296.082377,9400.615463
3863.743307,459.657299,-296.082377,10658.965565
3863.743622,766.095498,-666.185348,10955.047942
3863.743937,306.438199,296.082377,9992.780217
3863.744251,0.000000,740.205942,10066.800811
3863.744566,-459.657299,370.102971,10436.903782
3863.744881,536.266849,888.247130,10436.903782
3863.745196,1149.143247,518.144159,9992.780217
3863.745511,766.095498,1406.391290,9400.615463
3863.745826,306.438199,1258.350101,9178.553681
3863.746141,0.000000,1480.411884,8956.491898
3863.746456,995.924147,888.247130,10066.800811
3863.746771,1072.533697,888.247130,9252.574275
3863.747086,1072.533697,444.123565,9400.615463
3863.747401,-383.047749,296.082377,8882.471304
3863.747716,-459.657299,592.164754,9622.677246
3863.748031,-459.657299,-0.000000,10214.842000
3863.748346,-153.219100,-0.000000,9844.739029
3863.748661,-612.876398,-0.000000,10066.800811
3863.748975,-1378.971896,888.247130,9696.697840
3863.749290,-1072.533697,518.144159,9622.677246
3863.749605,-536.266849,-0.000000,10362.883188
3863.749920,0.000000,444.123565,9844.739029
3863.750235,-689.485948,814.226536,9252.574275
3863.750550,-383.047749,740.205942,8956.491898
3863.750865,76.609550,222.061783,9844.739029
3863.751179,689.485948,-0.000000,9474.636058
3863.751494,1072.533697,370.102971,9252.574275
3863.751809,536.266849,296.082377,8956.491898
3863.752124,0.000000,666.185348,9178.553681
3863.752439,0.000000,-148.041188,9622.677246
3863.752754,76.609550,-518.144159,9474.636058
3863.753068,153.219100,-888.247130,9474.636058
3863.753383,-842.705048,-1258.350101,9104.533087
3863.753698,-1225.752797,-1332.370696,8882.471304
3863.754013,-383.047749,-1258.350101,9622.677246
3863.754328,459.657299,-962.267725,10066.800811
3863.754642,383.047749,-666.185348,9474.636058
3863.754957,612.876398,-74.020594,9844.739029
3863.755272,383.047749,148.041188,9696.697840
3863.755587,919.314598,-148.041188,10140.821405
3863.755902,1378.971896,-0.000000,10436.903782
3863.756217,612.876398,1184.329507,9548.656652
3863.756531,229.828649,666.185348,9474.636058
3863.756846,229.828649,1110.308913,9844.739029
3863.757161,1302.362347,444.123565,9918.759623
3863.757476,766.095498,-222.061783,9696.697840
3863.757791,0.000000,740.205942,9992.780217
3863.758106,-76.609550,370.102971,9474.636058
3863.758420,-612.876398,-74.020594,9622.677246
