#time,accel_x,accel_y,accel_z
3755.077563,229.828649,296.082377,9474.636058
3755.077877,306.438199,-0.000000,9622.677246
3755.078192,153.219100,-0.000000,9548.656652
3755.078507,153.219100,222.061783,9622.677246
3755.078821,306.438199,-0.000000,9696.697840
3755.079136,383.047749,-0.000000,9918.759623
3755.079451,459.657299,-0.000000,9696.697840
3755.079766,76.609550,-0.000000,9474.636058
3755.080080,153.219100,-74.020594,9770.718434
3755.080395,766.095498,-0.000000,9400.615463
3755.080710,383.047749,-0.000000,9548.656652
3755.081024,153.219100,-0.000000,9622.677246
3755.081339,76.609550,370.102971,9770.718434
3755.081654,76.609550,-0.000000,9548.656652
3755.081969,76.609550,-74.020594,9400.615463
3755.082283,0.000000,-0.000000,9696.697840
3755.082598,0.000000,222.061783,9696.697840
3755.082913,0.000000,296.082377,9696.697840
3755.083227,0.000000,222.061783,9548.656652
3755.083542,0.000000,-0.000000,9992.780217
3755.083857,153.219100,296.082377,9474.636058
3755.084172,76.609550,222.061783,9548.656652
3755.084486,0.000000,-0.000000,9844.739029
3755.084801,0.000000,370.102971,9844.739029
3755.085116,0.000000,-0.000000,9474.636058
3755.085430,0.000000,148.041188,9474.636058
3755.085745,0.000000,148.041188,9696.697840
3755.086060,153.219100,-0.000000,9622.677246
3755.086375,0.000000,222.061783,9474.636058
3755.086689,0.000000,-74.020594,9622.677246
3755.087004,0.000000,444.123565,9548.656652
3755.087319,0.000000,444.123565,9252.574275
3755.087633,153.219100,222.061783,9622.677246
3755.087948,76.609550,-148.041188,9770.718434
3755.088263,306.438199,-0.000000,9474.636058
3755.088578,76.609550,-0.000000,9474.636058
3755.088892,0.000000,-0.000000,9844.739029
3755.089207,153.219100,-0.000000,9622.677246
3755.089522,153.219100,-0.000000,9474.636058
3755.089836,229.828649,-0.000000,9474.636058
3755.090151,229.828649,-0.000000,9474.636058
3755.090466,76.609550,148.041188,9474.636058
3755.090781,153.219100,-0.000000,9548.656652
3755.091095,383.047749,148.041188,9252.574275
3755.091410,306.438199,148.041188,9992.780217
3755.091725,0.000000,-74.020594,9548.656652
3755.092040,229.828649,148.041188,9696.697840
3755.092354,229.828649,222.061783,9548.656652
3755.092669,229.828649,-296.082377,9474.636058
3755.092984,229.828649,-0.000000,9474.636058
3755.093298,153.219100,296.082377,9770.718434
3755.093613,306.438199,-0.000000,9918.759623
3755.093928,0.000000,-0.000000,9252.574275
3755.094243,229.828649,-0.000000,9548.656652
3755.094557,383.047749,-0.000000,9770.718434
3755.094872,76.609550,222.061783,9400.615463
3755.095187,0.000000,148.041188,9770.718434
3755.095501,0.000000,296.082377,9770.718434
3755.095816,459.657299,222.061783,9474.636058
3755.096131,0.000000,444.123565,9400.615463
3755.096446,0.000000,370.102971,9474.636058
3755.096760,0.000000,296.082377,9696.697840
3755.097075,76.609550,148.041188,9326.594869
3755.097390,76.609550,-0.000000,9178.553681
3755.097704,0.000000,-0.000000,9474.636058
3755.098019,76.609550,222.061783,9548.656652
3755.098334,0.000000,-0.000000,9548.656652
3755.098649,76.609550,-0.000000,9474.636058
3755.098963,306.438199,-74.020594,9474.636058
3755.099278,76.609550,-0.000000,9400.615463
3755.099593,306.438199,-0.000000,9474.636058
3755.099907,229.828649,-0.000000,9622.677246
3755.100222,459.657299,-0.000000,9178.553681
3755.100537,306.438199,-0.000000,9400.615463
3755.100852,0.000000,296.082377,9622.677246
3755.101166,306.438199,-0.000000,9548.656652
3755.101481,153.219100,-296.082377,9622.677246
3755.101796,0.000000,-0.000000,9622.677246
3755.102110,0.000000,-0.000000,9548.656652
3755.102425,306.438199,222.061783,9696.697840
3755.102740,0.000000,148.041188,9548.656652
3755.103055,153.219100,-0.000000,9622.677246
3755.103369,153.219100,-0.000000,9696.697840
3755.103684,536.266849,-0.000000,9622.677246
3755.103999,536.266849,-74.020594,9474.636058
3755.104313,153.219100,74.020594,9992.780217
3755.104628,229.828649,444.123565,9696.697840
3755.104943,0.000000,-0.000000,9770.718434
3755.105258,153.219100,296.082377,9844.739029
3755.105572,153.219100,-0.000000,10066.800811
3755.105887,153.219100,148.041188,9474.636058
3755.106202,0.000000,222.061783,9400.615463
3755.106516,153.219100,370.102971,9918.759623
3755.106831,-153.219100,370.102971,9622.677246
3755.107146,153.219100,444.123565,9474.636058
3755.107461,153.219100,370.102971,9474.636058
3755.107775,0.000000,-0.000000,9326.594869
3755.108090,153.219100,-0.000000,9770.718434
3755.108405,229.828649,-0.000000,9844.739029
3755.108719,229.828649,148.041188,9622.677246
3755.109034,229.828649,370.102971,9474.636058
3755.109349,459.657299,740.205942,9252.574275
3755.109664,536.266849,740.205942,9326.594869
3755.109978,1149.143247,1036.288319,9252.574275
3755.110293,689.485948,740.205942,9030.512492
3755.110608,766.095498,592.164754,9030.512492
3755.110923,995.924147,444.123565,8956.491898
3755.111237,689.485948,-0.000000,9252.574275
3755.111552,689.485948,222.061783,9918.759623
3755.111867,689.485948,-0.000000,9844.739029
3755.112181,306.438199,444.123565,9844.739029
3755.112496,536.266849,740.205942,9696.697840
3755.112811,689.485948,814.226536,9474.636058
3755.113126,1608.800546,888.247130,9844.739029
3755.113440,1608.800546,1258.350101,9770.718434
3755.113755,1762.019645,814.226536,9992.780217
3755.114070,2298.286494,888.247130,10436.903782
3755.114384,2298.286494,1258.350101,9992.780217
3755.114699,3064.381992,2146.597232,9770.718434
3755.115014,3064.381992,1998.556043,9474.636058
3755.115329,3294.210641,2220.617826,9400.615463
3755.115643,3447.429741,2442.679609,9030.512492
3755.115958,3600.648841,2368.659014,8586.388927
3755.116273,3753.867940,2516.700203,8882.471304
3755.116587,3524.039291,2072.576638,8808.450710
3755.116902,3677.258390,2368.659014,8734.430116
3755.117217,3600.648841,2368.659014,9326.594869
3755.117532,3294.210641,2442.679609,9400.615463
3755.117846,2911.162892,2516.700203,9696.697840
3755.118161,2834.553343,2960.823768,9474.636058
3755.118476,3140.991542,3034.844362,9622.677246
3755.118790,3140.991542,3404.947333,9326.594869
3755.119105,2834.553343,3552.988522,9104.533087
3755.119420,2987.772442,3775.050304,9178.553681
3755.119735,2834.553343,3701.029710,9474.636058
3755.120049,2451.505594,3997.112087,9844.739029
3755.120364,2298.286494,3997.112087,9696.697840
3755.120679,1991.848295,3849.070898,9844.739029
3755.120993,1685.410096,3849.070898,10214.842000
3755.121308,1608.800546,3404.947333,10362.883188
3755.121623,1685.410096,3330.926739,10881.027347
3755.121938,1225.752797,3330.926739,10584.944971
3755.122252,1378.971896,3108.864956,10881.027347
3755.122567,1455.581446,3034.844362,10881.027347
3755.122882,1532.190996,3256.906145,10362.883188
3755.123196,2298.286494,3849.070898,9918.759623
3755.123511,2221.676944,3849.070898,9474.636058
3755.123826,2681.334243,3775.050304,9992.780217
3755.124141,2528.115143,3849.070898,9696.697840
3755.124455,2145.067394,3478.967927,9770.718434
3755.124770,1838.629195,3256.906145,9918.759623
3755.125085,1608.800546,3108.864956,10214.842000
3755.125399,1532.190996,2738.761985,10288.862594
3755.125714,1608.800546,2738.761985,10362.883188
3755.126029,1608.800546,2812.782580,10362.883188
3755.126344,1302.362347,2960.823768,10288.862594
3755.126658,1225.752797,3034.844362,9844.739029
3755.126973,1608.800546,3108.864956,9474.636058
3755.127288,1838.629195,3182.885551,9474.636058
3755.127603,1762.019645,2812.782580,9622.677246
3755.127917,1532.190996,2368.659014,9252.574275
3755.128232,1608.800546,1554.432478,9474.636058
3755.128547,1685.410096,1850.514855,10140.821405
3755.128861,1455.581446,1628.453072,10288.862594
3755.129176,1378.971896,1924.535449,10214.842000
3755.129491,1455.581446,1702.473667,10140.821405
3755.129806,1991.848295,1702.473667,9548.656652
3755.130120,2068.457845,1776.494261,9326.594869
3755.130435,2528.115143,2146.597232,9104.533087
3755.130750,2604.724693,2220.617826,8734.430116
3755.131064,2604.724693,1628.453072,8512.368333
3755.131379,3370.820191,1850.514855,8438.347739
3755.131694,3447.429741,1998.556043,8290.306550
3755.132009,3217.601092,1554.432478,8512.368333
3755.132323,3140.991542,1406.391290,8882.471304
3755.132638,2834.553343,1258.350101,9622.677246
3755.132953,2528.115143,1110.308913,8956.491898
3755.133267,2451.505594,592.164754,9400.615463
3755.133582,1838.629195,592.164754,9474.636058
3755.133897,1915.238745,444.123565,9622.677246
3755.134212,2068.457845,444.123565,10362.883188
3755.134526,2298.286494,740.205942,10584.944971
3755.134841,2451.505594,1406.391290,10214.842000
3755.135156,3294.210641,1850.514855,9770.718434
3755.135470,3830.477490,2220.617826,8956.491898
3755.135785,4290.134789,2664.741391,8660.409521
3755.136100,4366.744339,2960.823768,8364.327145
3755.136415,3907.087040,2368.659014,8068.244768
3755.136729,3600.648841,1850.514855,8290.306550
3755.137044,2834.553343,1258.350101,8882.471304
3755.137359,1838.629195,444.123565,9104.533087
3755.137673,995.924147,-0.000000,10362.883188
3755.137988,229.828649,-222.061783,11547.212695
3755.138303,0.000000,-592.164754,12361.439231
3755.138618,0.000000,-148.041188,12805.562797
3755.138932,689.485948,1110.308913,11399.171507
3755.139247,1455.581446,2368.659014,11251.130318
3755.139562,2451.505594,3478.967927,10066.800811
3755.139876,3753.867940,4219.173869,8882.471304
3755.140191,4213.525239,4589.276840,7550.100608
3755.140506,4443.353888,4441.235652,6587.832884
3755.140821,4596.572988,3997.112087,6957.935855
3755.141135,4060.306139,3034.844362,7698.141797
3755.141450,2374.896044,1702.473667,9400.615463
3755.141765,766.095498,1036.288319,10584.944971
3755.142079,-919.314598,444.123565,11473.192101
3755.142394,-1608.800546,370.102971,11991.336260
3755.142709,-1302.362347,814.226536,12287.418637
3755.143024,-766.095498,1850.514855,11251.130318
3755.143338,459.657299,3330.926739,10066.800811
3755.143653,1685.410096,3849.070898,9030.512492
3755.143968,3294.210641,4367.215058,7476.080014
3755.144283,4060.306139,4145.153275,7402.059420
3755.144597,4749.792088,4441.235652,8290.306550
3755.144912,4366.744339,4515.256246,8142.265362
3755.145227,3524.039291,3849.070898,9474.636058
3755.145541,2834.553343,3330.926739,10955.047942
3755.145856,1455.581446,2886.803174,11325.150913
3755.146171,153.219100,3182.885551,10881.027347
3755.146486,383.047749,3182.885551,9918.759623
3755.146800,383.047749,2072.576638,9844.739029
3755.147115,689.485948,1702.473667,9844.739029
3755.147430,1378.971896,1184.329507,9474.636058
3755.147744,1072.533697,1702.473667,8808.450710
3755.148059,1991.848295,2146.597232,9252.574275
3755.148374,1991.848295,2368.659014,9992.780217
3755.148689,1915.238745,2664.741391,10436.903782
3755.149003,919.314598,2812.782580,10140.821405
3755.149318,306.438199,2886.803174,10214.842000
3755.149633,842.705048,1924.535449,11547.212695
3755.149947,842.705048,1554.432478,11843.295072
3755.150262,689.485948,1406.391290,11695.253884
3755.150577,689.485948,1998.556043,10807.006753
3755.150892,995.924147,1924.535449,10214.842000
3755.151206,1455.581446,2294.638420,9326.594869
3755.151521,1608.800546,2220.617826,8364.327145
3755.151836,1532.190996,1480.411884,8142.265362
3755.152150,1838.629195,444.123565,8290.306550
3755.152465,1532.190996,-444.123565,8882.471304
3755.152780,919.314598,-1332.370696,9474.636058
3755.153094,76.609550,-1406.391290,10510.924376
3755.153409,76.609550,-1184.329507,10807.006753
3755.153724,0.000000,-370.102971,10584.944971
3755.154038,0.000000,666.185348,10140.821405
3755.154353,766.095498,1332.370696,8808.450710
3755.154668,995.924147,1110.308913,8512.368333
3755.154982,1532.190996,1110.308913,8586.388927
3755.155297,1685.410096,296.082377,8216.285956
3755.155611,1608.800546,-518.144159,9104.533087
3755.155926,1225.752797,-1702.473667,9622.677246
3755.156241,689.485948,-1184.329507,9992.780217
3755.156555,0.000000,-296.082377,10214.842000
3755.156870,-383.047749,-518.144159,10288.862594
3755.157185,-689.485948,-592.164754,10214.842000
3755.157499,-459.657299,-1110.308913,9844.739029
3755.157814,-995.924147,-1406.391290,9474.636058
3755.158129,-995.924147,-1850.514855,9770.718434
3755.158443,-383.047749,-1702.473667,9474.636058
3755.158758,0.000000,-1554.432478,8956.491898
3755.159072,306.438199,-444.123565,8290.306550
3755.159387,459.657299,-296.082377,8734.430116
3755.159702,842.705048,-444.123565,9104.533087
3755.160016,689.485948,-814.226536,9326.594869
3755.160331,919.314598,-592.164754,9622.677246
3755.160646,153.219100,-1184.329507,9992.780217
3755.160960,-459.657299,-962.267725,9548.656652
3755.161275,-1072.533697,-962.267725,9548.656652
3755.161589,-1302.362347,-444.123565,8882.471304
3755.161904,-612.876398,-1332.370696,8660.409521
3755.162219,-536.266849,-1110.308913,9030.512492
3755.162533,-612.876398,-962.267725,9030.512492
3755.162848,-919.314598,-1406.391290,9030.512492
3755.163163,-1072.533697,-1998.556043,9548.656652
3755.163477,-995.924147,-1924.535449,10066.800811
3755.163792,-1072.533697,-1924.535449,10288.862594
3755.164107,-995.924147,-962.267725,10214.842000
3755.164421,0.000000,-888.247130,9622.677246
3755.164736,0.000000,-296.082377,9844.739029
3755.165050,-383.047749,296.082377,9474.636058
3755.165365,306.438199,592.164754,9030.512492
3755.165680,383.047749,444.123565,9326.594869
3755.165994,229.828649,444.123565,8290.306550
3755.166309,229.828649,444.123565,8142.265362
3755.166624,459.657299,-222.061783,7994.224174
3755.166938,0.000000,-814.226536,8882.471304
3755.167253,-536.266849,-814.226536,10214.842000
3755.167568,-766.095498,-962.267725,10066.800811
3755.167882,-766.095498,-962.267725,11029.068536
3755.168197,-536.266849,-592.164754,10955.047942
3755.168511,-536.266849,296.082377,10288.862594
3755.168826,-612.876398,1036.288319,10066.800811
3755.169141,153.219100,1480.411884,9548.656652
3755.169455,766.095498,1776.494261,9400.615463
3755.169770,1915.238745,1702.473667,8660.409521
3755.170085,2374.896044,1332.370696,8956.491898
3755.170399,2145.067394,1628.453072,8882.471304
3755.170714,1608.800546,1184.329507,9844.739029
3755.171028,1149.143247,1332.370696,9770.718434
3755.171343,689.485948,1036.288319,9622.677246
3755.171658,306.438199,740.205942,9844.739029
3755.171972,0.000000,-0.000000,10140.821405
3755.172287,-536.266849,-0.000000,10436.903782
3755.172602,0.000000,-370.102971,10288.862594
3755.172916,0.000000,-0.000000,10140.821405
3755.173231,0.000000,962.267725,10140.821405
3755.173546,153.219100,1776.494261,9474.636058
3755.173860,536.266849,2442.679609,8882.471304
3755.174175,1072.533697,1480.411884,9326.594869
3755.174489,1378.971896,1628.453072,9400.615463
3755.174804,1225.752797,1406.391290,9474.636058
3755.175119,995.924147,888.247130,9548.656652
3755.175433,612.876398,814.226536,10140.821405
3755.175748,0.000000,592.164754,10140.821405
3755.176063,-459.657299,1258.350101,9696.697840
3755.176377,-766.095498,962.267725,9992.780217
3755.176692,-612.876398,518.144159,10066.800811
3755.177006,-536.266849,666.185348,9992.780217
3755.177321,-459.657299,148.041188,9474.636058
3755.177636,0.000000,-74.020594,9400.615463
3755.177950,153.219100,222.061783,9622.677246
3755.178265,76.609550,444.123565,9474.636058
3755.178580,-612.876398,1110.308913,9252.574275
3755.178894,306.438199,1110.308913,9104.533087
3755.179209,306.438199,1184.329507,9474.636058
3755.179524,-76.609550,1258.350101,9474.636058
3755.179838,0.000000,444.123565,9770.718434
3755.180153,0.000000,296.082377,9770.718434
3755.180467,-383.047749,-0.000000,9474.636058
3755.180782,-612.876398,-0.000000,9696.697840
3755.181097,-689.485948,740.205942,9252.574275
3755.181411,-229.828649,-0.000000,9548.656652
3755.181726,-229.828649,-0.000000,9770.718434
3755.182041,-229.828649,-148.041188,9474.636058
3755.182355,-153.219100,-666.185348,9548.656652
3755.182670,0.000000,-740.205942,9622.677246
3755.182984,0.000000,-740.205942,9992.780217
3755.183299,-612.876398,-0.000000,9770.718434
3755.183614,-536.266849,-0.000000,9252.574275
3755.183928,-459.657299,296.082377,8586.388927
3755.184243,0.000000,-0.000000,9326.594869
3755.184558,153.219100,-0.000000,9844.739029
3755.184872,76.609550,-518.144159,9474.636058
3755.185187,0.000000,-444.123565,9844.739029
3755.185502,-306.438199,-666.185348,9844.739029
3755.185816,0.000000,-518.144159,9770.718434
3755.186131,76.609550,-370.102971,9696.697840
3755.186445,-229.828649,-962.267725,9770.718434
3755.186760,-229.828649,-740.205942,9992.780217
3755.187075,-306.438199,-1036.288319,9696.697840
3755.187389,0.000000,-1184.329507,9474.636058
3755.187704,306.438199,-1258.350101,10288.862594
3755.188019,306.438199,-518.144159,9400.615463
3755.188333,536.266849,-296.082377,9104.533087
3755.188648,842.705048,-0.000000,8882.471304
3755.188963,1302.362347,-0.000000,9622.677246
3755.189277,842.705048,-518.144159,9474.636058
3755.189592,766.095498,-740.205942,9474.636058
3755.189906,766.095498,-1110.308913,9770.718434
3755.190221,689.485948,-1258.350101,10066.800811
3755.190536,0.000000,-1036.288319,10140.821405
3755.190850,-229.828649,-370.102971,9696.697840
3755.191165,0.000000,-296.082377,9326.594869
3755.191480,0.000000,-0.000000,9474.636058
3755.191794,76.609550,-0.000000,9548.656652
3755.192109,383.047749,-370.102971,9178.553681
3755.192423,1072.533697,-296.082377,9178.553681
3755.192738,1072.533697,-0.000000,9400.615463
3755.193053,766.095498,370.102971,9104.533087
3755.193367,229.828649,962.267725,9400.615463
3755.193682,76.609550,-148.041188,9326.594869
3755.193997,76.609550,-0.000000,9622.677246
3755.194311,0.000000,-0.000000,9696.697840
3755.194626,76.609550,-148.041188,9252.574275
3755.194941,0.000000,-0.000000,9548.656652
3755.195255,-306.438199,370.102971,10066.800811
3755.195570,-536.266849,592.164754,9326.594869
3755.195884,0.000000,1110.308913,8364.327145
3755.196199,76.609550,296.082377,8956.491898
3755.196514,306.438199,592.164754,9326.594869
3755.196828,76.609550,370.102971,9326.594869
3755.197143,459.657299,222.061783,9474.636058
3755.197458,383.047749,370.102971,9918.759623
3755.197772,-306.438199,592.164754,9548.656652
3755.198087,-383.047749,1332.370696,9104.533087
3755.198401,-229.828649,1036.288319,9770.718434
3755.198716,0.000000,1406.391290,9696.697840
3755.199031,0.000000,1110.308913,9918.759623
3755.199345,-995.924147,1332.370696,9548.656652
3755.199660,459.657299,-0.000000,10510.924376
3755.199975,76.609550,888.247130,10140.821405
3755.200289,-766.095498,1332.370696,9770.718434
3755.200604,0.000000,1036.288319,9992.780217
3755.200919,-306.438199,1110.308913,9770.718434
3755.201233,383.047749,740.205942,10510.924376
3755.201548,689.485948,444.123565,10658.965565
3755.201862,-153.219100,666.185348,10140.821405
3755.202177,229.828649,444.123565,10584.944971
3755.202492,0.000000,1332.370696,10066.800811
3755.202806,76.609550,1406.391290,10288.862594
3755.203121,459.657299,1702.473667,9400.615463
3755.203436,766.095498,1036.288319,9104.533087
3755.203750,842.705048,1332.370696,9400.615463
3755.204065,995.924147,518.144159,10288.862594
3755.204380,459.657299,666.185348,9918.759623
3755.204694,229.828649,-0.000000,10066.800811
3755.205009,76.609550,74.020594,10066.800811
3755.205323,-229.828649,740.205942,9844.739029
3755.205638,76.609550,370.102971,9918.759623
3755.205953,0.000000,222.061783,9844.739029
3755.206267,-229.828649,-0.000000,10288.862594
3755.206582,0.000000,148.041188,9622.677246
3755.206897,536.266849,-148.041188,9252.574275
3755.207211,766.095498,-0.000000,9696.697840
3755.207526,1455.581446,296.082377,9474.636058
3755.207840,766.095498,814.226536,8734.430116
3755.208155,766.095498,370.102971,8808.450710
3755.208470,1072.533697,-0.000000,9178.553681
3755.208784,689.485948,-296.082377,8882.471304
3755.209099,766.095498,-814.226536,9104.533087
3755.209414,153.219100,-888.247130,9178.553681
3755.209728,0.000000,-592.164754,9474.636058
3755.210043,-306.438199,-148.041188,9474.636058
3755.210358,-306.438199,-222.061783,9326.594869
3755.210672,-1149.143247,-666.185348,9474.636058
3755.210987,-459.657299,-1036.288319,9252.574275
3755.211301,-306.438199,-1554.432478,9400.615463
3755.211616,0.000000,-1110.308913,9622.677246
3755.211931,76.609550,-814.226536,9918.759623
3755.212245,0.000000,-296.082377,10214.842000
3755.212560,153.219100,518.144159,9474.636058
3755.212875,153.219100,296.082377,9104.533087
3755.213189,766.095498,148.041188,8808.450710
3755.213504,612.876398,-74.020594,9178.553681
3755.213818,-229.828649,-222.061783,9326.594869
3755.214133,-76.609550,-518.144159,9474.636058
3755.214448,0.000000,-1110.308913,9474.636058
3755.214762,-612.876398,-962.267725,9992.780217
3755.215077,-1302.362347,-888.247130,9622.677246
3755.215392,-1225.752797,-518.144159,9548.656652
3755.215706,-689.485948,-888.247130,9548.656652
3755.216021,-766.095498,-592.164754,10510.924376
3755.216336,-306.438199,-740.205942,10436.903782
3755.216650,-229.828649,-814.226536,9918.759623
3755.216965,306.438199,-370.102971,9770.718434
3755.217279,306.438199,518.144159,9918.759623
3755.217594,153.219100,888.247130,9252.574275
3755.217909,459.657299,1702.473667,8956.491898
3755.218223,919.314598,740.205942,9548.656652
3755.218538,1072.533697,-0.000000,8882.471304
3755.218853,536.266849,-0.000000,9104.533087
3755.219167,536.266849,-148.041188,9474.636058
3755.219482,-459.657299,-518.144159,10066.800811
3755.219796,-689.485948,-444.123565,9548.656652
3755.220111,-766.095498,-148.041188,9400.615463
3755.220426,-612.876398,-740.205942,9696.697840
3755.220740,0.000000,-296.082377,9992.780217
3755.221055,0.000000,-444.123565,10436.903782
3755.221370,-229.828649,-0.000000,9918.759623
3755.221684,536.266849,222.061783,10288.862594
3755.221999,536.266849,814.226536,9326.594869
3755.222314,919.314598,962.267725,9252.574275
3755.222628,1302.362347,1480.411884,9178.553681
3755.222943,1378.971896,1036.288319,8734.430116
3755.223257,1225.752797,888.247130,9326.594869
3755.223572,995.924147,666.185348,9548.656652
3755.223887,306.438199,-0.000000,9622.677246
3755.224201,76.609550,-74.020594,10140.821405
3755.224516,-536.266849,-0.000000,10140.821405
3755.224831,-383.047749,-370.102971,9992.780217
3755.225145,-766.095498,296.082377,9770.718434
3755.225460,-459.657299,-0.000000,9622.677246
3755.225775,0.000000,-0.000000,9622.677246
3755.226089,0.000000,-0.000000,9622.677246
3755.226404,689.485948,74.020594,9770.718434
3755.226718,842.705048,1036.288319,9400.615463
3755.227033,1532.190996,1036.288319,10066.800811
3755.227348,995.924147,1628.453072,8956.491898
3755.227662,995.924147,1628.453072,8512.368333
3755.227977,842.705048,1924.535449,9030.512492
3755.228292,612.876398,1110.308913,9474.636058
3755.228606,383.047749,518.144159,9548.656652
3755.228921,0.000000,370.102971,9844.739029
3755.229235,-383.047749,-0.000000,9770.718434
3755.229550,-689.485948,370.102971,10140.821405
3755.229865,-1149.143247,814.226536,9400.615463
3755.230179,-383.047749,666.185348,9992.780217
3755.230494,-306.438199,296.082377,9770.718434
3755.230809,-383.047749,222.061783,9548.656652
3755.231123,-153.219100,518.144159,9326.594869
3755.231438,383.047749,518.144159,9696.697840
3755.231753,536.266849,666.185348,9918.759623
3755.232067,536.266849,1258.350101,9252.574275
3755.232382,0.000000,1258.350101,9030.512492
3755.232696,383.047749,1258.350101,9178.553681
3755.233011,229.828649,1036.288319,9104.533087
3755.233326,383.047749,296.082377,9918.759623
3755.233640,229.828649,-148.041188,10066.800811
3755.233955,-306.438199,-444.123565,9474.636058
3755.234270,-536.266849,-370.102971,10140.821405
3755.234584,-766.095498,-148.041188,10288.862594
3755.234899,-766.095498,148.041188,9696.697840
3755.235213,-306.438199,-0.000000,9992.780217
3755.235528,76.609550,-74.020594,9770.718434
3755.235843,76.609550,-0.000000,9918.759623
3755.236157,459.657299,-0.000000,10214.842000
3755.236472,-76.609550,-222.061783,10066.800811
3755.236787,229.828649,296.082377,10214.842000
3755.237101,76.609550,740.205942,9696.697840
3755.237416,306.438199,666.185348,8956.491898
3755.237731,919.314598,74.020594,9400.615463
3755.238045,459.657299,-0.000000,9918.759623
3755.238360,76.609550,-74.020594,9548.656652
3755.238674,153.219100,-444.123565,9548.656652
3755.238989,0.000000,-444.123565,9844.739029
3755.239304,0.000000,-592.164754,9918.759623
3755.239618,0.000000,-0.000000,9696.697840
3755.239933,-153.219100,-222.061783,9252.574275
3755.240248,76.609550,-296.082377,9548.656652
3755.240562,0.000000,-444.123565,9548.656652
3755.240877,153.219100,-814.226536,9992.780217
3755.241192,459.657299,-740.205942,9770.718434
3755.241506,306.438199,-370.102971,9844.739029
3755.241821,383.047749,-74.020594,9326.594869
3755.242135,536.266849,-0.000000,9104.533087
3755.242450,76.609550,296.082377,9474.636058
3755.242765,459.657299,-148.041188,9474.636058
3755.243079,383.047749,-370.102971,9326.594869
3755.243394,459.657299,-148.041188,9326.594869
3755.243709,689.485948,-444.123565,9030.512492
3755.244023,306.438199,-0.000000,9474.636058
3755.244338,0.000000,-0.000000,9474.636058
3755.244652,0.000000,-222.061783,8882.471304
3755.244967,-306.438199,-518.144159,9104.533087
3755.245282,-229.828649,-666.185348,9548.656652
3755.245596,-229.828649,-666.185348,9696.697840
3755.245911,-229.828649,-740.205942,10066.800811
3755.246226,-229.828649,-518.144159,10066.800811
3755.246540,-383.047749,-148.041188,10214.842000
3755.246855,-536.266849,370.102971,10140.821405
3755.247170,-306.438199,740.205942,9474.636058
3755.247484,0.000000,444.123565,9918.759623
3755.247799,229.828649,296.082377,9770.718434
3755.248113,536.266849,296.082377,9474.636058
3755.248428,995.924147,296.082377,8956.491898
3755.248743,76.609550,444.123565,9400.615463
3755.249057,229.828649,1258.350101,9326.594869
3755.249372,-459.657299,814.226536,8734.430116
3755.249687,-459.657299,518.144159,9252.574275
3755.250001,-383.047749,-148.041188,9474.636058
3755.250316,-383.047749,-962.267725,9918.759623
3755.250630,-536.266849,-518.144159,10288.862594
3755.250945,-689.485948,-74.020594,10214.842000
3755.251260,-536.266849,222.061783,10362.883188
3755.251574,-76.609550,888.247130,10140.821405
3755.251889,153.219100,1480.411884,9474.636058
3755.252204,536.266849,1924.535449,9548.656652
3755.252518,1149.143247,1924.535449,9178.553681
3755.252833,1302.362347,1628.453072,9400.615463
3755.253148,1378.971896,1110.308913,9104.533087
3755.253462,1302.362347,962.267725,9030.512492
3755.253777,612.876398,1184.329507,9548.656652
3755.254091,153.219100,1258.350101,9326.594869
3755.254406,-306.438199,592.164754,9474.636058
3755.254721,76.609550,296.082377,9844.739029
3755.255035,-766.095498,-222.061783,10436.903782
3755.255350,-995.924147,-74.020594,10214.842000
3755.255665,-842.705048,-222.061783,9918.759623
3755.255979,-459.657299,-296.082377,10362.883188
3755.256294,0.000000,222.061783,10214.842000
3755.256608,153.219100,962.267725,10288.862594
3755.256923,689.485948,1258.350101,9104.533087
3755.257238,459.657299,1850.514855,8290.306550
3755.257552,1378.971896,814.226536,9844.739029
3755.257867,459.657299,1258.350101,9178.553681
3755.258181,612.876398,666.185348,9770.718434
3755.258496,536.266849,-0.000000,10288.862594
3755.258810,0.000000,148.041188,9622.677246
3755.259125,-459.657299,222.061783,9548.656652
3755.259439,-306.438199,-148.041188,9474.636058
3755.259754,-229.828649,-518.144159,10066.800811
3755.260068,-229.828649,-740.205942,10140.821405
3755.260383,-383.047749,-666.185348,10214.842000
3755.260698,-229.828649,-444.123565,9770.718434
3755.261012,229.828649,-740.205942,9918.759623
3755.261327,383.047749,-148.041188,9548.656652
3755.261641,536.266849,296.082377,9104.533087
3755.261956,1225.752797,296.082377,9178.553681
3755.262270,1072.533697,592.164754,9030.512492
3755.262585,383.047749,740.205942,9252.574275
3755.262899,1072.533697,-0.000000,9622.677246
3755.263214,1072.533697,-0.000000,9474.636058
3755.263529,689.485948,-0.000000,9622.677246
3755.263843,459.657299,-0.000000,9474.636058
3755.264158,0.000000,-296.082377,8512.368333
3755.264472,-76.609550,-962.267725,9030.512492
3755.264787,-306.438199,-814.226536,9326.594869
3755.265101,-459.657299,-1184.329507,9474.636058
3755.265416,-383.047749,-1184.329507,9992.780217
3755.265730,0.000000,-1258.350101,10140.821405
3755.266045,-229.828649,-444.123565,9770.718434
3755.266359,-459.657299,-0.000000,9474.636058
3755.266674,-153.219100,444.123565,9104.533087
3755.266989,612.876398,-0.000000,9104.533087
3755.267303,153.219100,-0.000000,9474.636058
3755.267618,612.876398,-74.020594,9474.636058
3755.267932,459.657299,-0.000000,9104.533087
3755.268247,76.609550,222.061783,9178.553681
3755.268561,459.657299,296.082377,9474.636058
3755.268876,-689.485948,-0.000000,9474.636058
3755.269190,-995.924147,-74.020594,9474.636058
3755.269505,-766.095498,-1036.288319,9770.718434
3755.269820,-919.314598,-1406.391290,10066.800811
3755.270134,-689.485948,-1480.411884,10732.986159
3755.270449,-1149.143247,-1332.370696,10140.821405
3755.270763,-919.314598,-666.185348,10214.842000
3755.271078,-689.485948,370.102971,9548.656652
3755.271392,0.000000,888.247130,9104.533087
3755.271707,0.000000,592.164754,9030.512492
3755.272021,842.705048,444.123565,9622.677246
3755.272336,919.314598,592.164754,9252.574275
3755.272651,842.705048,444.123565,9400.615463
3755.272965,842.705048,370.102971,9696.697840
3755.273280,536.266849,592.164754,9844.739029
3755.273594,459.657299,444.123565,9770.718434
3755.273909,0.000000,592.164754,8882.471304
3755.274223,76.609550,-0.000000,9326.594869
3755.274538,-383.047749,-74.020594,9918.759623
3755.274852,-306.438199,-370.102971,10214.842000
3755.275167,-612.876398,-740.205942,10214.842000
3755.275481,-459.657299,-666.185348,10214.842000
3755.275796,-612.876398,-74.020594,9696.697840
3755.276111,0.000000,666.185348,9178.553681
3755.276425,1072.533697,962.267725,9696.697840
3755.276740,766.095498,1184.329507,9548.656652
3755.277054,766.095498,1258.350101,9326.594869
3755.277369,1302.362347,1628.453072,9474.636058
3755.277683,1532.190996,1110.308913,9474.636058
3755.277998,1225.752797,888.247130,9622.677246
3755.278312,995.924147,1184.329507,9474.636058
3755.278627,612.876398,1184.329507,9252.574275
3755.278942,153.219100,518.144159,8882.471304
3755.279256,229.828649,-0.000000,9548.656652
3755.279571,0.000000,-0.000000,9474.636058
3755.279885,-766.095498,-296.082377,9844.739029
3755.280200,-536.266849,-592.164754,9548.656652
3755.280514,0.000000,-370.102971,10436.903782
3755.280829,-229.828649,148.041188,10288.862594
3755.281143,0.000000,962.267725,9696.697840
3755.281458,229.828649,1406.391290,9622.677246
3755.281772,612.876398,1258.350101,9474.636058
3755.282087,1378.971896,1110.308913,9770.718434
3755.282402,1532.190996,1332.370696,9474.636058
3755.282716,1149.143247,666.185348,9696.697840
3755.283031,612.876398,592.164754,9992.780217
3755.283345,383.047749,1184.329507,9326.594869
3755.283660,0.000000,740.205942,9474.636058
3755.283974,-306.438199,-0.000000,10140.821405
3755.284289,-536.266849,-444.123565,9992.780217
3755.284603,-536.266849,-666.185348,9992.780217
3755.284918,-459.657299,-666.185348,10066.800811
3755.285233,-689.485948,-666.185348,10881.027347
3755.285547,-536.266849,-0.000000,10362.883188
3755.285862,-536.266849,592.164754,9918.759623
3755.286176,0.000000,370.102971,9548.656652
3755.286491,459.657299,370.102971,9252.574275
3755.286805,689.485948,518.144159,9252.574275
3755.287120,995.924147,740.205942,9474.636058
3755.287434,919.314598,740.205942,9104.533087
3755.287749,766.095498,148.041188,9474.636058
3755.288064,459.657299,296.082377,9104.533087
3755.288378,0.000000,-0.000000,9474.636058
3755.288693,-229.828649,-0.000000,9104.533087
3755.289007,-536.266849,-592.164754,9622.677246
3755.289322,-1072.533697,-962.267725,9622.677246
3755.289636,-842.705048,-1184.329507,9918.759623
3755.289951,-766.095498,-1702.473667,9770.718434
3755.290265,-766.095498,-1036.288319,9770.718434
3755.290580,-689.485948,-370.102971,9030.512492
3755.290894,0.000000,-0.000000,8882.471304
3755.291209,306.438199,-0.000000,8660.409521
3755.291524,766.095498,-0.000000,9104.533087
3755.291838,842.705048,296.082377,9030.512492
3755.292153,919.314598,-148.041188,9030.512492
3755.292467,689.485948,-444.123565,9474.636058
3755.292782,689.485948,-370.102971,9696.697840
3755.293096,0.000000,-148.041188,9770.718434
3755.293411,-229.828649,-444.123565,9474.636058
3755.293725,-383.047749,-740.205942,9696.697840
3755.294040,-383.047749,-592.164754,9992.780217
3755.294355,0.000000,-370.102971,9474.636058
3755.294669,-229.828649,-888.247130,9918.759623
3755.294984,76.609550,-962.267725,10066.800811
3755.295298,229.828649,-148.041188,9992.780217
3755.295613,0.000000,370.102971,9104.533087
3755.295927,306.438199,296.082377,8882.471304
3755.296242,919.314598,370.102971,9548.656652
3755.296556,919.314598,518.144159,9326.594869
3755.296871,842.705048,-148.041188,9992.780217
3755.297185,612.876398,-0.000000,9844.739029
3755.297500,229.828649,444.123565,10066.800811
3755.297815,76.609550,518.144159,9696.697840
3755.298129,0.000000,592.164754,9622.677246
3755.298444,0.000000,-0.000000,9474.636058
3755.298758,0.000000,-0.000000,9474.636058
3755.299073,0.000000,-0.000000,9548.656652
3755.299387,76.609550,-0.000000,10584.944971
3755.299702,0.000000,-74.020594,10288.862594
3755.300016,0.000000,740.205942,9844.739029
3755.300331,0.000000,814.226536,9474.636058
3755.300646,306.438199,1258.350101,9178.553681
3755.300960,306.438199,962.267725,9474.636058
3755.301275,229.828649,888.247130,9474.636058
3755.301589,76.609550,444.123565,9622.677246
3755.301904,76.609550,370.102971,9400.615463
3755.302218,306.438199,-0.000000,9696.697840
3755.302533,0.000000,370.102971,9918.759623
3755.302847,-459.657299,592.164754,9474.636058
3755.303162,-1149.143247,370.102971,9474.636058
3755.303476,-842.705048,518.144159,9622.677246
3755.303791,-153.219100,444.123565,10288.862594
3755.304106,0.000000,296.082377,10140.821405
3755.304420,0.000000,148.041188,9474.636058
3755.304735,306.438199,592.164754,9770.718434
3755.305049,536.266849,1406.391290,9326.594869
3755.305364,383.047749,1406.391290,8882.471304
3755.305678,459.657299,1702.473667,9474.636058
3755.305993,689.485948,666.185348,9474.636058
3755.306307,153.219100,518.144159,9326.594869
3755.306622,0.000000,222.061783,9474.636058
3755.306937,-536.266849,-518.144159,10066.800811
3755.307251,-536.266849,-74.020594,10510.924376
3755.307566,-689.485948,-148.041188,10214.842000
3755.307880,-766.095498,222.061783,9918.759623
3755.308195,-459.657299,518.144159,9770.718434
3755.308509,153.219100,370.102971,10140.821405
3755.308824,612.876398,370.102971,9622.677246
3755.309138,612.876398,592.164754,9548.656652
3755.309453,383.047749,518.144159,9104.533087
3755.309768,689.485948,666.185348,9104.533087
3755.310082,995.924147,962.267725,9474.636058
3755.310397,459.657299,592.164754,9326.594869
3755.310711,536.266849,296.082377,8808.450710
3755.311026,153.219100,-296.082377,9622.677246
3755.311340,76.609550,-518.144159,9918.759623
3755.311655,-153.219100,-592.164754,10436.903782
3755.311969,-229.828649,-666.185348,10362.883188
3755.312284,-153.219100,-370.102971,10362.883188
3755.312598,-383.047749,-444.123565,9622.677246
3755.312913,153.219100,-74.020594,9104.533087
3755.313228,612.876398,-0.000000,9326.594869
3755.313542,383.047749,-0.000000,9474.636058
3755.313857,612.876398,-0.000000,9326.594869
3755.314171,459.657299,-0.000000,9030.512492
3755.314486,229.828649,-222.061783,9252.574275
3755.314800,766.095498,-296.082377,9400.615463
3755.315115,0.000000,-148.041188,9252.574275
3755.315429,229.828649,-148.041188,8882.471304
3755.315744,383.047749,-592.164754,9770.718434
3755.316059,-153.219100,-740.205942,9622.677246
3755.316373,-459.657299,-962.267725,9918.759623
3755.316688,-459.657299,-814.226536,10066.800811
3755.317002,-306.438199,-518.144159,9918.759623
3755.317317,0.000000,-148.041188,9770.718434
3755.317631,229.828649,-0.000000,9474.636058
3755.317946,536.266849,74.020594,9326.594869
3755.318260,383.047749,296.082377,9252.574275
3755.318575,383.047749,222.061783,8956.491898
3755.318889,536.266849,-0.000000,10140.821405
3755.319204,459.657299,-0.000000,10214.842000
3755.319519,229.828649,-0.000000,10436.903782
3755.319833,0.000000,444.123565,9844.739029
3755.320148,-306.438199,222.061783,9474.636058
3755.320462,0.000000,370.102971,9326.594869
3755.320777,-459.657299,-370.102971,9696.697840
3755.321091,-612.876398,-148.041188,9844.739029
3755.321406,-229.828649,-444.123565,9474.636058
3755.321720,0.000000,-222.061783,9474.636058
3755.322035,-306.438199,-148.041188,9548.656652
3755.322350,153.219100,444.123565,9548.656652
3755.322664,-306.438199,592.164754,9474.636058
3755.322979,-153.219100,962.267725,9030.512492
3755.323293,0.000000,518.144159,9696.697840
3755.323608,0.000000,592.164754,9474.636058
3755.323922,459.657299,222.061783,9252.574275
3755.324237,0.000000,-74.020594,10510.924376
3755.324551,-153.219100,370.102971,9992.780217
3755.324866,-383.047749,888.247130,9400.615463
3755.325181,0.000000,666.185348,9400.615463
3755.325495,0.000000,222.061783,9548.656652
3755.325810,229.828649,-0.000000,9474.636058
3755.326124,76.609550,-0.000000,9770.718434
3755.326439,0.000000,-0.000000,10066.800811
3755.326753,459.657299,-0.000000,10066.800811
3755.327068,0.000000,1110.308913,9474.636058
3755.327382,76.609550,888.247130,9400.615463
3755.327697,76.609550,518.144159,9400.615463
3755.328011,995.924147,740.205942,9474.636058
3755.328326,689.485948,444.123565,9474.636058
3755.328641,536.266849,222.061783,9844.739029
3755.328955,229.828649,592.164754,9992.780217
3755.329270,-306.438199,296.082377,9622.677246
3755.329584,-306.438199,814.226536,10140.821405
3755.329899,-536.266849,592.164754,9992.780217
3755.330213,0.000000,148.041188,9992.780217
3755.330528,0.000000,814.226536,9992.780217
3755.330842,0.000000,444.123565,9992.780217
3755.331157,459.657299,370.102971,9918.759623
3755.331472,0.000000,370.102971,9992.780217
3755.331786,612.876398,740.205942,9770.718434
3755.332101,612.876398,1036.288319,8956.491898
3755.332415,383.047749,962.267725,9030.512492
3755.332730,689.485948,296.082377,9030.512492
3755.333044,383.047749,-0.000000,9474.636058
3755.333359,383.047749,-370.102971,9548.656652
3755.333673,0.000000,-296.082377,9548.656652
3755.333988,76.609550,-740.205942,10362.883188
3755.334302,0.000000,-148.041188,10214.842000
3755.334617,229.828649,-0.000000,9548.656652
3755.334932,0.000000,518.144159,9474.636058
3755.335246,459.657299,-0.000000,9696.697840
3755.335561,689.485948,222.061783,9474.636058
3755.335875,842.705048,-0.000000,8882.471304
3755.336190,919.314598,-370.102971,9622.677246
3755.336504,842.705048,-74.020594,9622.677246
3755.336819,229.828649,-0.000000,9696.697840
3755.337133,0.000000,-0.000000,9474.636058
3755.337448,76.609550,-518.144159,9326.594869
3755.337763,76.609550,-666.185348,9622.677246
3755.338077,0.000000,-814.226536,9622.677246
3755.338392,-153.219100,-740.205942,9770.718434
3755.338706,153.219100,-814.226536,9696.697840
3755.339021,76.609550,-296.082377,9696.697840
3755.339335,229.828649,-370.102971,9548.656652
3755.339650,0.000000,148.041188,8956.491898
3755.339964,459.657299,148.041188,9030.512492
3755.340279,612.876398,-0.000000,8956.491898
3755.340594,306.438199,-0.000000,8882.471304
3755.340908,153.219100,-148.041188,9474.636058
3755.341223,76.609550,-74.020594,9548.656652
3755.341537,0.000000,-370.102971,9474.636058
3755.341852,-612.876398,-148.041188,9770.718434
3755.342166,-842.705048,-0.000000,9474.636058
3755.342481,-612.876398,-444.123565,9844.739029
3755.342795,-536.266849,-148.041188,10066.800811
3755.343110,0.000000,-222.061783,9770.718434
3755.343424,-383.047749,-148.041188,9696.697840
3755.343739,76.609550,-0.000000,9918.759623
3755.344054,76.609550,444.123565,9548.656652
3755.344368,153.219100,962.267725,8882.471304
3755.344683,153.219100,888.247130,9104.533087
3755.344997,766.095498,1258.350101,9178.553681
3755.345312,459.657299,444.123565,9474.636058
3755.345626,153.219100,-74.020594,9474.636058
3755.345941,0.000000,-222.061783,9474.636058
3755.346255,0.000000,-74.020594,10362.883188
3755.346570,0.000000,370.102971,9770.718434
3755.346885,-1072.533697,444.123565,9696.697840
3755.347199,-229.828649,-0.000000,9844.739029
3755.347514,0.000000,-0.000000,9918.759623
3755.347828,0.000000,-222.061783,9622.677246
3755.348143,153.219100,-0.000000,9770.718434
3755.348457,229.828649,-0.000000,10066.800811
3755.348772,306.438199,296.082377,9622.677246
3755.349086,229.828649,740.205942,9326.594869
3755.349401,153.219100,740.205942,9178.553681
3755.349715,459.657299,814.226536,9400.615463
3755.350030,689.485948,1036.288319,9548.656652
3755.350345,459.657299,740.205942,9474.636058
3755.350659,383.047749,-0.000000,9770.718434
3755.350974,383.047749,-74.020594,9844.739029
3755.351288,153.219100,-0.000000,9918.759623
3755.351603,0.000000,592.164754,9918.759623
3755.351917,0.000000,370.102971,9400.615463
3755.352232,76.609550,444.123565,9992.780217
3755.352546,76.609550,296.082377,9992.780217
3755.352861,-383.047749,296.082377,10214.842000
3755.353176,-306.438199,148.041188,10140.821405
3755.353490,153.219100,592.164754,9992.780217
3755.353805,229.828649,740.205942,9844.739029
3755.354119,229.828649,1110.308913,9696.697840
3755.354434,612.876398,962.267725,9326.594869
3755.354748,766.095498,962.267725,9548.656652
3755.355063,689.485948,740.205942,9400.615463
3755.355377,536.266849,444.123565,9474.636058
3755.355692,229.828649,-0.000000,9400.615463
3755.356006,612.876398,-0.000000,9844.739029
3755.356321,153.219100,-148.041188,9474.636058
3755.356636,-383.047749,-0.000000,9030.512492
3755.356950,0.000000,222.061783,9474.636058
3755.357265,-383.047749,-222.061783,9400.615463
3755.357579,0.000000,-518.144159,9770.718434
3755.357894,-383.047749,-518.144159,10140.821405
3755.358208,0.000000,-296.082377,9622.677246
3755.358523,306.438199,-0.000000,9992.780217
3755.358837,306.438199,518.144159,9548.656652
3755.359152,689.485948,222.061783,9548.656652
3755.359466,689.485948,148.041188,9252.574275
3755.359781,766.095498,296.082377,9104.533087
3755.360095,766.095498,-0.000000,9474.636058
3755.360410,766.095498,-592.164754,9474.636058
3755.360724,536.266849,-296.082377,9844.739029
3755.361039,0.000000,-296.082377,9992.780217
3755.361353,-306.438199,-222.061783,9474.636058
3755.361668,-459.657299,-518.144159,8956.491898
3755.361982,-306.438199,-518.144159,9178.553681
3755.362297,0.000000,-592.164754,10436.903782
3755.362611,-459.657299,-962.267725,9696.697840
3755.362926,-229.828649,-1258.350101,9696.697840
3755.363240,-153.219100,-740.205942,9918.759623
3755.363555,-459.657299,-518.144159,10288.862594
3755.363869,0.000000,666.185348,9252.574275
3755.364184,229.828649,740.205942,8734.430116
3755.364498,306.438199,370.102971,9474.636058
3755.364813,459.657299,222.061783,9326.594869
3755.365127,919.314598,-518.144159,9252.574275
3755.365442,689.485948,-148.041188,9178.553681
3755.365756,229.828649,-0.000000,9548.656652
3755.366071,-229.828649,148.041188,8882.471304
3755.366385,-383.047749,-0.000000,8882.471304
3755.366700,0.000000,-1110.308913,8956.491898
3755.367014,-153.219100,-740.205942,9696.697840
3755.367329,-612.876398,-740.205942,9474.636058
3755.367643,-995.924147,-888.247130,9252.574275
3755.367958,-536.266849,-740.205942,10214.842000
3755.368272,306.438199,-444.123565,9918.759623
3755.368587,0.000000,-74.020594,9770.718434
3755.368901,459.657299,592.164754,9474.636058
3755.369216,689.485948,666.185348,9400.615463
3755.369530,1072.533697,1628.453072,9400.615463
3755.369845,1225.752797,1184.329507,9326.594869
3755.370159,919.314598,962.267725,9400.615463
3755.370474,842.705048,296.082377,9770.718434
3755.370788,383.047749,222.061783,9474.636058
3755.371103,-306.438199,296.082377,9844.739029
3755.371417,0.000000,-148.041188,9918.759623
3755.371732,-536.266849,-0.000000,10362.883188
3755.372046,0.000000,-0.000000,10362.883188
3755.372361,-536.266849,-222.061783,10066.800811
3755.372675,-306.438199,-0.000000,10288.862594
3755.372990,0.000000,-0.000000,10732.986159
3755.373304,76.609550,962.267725,10362.883188
3755.373619,383.047749,1702.473667,9622.677246
3755.373933,459.657299,2146.597232,9030.512492
3755.374247,1225.752797,814.226536,9770.718434
3755.374562,1072.533697,1480.411884,9844.739029
3755.374876,536.266849,1406.391290,9548.656652
3755.375191,842.705048,888.247130,9696.697840
3755.375505,153.219100,814.226536,10066.800811
3755.375820,76.609550,1480.411884,10214.842000
3755.376134,-459.657299,962.267725,9548.656652
3755.376449,-689.485948,222.061783,9844.739029
3755.376763,-612.876398,-148.041188,10436.903782
3755.377078,-919.314598,-0.000000,9918.759623
3755.377392,-459.657299,-0.000000,9770.718434
3755.377707,0.000000,-0.000000,9918.759623
3755.378021,0.000000,592.164754,10214.842000
3755.378336,0.000000,962.267725,9252.574275
3755.378650,0.000000,1480.411884,8808.450710
3755.378965,1149.143247,962.267725,8660.409521
3755.379279,995.924147,962.267725,9030.512492
3755.379594,919.314598,888.247130,8882.471304
3755.379908,689.485948,222.061783,9474.636058
3755.380223,383.047749,-370.102971,9622.677246
3755.380537,0.000000,-74.020594,9992.780217
3755.380852,-689.485948,74.020594,9844.739029
3755.381166,-766.095498,-0.000000,9474.636058
3755.381481,-459.657299,-296.082377,9622.677246
3755.381795,0.000000,-666.185348,10140.821405
3755.382110,-306.438199,-814.226536,10510.924376
3755.382424,-229.828649,-222.061783,10140.821405
3755.382739,229.828649,-370.102971,9918.759623
3755.383053,536.266849,-0.000000,9770.718434
3755.383368,842.705048,962.267725,9548.656652
3755.383682,1378.971896,592.164754,8882.471304
3755.383997,995.924147,740.205942,9474.636058
3755.384311,919.314598,222.061783,9474.636058
3755.384626,842.705048,-148.041188,9030.512492
3755.384940,612.876398,-444.123565,9474.636058
3755.385255,306.438199,-888.247130,9844.739029
3755.385569,-306.438199,-666.185348,9696.697840
3755.385884,-536.266849,-592.164754,9326.594869
3755.386198,-229.828649,-1036.288319,9030.512492
3755.386513,-459.657299,-666.185348,9770.718434
3755.386827,-383.047749,-370.102971,9770.718434
3755.387142,-229.828649,-740.205942,9548.656652
3755.387456,0.000000,-370.102971,9548.656652
3755.387771,229.828649,-0.000000,9474.636058
3755.388085,383.047749,370.102971,9326.594869
3755.388400,306.438199,296.082377,8808.450710
3755.388714,459.657299,444.123565,9696.697840
3755.389029,229.828649,370.102971,9474.636058
3755.389343,306.438199,-0.000000,9474.636058
3755.389658,536.266849,-814.226536,9548.656652
3755.389972,306.438199,-740.205942,9474.636058
3755.390287,153.219100,-814.226536,9548.656652
3755.390601,0.000000,-370.102971,9400.615463
3755.390916,-383.047749,-518.144159,9104.533087
3755.391230,0.000000,-592.164754,9252.574275
3755.391545,0.000000,-296.082377,9326.594869
3755.391859,-229.828649,-148.041188,9252.574275
3755.392174,229.828649,-370.102971,9474.636058
3755.392488,0.000000,-444.123565,9844.739029
3755.392803,689.485948,-0.000000,9622.677246
3755.393117,229.828649,740.205942,9548.656652
3755.393432,76.609550,888.247130,8882.471304
3755.393746,536.266849,740.205942,9548.656652
3755.394061,383.047749,518.144159,10288.862594
3755.394375,306.438199,222.061783,10140.821405
3755.394690,153.219100,296.082377,10362.883188
3755.395004,0.000000,222.061783,10436.903782
3755.395319,0.000000,444.123565,9696.697840
3755.395633,-229.828649,814.226536,9844.739029
3755.395948,0.000000,518.144159,9474.636058
3755.396262,229.828649,-74.020594,9992.780217
3755.396577,153.219100,370.102971,9474.636058
3755.396891,0.000000,666.185348,9252.574275
3755.397206,153.219100,666.185348,9622.677246
3755.397520,76.609550,962.267725,9622.677246
3755.397835,0.000000,814.226536,9474.636058
3755.398149,-459.657299,814.226536,9326.594869
3755.398464,0.000000,962.267725,9474.636058
3755.398778,0.000000,592.164754,9918.759623
3755.399093,-153.219100,518.144159,9770.718434
3755.399407,0.000000,222.061783,10362.883188
3755.399722,0.000000,444.123565,10214.842000
3755.400036,153.219100,1406.391290,10288.862594
3755.400351,229.828649,1850.514855,9474.636058
3755.400665,689.485948,1480.411884,8734.430116
3755.400980,229.828649,1332.370696,8882.471304
3755.401294,689.485948,814.226536,8956.491898
3755.401609,229.828649,-0.000000,9326.594869
3755.401923,383.047749,-0.000000,9104.533087
3755.402238,76.609550,-74.020594,9622.677246
3755.402552,-229.828649,-0.000000,9918.759623
3755.402867,-459.657299,666.185348,9770.718434
3755.403181,-153.219100,666.185348,9622.677246
3755.403496,0.000000,370.102971,9696.697840
3755.403810,383.047749,518.144159,9918.759623
3755.404125,153.219100,444.123565,9844.739029
3755.404439,612.876398,370.102971,9326.594869
3755.404754,919.314598,222.061783,9992.780217
3755.405068,842.705048,740.205942,9770.718434
3755.405383,612.876398,1036.288319,9326.594869
3755.405697,459.657299,740.205942,9104.533087
3755.406012,1072.533697,444.123565,9992.780217
3755.406326,306.438199,-0.000000,10288.862594
3755.406641,-153.219100,-370.102971,10140.821405
3755.406955,0.000000,-888.247130,10066.800811
3755.407270,-306.438199,-962.267725,10807.006753
3755.407584,0.000000,-0.000000,10362.883188
3755.407899,-306.438199,-74.020594,9474.636058
3755.408213,0.000000,148.041188,9474.636058
3755.408528,0.000000,-296.082377,9844.739029
3755.408842,536.266849,-74.020594,9622.677246
3755.409157,1149.143247,-518.144159,9178.553681
3755.409471,919.314598,-296.082377,9622.677246
3755.409786,536.266849,222.061783,9400.615463
3755.410100,689.485948,370.102971,9104.533087
3755.410415,229.828649,-74.020594,8660.409521
3755.410729,689.485948,-370.102971,8882.471304
3755.411044,229.828649,-444.123565,9474.636058
3755.411358,153.219100,-740.205942,9400.615463
3755.411673,-306.438199,-1110.308913,9474.636058
3755.411987,-612.876398,-1110.308913,9696.697840
3755.412302,-536.266849,-962.267725,9548.656652
3755.412616,-689.485948,-444.123565,9474.636058
3755.412931,-536.266849,-296.082377,9178.553681
3755.413245,-306.438199,-740.205942,9622.677246
3755.413560,76.609550,-1036.288319,9992.780217
3755.413874,383.047749,-814.226536,9104.533087
3755.414189,612.876398,-370.102971,9400.615463
3755.414503,383.047749,-0.000000,9918.759623
3755.414818,76.609550,296.082377,9474.636058
3755.415132,306.438199,444.123565,9178.553681
3755.415447,383.047749,-148.041188,8660.409521
3755.415761,536.266849,-74.020594,9400.615463
3755.416076,0.000000,-518.144159,9770.718434
3755.416390,-153.219100,-666.185348,9918.759623
3755.416705,-383.047749,-1110.308913,10140.821405
3755.417019,-229.828649,-592.164754,10732.986159
3755.417334,-689.485948,-148.041188,10214.842000
3755.417648,-689.485948,444.123565,9548.656652
3755.417963,0.000000,370.102971,9400.615463
3755.418277,229.828649,148.041188,9696.697840
3755.418592,536.266849,-0.000000,9252.574275
3755.418906,995.924147,296.082377,9326.594869
3755.419221,536.266849,-0.000000,9622.677246
3755.419535,76.609550,1036.288319,9548.656652
3755.419850,229.828649,1110.308913,9178.553681
3755.420164,229.828649,1036.288319,9178.553681
3755.420479,459.657299,888.247130,9696.697840
3755.420793,229.828649,444.123565,9770.718434
3755.421108,-229.828649,222.061783,9622.677246
3755.421422,153.219100,-0.000000,9992.780217
3755.421737,383.047749,222.061783,10584.944971
3755.422051,76.609550,814.226536,9696.697840
3755.422366,0.000000,1184.329507,9474.636058
3755.422680,153.219100,1554.432478,9030.512492
3755.422995,689.485948,888.247130,9030.512492
3755.423309,689.485948,1332.370696,9622.677246
3755.423624,459.657299,1258.350101,9696.697840
3755.423938,306.438199,666.185348,9474.636058
3755.424253,229.828649,518.144159,9992.780217
3755.424567,0.000000,814.226536,9400.615463
3755.424882,0.000000,1258.350101,9770.718434
3755.425196,383.047749,1480.411884,10066.800811
3755.425511,153.219100,962.267725,10658.965565
3755.425825,0.000000,888.247130,10140.821405
3755.426140,0.000000,148.041188,9770.718434
3755.426454,306.438199,444.123565,9992.780217
3755.426769,459.657299,222.061783,10362.883188
3755.427083,0.000000,1036.288319,9548.656652
3755.427398,76.609550,962.267725,9252.574275
3755.427712,0.000000,1110.308913,9474.636058
3755.428027,459.657299,518.144159,9696.697840
3755.428341,229.828649,74.020594,9844.739029
3755.428656,306.438199,-74.020594,10140.821405
3755.428970,76.609550,-0.000000,10214.842000
3755.429285,0.000000,222.061783,10584.944971
3755.429599,0.000000,518.144159,9844.739029
3755.429914,0.000000,888.247130,9326.594869
3755.430228,0.000000,444.123565,9696.697840
3755.430543,383.047749,370.102971,9400.615463
3755.430857,0.000000,444.123565,9844.739029
3755.431171,0.000000,-444.123565,9992.780217
3755.431486,0.000000,-592.164754,9770.718434
3755.431800,-383.047749,-444.123565,9696.697840
3755.432115,-536.266849,-0.000000,9104.533087
3755.432429,-459.657299,-0.000000,9030.512492
3755.432744,383.047749,-0.000000,9474.636058
3755.433058,306.438199,-222.061783,9178.553681
3755.433373,459.657299,-222.061783,9326.594869
3755.433687,383.047749,-0.000000,8660.409521
3755.434002,153.219100,-592.164754,9622.677246
3755.434316,153.219100,-0.000000,10140.821405
3755.434631,0.000000,-0.000000,8956.491898
3755.434945,76.609550,-148.041188,8586.388927
3755.435260,229.828649,-666.185348,8808.450710
3755.435574,383.047749,-1110.308913,9326.594869
3755.435889,153.219100,-740.205942,9326.594869
3755.436203,229.828649,-962.267725,9474.636058
3755.436518,153.219100,-814.226536,9770.718434
3755.436832,0.000000,-148.041188,9474.636058
3755.437147,-536.266849,-296.082377,8882.471304
3755.437461,-383.047749,-666.185348,9326.594869
3755.437776,0.000000,-888.247130,9844.739029
3755.438090,153.219100,-740.205942,9622.677246
3755.438405,76.609550,-666.185348,10140.821405
3755.438719,229.828649,-666.185348,9622.677246
3755.439034,76.609550,-222.061783,9844.739029
3755.439348,0.000000,-0.000000,9770.718434
3755.439663,-229.828649,-0.000000,9474.636058
3755.439977,-229.828649,-74.020594,9622.677246
3755.440292,-153.219100,-222.061783,9548.656652
3755.440606,-306.438199,-518.144159,9770.718434
3755.440921,76.609550,-740.205942,10140.821405
3755.441235,-306.438199,-814.226536,10362.883188
3755.441550,-229.828649,-370.102971,10140.821405
3755.441864,-306.438199,222.061783,9548.656652
3755.442179,-536.266849,518.144159,9400.615463
3755.442493,76.609550,666.185348,9178.553681
3755.442808,76.609550,-222.061783,8808.450710
3755.443122,766.095498,296.082377,9326.594869
3755.443437,1149.143247,-0.000000,8882.471304
3755.443751,842.705048,296.082377,9696.697840
3755.444066,459.657299,962.267725,9548.656652
3755.444380,229.828649,888.247130,9178.553681
3755.444695,612.876398,1184.329507,8956.491898
3755.445009,383.047749,148.041188,9918.759623
3755.445324,229.828649,222.061783,10066.800811
3755.445638,383.047749,370.102971,10362.883188
3755.445953,306.438199,518.144159,9326.594869
3755.446267,306.438199,296.082377,10214.842000
3755.446582,0.000000,962.267725,9548.656652
3755.446896,0.000000,1110.308913,9252.574275
3755.447211,536.266849,370.102971,9104.533087
3755.447525,842.705048,740.205942,9474.636058
3755.447840,459.657299,962.267725,9400.615463
3755.448154,459.657299,814.226536,9326.594869
3755.448469,766.095498,814.226536,10288.862594
3755.448783,306.438199,592.164754,9622.677246
3755.449098,76.609550,888.247130,9696.697840
3755.449412,0.000000,1480.411884,9622.677246
3755.449727,0.000000,814.226536,9844.739029
3755.450041,153.219100,740.205942,10288.862594
3755.450356,229.828649,666.185348,9548.656652
3755.450670,0.000000,-0.000000,9992.780217
3755.450985,0.000000,-0.000000,10214.842000
3755.451299,0.000000,740.205942,10140.821405
3755.451614,0.000000,592.164754,9696.697840
3755.451928,153.219100,740.205942,9474.636058
3755.452243,229.828649,296.082377,9696.697840
3755.452557,459.657299,444.123565,9474.636058
3755.452872,536.266849,740.205942,9474.636058
3755.453186,459.657299,222.061783,9548.656652
3755.453501,383.047749,-0.000000,9696.697840
3755.453815,0.000000,740.205942,9696.697840
3755.454130,-153.219100,1036.288319,8734.430116
3755.454444,-229.828649,370.102971,9178.553681
3755.454759,-229.828649,-222.061783,9696.697840
3755.455073,-536.266849,-148.041188,10140.821405
3755.455388,-229.828649,-370.102971,10140.821405
3755.455702,-536.266849,-518.144159,9992.780217
3755.456017,-153.219100,222.061783,10140.821405
3755.456331,0.000000,296.082377,9918.759623
3755.456646,0.000000,518.144159,8808.450710
3755.456960,459.657299,296.082377,9326.594869
3755.457275,766.095498,-0.000000,9030.512492
3755.457589,689.485948,296.082377,8882.471304
3755.457904,842.705048,-0.000000,9030.512492
3755.458219,306.438199,-370.102971,8808.450710
3755.458533,229.828649,-296.082377,9548.656652
3755.458848,-383.047749,-148.041188,9178.553681
3755.459162,-689.485948,-814.226536,9474.636058
3755.459477,-306.438199,-888.247130,9696.697840
3755.459792,-995.924147,-1332.370696,10140.821405
3755.460106,-383.047749,-1036.288319,10066.800811
3755.460421,0.000000,-666.185348,10214.842000
3755.460735,-306.438199,-814.226536,10140.821405
3755.461050,76.609550,-0.000000,9770.718434
3755.461365,536.266849,370.102971,9104.533087
3755.461679,919.314598,370.102971,8882.471304
3755.461994,919.314598,-0.000000,9178.553681
3755.462309,1225.752797,-370.102971,9474.636058
3755.462623,689.485948,-444.123565,9400.615463
3755.462938,306.438199,-1332.370696,9474.636058
3755.463252,0.000000,-1406.391290,9770.718434
3755.463567,-536.266849,-1184.329507,10066.800811
3755.463882,-536.266849,-740.205942,9696.697840
3755.464196,-766.095498,-962.267725,9548.656652
3755.464511,-383.047749,-740.205942,9400.615463
3755.464826,-306.438199,-666.185348,9770.718434
3755.465140,0.000000,-814.226536,9770.718434
3755.465455,536.266849,-518.144159,10066.800811
3755.465769,153.219100,-0.000000,9844.739029
3755.466084,1072.533697,814.226536,9474.636058
3755.466399,842.705048,1110.308913,8438.347739
3755.466713,919.314598,888.247130,8512.368333
3755.467028,459.657299,592.164754,9400.615463
3755.467343,153.219100,-0.000000,9474.636058
3755.467657,383.047749,-74.020594,9622.677246
3755.467972,0.000000,-666.185348,10288.862594
3755.468286,-459.657299,-148.041188,10140.821405
3755.468601,-842.705048,-74.020594,9696.697840
3755.468916,-689.485948,518.144159,9474.636058
3755.469230,-536.266849,222.061783,9770.718434
3755.469545,0.000000,370.102971,9474.636058
3755.469859,842.705048,666.185348,9474.636058
3755.470174,995.924147,518.144159,8882.471304
3755.470489,842.705048,666.185348,9474.636058
3755.470803,689.485948,1258.350101,9474.636058
3755.471118,766.095498,1702.473667,9548.656652
3755.471433,536.266849,1702.473667,9252.574275
3755.471747,536.266849,1184.329507,9696.697840
3755.472062,536.266849,1036.288319,9696.697840
3755.472376,76.609550,666.185348,9844.739029
3755.472691,-153.219100,-0.000000,10140.821405
3755.473006,-689.485948,-0.000000,10584.944971
3755.473320,-459.657299,370.102971,10510.924376
3755.473635,-612.876398,592.164754,9400.615463
3755.473950,-383.047749,592.164754,9474.636058
3755.474264,76.609550,666.185348,10066.800811
3755.474579,229.828649,222.061783,10362.883188
3755.474893,383.047749,296.082377,10140.821405
3755.475208,383.047749,814.226536,9992.780217
3755.475523,766.095498,1258.350101,9844.739029
3755.475837,153.219100,1406.391290,9622.677246
3755.476152,766.095498,1332.370696,9474.636058
3755.476467,383.047749,1332.370696,9030.512492
3755.476781,536.266849,962.267725,9622.677246
3755.477096,459.657299,666.185348,9474.636058
3755.477410,229.828649,222.061783,9474.636058
3755.477725,0.000000,-296.082377,9992.780217
3755.478040,-306.438199,-222.061783,10066.800811
3755.478354,-459.657299,-0.000000,9992.780217
3755.478669,-612.876398,444.123565,9400.615463
3755.478984,-229.828649,444.123565,9474.636058
3755.479298,383.047749,518.144159,9696.697840
3755.479613,306.438199,296.082377,9252.574275
3755.479927,306.438199,296.082377,9252.574275
3755.480242,383.047749,518.144159,9918.759623
3755.480557,383.047749,666.185348,9844.739029
3755.480871,0.000000,666.185348,9178.553681
3755.481186,383.047749,444.123565,9400.615463
3755.481500,76.609550,-0.000000,9844.739029
3755.481815,229.828649,-222.061783,9622.677246
3755.482130,306.438199,-444.123565,9696.697840
3755.482444,306.438199,-222.061783,9770.718434
3755.482759,0.000000,-444.123565,9474.636058
3755.483074,229.828649,-0.000000,9252.574275
3755.483388,-76.609550,-0.000000,8882.471304
3755.483703,0.000000,-444.123565,9474.636058
3755.484017,-153.219100,-1036.288319,9696.697840
3755.484332,306.438199,-740.205942,9474.636058
3755.484647,306.438199,-814.226536,9474.636058
3755.484961,536.266849,-296.082377,9918.759623
3755.485276,306.438199,-370.102971,10140.821405
3755.485591,-306.438199,-296.082377,10288.862594
3755.485905,-306.438199,-296.082377,9622.677246
3755.486220,153.219100,-592.164754,9696.697840
3755.486534,229.828649,-814.226536,9696.697840
3755.486849,459.657299,-370.102971,9104.533087
3755.487164,459.657299,-740.205942,9770.718434
3755.487478,689.485948,-888.247130,9474.636058
3755.487793,612.876398,-740.205942,9770.718434
3755.488108,383.047749,-222.061783,8808.450710
3755.488422,0.000000,-296.082377,8586.388927
3755.488737,0.000000,-444.123565,8660.409521
3755.489051,0.000000,-666.185348,9030.512492
3755.489366,-229.828649,-592.164754,9548.656652
3755.489681,-153.219100,-1036.288319,9622.677246
3755.489995,76.609550,-666.185348,10066.800811
3755.490310,-306.438199,-518.144159,10214.842000
3755.490624,-306.438199,444.123565,9548.656652
3755.490939,-689.485948,888.247130,9474.636058
3755.491254,0.000000,444.123565,9992.780217
3755.491568,153.219100,370.102971,9844.739029
3755.491883,306.438199,296.082377,9104.533087
3755.492198,689.485948,-74.020594,9326.594869
3755.492512,459.657299,-148.041188,9474.636058
3755.492827,229.828649,518.144159,9326.594869
3755.493141,0.000000,592.164754,8734.430116
3755.493456,-76.609550,444.123565,8882.471304
3755.493771,0.000000,222.061783,9252.574275
3755.494085,0.000000,-0.000000,9918.759623
3755.494400,-306.438199,-666.185348,9548.656652
3755.494715,-459.657299,-148.041188,9992.780217
3755.495029,-766.095498,-148.041188,10140.821405
3755.495344,-536.266849,370.102971,9770.718434
3755.495658,-229.828649,1184.329507,9844.739029
3755.495973,383.047749,666.185348,9622.677246
3755.496288,383.047749,888.247130,9474.636058
3755.496602,689.485948,962.267725,9474.636058
3755.496917,612.876398,1036.288319,9400.615463
3755.497232,689.485948,592.164754,9474.636058
3755.497546,766.095498,888.247130,9474.636058
3755.497861,766.095498,1332.370696,9252.574275
3755.498175,-76.609550,1110.308913,8660.409521
3755.498490,0.000000,518.144159,9548.656652
3755.498805,0.000000,-0.000000,10510.924376
3755.499119,-842.705048,-74.020594,9844.739029
3755.499434,-229.828649,-0.000000,10362.883188
3755.499748,-153.219100,-0.000000,10881.027347
3755.500063,0.000000,962.267725,10288.862594
3755.500378,536.266849,1332.370696,9918.759623
3755.500692,1532.190996,1258.350101,9548.656652
3755.501007,1072.533697,1554.432478,9992.780217
3755.501322,1455.581446,1702.473667,9178.553681
3755.501636,1302.362347,1406.391290,9400.615463
3755.501951,1378.971896,962.267725,9992.780217
3755.502265,612.876398,370.102971,10140.821405
3755.502580,612.876398,1036.288319,9696.697840
3755.502895,0.000000,888.247130,9622.677246
3755.503209,0.000000,518.144159,9548.656652
3755.503524,766.095498,-74.020594,9474.636058
3755.503839,-459.657299,-666.185348,9696.697840
3755.504153,-76.609550,-0.000000,10214.842000
3755.504468,-229.828649,-296.082377,9770.718434
3755.504782,0.000000,222.061783,10140.821405
3755.505097,0.000000,592.164754,10214.842000
3755.505412,153.219100,370.102971,9400.615463
3755.505726,229.828649,592.164754,9326.594869
3755.506041,536.266849,222.061783,9548.656652
3755.506356,842.705048,-222.061783,9474.636058
3755.506670,766.095498,-444.123565,9474.636058
3755.506985,0.000000,-222.061783,9474.636058
3755.507299,229.828649,-222.061783,9770.718434
3755.507614,-383.047749,-296.082377,9326.594869
3755.507929,-229.828649,-370.102971,9104.533087
3755.508243,-306.438199,-1332.370696,8882.471304
3755.508558,-536.266849,-1184.329507,9548.656652
3755.508873,-689.485948,-1480.411884,9548.656652
3755.509187,-612.876398,-1702.473667,9474.636058
3755.509502,-229.828649,-1406.391290,9992.780217
3755.509816,-306.438199,-888.247130,9622.677246
3755.510131,0.000000,-148.041188,9104.533087
3755.510446,0.000000,-0.000000,9030.512492
3755.510760,153.219100,-74.020594,9252.574275
3755.511075,536.266849,-148.041188,9474.636058
3755.511389,689.485948,-296.082377,9252.574275
3755.511704,306.438199,-740.205942,9104.533087
3755.512019,0.000000,-666.185348,9474.636058
3755.512333,0.000000,-74.020594,9696.697840
3755.512648,-536.266849,-0.000000,9474.636058
3755.512963,-689.485948,-444.123565,9474.636058
3755.513277,-229.828649,-740.205942,9474.636058
3755.513592,0.000000,-666.185348,9104.533087
3755.513906,0.000000,-740.205942,9030.512492
3755.514221,0.000000,-518.144159,9400.615463
3755.514536,-383.047749,-370.102971,9474.636058
3755.514850,-459.657299,-74.020594,9548.656652
3755.515165,0.000000,222.061783,9548.656652
3755.515480,76.609550,370.102971,9696.697840
3755.515794,76.609550,518.144159,9548.656652
3755.516109,0.000000,370.102971,9770.718434
3755.516423,459.657299,-0.000000,9844.739029
3755.516738,383.047749,-0.000000,9918.759623
3755.517053,76.609550,-74.020594,10066.800811
3755.517367,229.828649,222.061783,10066.800811
3755.517682,0.000000,444.123565,8882.471304
3755.517997,0.000000,592.164754,9474.636058
3755.518311,0.000000,740.205942,9474.636058
3755.518626,76.609550,296.082377,9696.697840
3755.518940,76.609550,-296.082377,9252.574275
3755.519255,383.047749,-444.123565,9770.718434
3755.519570,612.876398,666.185348,10066.800811
3755.519884,-153.219100,888.247130,9474.636058
3755.520199,0.000000,592.164754,9400.615463
3755.520513,76.609550,592.164754,10066.800811
3755.520828,383.047749,814.226536,9918.759623
3755.521143,536.266849,962.267725,9844.739029
3755.521457,1149.143247,1110.308913,9992.780217
3755.521772,995.924147,1480.411884,9992.780217
3755.522087,842.705048,1702.473667,9548.656652
3755.522401,689.485948,1110.308913,9178.553681
3755.522716,1225.752797,1332.370696,9400.615463
3755.523030,842.705048,666.185348,9474.636058
3755.523345,459.657299,370.102971,9696.697840
3755.523660,-153.219100,370.102971,9844.739029
3755.523974,153.219100,74.020594,10140.821405
3755.524289,-153.219100,370.102971,10066.800811
3755.524604,-383.047749,444.123565,10066.800811
3755.524918,-229.828649,1110.308913,9696.697840
3755.525233,0.000000,1332.370696,9474.636058
3755.525547,0.000000,814.226536,9622.677246
3755.525862,0.000000,592.164754,9770.718434
3755.526177,153.219100,444.123565,9844.739029
3755.526491,459.657299,518.144159,9844.739029
3755.526806,306.438199,888.247130,10214.842000
3755.527121,-153.219100,1406.391290,9326.594869
3755.527435,0.000000,1036.288319,8956.491898
3755.527750,76.609550,444.123565,9104.533087
3755.528064,-229.828649,-74.020594,9770.718434
3755.528379,-229.828649,-74.020594,9844.739029
3755.528694,-689.485948,-592.164754,9400.615463
3755.529008,-766.095498,-444.123565,9548.656652
3755.529323,-612.876398,-0.000000,9770.718434
3755.529638,-459.657299,370.102971,9030.512492
3755.529952,76.609550,-0.000000,9178.553681
3755.530267,536.266849,-0.000000,9030.512492
3755.530581,612.876398,-74.020594,9178.553681
3755.530896,383.047749,-0.000000,9326.594869
3755.531211,306.438199,-0.000000,9474.636058
3755.531525,459.657299,-518.144159,9770.718434
3755.531840,229.828649,-0.000000,9548.656652
3755.532154,229.828649,370.102971,9252.574275
3755.532469,459.657299,-0.000000,8956.491898
3755.532784,76.609550,-296.082377,9696.697840
3755.533098,-229.828649,-518.144159,9918.759623
3755.533413,0.000000,-740.205942,9474.636058
3755.533728,76.609550,-740.205942,9918.759623
3755.534042,0.000000,-888.247130,10140.821405
3755.534357,0.000000,-592.164754,9770.718434
3755.534671,153.219100,-74.020594,9178.553681
3755.534986,306.438199,-740.205942,9252.574275
3755.535301,689.485948,-296.082377,9252.574275
3755.535615,383.047749,-74.020594,9474.636058
3755.535930,689.485948,-0.000000,9474.636058
3755.536245,383.047749,-518.144159,9474.636058
3755.536559,153.219100,-222.061783,9030.512492
3755.536874,0.000000,-222.061783,9622.677246
3755.537188,-306.438199,-222.061783,9474.636058
3755.537503,0.000000,-370.102971,9622.677246
3755.537818,-459.657299,-666.185348,9844.739029
3755.538132,-459.657299,-666.185348,10140.821405
3755.538447,-306.438199,-1258.350101,10140.821405
3755.538762,0.000000,-1036.288319,10362.883188
3755.539076,76.609550,-518.144159,9918.759623
3755.539391,0.000000,-0.000000,9548.656652
3755.539705,229.828649,444.123565,8956.491898
3755.540020,689.485948,592.164754,9030.512492
3755.540335,842.705048,74.020594,9030.512492
3755.540649,766.095498,370.102971,8808.450710
3755.540964,383.047749,-0.000000,9104.533087
3755.541278,766.095498,-222.061783,9918.759623
3755.541593,306.438199,-222.061783,9844.739029
3755.541908,-306.438199,296.082377,9326.594869
3755.542222,-536.266849,296.082377,9696.697840
3755.542537,-689.485948,-0.000000,10140.821405
3755.542852,-995.924147,-148.041188,10436.903782
3755.543166,-612.876398,-74.020594,10140.821405
3755.543481,-383.047749,-222.061783,10214.842000
3755.543795,0.000000,296.082377,9992.780217
3755.544110,306.438199,962.267725,8882.471304
3755.544425,0.000000,1110.308913,9400.615463
3755.544739,0.000000,1036.288319,9104.533087
3755.545054,383.047749,740.205942,9400.615463
3755.545369,229.828649,814.226536,9104.533087
3755.545683,306.438199,296.082377,9400.615463
3755.545998,229.828649,-0.000000,9992.780217
3755.546312,-229.828649,370.102971,10362.883188
3755.546627,-842.705048,740.205942,10214.842000
3755.546942,-919.314598,1110.308913,9844.739029
3755.547256,0.000000,518.144159,9770.718434
3755.547571,536.266849,296.082377,10214.842000
3755.547886,0.000000,666.185348,9844.739029
3755.548200,153.219100,740.205942,9918.759623
3755.548515,459.657299,962.267725,9696.697840
3755.548829,536.266849,1332.370696,9252.574275
3755.549144,383.047749,1702.473667,9104.533087
3755.549459,459.657299,1480.411884,8956.491898
3755.549773,153.219100,666.185348,9474.636058
3755.550088,0.000000,-0.000000,9622.677246
3755.550402,-383.047749,-0.000000,9992.780217
3755.550717,-459.657299,-0.000000,10362.883188
3755.551032,-383.047749,-296.082377,10732.986159
3755.551346,-842.705048,-0.000000,10066.800811
3755.551661,-459.657299,518.144159,9918.759623
3755.551976,153.219100,222.061783,9474.636058
3755.552290,229.828649,518.144159,9622.677246
3755.552605,689.485948,888.247130,9326.594869
3755.552919,459.657299,370.102971,9400.615463
3755.553234,1225.752797,296.082377,9474.636058
3755.553549,1532.190996,-0.000000,9770.718434
3755.553863,1225.752797,518.144159,8882.471304
3755.554178,612.876398,296.082377,9178.553681
3755.554493,229.828649,518.144159,9400.615463
3755.554807,229.828649,222.061783,9326.594869
3755.555122,0.000000,-222.061783,9992.780217
3755.555436,-306.438199,-962.267725,10288.862594
3755.555751,0.000000,-962.267725,10732.986159
3755.556066,-306.438199,-518.144159,10214.842000
3755.556380,-536.266849,-148.041188,9992.780217
3755.556695,153.219100,-0.000000,10066.800811
3755.557010,536.266849,370.102971,9770.718434
3755.557324,1072.533697,518.144159,9548.656652
3755.557639,995.924147,-0.000000,9474.636058
3755.557953,1225.752797,518.144159,8882.471304
3755.558268,919.314598,-0.000000,9178.553681
3755.558583,689.485948,-0.000000,8956.491898
3755.558897,76.609550,-370.102971,9252.574275
3755.559212,-306.438199,-666.185348,9030.512492
3755.559526,153.219100,-1036.288319,9400.615463
3755.559841,-306.438199,-1406.391290,9548.656652
3755.560155,-536.266849,-1554.432478,9548.656652
3755.560470,-689.485948,-1110.308913,9770.718434
3755.560784,-1149.143247,-1258.350101,9770.718434
3755.561099,-766.095498,-1184.329507,9622.677246
3755.561414,0.000000,-148.041188,9104.533087
3755.561728,306.438199,-0.000000,9104.533087
3755.562043,383.047749,-74.020594,9400.615463
3755.562357,306.438199,-0.000000,9400.615463
3755.562672,536.266849,-296.082377,9252.574275
3755.562986,536.266849,-740.205942,9696.697840
3755.563301,229.828649,-74.020594,9844.739029
3755.563616,0.000000,-74.020594,9178.553681
3755.563930,-383.047749,-148.041188,8660.409521
3755.564245,-306.438199,-592.164754,9104.533087
3755.564559,-229.828649,-740.205942,9400.615463
3755.564874,-153.219100,-962.267725,9696.697840
3755.565188,-383.047749,-962.267725,9844.739029
3755.565503,-383.047749,-962.267725,9918.759623
3755.565817,0.000000,-296.082377,9622.677246
3755.566132,0.000000,444.123565,9326.594869
3755.566447,76.609550,592.164754,9474.636058
3755.566761,383.047749,962.267725,9030.512492
3755.567076,459.657299,814.226536,9178.553681
3755.567390,229.828649,518.144159,9400.615463
3755.567705,383.047749,592.164754,9622.677246
3755.568019,0.000000,222.061783,9696.697840
3755.568334,153.219100,962.267725,9844.739029
3755.568648,76.609550,1332.370696,9918.759623
3755.568963,-306.438199,1110.308913,9178.553681
3755.569278,0.000000,666.185348,9400.615463
3755.569592,-229.828649,666.185348,9622.677246
3755.569907,0.000000,370.102971,9548.656652
3755.570221,76.609550,296.082377,9770.718434
3755.570536,76.609550,370.102971,9918.759623
3755.570850,229.828649,888.247130,9770.718434
3755.571165,0.000000,1258.350101,9252.574275
3755.571479,0.000000,1332.370696,9844.739029
3755.571794,459.657299,1184.329507,9548.656652
3755.572109,612.876398,1036.288319,9770.718434
3755.572423,766.095498,888.247130,9992.780217
3755.572738,766.095498,592.164754,9918.759623
3755.573052,536.266849,666.185348,10732.986159
3755.573367,76.609550,962.267725,9770.718434
3755.573681,76.609550,1332.370696,9918.759623
3755.573996,459.657299,962.267725,9992.780217
3755.574311,153.219100,518.144159,9696.697840
3755.574625,383.047749,-0.000000,9548.656652
3755.574940,766.095498,518.144159,9474.636058
3755.575254,459.657299,-0.000000,9770.718434
3755.575569,766.095498,518.144159,10140.821405
3755.575883,459.657299,666.185348,9474.636058
3755.576198,383.047749,740.205942,9474.636058
3755.576512,306.438199,222.061783,9474.636058
3755.576827,536.266849,-74.020594,9622.677246
3755.577142,153.219100,-0.000000,10140.821405
3755.577456,76.609550,-148.041188,10362.883188
3755.577771,-306.438199,222.061783,10510.924376
3755.578085,-306.438199,518.144159,10140.821405
3755.578400,76.609550,740.205942,9844.739029
3755.578714,306.438199,740.205942,9178.553681
3755.579029,76.609550,-0.000000,9400.615463
3755.579343,0.000000,-0.000000,9548.656652
3755.579658,0.000000,-0.000000,9104.533087
3755.579973,76.609550,-222.061783,9104.533087
3755.580287,0.000000,-148.041188,9696.697840
3755.580602,76.609550,-74.020594,9104.533087
3755.580916,-536.266849,-222.061783,9030.512492
3755.581231,-612.876398,-518.144159,8956.491898
3755.581545,-612.876398,-1036.288319,9992.780217
3755.581860,-306.438199,-962.267725,9474.636058
3755.582174,-536.266849,-1036.288319,9400.615463
3755.582489,0.000000,-592.164754,9474.636058
3755.582804,0.000000,-296.082377,9548.656652
3755.583118,76.609550,-222.061783,9326.594869
3755.583433,306.438199,296.082377,8734.430116
3755.583747,459.657299,-0.000000,9178.553681
3755.584062,536.266849,-592.164754,8956.491898
3755.584376,306.438199,-74.020594,8808.450710
3755.584691,306.438199,-444.123565,9844.739029
3755.585006,76.609550,-1628.453072,9622.677246
3755.585320,-229.828649,-962.267725,9844.739029
3755.585635,-306.438199,-1110.308913,9844.739029
3755.585949,-689.485948,-666.185348,9178.553681
3755.586264,-383.047749,-592.164754,9844.739029
3755.586578,0.000000,-592.164754,9548.656652
3755.586893,153.219100,-666.185348,9770.718434
3755.587207,-229.828649,-1110.308913,10066.800811
3755.587522,229.828649,-592.164754,9770.718434
3755.587837,383.047749,-222.061783,9918.759623
3755.588151,229.828649,444.123565,9622.677246
3755.588466,1225.752797,296.082377,9474.636058
3755.588780,995.924147,148.041188,9622.677246
3755.589095,459.657299,148.041188,9622.677246
3755.589409,612.876398,370.102971,9770.718434
3755.589724,459.657299,148.041188,9548.656652
3755.590038,229.828649,-0.000000,9622.677246
3755.590353,383.047749,-148.041188,9992.780217
3755.590668,0.000000,-0.000000,9400.615463
3755.590982,76.609550,444.123565,9474.636058
3755.591297,76.609550,222.061783,9326.594869
3755.591611,229.828649,-74.020594,9696.697840
3755.591926,459.657299,-0.000000,9400.615463
3755.592240,76.609550,-148.041188,9844.739029
3755.592555,229.828649,-0.000000,9474.636058
3755.592869,229.828649,962.267725,9696.697840
3755.593184,383.047749,1258.350101,8882.471304
3755.593499,76.609550,814.226536,9474.636058
3755.593813,459.657299,1184.329507,9326.594869
3755.594128,306.438199,962.267725,8882.471304
3755.594442,536.266849,666.185348,9622.677246
3755.594757,306.438199,592.164754,9770.718434
3755.595071,536.266849,740.205942,9622.677246
3755.595386,0.000000,888.247130,9622.677246
3755.595701,-766.095498,592.164754,9770.718434
3755.596015,-383.047749,222.061783,9696.697840
3755.596330,-383.047749,-0.000000,10140.821405
3755.596644,-536.266849,-0.000000,10066.800811
3755.596959,76.609550,296.082377,10288.862594
3755.597273,153.219100,814.226536,10658.965565
3755.597588,0.000000,1332.370696,9918.759623
3755.597902,0.000000,1924.535449,9548.656652
3755.598217,766.095498,1480.411884,9178.553681
3755.598532,383.047749,1258.350101,9104.533087
3755.598846,459.657299,666.185348,9770.718434
3755.599161,306.438199,592.164754,9992.780217
3755.599475,-76.609550,592.164754,9474.636058
3755.599790,536.266849,444.123565,10436.903782
3755.600104,-306.438199,888.247130,9622.677246
3755.600419,-612.876398,962.267725,9696.697840
3755.600733,-383.047749,592.164754,8956.491898
3755.601048,-153.219100,370.102971,9622.677246
3755.601363,-306.438199,-0.000000,10140.821405
3755.601677,-612.876398,-222.061783,10214.842000
3755.601992,-383.047749,-0.000000,9918.759623
3755.602306,-306.438199,-74.020594,10436.903782
3755.602621,0.000000,592.164754,9696.697840
3755.602935,383.047749,740.205942,9548.656652
3755.603250,689.485948,1036.288319,9178.553681
3755.603564,459.657299,148.041188,9696.697840
3755.603879,612.876398,-148.041188,9252.574275
3755.604194,689.485948,-222.061783,9400.615463
3755.604508,536.266849,-592.164754,8956.491898
3755.604823,306.438199,-666.185348,9252.574275
3755.605137,-306.438199,-370.102971,9030.512492
3755.605452,-153.219100,-518.144159,8882.471304
3755.605766,0.000000,-888.247130,9178.553681
3755.606081,-153.219100,-1036.288319,9548.656652
3755.606396,0.000000,-1110.308913,9918.759623
3755.606710,0.000000,-888.247130,9770.718434
3755.607025,0.000000,-1036.288319,9770.718434
3755.607339,-153.219100,-1036.288319,9770.718434
3755.607654,153.219100,-370.102971,9622.677246
3755.607968,459.657299,-0.000000,8882.471304
3755.608283,766.095498,-370.102971,9104.533087
3755.608597,842.705048,-0.000000,8956.491898
3755.608912,842.705048,-148.041188,8882.471304
3755.609227,919.314598,-666.185348,9252.574275
3755.609541,766.095498,-814.226536,9622.677246
3755.609856,229.828649,-666.185348,9622.677246
3755.610170,-383.047749,-592.164754,8882.471304
3755.610485,0.000000,-1110.308913,8808.450710
3755.610799,-306.438199,-740.205942,9474.636058
3755.611114,153.219100,-1258.350101,9622.677246
3755.611428,-383.047749,-1184.329507,9844.739029
3755.611743,0.000000,-1036.288319,9770.718434
3755.612058,0.000000,-666.185348,9918.759623
3755.612372,76.609550,-0.000000,9622.677246
3755.612687,229.828649,148.041188,9622.677246
3755.613001,536.266849,370.102971,9178.553681
3755.613316,1149.143247,370.102971,9326.594869
3755.613630,919.314598,592.164754,9104.533087
3755.613945,1149.143247,-0.000000,9474.636058
3755.614259,1149.143247,518.144159,9918.759623
3755.614574,383.047749,518.144159,9178.553681
3755.614889,-306.438199,888.247130,9104.533087
3755.615203,-383.047749,518.144159,8734.430116
3755.615518,-919.314598,-74.020594,9474.636058
3755.615832,-995.924147,-518.144159,9474.636058
3755.616147,-995.924147,-740.205942,9992.780217
3755.616461,-995.924147,-518.144159,10066.800811
3755.616776,-229.828649,-296.082377,9918.759623
3755.617091,-306.438199,518.144159,9696.697840
3755.617405,0.000000,888.247130,9474.636058
3755.617720,0.000000,1628.453072,9178.553681
3755.618034,919.314598,1258.350101,9030.512492
3755.618349,995.924147,1702.473667,9474.636058
3755.618663,1149.143247,1258.350101,9326.594869
3755.618978,536.266849,1258.350101,9178.553681
3755.619292,459.657299,814.226536,9622.677246
3755.619607,-383.047749,1184.329507,10066.800811
3755.619922,-689.485948,1036.288319,9770.718434
3755.620236,-612.876398,666.185348,9844.739029
3755.620551,-1072.533697,-0.000000,10288.862594
3755.620865,-1149.143247,-0.000000,10584.944971
3755.621180,-1225.752797,370.102971,10510.924376
3755.621494,-689.485948,444.123565,10658.965565
3755.621809,-229.828649,962.267725,10658.965565
3755.622123,0.000000,1850.514855,10288.862594
3755.622438,995.924147,2590.720797,9474.636058
3755.622753,1302.362347,2516.700203,8956.491898
3755.623067,1302.362347,1924.535449,9474.636058
3755.623382,919.314598,1702.473667,8956.491898
3755.623696,536.266849,740.205942,9770.718434
3755.624011,383.047749,444.123565,10362.883188
3755.624325,-153.219100,222.061783,10066.800811
3755.624640,-383.047749,740.205942,10066.800811
3755.624954,-459.657299,-74.020594,9844.739029
3755.625269,0.000000,-296.082377,10140.821405
3755.625584,0.000000,-222.061783,10214.842000
3755.625898,0.000000,-0.000000,9696.697840
3755.626213,306.438199,-0.000000,9844.739029
3755.626527,1532.190996,222.061783,9326.594869
3755.626842,1072.533697,814.226536,9178.553681
3755.627156,1072.533697,1036.288319,9178.553681
3755.627471,1149.143247,740.205942,8734.430116
3755.627786,919.314598,444.123565,8808.450710
3755.628100,612.876398,-148.041188,9326.594869
3755.628415,459.657299,-666.185348,9622.677246
3755.628729,306.438199,-888.247130,9326.594869
3755.629044,153.219100,-1184.329507,9918.759623
3755.629358,0.000000,-518.144159,9474.636058
3755.629673,-153.219100,-444.123565,9400.615463
3755.629987,0.000000,-370.102971,8364.327145
3755.630302,0.000000,-740.205942,9252.574275
3755.630617,229.828649,-666.185348,9178.553681
3755.630931,0.000000,-888.247130,9474.636058
3755.631246,995.924147,-1406.391290,9252.574275
3755.631560,536.266849,-1258.350101,9474.636058
3755.631875,-153.219100,-148.041188,9326.594869
3755.632189,0.000000,-0.000000,9178.553681
3755.632504,0.000000,-370.102971,9474.636058
3755.632818,536.266849,-740.205942,9844.739029
3755.633133,0.000000,-444.123565,9326.594869
3755.633448,-229.828649,-1184.329507,9474.636058
3755.633762,0.000000,-1036.288319,10140.821405
3755.634077,-689.485948,-814.226536,10066.800811
3755.634391,-689.485948,-814.226536,9326.594869
3755.634706,-689.485948,-888.247130,9400.615463
3755.635020,-383.047749,-1036.288319,9252.574275
3755.635335,0.000000,-592.164754,9326.594869
3755.635649,0.000000,-592.164754,9252.574275
3755.635964,0.000000,-592.164754,9474.636058
3755.636279,0.000000,-518.144159,9622.677246
3755.636593,-383.047749,-444.123565,9474.636058
3755.636908,-229.828649,-0.000000,9474.636058
3755.637222,-229.828649,-0.000000,9326.594869
3755.637537,459.657299,-74.020594,9622.677246
3755.637851,153.219100,-148.041188,9400.615463
3755.638166,-306.438199,-0.000000,9474.636058
3755.638481,0.000000,-518.144159,9770.718434
3755.638795,0.000000,-666.185348,9844.739029
3755.639110,-153.219100,-0.000000,10214.842000
3755.639424,0.000000,814.226536,9252.574275
3755.639739,306.438199,888.247130,8364.327145
3755.640053,612.876398,666.185348,9326.594869
3755.640368,1149.143247,740.205942,9178.553681
3755.640682,766.095498,222.061783,9326.594869
3755.640997,842.705048,370.102971,9326.594869
3755.641312,383.047749,296.082377,9992.780217
3755.641626,229.828649,1036.288319,9770.718434
3755.641941,0.000000,888.247130,9696.697840
3755.642255,-766.095498,592.164754,10214.842000
3755.642570,-229.828649,444.123565,10732.986159
3755.642884,-306.438199,740.205942,10066.800811
3755.643199,0.000000,740.205942,10214.842000
3755.643513,383.047749,888.247130,10066.800811
3755.643828,536.266849,1258.350101,10066.800811
3755.644143,536.266849,1702.473667,9252.574275
3755.644457,919.314598,1554.432478,9104.533087
3755.644772,689.485948,1554.432478,9474.636058
3755.645086,536.266849,1184.329507,9548.656652
3755.645401,689.485948,888.247130,9622.677246
3755.645715,459.657299,740.205942,9252.574275
3755.646030,229.828649,222.061783,10658.965565
3755.646344,0.000000,592.164754,10288.862594
3755.646659,-766.095498,666.185348,10584.944971
3755.646974,-612.876398,888.247130,10066.800811
3755.647288,-306.438199,962.267725,10288.862594
3755.647603,0.000000,888.247130,10214.842000
3755.647917,153.219100,666.185348,9918.759623
3755.648232,1225.752797,740.205942,9770.718434
3755.648546,842.705048,666.185348,9474.636058
3755.648861,536.266849,1480.411884,9178.553681
3755.649176,1149.143247,1554.432478,9252.574275
3755.649490,842.705048,962.267725,8734.430116
3755.649805,842.705048,518.144159,9104.533087
3755.650119,229.828649,222.061783,9474.636058
3755.650434,76.609550,-370.102971,9696.697840
3755.650748,0.000000,-666.185348,9918.759623
3755.651063,-689.485948,-296.082377,9918.759623
3755.651377,-306.438199,-0.000000,9548.656652
3755.651692,-306.438199,-0.000000,9252.574275
3755.652007,-306.438199,-0.000000,9474.636058
3755.652321,76.609550,148.041188,9696.697840
3755.652636,0.000000,-296.082377,9548.656652
3755.652950,459.657299,-148.041188,9844.739029
3755.653265,383.047749,-0.000000,9474.636058
3755.653579,612.876398,222.061783,9696.697840
3755.653894,459.657299,222.061783,8956.491898
3755.654208,229.828649,148.041188,8808.450710
3755.654523,536.266849,148.041188,9326.594869
3755.654838,153.219100,-148.041188,9252.574275
3755.655152,-383.047749,-222.061783,9474.636058
3755.655467,-459.657299,-962.267725,9548.656652
3755.655781,-766.095498,-1258.350101,9770.718434
3755.656096,-766.095498,-1702.473667,9918.759623
3755.656410,-1072.533697,-1332.370696,9696.697840
3755.656725,-1072.533697,-1258.350101,9992.780217
3755.657039,-612.876398,-1184.329507,9844.739029
3755.657354,-229.828649,-740.205942,9474.636058
3755.657669,-306.438199,-444.123565,9474.636058
3755.657983,459.657299,222.061783,9252.574275
3755.658298,612.876398,-74.020594,9622.677246
3755.658612,612.876398,148.041188,9474.636058
3755.658927,689.485948,518.144159,9178.553681
3755.659241,536.266849,296.082377,8882.471304
3755.659556,229.828649,-296.082377,9474.636058
3755.659871,76.609550,-1036.288319,9918.759623
3755.660185,-383.047749,-1406.391290,9918.759623
3755.660500,-766.095498,-1702.473667,9770.718434
3755.660815,-842.705048,-1036.288319,10362.883188
3755.661129,-842.705048,-888.247130,10214.842000
3755.661444,-612.876398,-74.020594,9770.718434
3755.661759,-306.438199,-0.000000,9474.636058
3755.662073,76.609550,-148.041188,9548.656652
3755.662388,229.828649,-148.041188,9326.594869
3755.662703,766.095498,-370.102971,9030.512492
3755.663017,919.314598,-0.000000,9548.656652
3755.663332,1149.143247,888.247130,9400.615463
3755.663647,689.485948,1110.308913,8808.450710
3755.663961,689.485948,888.247130,8512.368333
3755.664276,689.485948,-74.020594,9474.636058
3755.664591,76.609550,-296.082377,9474.636058
3755.664905,-153.219100,-0.000000,9918.759623
3755.665220,-306.438199,-296.082377,10066.800811
3755.665535,0.000000,-518.144159,10510.924376
3755.665849,-153.219100,-0.000000,9992.780217
3755.666164,0.000000,444.123565,9696.697840
3755.666479,0.000000,518.144159,8956.491898
3755.666793,306.438199,592.164754,9326.594869
3755.667108,689.485948,962.267725,9326.594869
3755.667423,459.657299,592.164754,9474.636058
3755.667737,842.705048,962.267725,9474.636058
3755.668052,689.485948,1036.288319,9770.718434
3755.668367,76.609550,1406.391290,9474.636058
3755.668681,-76.609550,1628.453072,9474.636058
3755.668996,76.609550,1480.411884,9474.636058
3755.669311,229.828649,888.247130,9770.718434
3755.669625,229.828649,666.185348,9844.739029
3755.669940,153.219100,740.205942,10140.821405
3755.670255,-229.828649,740.205942,10066.800811
3755.670569,-459.657299,296.082377,10288.862594
3755.670884,-689.485948,888.247130,10214.842000
3755.671199,-229.828649,1110.308913,9400.615463
3755.671513,306.438199,814.226536,9178.553681
3755.671828,995.924147,888.247130,9696.697840
3755.672143,842.705048,740.205942,9770.718434
3755.672457,383.047749,518.144159,9992.780217
3755.672772,536.266849,888.247130,10362.883188
3755.673087,383.047749,1554.432478,10066.800811
3755.673401,306.438199,1850.514855,9474.636058
3755.673716,459.657299,1332.370696,9696.697840
3755.674031,76.609550,962.267725,9844.739029
3755.674345,0.000000,222.061783,9918.759623
3755.674660,0.000000,-0.000000,9770.718434
3755.674975,0.000000,-0.000000,9992.780217
3755.675289,-536.266849,-0.000000,10066.800811
3755.675604,-153.219100,222.061783,10066.800811
3755.675919,-229.828649,222.061783,9252.574275
3755.676233,0.000000,-0.000000,9474.636058
3755.676548,229.828649,444.123565,9770.718434
3755.676863,229.828649,370.102971,9400.615463
3755.677177,536.266849,-0.000000,9474.636058
3755.677492,306.438199,-296.082377,9326.594869
3755.677806,383.047749,-518.144159,9548.656652
3755.678121,383.047749,-666.185348,9474.636058
3755.678436,0.000000,-0.000000,9252.574275
3755.678750,0.000000,-0.000000,9178.553681
3755.679065,0.000000,-222.061783,8808.450710
3755.679380,-306.438199,-370.102971,8882.471304
3755.679694,306.438199,-1184.329507,9252.574275
3755.680009,229.828649,-1184.329507,9474.636058
3755.680324,153.219100,-962.267725,9696.697840
3755.680638,0.000000,-592.164754,9326.594869
3755.680953,-229.828649,-370.102971,9326.594869
3755.681268,76.609550,-148.041188,9474.636058
3755.681582,383.047749,-370.102971,9252.574275
3755.681897,459.657299,-518.144159,9252.574275
3755.682212,766.095498,-518.144159,9326.594869
3755.682526,689.485948,-962.267725,9474.636058
3755.682841,612.876398,-222.061783,9474.636058
3755.683156,153.219100,-74.020594,9622.677246
3755.683470,0.000000,-370.102971,9030.512492
3755.683785,0.000000,-74.020594,8956.491898
3755.684100,0.000000,-592.164754,9548.656652
3755.684414,-229.828649,-888.247130,9696.697840
3755.684729,0.000000,-962.267725,9918.759623
3755.685044,-459.657299,-962.267725,10140.821405
3755.685358,-383.047749,-222.061783,9696.697840
3755.685673,-536.266849,-296.082377,9474.636058
3755.685988,0.000000,222.061783,9622.677246
3755.686302,612.876398,-0.000000,9770.718434
3755.686617,306.438199,444.123565,9474.636058
3755.686932,306.438199,-0.000000,9030.512492
3755.687246,0.000000,-0.000000,9622.677246
3755.687561,0.000000,148.041188,9992.780217
3755.687876,0.000000,148.041188,9770.718434
3755.688190,-383.047749,444.123565,9252.574275
3755.688505,-612.876398,-0.000000,9474.636058
3755.688820,-612.876398,-0.000000,9992.780217
3755.689134,-536.266849,-0.000000,10140.821405
3755.689449,-229.828649,-0.000000,10214.842000
3755.689764,0.000000,-148.041188,9992.780217
3755.690078,0.000000,148.041188,9844.739029
3755.690393,459.657299,222.061783,9696.697840
3755.690708,459.657299,888.247130,9178.553681
3755.691022,689.485948,1036.288319,9400.615463
3755.691337,689.485948,1110.308913,9326.594869
3755.691652,612.876398,1258.350101,9104.533087
3755.691966,229.828649,740.205942,9252.574275
3755.692281,459.657299,-0.000000,9918.759623
3755.692596,0.000000,370.102971,9696.697840
3755.692910,0.000000,370.102971,9696.697840
3755.693225,0.000000,666.185348,9548.656652
3755.693540,-306.438199,592.164754,10066.800811
3755.693854,0.000000,666.185348,9474.636058
3755.694169,-153.219100,444.123565,9548.656652
3755.694484,-153.219100,592.164754,9474.636058
3755.694798,306.438199,296.082377,9992.780217
3755.695113,76.609550,962.267725,10140.821405
3755.695428,0.000000,1110.308913,9622.677246
3755.695742,0.000000,1036.288319,9696.697840
3755.696057,306.438199,1332.370696,9474.636058
3755.696371,383.047749,444.123565,9622.677246
3755.696686,229.828649,666.185348,9918.759623
3755.697001,459.657299,222.061783,9992.780217
3755.697315,229.828649,222.061783,9770.718434
3755.697630,229.828649,666.185348,9104.533087
3755.697945,153.219100,592.164754,9474.636058
3755.698259,0.000000,444.123565,9178.553681
3755.698574,0.000000,222.061783,9844.739029
3755.698889,-153.219100,-0.000000,10066.800811
3755.699203,-229.828649,-222.061783,9622.677246
3755.699518,229.828649,444.123565,10658.965565
3755.699833,0.000000,370.102971,10362.883188
3755.700147,306.438199,740.205942,9474.636058
3755.700462,383.047749,1036.288319,8956.491898
3755.700777,995.924147,814.226536,8882.471304
3755.701091,1149.143247,1184.329507,9400.615463
3755.701406,689.485948,148.041188,9326.594869
3755.701721,459.657299,74.020594,9400.615463
3755.702035,306.438199,-518.144159,9844.739029
3755.702350,-229.828649,-296.082377,9844.739029
3755.702665,-383.047749,-0.000000,9474.636058
3755.702979,-306.438199,-0.000000,9548.656652
3755.703294,-459.657299,-518.144159,10362.883188
3755.703609,-536.266849,-592.164754,10066.800811
3755.703923,229.828649,-666.185348,10288.862594
3755.704238,612.876398,-518.144159,9918.759623
3755.704553,1072.533697,-148.041188,9844.739029
3755.704867,919.314598,370.102971,9252.574275
3755.705182,842.705048,1258.350101,8734.430116
3755.705497,612.876398,740.205942,8438.347739
3755.705811,842.705048,-0.000000,9104.533087
3755.706126,842.705048,-444.123565,9400.615463
3755.706441,229.828649,-666.185348,9622.677246
3755.706755,-536.266849,-1332.370696,10066.800811
3755.707070,-919.314598,-1406.391290,10658.965565
3755.707385,-1149.143247,-962.267725,10807.006753
3755.707699,-995.924147,-962.267725,9992.780217
3755.708014,-536.266849,-444.123565,10288.862594
3755.708329,-229.828649,-592.164754,9844.739029
3755.708643,-306.438199,-370.102971,9252.574275
3755.708958,229.828649,-370.102971,9178.553681
3755.709273,612.876398,-370.102971,9104.533087
3755.709587,1149.143247,-370.102971,9252.574275
3755.709902,842.705048,-0.000000,8216.285956
3755.710217,612.876398,592.164754,8290.306550
3755.710531,842.705048,-0.000000,8734.430116
3755.710846,229.828649,-0.000000,9104.533087
3755.711161,-383.047749,-518.144159,9104.533087
3755.711475,-383.047749,-1258.350101,9696.697840
3755.711790,-995.924147,-1036.288319,10140.821405
3755.712105,-1302.362347,-1036.288319,9992.780217
3755.712419,-1378.971896,-814.226536,9844.739029
3755.712734,-1915.238745,-370.102971,9770.718434
3755.713049,-766.095498,-222.061783,9844.739029
3755.713363,0.000000,-0.000000,9474.636058
3755.713678,153.219100,518.144159,9474.636058
3755.713992,306.438199,592.164754,9474.636058
3755.714307,1378.971896,518.144159,9696.697840
3755.714622,919.314598,1036.288319,8956.491898
3755.714936,459.657299,1406.391290,8882.471304
3755.715251,842.705048,1036.288319,9178.553681
3755.715566,842.705048,740.205942,9400.615463
3755.715880,306.438199,-370.102971,9252.574275
3755.716195,0.000000,-0.000000,9326.594869
3755.716510,-383.047749,-592.164754,9770.718434
3755.716824,-536.266849,-296.082377,10584.944971
3755.717139,-842.705048,148.041188,10066.800811
3755.717454,-766.095498,740.205942,9696.697840
3755.717768,0.000000,740.205942,9548.656652
3755.718083,383.047749,962.267725,9770.718434
3755.718398,612.876398,740.205942,10288.862594
3755.718712,919.314598,1406.391290,9770.718434
3755.719027,919.314598,1628.453072,10288.862594
3755.719342,1072.533697,2220.617826,9918.759623
3755.719656,1149.143247,2146.597232,9548.656652
3755.719971,995.924147,1702.473667,9474.636058
3755.720286,919.314598,888.247130,9622.677246
3755.720600,306.438199,666.185348,9548.656652
3755.720915,0.000000,518.144159,9770.718434
3755.721230,0.000000,370.102971,10140.821405
3755.721544,-229.828649,-148.041188,10510.924376
3755.721859,0.000000,-370.102971,10140.821405
3755.722174,-306.438199,-222.061783,9770.718434
3755.722488,-229.828649,444.123565,9400.615463
3755.722803,153.219100,370.102971,9696.697840
3755.723118,459.657299,666.185348,9622.677246
3755.723432,306.438199,888.247130,9474.636058
3755.723747,689.485948,592.164754,9844.739029
3755.724062,1072.533697,740.205942,10214.842000
3755.724376,919.314598,1036.288319,9844.739029
3755.724691,689.485948,1554.432478,9326.594869
3755.725006,536.266849,1110.308913,9622.677246
3755.725320,459.657299,666.185348,9918.759623
3755.725635,383.047749,222.061783,10288.862594
3755.725950,153.219100,-74.020594,9992.780217
3755.726264,0.000000,-592.164754,10140.821405
3755.726579,-306.438199,-740.205942,9992.780217
3755.726894,0.000000,-74.020594,8956.491898
3755.727208,76.609550,444.123565,8290.306550
3755.727523,0.000000,-222.061783,8882.471304
3755.727838,0.000000,-518.144159,9252.574275
3755.728152,383.047749,-1036.288319,8808.450710
3755.728467,153.219100,-370.102971,9104.533087
3755.728782,306.438199,-740.205942,9030.512492
3755.729096,229.828649,-370.102971,9770.718434
3755.729411,76.609550,-0.000000,9474.636058
3755.729726,-306.438199,-0.000000,9104.533087
3755.730040,-76.609550,-222.061783,9178.553681
3755.730355,0.000000,-0.000000,9622.677246
3755.730670,-306.438199,-0.000000,9474.636058
3755.730984,-153.219100,-666.185348,9474.636058
3755.731299,-612.876398,-888.247130,9770.718434
3755.731614,-459.657299,-740.205942,9548.656652
3755.731928,-536.266849,-222.061783,9400.615463
3755.732243,-689.485948,-148.041188,8660.409521
3755.732557,-612.876398,-592.164754,9178.553681
3755.732872,-383.047749,-888.247130,9474.636058
3755.733187,-536.266849,-444.123565,9474.636058
3755.733501,-306.438199,-888.247130,9474.636058
3755.733816,-229.828649,-814.226536,9696.697840
3755.734131,0.000000,-370.102971,9622.677246
3755.734445,-229.828649,-0.000000,8808.450710
3755.734760,383.047749,518.144159,8660.409521
3755.735075,842.705048,296.082377,9696.697840
3755.735389,383.047749,222.061783,9326.594869
3755.735704,459.657299,222.061783,9104.533087
3755.736019,689.485948,-222.061783,9474.636058
3755.736333,612.876398,-296.082377,9770.718434
3755.736648,229.828649,-74.020594,9770.718434
3755.736963,0.000000,-0.000000,9326.594869
3755.737277,459.657299,-296.082377,10510.924376
3755.737592,153.219100,-0.000000,10066.800811
3755.737907,0.000000,-0.000000,10140.821405
3755.738221,0.000000,296.082377,10214.842000
3755.738536,229.828649,-0.000000,10362.883188
3755.738851,229.828649,518.144159,10436.903782
3755.739165,0.000000,962.267725,9770.718434
3755.739480,689.485948,1702.473667,9474.636058
3755.739795,459.657299,962.267725,9474.636058
3755.740109,766.095498,592.164754,9992.780217
3755.740424,1149.143247,666.185348,9844.739029
3755.740739,766.095498,592.164754,9622.677246
3755.741053,612.876398,888.247130,10066.800811
3755.741368,153.219100,1036.288319,10140.821405
3755.741683,153.219100,1406.391290,9548.656652
3755.741997,-842.705048,740.205942,9844.739029
3755.742312,-306.438199,592.164754,9918.759623
3755.742627,-153.219100,-0.000000,10214.842000
3755.742941,76.609550,-0.000000,10140.821405
3755.743256,-383.047749,222.061783,10362.883188
3755.743571,76.609550,444.123565,10362.883188
3755.743885,76.609550,962.267725,9548.656652
3755.744200,459.657299,1406.391290,9104.533087
3755.744515,689.485948,1480.411884,8808.450710
3755.744829,1072.533697,888.247130,8956.491898
3755.745144,689.485948,1036.288319,9178.553681
3755.745459,612.876398,444.123565,9252.574275
3755.745773,306.438199,370.102971,9918.759623
3755.746088,-306.438199,-444.123565,10214.842000
3755.746403,-229.828649,148.041188,9474.636058
3755.746717,-459.657299,-0.000000,9326.594869
3755.747032,0.000000,-0.000000,9326.594869
3755.747347,-306.438199,-0.000000,9696.697840
3755.747661,-229.828649,148.041188,9770.718434
3755.747976,-229.828649,-74.020594,9474.636058
3755.748291,76.609550,-148.041188,9918.759623
3755.748605,306.438199,-222.061783,9844.739029
3755.748920,76.609550,444.123565,9400.615463
3755.749235,229.828649,1184.329507,9622.677246
3755.749549,306.438199,1184.329507,9474.636058
3755.749864,383.047749,814.226536,9326.594869
3755.750179,459.657299,148.041188,9104.533087
3755.750493,689.485948,-296.082377,9548.656652
3755.750808,153.219100,-666.185348,10066.800811
3755.751122,-459.657299,-370.102971,9844.739029
3755.751437,-995.924147,-296.082377,9696.697840
3755.751752,-766.095498,-222.061783,9326.594869
3755.752066,-536.266849,-666.185348,9622.677246
3755.752381,306.438199,-888.247130,9918.759623
3755.752696,-306.438199,-962.267725,9548.656652
3755.753010,76.609550,-592.164754,9548.656652
3755.753325,459.657299,-296.082377,9992.780217
3755.753640,306.438199,592.164754,9474.636058
3755.753954,383.047749,518.144159,9178.553681
3755.754269,612.876398,518.144159,8512.368333
3755.754584,842.705048,296.082377,9104.533087
3755.754898,459.657299,-0.000000,9326.594869
3755.755213,229.828649,-296.082377,9622.677246
3755.755528,-842.705048,-1184.329507,10066.800811
3755.755842,-229.828649,-814.226536,10066.800811
3755.756157,-459.657299,-814.226536,9992.780217
3755.756472,-306.438199,-592.164754,9178.553681
3755.756786,76.609550,-592.164754,9474.636058
3755.757101,153.219100,-222.061783,9474.636058
3755.757416,0.000000,-592.164754,9474.636058
3755.757730,383.047749,-222.061783,9400.615463
3755.758045,536.266849,-296.082377,9918.759623
3755.758360,689.485948,-148.041188,9548.656652
3755.758674,612.876398,296.082377,9326.594869
3755.758989,306.438199,666.185348,9104.533087
3755.759304,536.266849,296.082377,9326.594869
3755.759618,383.047749,222.061783,9770.718434
3755.759938,536.266849,74.020594,9918.759623
3755.760252,229.828649,-444.123565,10066.800811
3755.760567,306.438199,-74.020594,9918.759623
3755.760882,153.219100,222.061783,10436.903782
3755.761196,-229.828649,888.247130,9992.780217
3755.761511,0.000000,444.123565,9474.636058
3755.761826,919.314598,666.185348,9326.594869
3755.762141,536.266849,518.144159,9104.533087
3755.762455,153.219100,296.082377,9474.636058
3755.762770,306.438199,-0.000000,9548.656652
3755.763085,-306.438199,-0.000000,9844.739029
3755.763399,0.000000,740.205942,9622.677246
3755.763714,0.000000,740.205942,9474.636058
3755.764029,0.000000,518.144159,9474.636058
3755.764343,76.609550,370.102971,9622.677246
3755.764658,0.000000,592.164754,10288.862594
3755.764973,0.000000,666.185348,9622.677246
3755.765287,229.828649,962.267725,9178.553681
3755.765602,76.609550,740.205942,9622.677246
3755.765917,229.828649,962.267725,9326.594869
3755.766231,306.438199,1406.391290,8882.471304
3755.766546,229.828649,1110.308913,8882.471304
3755.766861,229.828649,592.164754,9992.780217
3755.767175,0.000000,296.082377,9844.739029
3755.767490,-459.657299,-0.000000,9696.697840
3755.767805,-766.095498,-148.041188,10807.006753
3755.768119,-766.095498,-0.000000,10436.903782
3755.768434,-842.705048,148.041188,10436.903782
3755.768749,-689.485948,962.267725,9770.718434
3755.769063,0.000000,814.226536,9770.718434
3755.769378,0.000000,370.102971,10288.862594
3755.769693,229.828649,592.164754,9400.615463
3755.770007,689.485948,814.226536,9622.677246
3755.770322,459.657299,814.226536,9548.656652
3755.770637,153.219100,814.226536,9474.636058
3755.770952,0.000000,592.164754,9178.553681
3755.771266,153.219100,888.247130,9178.553681
3755.771581,0.000000,666.185348,9474.636058
3755.771896,0.000000,222.061783,10140.821405
3755.772210,-919.314598,-148.041188,10214.842000
3755.772525,-689.485948,-222.061783,9918.759623
3755.772840,-306.438199,-444.123565,10362.883188
3755.773154,-459.657299,-296.082377,10436.903782
3755.773469,0.000000,-0.000000,9992.780217
3755.773784,153.219100,592.164754,9326.594869
3755.774098,229.828649,740.205942,8882.471304
3755.774413,919.314598,740.205942,8660.409521
3755.774728,1225.752797,444.123565,8512.368333
3755.775042,1302.362347,148.041188,8734.430116
3755.775357,1072.533697,-74.020594,9474.636058
3755.775672,536.266849,-370.102971,9474.636058
3755.775986,76.609550,-296.082377,9178.553681
3755.776301,0.000000,-666.185348,9400.615463
3755.776616,-229.828649,-592.164754,9696.697840
3755.776930,-306.438199,-1110.308913,10066.800811
3755.777245,-76.609550,-1332.370696,9770.718434
3755.777560,76.609550,-1480.411884,10510.924376
3755.777874,153.219100,-222.061783,9770.718434
3755.778189,153.219100,-0.000000,9252.574275
3755.778504,306.438199,-0.000000,9326.594869
3755.778818,842.705048,-370.102971,9030.512492
3755.779133,919.314598,-296.082377,9104.533087
3755.779448,919.314598,-0.000000,9400.615463
3755.779763,383.047749,-148.041188,9474.636058
3755.780077,383.047749,-370.102971,9622.677246
3755.780392,306.438199,-0.000000,9474.636058
3755.780707,153.219100,-0.000000,9696.697840
3755.781021,-536.266849,-148.041188,9622.677246
3755.781336,0.000000,-370.102971,9992.780217
3755.781651,-306.438199,-962.267725,10288.862594
3755.781965,0.000000,-592.164754,10288.862594
3755.782280,0.000000,-444.123565,10140.821405
3755.782595,0.000000,-444.123565,10066.800811
3755.782909,459.657299,-148.041188,9992.780217
3755.783224,842.705048,592.164754,9696.697840
3755.783539,229.828649,518.144159,9252.574275
3755.783853,766.095498,370.102971,9400.615463
3755.784168,536.266849,592.164754,9400.615463
3755.784483,306.438199,518.144159,8956.491898
3755.784797,153.219100,-0.000000,9474.636058
3755.785112,0.000000,-296.082377,9474.636058
3755.785427,-306.438199,-222.061783,9474.636058
3755.785741,-536.266849,222.061783,9252.574275
3755.786056,-536.266849,-0.000000,9326.594869
3755.786371,-766.095498,-222.061783,9918.759623
3755.786685,-459.657299,-0.000000,9992.780217
3755.787000,-919.314598,148.041188,9844.739029
3755.787315,0.000000,-0.000000,10066.800811
3755.787629,-306.438199,296.082377,10436.903782
3755.787944,0.000000,1480.411884,9474.636058
3755.788259,0.000000,1406.391290,8882.471304
3755.788574,459.657299,1258.350101,8956.491898
3755.788888,842.705048,814.226536,9104.533087
3755.789203,229.828649,592.164754,9030.512492
3755.789518,612.876398,-0.000000,9326.594869
3755.789832,153.219100,-370.102971,9622.677246
3755.790147,0.000000,-0.000000,9770.718434
3755.790462,0.000000,518.144159,9326.594869
3755.790776,-459.657299,592.164754,9474.636058
3755.791091,-536.266849,148.041188,9622.677246
3755.791406,-383.047749,222.061783,9844.739029
3755.791720,-306.438199,592.164754,10066.800811
3755.792035,0.000000,666.185348,10214.842000
3755.792350,229.828649,666.185348,10066.800811
3755.792664,612.876398,666.185348,9992.780217
3755.792979,383.047749,1036.288319,9474.636058
3755.793294,689.485948,1332.370696,9400.615463
3755.793608,689.485948,814.226536,9548.656652
3755.793923,689.485948,1036.288319,9548.656652
3755.794238,536.266849,518.144159,10066.800811
3755.794552,383.047749,222.061783,9770.718434
3755.794867,229.828649,-74.020594,10214.842000
3755.795182,0.000000,370.102971,9844.739029
3755.795496,-459.657299,-74.020594,9992.780217
3755.795811,306.438199,-0.000000,9326.594869
3755.796126,229.828649,296.082377,9918.759623
3755.796440,306.438199,222.061783,9696.697840
3755.796755,536.266849,222.061783,9400.615463
3755.797070,689.485948,-74.020594,9104.533087
3755.797385,766.095498,222.061783,9400.615463
3755.797699,383.047749,814.226536,9178.553681
3755.798014,995.924147,814.226536,8956.491898
3755.798329,766.095498,-74.020594,9104.533087
3755.798643,153.219100,296.082377,9696.697840
3755.798958,229.828649,-0.000000,10140.821405
3755.799273,76.609550,-0.000000,9474.636058
3755.799587,0.000000,-370.102971,10140.821405
3755.799902,0.000000,-222.061783,10436.903782
3755.800217,-383.047749,296.082377,9326.594869
3755.800531,76.609550,-74.020594,8734.430116
3755.800846,383.047749,-296.082377,9326.594869
3755.801161,153.219100,-666.185348,9548.656652
3755.801475,383.047749,-296.082377,9548.656652
3755.801790,153.219100,-370.102971,9474.636058
3755.802105,459.657299,-370.102971,9474.636058
3755.802419,306.438199,-74.020594,9622.677246
3755.802734,76.609550,148.041188,9326.594869
3755.803049,76.609550,-74.020594,9252.574275
3755.803363,0.000000,-666.185348,9474.636058
3755.803678,0.000000,-814.226536,9400.615463
3755.803993,0.000000,-740.205942,10140.821405
3755.804307,-536.266849,-1258.350101,9992.780217
3755.804622,-383.047749,-814.226536,10066.800811
3755.804937,-459.657299,-518.144159,9844.739029
3755.805251,-536.266849,-0.000000,9400.615463
3755.805566,-459.657299,-0.000000,9104.533087
3755.805881,-306.438199,-222.061783,9696.697840
3755.806196,-612.876398,-444.123565,9548.656652
3755.806510,-689.485948,-888.247130,9622.677246
3755.806825,-229.828649,-1184.329507,9770.718434
3755.807140,-229.828649,-888.247130,10510.924376
3755.807454,-229.828649,518.144159,9326.594869
3755.807769,0.000000,-0.000000,8882.471304
3755.808084,0.000000,666.185348,9030.512492
3755.808398,0.000000,222.061783,9400.615463
3755.808713,459.657299,-74.020594,9400.615463
3755.809028,0.000000,-592.164754,9326.594869
3755.809342,-383.047749,-370.102971,9918.759623
3755.809657,0.000000,-0.000000,9548.656652
3755.809972,0.000000,296.082377,9104.533087
3755.810286,76.609550,740.205942,9474.636058
3755.810601,76.609550,222.061783,9252.574275
3755.810916,229.828649,296.082377,9326.594869
3755.811230,536.266849,444.123565,9252.574275
3755.811545,612.876398,444.123565,9252.574275
3755.811860,459.657299,444.123565,9918.759623
3755.812174,306.438199,444.123565,9696.697840
3755.812489,0.000000,592.164754,9844.739029
3755.812804,612.876398,666.185348,9104.533087
3755.813118,919.314598,592.164754,9400.615463
3755.813433,689.485948,740.205942,9622.677246
3755.813748,842.705048,814.226536,9548.656652
3755.814062,306.438199,740.205942,9622.677246
3755.814377,153.219100,518.144159,9770.718434
3755.814692,0.000000,814.226536,9844.739029
3755.815007,229.828649,1036.288319,9252.574275
3755.815321,153.219100,666.185348,9622.677246
3755.815636,383.047749,370.102971,10140.821405
3755.815951,153.219100,518.144159,10140.821405
3755.816265,229.828649,592.164754,10362.883188
3755.816580,153.219100,222.061783,10362.883188
3755.816895,536.266849,222.061783,10066.800811
3755.817209,383.047749,1110.308913,9474.636058
3755.817524,383.047749,1258.350101,9326.594869
3755.817839,76.609550,962.267725,9622.677246
3755.818153,306.438199,1480.411884,9622.677246
3755.818468,612.876398,222.061783,9696.697840
3755.818783,153.219100,-0.000000,9844.739029
3755.819097,153.219100,-0.000000,10362.883188
3755.819412,0.000000,518.144159,10288.862594
3755.819727,-383.047749,814.226536,9622.677246
3755.820041,-229.828649,1258.350101,9548.656652
3755.820356,0.000000,814.226536,9548.656652
3755.820671,383.047749,666.185348,9696.697840
3755.820985,153.219100,592.164754,10214.842000
3755.821300,306.438199,518.144159,9622.677246
3755.821615,612.876398,-0.000000,10214.842000
3755.821929,383.047749,1184.329507,9918.759623
3755.822244,383.047749,1850.514855,9178.553681
3755.822559,383.047749,962.267725,9474.636058
3755.822873,689.485948,592.164754,9474.636058
3755.823188,383.047749,370.102971,9548.656652
3755.823503,229.828649,-148.041188,9474.636058
3755.823818,-383.047749,-148.041188,9326.594869
3755.824132,0.000000,-444.123565,10140.821405
3755.824447,-383.047749,-148.041188,9696.697840
3755.824762,-612.876398,-370.102971,9104.533087
3755.825076,-153.219100,-296.082377,9326.594869
3755.825391,-306.438199,-1036.288319,9622.677246
3755.825706,-536.266849,-370.102971,9474.636058
3755.826020,-689.485948,-814.226536,9770.718434
3755.826335,-612.876398,-740.205942,9918.759623
3755.826650,-229.828649,-518.144159,10140.821405
3755.826964,-306.438199,-296.082377,9696.697840
3755.827279,-459.657299,-0.000000,9030.512492
3755.827594,153.219100,-370.102971,9252.574275
3755.827908,229.828649,-592.164754,9622.677246
3755.828223,0.000000,-814.226536,9326.594869
3755.828538,0.000000,-1184.329507,9844.739029
3755.828852,-229.828649,-1184.329507,9696.697840
3755.829167,153.219100,-1258.350101,9474.636058
3755.829482,0.000000,-1184.329507,9178.553681
3755.829796,0.000000,-814.226536,8734.430116
3755.830111,0.000000,-1110.308913,8882.471304
3755.830426,0.000000,-1036.288319,9400.615463
3755.830740,229.828649,-962.267725,9104.533087
3755.831055,536.266849,-1480.411884,9030.512492
3755.831370,766.095498,-1480.411884,9326.594869
3755.831684,995.924147,-444.123565,9474.636058
3755.831999,536.266849,296.082377,8882.471304
3755.832314,1608.800546,222.061783,8808.450710
3755.832629,919.314598,296.082377,9104.533087
3755.832943,1072.533697,592.164754,9178.553681
3755.833258,536.266849,296.082377,9548.656652
3755.833573,459.657299,-0.000000,9844.739029
3755.833887,459.657299,-370.102971,9474.636058
3755.834202,0.000000,-0.000000,9252.574275
3755.834517,76.609550,814.226536,9622.677246
3755.834831,-229.828649,518.144159,9326.594869
3755.835146,153.219100,222.061783,9918.759623
3755.835461,536.266849,296.082377,9844.739029
3755.835775,306.438199,-0.000000,9548.656652
3755.836090,536.266849,222.061783,9622.677246
3755.836405,0.000000,518.144159,9844.739029
3755.836719,76.609550,1184.329507,9992.780217
3755.837034,-229.828649,1036.288319,9178.553681
3755.837349,76.609550,1110.308913,9252.574275
3755.837663,306.438199,1036.288319,9548.656652
3755.837978,76.609550,1110.308913,9918.759623
3755.838293,0.000000,1110.308913,9992.780217
3755.838607,-612.876398,814.226536,10510.924376
3755.838922,0.000000,888.247130,10807.006753
3755.839237,-306.438199,962.267725,9918.759623
3755.839551,-383.047749,1406.391290,9992.780217
3755.839866,0.000000,592.164754,10140.821405
3755.840181,-229.828649,444.123565,9992.780217
3755.840495,-153.219100,1110.308913,10288.862594
3755.840810,0.000000,666.185348,9474.636058
3755.841125,0.000000,-0.000000,10362.883188
3755.841440,0.000000,666.185348,10140.821405
3755.841754,229.828649,814.226536,9696.697840
3755.842069,0.000000,666.185348,9178.553681
3755.842384,76.609550,740.205942,9696.697840
3755.842698,76.609550,814.226536,9918.759623
3755.843013,306.438199,666.185348,9770.718434
3755.843328,0.000000,-0.000000,9474.636058
3755.843642,383.047749,444.123565,9474.636058
3755.843957,0.000000,740.205942,9770.718434
3755.844272,76.609550,1184.329507,9696.697840
3755.844586,-459.657299,814.226536,8882.471304
3755.844901,0.000000,370.102971,9326.594869
3755.845216,-229.828649,444.123565,10066.800811
3755.845530,-306.438199,296.082377,9474.636058
3755.845845,0.000000,-444.123565,9696.697840
3755.846160,153.219100,-0.000000,9770.718434
3755.846474,0.000000,740.205942,9474.636058
3755.846789,0.000000,1184.329507,8734.430116
3755.847104,0.000000,296.082377,9252.574275
3755.847418,536.266849,222.061783,9622.677246
3755.847733,689.485948,296.082377,9104.533087
3755.848048,919.314598,370.102971,8956.491898
3755.848362,919.314598,-74.020594,9474.636058
3755.848677,689.485948,370.102971,9252.574275
3755.848992,536.266849,-0.000000,8956.491898
3755.849306,0.000000,-222.061783,8808.450710
3755.849621,612.876398,-740.205942,9548.656652
3755.849936,536.266849,-444.123565,9326.594869
3755.850251,383.047749,-666.185348,9696.697840
3755.850565,0.000000,-1110.308913,9844.739029
3755.850880,0.000000,-1332.370696,10288.862594
3755.851195,0.000000,-1110.308913,9770.718434
3755.851509,-383.047749,-592.164754,9918.759623
3755.851824,0.000000,-592.164754,9474.636058
3755.852139,383.047749,-740.205942,9918.759623
3755.852453,842.705048,-518.144159,9622.677246
3755.852768,612.876398,-370.102971,9622.677246
3755.853083,689.485948,-888.247130,9252.574275
3755.853397,383.047749,-962.267725,9474.636058
3755.853712,153.219100,-370.102971,9622.677246
3755.854027,0.000000,-296.082377,9400.615463
3755.854341,0.000000,-518.144159,9030.512492
3755.854656,0.000000,-814.226536,9622.677246
3755.854971,-383.047749,-1036.288319,10436.903782
3755.855285,-766.095498,-814.226536,9992.780217
3755.855600,-689.485948,-1258.350101,10214.842000
3755.855915,-306.438199,-888.247130,11473.192101
3755.856229,-306.438199,222.061783,10288.862594
3755.856544,76.609550,814.226536,9474.636058
3755.856859,229.828649,740.205942,9474.636058
3755.857173,766.095498,962.267725,9696.697840
3755.857488,1149.143247,814.226536,8882.471304
3755.857803,842.705048,888.247130,8586.388927
3755.858117,612.876398,444.123565,9326.594869
3755.858432,383.047749,444.123565,9104.533087
3755.858747,0.000000,1036.288319,8586.388927
3755.859062,-536.266849,296.082377,8364.327145
3755.859376,-459.657299,-444.123565,9474.636058
3755.859691,-842.705048,-666.185348,9696.697840
3755.860006,-1302.362347,-370.102971,9844.739029
3755.860320,-1225.752797,-666.185348,9770.718434
3755.860635,-842.705048,-592.164754,10288.862594
3755.860950,-536.266849,370.102971,10140.821405
3755.861264,0.000000,888.247130,9326.594869
3755.861579,76.609550,1110.308913,8882.471304
3755.861894,459.657299,1110.308913,9030.512492
3755.862208,842.705048,1406.391290,8882.471304
3755.862523,842.705048,1036.288319,8956.491898
3755.862838,842.705048,592.164754,9622.677246
3755.863153,612.876398,222.061783,9696.697840
3755.863467,76.609550,296.082377,9844.739029
3755.863782,-306.438199,814.226536,9474.636058
3755.864097,-536.266849,296.082377,9178.553681
3755.864411,-612.876398,-222.061783,10066.800811
3755.864726,-459.657299,-814.226536,10510.924376
3755.865041,-689.485948,-296.082377,10140.821405
3755.865356,-459.657299,-296.082377,10584.944971
3755.865670,76.609550,518.144159,10436.903782
3755.865985,383.047749,1480.411884,10288.862594
3755.866300,1225.752797,2072.576638,9326.594869
3755.866614,1455.581446,1924.535449,9400.615463
3755.866929,1685.410096,2072.576638,9400.615463
3755.867244,1838.629195,1702.473667,9918.759623
3755.867558,1302.362347,1628.453072,9622.677246
3755.867873,1302.362347,1184.329507,10362.883188
3755.868188,689.485948,1406.391290,10140.821405
3755.868503,383.047749,1406.391290,9918.759623
3755.868817,-153.219100,592.164754,9696.697840
3755.869132,-536.266849,148.041188,10140.821405
3755.869447,-536.266849,-0.000000,10436.903782
3755.869761,-766.095498,-74.020594,10066.800811
3755.870076,-536.266849,-0.000000,10214.842000
3755.870391,0.000000,-74.020594,10288.862594
3755.870706,383.047749,814.226536,9770.718434
3755.871020,612.876398,1480.411884,8956.491898
3755.871335,766.095498,2146.597232,8734.430116
3755.871650,1072.533697,1406.391290,8956.491898
3755.871964,1149.143247,962.267725,9104.533087
3755.872279,766.095498,370.102971,9104.533087
3755.872594,536.266849,-74.020594,9696.697840
3755.872908,0.000000,-222.061783,9918.759623
3755.873223,-459.657299,-518.144159,10066.800811
3755.873538,-1455.581446,-962.267725,9548.656652
3755.873853,-995.924147,-1110.308913,9696.697840
3755.874167,-842.705048,-1332.370696,9622.677246
3755.874482,-689.485948,-1628.453072,9696.697840
3755.874797,-383.047749,-1110.308913,9400.615463
3755.875111,-229.828649,-1332.370696,9400.615463
3755.875426,76.609550,-962.267725,9178.553681
3755.875741,153.219100,-518.144159,8956.491898
3755.876056,383.047749,296.082377,8512.368333
3755.876370,919.314598,-296.082377,9178.553681
3755.876685,995.924147,-222.061783,9326.594869
3755.877000,689.485948,-222.061783,9992.780217
3755.877314,612.876398,-296.082377,9030.512492
3755.877629,306.438199,-1036.288319,9844.739029
3755.877944,0.000000,-1110.308913,10658.965565
3755.878258,-919.314598,-740.205942,9696.697840
3755.878573,-842.705048,-888.247130,9696.697840
3755.878888,-842.705048,-1332.370696,10214.842000
3755.879203,-842.705048,-1406.391290,9622.677246
3755.879517,0.000000,-1036.288319,9844.739029
3755.879832,-536.266849,-888.247130,9548.656652
3755.880147,-76.609550,-814.226536,10066.800811
3755.880461,229.828649,-0.000000,9178.553681
3755.880776,76.609550,518.144159,8882.471304
3755.881091,536.266849,1110.308913,9104.533087
3755.881406,76.609550,222.061783,9326.594869
3755.881720,612.876398,518.144159,8956.491898
3755.882035,383.047749,370.102971,9178.553681
3755.882350,0.000000,148.041188,9400.615463
3755.882664,0.000000,-814.226536,9844.739029
3755.882979,-229.828649,-0.000000,9474.636058
3755.883294,-612.876398,666.185348,9474.636058
3755.883608,-229.828649,-148.041188,9400.615463
3755.883923,0.000000,-74.020594,9178.553681
3755.884238,153.219100,-0.000000,9474.636058
3755.884553,76.609550,-296.082377,9030.512492
3755.884867,536.266849,-148.041188,9326.594869
3755.885182,459.657299,-0.000000,9622.677246
3755.885497,229.828649,962.267725,9622.677246
3755.885811,383.047749,1332.370696,8734.430116
3755.886126,459.657299,1184.329507,9252.574275
3755.886441,766.095498,592.164754,10066.800811
3755.886756,383.047749,814.226536,9918.759623
3755.887070,536.266849,518.144159,9992.780217
3755.887385,459.657299,222.061783,10214.842000
3755.887700,76.609550,296.082377,10732.986159
3755.888014,0.000000,666.185348,9844.739029
3755.888329,229.828649,666.185348,9178.553681
3755.888644,536.266849,518.144159,10066.800811
3755.888958,842.705048,814.226536,10066.800811
3755.889273,153.219100,962.267725,9474.636058
