#time,accel_x,accel_y,accel_z
3676.399637,2221.676944,1258.350101,9252.574275
3676.399952,1762.019645,888.247130,9548.656652
3676.400267,1532.190996,740.205942,8956.491898
3676.400581,1225.752797,148.041188,8808.450710
3676.400896,919.314598,-0.000000,9104.533087
3676.401210,842.705048,-592.164754,9474.636058
3676.401525,766.095498,-666.185348,9400.615463
3676.401839,383.047749,-814.226536,9252.574275
3676.402154,383.047749,-666.185348,9474.636058
3676.402469,459.657299,-444.123565,9474.636058
3676.402783,0.000000,-222.061783,9400.615463
3676.403098,919.314598,-74.020594,9030.512492
3676.403412,689.485948,-0.000000,8808.450710
3676.403727,842.705048,222.061783,9104.533087
3676.404041,612.876398,148.041188,8882.471304
3676.404356,306.438199,148.041188,8882.471304
3676.404671,-306.438199,-0.000000,8882.471304
3676.404985,-153.219100,-518.144159,9178.553681
3676.405300,-383.047749,-814.226536,10066.800811
3676.405614,-689.485948,-1036.288319,9992.780217
3676.405929,-766.095498,-1110.308913,9696.697840
3676.406244,-459.657299,-1332.370696,9326.594869
3676.406558,-612.876398,-1406.391290,9918.759623
3676.406873,0.000000,-888.247130,9918.759623
3676.407187,-153.219100,-814.226536,9696.697840
3676.407502,-153.219100,-518.144159,9400.615463
3676.407816,153.219100,-222.061783,9030.512492
3676.408131,612.876398,-148.041188,8882.471304
3676.408446,919.314598,-222.061783,8364.327145
3676.408760,612.876398,-592.164754,8734.430116
3676.409075,536.266849,-666.185348,9030.512492
3676.409389,536.266849,-296.082377,9474.636058
3676.409704,536.266849,-666.185348,9474.636058
3676.410018,383.047749,-962.267725,9622.677246
3676.410333,0.000000,-814.226536,9992.780217
3676.410648,153.219100,-962.267725,9770.718434
3676.410962,0.000000,-1110.308913,9474.636058
3676.411277,0.000000,-370.102971,9622.677246
3676.411591,0.000000,-296.082377,9178.553681
3676.411906,76.609550,-0.000000,8882.471304
3676.412220,229.828649,222.061783,8956.491898
3676.412535,153.219100,148.041188,8808.450710
3676.412850,459.657299,296.082377,9400.615463
3676.413164,153.219100,-0.000000,9844.739029
3676.413479,-229.828649,296.082377,9770.718434
3676.413793,0.000000,296.082377,9696.697840
3676.414108,229.828649,666.185348,9992.780217
3676.414423,229.828649,962.267725,9696.697840
3676.414737,153.219100,740.205942,9400.615463
3676.415052,306.438199,1036.288319,9474.636058
3676.415366,459.657299,888.247130,9400.615463
3676.415681,153.219100,1184.329507,9474.636058
3676.415995,459.657299,1110.308913,9770.718434
3676.416310,0.000000,518.144159,9770.718434
3676.416625,76.609550,666.185348,9770.718434
3676.416939,153.219100,1036.288319,9992.780217
3676.417254,76.609550,888.247130,9770.718434
3676.417568,459.657299,1184.329507,10066.800811
3676.417883,612.876398,1110.308913,10066.800811
3676.418197,383.047749,1258.350101,9770.718434
3676.418512,689.485948,1480.411884,9844.739029
3676.418827,689.485948,1258.350101,9844.739029
3676.419141,612.876398,1480.411884,10214.842000
3676.419456,229.828649,888.247130,10436.903782
3676.419770,0.000000,740.205942,10658.965565
3676.420085,-153.219100,740.205942,10807.006753
3676.420399,0.000000,444.123565,10584.944971
3676.420714,0.000000,518.144159,10510.924376
3676.421029,0.000000,518.144159,10214.842000
3676.421343,76.609550,592.164754,9918.759623
3676.421658,306.438199,1036.288319,9770.718434
3676.421972,76.609550,592.164754,9770.718434
3676.422287,383.047749,592.164754,9918.759623
3676.422602,0.000000,296.082377,9992.780217
3676.422916,0.000000,370.102971,9918.759623
3676.423231,-76.609550,-0.000000,10066.800811
3676.423545,76.609550,-0.000000,10066.800811
3676.423860,229.828649,-0.000000,10066.800811
3676.424174,0.000000,222.061783,9696.697840
3676.424489,76.609550,222.061783,9474.636058
3676.424804,229.828649,-0.000000,9400.615463
3676.425118,459.657299,-0.000000,8956.491898
3676.425433,612.876398,-0.000000,9326.594869
3676.425747,229.828649,-0.000000,9104.533087
3676.426062,76.609550,-222.061783,9252.574275
3676.426376,306.438199,-222.061783,9696.697840
3676.426691,0.000000,-370.102971,9548.656652
3676.427006,-306.438199,-518.144159,9474.636058
3676.427320,0.000000,-296.082377,9400.615463
3676.427635,383.047749,-370.102971,9622.677246
3676.427949,76.609550,-222.061783,8882.471304
3676.428264,0.000000,-296.082377,9326.594869
3676.428578,0.000000,-148.041188,9030.512492
3676.428893,76.609550,-296.082377,9104.533087
3676.429208,-153.219100,-222.061783,9030.512492
3676.429522,0.000000,-444.123565,9326.594869
3676.429837,0.000000,-518.144159,9548.656652
3676.430151,0.000000,-740.205942,9326.594869
3676.430466,-306.438199,-592.164754,9252.574275
3676.430781,0.000000,-518.144159,9474.636058
3676.431095,0.000000,-74.020594,9326.594869
3676.431410,306.438199,-888.247130,8882.471304
3676.431724,153.219100,-518.144159,9474.636058
3676.432039,459.657299,-444.123565,9326.594869
3676.432353,153.219100,-592.164754,9030.512492
3676.432668,306.438199,-296.082377,9474.636058
3676.432983,536.266849,-814.226536,9474.636058
3676.433297,229.828649,-666.185348,9474.636058
3676.433612,383.047749,-740.205942,9474.636058
3676.433926,0.000000,-666.185348,9548.656652
3676.434241,229.828649,-518.144159,9696.697840
3676.434555,459.657299,-222.061783,10140.821405
3676.434870,229.828649,-0.000000,10066.800811
3676.435185,229.828649,-0.000000,9622.677246
3676.435499,0.000000,-0.000000,9474.636058
3676.435814,0.000000,370.102971,9548.656652
3676.436128,76.609550,296.082377,10066.800811
3676.436443,-306.438199,222.061783,9844.739029
3676.436758,-383.047749,222.061783,9770.718434
3676.437072,-306.438199,370.102971,9770.718434
3676.437387,0.000000,296.082377,9770.718434
3676.437701,0.000000,148.041188,9474.636058
3676.438016,0.000000,814.226536,9474.636058
3676.438330,0.000000,962.267725,9696.697840
3676.438645,0.000000,666.185348,9474.636058
3676.438960,153.219100,888.247130,9474.636058
3676.439274,229.828649,444.123565,9548.656652
3676.439589,0.000000,740.205942,9326.594869
3676.439903,229.828649,814.226536,9548.656652
3676.440218,306.438199,888.247130,9622.677246
3676.440532,459.657299,740.205942,9474.636058
3676.440847,612.876398,740.205942,9844.739029
3676.441162,229.828649,962.267725,9474.636058
3676.441476,383.047749,814.226536,9400.615463
3676.441791,383.047749,888.247130,9474.636058
3676.442105,536.266849,740.205942,9622.677246
3676.442420,459.657299,518.144159,9992.780217
3676.442734,383.047749,518.144159,9474.636058
3676.443049,76.609550,592.164754,9474.636058
3676.443363,306.438199,740.205942,9770.718434
3676.443677,153.219100,296.082377,9992.780217
3676.443992,153.219100,-0.000000,9770.718434
3676.444306,153.219100,148.041188,9918.759623
3676.444621,0.000000,296.082377,9918.759623
3676.444935,0.000000,296.082377,10214.842000
3676.445250,153.219100,148.041188,9918.759623
3676.445564,0.000000,444.123565,10214.842000
3676.445879,153.219100,-0.000000,9992.780217
3676.446193,153.219100,-0.000000,9548.656652
3676.446507,306.438199,-0.000000,9622.677246
3676.446822,76.609550,-74.020594,9992.780217
3676.447136,306.438199,-0.000000,9918.759623
3676.447451,0.000000,-296.082377,9696.697840
3676.447765,0.000000,-74.020594,9770.718434
3676.448080,153.219100,-0.000000,9770.718434
3676.448394,153.219100,-74.020594,9548.656652
3676.448709,0.000000,-0.000000,9400.615463
3676.449023,153.219100,-0.000000,9474.636058
3676.449337,229.828649,-74.020594,9474.636058
3676.449652,76.609550,-0.000000,9474.636058
3676.449966,0.000000,-0.000000,9622.677246
3676.450281,383.047749,-0.000000,9474.636058
3676.450595,0.000000,-222.061783,9178.553681
3676.450910,-229.828649,-148.041188,9178.553681
3676.451224,76.609550,-222.061783,9548.656652
3676.451539,153.219100,-148.041188,9178.553681
3676.451853,153.219100,-0.000000,9178.553681
3676.452167,0.000000,-148.041188,9178.553681
3676.452482,-306.438199,-0.000000,9252.574275
3676.452796,0.000000,-0.000000,9326.594869
3676.453111,153.219100,-222.061783,8956.491898
3676.453425,153.219100,-148.041188,8808.450710
3676.453740,0.000000,-0.000000,9178.553681
3676.454054,0.000000,-0.000000,9252.574275
3676.454369,153.219100,-74.020594,9696.697840
3676.454683,76.609550,-74.020594,9474.636058
3676.454998,153.219100,-0.000000,9622.677246
3676.455312,0.000000,-0.000000,9474.636058
3676.455626,306.438199,-0.000000,9622.677246
3676.455941,306.438199,-0.000000,9918.759623
3676.456255,229.828649,-0.000000,9622.677246
3676.456570,76.609550,-0.000000,9992.780217
3676.456884,153.219100,370.102971,9548.656652
3676.457199,459.657299,370.102971,9474.636058
3676.457513,383.047749,222.061783,9770.718434
3676.457828,383.047749,444.123565,9992.780217
3676.458142,229.828649,370.102971,10140.821405
3676.458456,76.609550,444.123565,9918.759623
3676.458771,0.000000,370.102971,10066.800811
3676.459085,0.000000,444.123565,10140.821405
3676.459400,229.828649,666.185348,9992.780217
3676.459714,76.609550,444.123565,10066.800811
3676.460029,0.000000,592.164754,9918.759623
3676.460343,0.000000,814.226536,10066.800811
3676.460658,0.000000,814.226536,9844.739029
3676.460972,0.000000,518.144159,9992.780217
3676.461286,0.000000,370.102971,9844.739029
3676.461601,0.000000,518.144159,10140.821405
3676.461915,0.000000,592.164754,10066.800811
3676.462230,0.000000,888.247130,9918.759623
3676.462544,229.828649,740.205942,9622.677246
3676.462859,229.828649,592.164754,9622.677246
3676.463173,0.000000,666.185348,9548.656652
3676.463488,0.000000,740.205942,9548.656652
3676.463802,153.219100,592.164754,9474.636058
3676.464116,612.876398,148.041188,9548.656652
3676.464431,383.047749,666.185348,9474.636058
3676.464745,229.828649,666.185348,9030.512492
3676.465060,229.828649,296.082377,9770.718434
3676.465374,153.219100,-0.000000,9548.656652
3676.465689,229.828649,370.102971,9474.636058
3676.466003,76.609550,296.082377,9548.656652
3676.466318,306.438199,148.041188,9474.636058
3676.466632,459.657299,444.123565,9992.780217
3676.466947,153.219100,222.061783,9548.656652
3676.467261,229.828649,-0.000000,9252.574275
3676.467575,0.000000,296.082377,9548.656652
3676.467890,229.828649,370.102971,9622.677246
3676.468204,229.828649,-0.000000,9252.574275
3676.468519,229.828649,148.041188,9548.656652
3676.468833,0.000000,-222.061783,9844.739029
3676.469148,0.000000,-222.061783,9474.636058
3676.469462,0.000000,-0.000000,9474.636058
3676.469777,0.000000,-0.000000,9770.718434
3676.470091,153.219100,-0.000000,9696.697840
3676.470405,0.000000,-370.102971,9696.697840
3676.470720,0.000000,-148.041188,9474.636058
3676.471034,383.047749,-0.000000,9696.697840
3676.471349,153.219100,-0.000000,9622.677246
3676.471663,229.828649,-148.041188,9474.636058
3676.471978,0.000000,-370.102971,9548.656652
3676.472292,153.219100,-0.000000,9400.615463
3676.472607,76.609550,-148.041188,9548.656652
3676.472921,0.000000,-222.061783,9622.677246
3676.473235,0.000000,-74.020594,9474.636058
3676.473550,0.000000,-1036.288319,9474.636058
3676.473864,76.609550,-74.020594,9178.553681
3676.474179,76.609550,-0.000000,9178.553681
3676.474493,76.609550,-74.020594,9104.533087
3676.474808,229.828649,-74.020594,9622.677246
3676.475122,0.000000,-222.061783,9326.594869
3676.475437,306.438199,-0.000000,9178.553681
3676.475751,153.219100,-0.000000,9030.512492
3676.476065,0.000000,-296.082377,9770.718434
3676.476380,76.609550,-74.020594,9548.656652
3676.476694,0.000000,-74.020594,9178.553681
3676.477009,76.609550,-0.000000,9474.636058
3676.477323,0.000000,222.061783,9548.656652
3676.477638,229.828649,-0.000000,9622.677246
3676.477952,76.609550,-0.000000,9400.615463
3676.478267,0.000000,296.082377,9474.636058
3676.478581,0.000000,370.102971,9992.780217
3676.478896,383.047749,296.082377,9622.677246
3676.479210,306.438199,370.102971,9696.697840
3676.479524,0.000000,222.061783,9474.636058
3676.479839,0.000000,444.123565,9474.636058
3676.480153,306.438199,370.102971,9622.677246
3676.480468,229.828649,592.164754,9770.718434
3676.480782,153.219100,222.061783,10066.800811
3676.481097,689.485948,222.061783,9622.677246
3676.481411,383.047749,444.123565,9548.656652
3676.481726,153.219100,370.102971,9918.759623
3676.482040,153.219100,518.144159,9992.780217
3676.482354,0.000000,370.102971,10140.821405
3676.482669,229.828649,296.082377,9770.718434
3676.482983,0.000000,296.082377,10066.800811
3676.483298,153.219100,222.061783,9844.739029
3676.483612,306.438199,518.144159,9844.739029
3676.483927,0.000000,296.082377,9918.759623
3676.484241,0.000000,296.082377,9326.594869
3676.484556,0.000000,222.061783,9696.697840
3676.484870,0.000000,222.061783,9992.780217
3676.485184,153.219100,296.082377,9696.697840
3676.485499,0.000000,296.082377,9548.656652
3676.485813,-306.438199,370.102971,9696.697840
3676.486128,0.000000,444.123565,9918.759623
3676.486442,76.609550,-0.000000,9474.636058
3676.486757,0.000000,-0.000000,9622.677246
3676.487071,0.000000,296.082377,9918.759623
3676.487386,76.609550,-0.000000,9622.677246
3676.487700,306.438199,-74.020594,9770.718434
3676.488014,306.438199,-0.000000,9474.636058
3676.488329,0.000000,222.061783,9844.739029
3676.488643,306.438199,222.061783,9178.553681
3676.488958,229.828649,-222.061783,9030.512492
3676.489272,153.219100,-0.000000,9770.718434
3676.489587,76.609550,-0.000000,9548.656652
3676.489901,0.000000,-0.000000,9622.677246
3676.490216,229.828649,-0.000000,9696.697840
3676.490530,0.000000,-74.020594,9474.636058
3676.490845,153.219100,-0.000000,9548.656652
3676.491159,0.000000,-74.020594,9844.739029
3676.491473,153.219100,-0.000000,9696.697840
3676.491788,229.828649,-0.000000,9474.636058
3676.492102,76.609550,518.144159,9474.636058
3676.492417,153.219100,-0.000000,9548.656652
3676.492731,153.219100,222.061783,9622.677246
3676.493046,0.000000,-0.000000,9474.636058
3676.493360,0.000000,-0.000000,9400.615463
3676.493675,76.609550,370.102971,9474.636058
3676.493989,76.609550,-0.000000,9400.615463
3676.494303,306.438199,-0.000000,9474.636058
3676.494618,153.219100,-0.000000,9696.697840
3676.494932,0.000000,-296.082377,9400.615463
3676.495247,306.438199,-370.102971,9326.594869
3676.495561,229.828649,-0.000000,9474.636058
3676.495876,153.219100,-222.061783,9474.636058
3676.496190,76.609550,-74.020594,9474.636058
3676.496505,153.219100,-74.020594,9474.636058
3676.496819,0.000000,-0.000000,10140.821405
3676.497133,153.219100,-0.000000,9474.636058
3676.497448,76.609550,-74.020594,9474.636058
3676.497762,0.000000,-0.000000,9474.636058
3676.498077,0.000000,-0.000000,9548.656652
3676.498391,76.609550,-0.000000,9548.656652
3676.498706,153.219100,-0.000000,9622.677246
3676.499020,153.219100,-0.000000,9622.677246
3676.499335,0.000000,370.102971,9474.636058
3676.499649,0.000000,-0.000000,9548.656652
3676.499963,0.000000,-0.000000,9918.759623
3676.500278,76.609550,-0.000000,9770.718434
3676.500592,0.000000,296.082377,9770.718434
3676.500907,76.609550,-0.000000,9474.636058
3676.501221,-229.828649,222.061783,9696.697840
3676.501536,229.828649,370.102971,9548.656652
3676.501850,0.000000,592.164754,9770.718434
3676.502165,76.609550,592.164754,9844.739029
3676.502479,0.000000,444.123565,9548.656652
3676.502794,0.000000,814.226536,9770.718434
3676.503108,0.000000,222.061783,9770.718434
3676.503422,229.828649,888.247130,9770.718434
3676.503737,153.219100,370.102971,9474.636058
3676.504051,0.000000,592.164754,9770.718434
3676.504366,0.000000,222.061783,9844.739029
3676.504680,153.219100,592.164754,9326.594869
3676.504995,153.219100,444.123565,9326.594869
3676.505309,0.000000,370.102971,9918.759623
3676.505624,76.609550,444.123565,9770.718434
3676.505938,76.609550,-0.000000,9548.656652
3676.506252,0.000000,222.061783,9548.656652
3676.506567,383.047749,370.102971,9770.718434
3676.506881,153.219100,370.102971,9696.697840
3676.507196,229.828649,222.061783,9548.656652
3676.507510,306.438199,370.102971,9992.780217
3676.507825,383.047749,-0.000000,9844.739029
3676.508139,76.609550,-0.000000,9326.594869
3676.508454,76.609550,-0.000000,9474.636058
3676.508768,306.438199,-0.000000,9474.636058
3676.509082,76.609550,-0.000000,9548.656652
3676.509397,306.438199,222.061783,9474.636058
3676.509711,689.485948,-0.000000,9548.656652
3676.510026,0.000000,-0.000000,9622.677246
3676.510340,153.219100,296.082377,9474.636058
3676.510655,0.000000,-222.061783,9548.656652
3676.510969,76.609550,-0.000000,9696.697840
3676.511284,306.438199,370.102971,9918.759623
3676.511598,306.438199,296.082377,9992.780217
3676.511912,153.219100,-0.000000,9548.656652
3676.512227,0.000000,-0.000000,9548.656652
3676.512541,76.609550,-0.000000,9622.677246
3676.512856,0.000000,148.041188,9696.697840
3676.513170,459.657299,-0.000000,9696.697840
3676.513485,0.000000,-0.000000,9474.636058
3676.513799,0.000000,-148.041188,9400.615463
3676.514114,0.000000,-0.000000,9696.697840
3676.514428,-153.219100,222.061783,9844.739029
3676.514743,229.828649,-444.123565,9326.594869
3676.515057,0.000000,-148.041188,9548.656652
3676.515371,0.000000,-148.041188,9622.677246
3676.515686,0.000000,-0.000000,9474.636058
3676.516000,229.828649,-0.000000,9548.656652
3676.516315,766.095498,-592.164754,9548.656652
3676.516629,229.828649,-0.000000,9696.697840
3676.516944,306.438199,-0.000000,9178.553681
3676.517258,153.219100,-74.020594,9474.636058
3676.517573,306.438199,-0.000000,9548.656652
3676.517887,459.657299,-0.000000,9548.656652
3676.518201,306.438199,-222.061783,9178.553681
3676.518516,0.000000,-0.000000,9622.677246
3676.518830,153.219100,-0.000000,9326.594869
3676.519145,306.438199,148.041188,9400.615463
3676.519459,0.000000,148.041188,9474.636058
3676.519774,76.609550,-0.000000,9474.636058
3676.520088,76.609550,-0.000000,9326.594869
3676.520403,0.000000,148.041188,9622.677246
3676.520717,229.828649,-0.000000,9918.759623
3676.521031,0.000000,-0.000000,9548.656652
3676.521346,153.219100,-0.000000,9696.697840
3676.521660,153.219100,-0.000000,9622.677246
3676.521975,383.047749,148.041188,9844.739029
3676.522289,153.219100,222.061783,9622.677246
3676.522604,383.047749,222.061783,9622.677246
3676.522918,0.000000,74.020594,9844.739029
3676.523233,229.828649,-0.000000,9918.759623
3676.523547,76.609550,-0.000000,9918.759623
3676.523861,0.000000,-0.000000,9622.677246
3676.524176,0.000000,444.123565,9622.677246
3676.524490,0.000000,222.061783,9622.677246
3676.524805,306.438199,-0.000000,9992.780217
3676.525119,0.000000,148.041188,9918.759623
3676.525434,-306.438199,296.082377,9770.718434
3676.525748,0.000000,-0.000000,9548.656652
3676.526063,0.000000,-0.000000,9770.718434
3676.526377,229.828649,296.082377,9844.739029
3676.526692,76.609550,148.041188,9474.636058
3676.527006,-229.828649,148.041188,9548.656652
3676.527320,153.219100,148.041188,9622.677246
3676.527635,0.000000,444.123565,9474.636058
3676.527949,76.609550,222.061783,9474.636058
3676.528264,229.828649,148.041188,9326.594869
3676.528578,229.828649,296.082377,9400.615463
3676.528893,0.000000,296.082377,9326.594869
3676.529207,76.609550,74.020594,9252.574275
3676.529522,153.219100,370.102971,9548.656652
3676.529836,76.609550,148.041188,9326.594869
3676.530150,383.047749,-0.000000,9326.594869
3676.530465,229.828649,-0.000000,9252.574275
3676.530779,0.000000,148.041188,9622.677246
3676.531094,76.609550,-0.000000,9696.697840
3676.531408,0.000000,148.041188,9622.677246
3676.531723,0.000000,296.082377,9992.780217
3676.532037,76.609550,-74.020594,9474.636058
3676.532352,-229.828649,148.041188,9548.656652
3676.532666,229.828649,-0.000000,9696.697840
3676.532980,229.828649,296.082377,9696.697840
3676.533295,383.047749,148.041188,9770.718434
3676.533609,383.047749,222.061783,9622.677246
3676.533924,76.609550,-0.000000,9844.739029
3676.534238,76.609550,-0.000000,9696.697840
3676.534553,0.000000,-0.000000,9622.677246
3676.534867,76.609550,592.164754,10066.800811
3676.535182,459.657299,-0.000000,9474.636058
3676.535496,0.000000,-0.000000,9548.656652
3676.535810,-153.219100,-0.000000,9622.677246
3676.536125,-229.828649,-0.000000,9474.636058
3676.536439,229.828649,370.102971,9474.636058
3676.536754,0.000000,-0.000000,9548.656652
3676.537068,153.219100,-0.000000,9992.780217
3676.537383,229.828649,-0.000000,9400.615463
3676.537697,0.000000,-0.000000,9326.594869
3676.538012,0.000000,296.082377,9844.739029
3676.538326,76.609550,-0.000000,9548.656652
3676.538641,153.219100,-0.000000,9622.677246
3676.538955,229.828649,-0.000000,9474.636058
3676.539269,76.609550,296.082377,9696.697840
3676.539584,306.438199,74.020594,9474.636058
3676.539898,0.000000,296.082377,9474.636058
3676.540213,229.828649,-0.000000,9770.718434
3676.540527,153.219100,-0.000000,9474.636058
3676.540842,153.219100,-0.000000,9326.594869
3676.541156,153.219100,148.041188,9474.636058
3676.541471,306.438199,148.041188,9474.636058
3676.541785,229.828649,370.102971,9474.636058
3676.542099,0.000000,222.061783,9696.697840
3676.542414,0.000000,296.082377,9622.677246
3676.542728,383.047749,-0.000000,9400.615463
3676.543043,306.438199,296.082377,9474.636058
3676.543357,229.828649,148.041188,9844.739029
3676.543671,229.828649,370.102971,9622.677246
3676.543986,153.219100,370.102971,9696.697840
3676.544300,0.000000,-0.000000,9770.718434
3676.544615,153.219100,148.041188,10140.821405
3676.544929,0.000000,296.082377,9844.739029
3676.545243,153.219100,370.102971,9474.636058
3676.545558,383.047749,592.164754,10066.800811
3676.545872,383.047749,-0.000000,9548.656652
3676.546187,76.609550,370.102971,9622.677246
3676.546501,0.000000,370.102971,9844.739029
3676.546815,0.000000,-0.000000,9770.718434
3676.547130,0.000000,370.102971,9844.739029
3676.547444,0.000000,148.041188,9474.636058
3676.547758,383.047749,-0.000000,10066.800811
3676.548073,229.828649,518.144159,9918.759623
3676.548387,0.000000,296.082377,9400.615463
3676.548702,0.000000,370.102971,9548.656652
3676.549016,0.000000,-296.082377,9696.697840
3676.549330,689.485948,-0.000000,9918.759623
3676.549645,229.828649,222.061783,9622.677246
3676.549959,76.609550,518.144159,9326.594869
3676.550274,536.266849,814.226536,9178.553681
3676.550588,766.095498,740.205942,9030.512492
3676.550902,919.314598,74.020594,9326.594869
3676.551217,612.876398,-148.041188,9326.594869
3676.551531,383.047749,-0.000000,9400.615463
3676.551846,383.047749,-0.000000,9770.718434
3676.552160,689.485948,-0.000000,10288.862594
3676.552474,689.485948,-0.000000,10288.862594
3676.552789,1072.533697,-0.000000,10288.862594
3676.553103,1225.752797,592.164754,9992.780217
3676.553418,1532.190996,962.267725,9622.677246
3676.553732,1685.410096,1406.391290,9252.574275
3676.554046,2604.724693,1406.391290,9104.533087
3676.554361,2451.505594,1850.514855,9030.512492
3676.554675,2757.943793,1406.391290,8808.450710
3676.554989,2757.943793,1554.432478,8808.450710
3676.555304,2681.334243,1184.329507,8808.450710
3676.555618,2911.162892,1480.411884,9104.533087
3676.555933,2757.943793,1924.535449,9104.533087
3676.556247,2451.505594,1702.473667,9400.615463
3676.556561,2451.505594,1998.556043,9844.739029
3676.556876,2374.896044,1406.391290,9622.677246
3676.557190,2834.553343,1924.535449,9770.718434
3676.557505,2528.115143,2072.576638,9326.594869
3676.557819,2911.162892,2812.782580,9252.574275
3676.558133,3064.381992,3330.926739,8660.409521
3676.558448,3600.648841,3627.009116,8660.409521
3676.558762,3294.210641,3997.112087,8586.388927
3676.559077,3217.601092,4071.132681,8364.327145
3676.559391,3140.991542,3775.050304,8586.388927
3676.559705,2681.334243,3775.050304,9474.636058
3676.560020,2221.676944,3034.844362,10214.842000
3676.560334,1608.800546,3034.844362,10362.883188
3676.560648,1455.581446,3108.864956,10881.027347
3676.560963,1302.362347,3478.967927,10955.047942
3676.561277,1762.019645,3330.926739,11029.068536
3676.561592,2221.676944,3849.070898,10881.027347
3676.561906,2451.505594,4293.194464,10584.944971
3676.562220,2834.553343,5033.400406,9992.780217
3676.562535,3140.991542,5033.400406,9178.553681
3676.562849,3447.429741,5329.482782,8882.471304
3676.563164,3983.696590,5329.482782,9030.512492
3676.563478,3524.039291,4885.359217,9104.533087
3676.563792,2987.772442,4219.173869,9696.697840
3676.564107,1991.848295,3775.050304,10140.821405
3676.564421,1072.533697,3034.844362,10732.986159
3676.564736,1072.533697,2590.720797,11473.192101
3676.565050,919.314598,2442.679609,12065.356855
3676.565364,766.095498,2442.679609,12065.356855
3676.565679,1072.533697,3256.906145,11621.233289
3676.565993,1915.238745,3330.926739,10807.006753
3676.566307,2374.896044,4293.194464,10066.800811
3676.566622,3294.210641,5181.441594,8882.471304
3676.566936,3677.258390,4885.359217,7920.203579
3676.567251,3907.087040,4515.256246,7994.224174
3676.567565,3064.381992,3182.885551,8660.409521
3676.567879,1991.848295,2516.700203,9252.574275
3676.568194,1149.143247,1332.370696,10362.883188
3676.568508,459.657299,518.144159,11177.109724
3676.568823,-383.047749,74.020594,11695.253884
3676.569137,-766.095498,-0.000000,11843.295072
3676.569451,-766.095498,296.082377,12213.398043
3676.569766,0.000000,888.247130,11399.171507
3676.570080,842.705048,2072.576638,9918.759623
3676.570395,1838.629195,2590.720797,8882.471304
3676.570709,3064.381992,2516.700203,8068.244768
3676.571023,3830.477490,2590.720797,7698.141797
3676.571338,4366.744339,2294.638420,6957.935855
3676.571652,3907.087040,1850.514855,7105.977043
3676.571966,3294.210641,1184.329507,7698.141797
3676.572281,2145.067394,370.102971,8882.471304
3676.572595,919.314598,-0.000000,9104.533087
3676.572910,-229.828649,-592.164754,9252.574275
3676.573224,-1302.362347,-1258.350101,9474.636058
3676.573538,-1915.238745,-1924.535449,10362.883188
3676.573853,-1762.019645,-2072.576638,10436.903782
3676.574167,-1455.581446,-1998.556043,9918.759623
3676.574482,-766.095498,-1702.473667,9918.759623
3676.574796,153.219100,-888.247130,9844.739029
3676.575110,1378.971896,-296.082377,9992.780217
3676.575425,1378.971896,370.102971,9474.636058
3676.575739,1762.019645,592.164754,9696.697840
3676.576054,2451.505594,1036.288319,9474.636058
3676.576368,2528.115143,814.226536,9326.594869
3676.576682,2221.676944,740.205942,8512.368333
3676.576997,1378.971896,222.061783,8660.409521
3676.577311,612.876398,-74.020594,8364.327145
3676.577626,0.000000,-1036.288319,7920.203579
3676.577940,-842.705048,-2072.576638,8734.430116
3676.578254,-1302.362347,-2590.720797,9474.636058
3676.578569,-2145.067394,-2960.823768,9844.739029
3676.578883,-2221.676944,-3404.947333,11029.068536
3676.579197,-2221.676944,-3404.947333,11695.253884
3676.579512,-1608.800546,-2812.782580,12065.356855
3676.579826,-842.705048,-1554.432478,11695.253884
3676.580141,153.219100,-666.185348,11029.068536
3676.580455,1225.752797,888.247130,10436.903782
3676.580769,2451.505594,1554.432478,9326.594869
3676.581084,2757.943793,2738.761985,7920.203579
3676.581398,3140.991542,2886.803174,7031.956449
3676.581713,3217.601092,2442.679609,6439.791695
3676.582027,2681.334243,888.247130,6661.853478
3676.582341,1838.629195,-296.082377,8142.265362
3676.582656,306.438199,-1850.514855,8882.471304
3676.582970,-919.314598,-2590.720797,10066.800811
3676.583285,-2451.505594,-3330.926739,11547.212695
3676.583599,-2681.334243,-3182.885551,12139.377449
3676.583913,-2374.896044,-2442.679609,11843.295072
3676.584228,-1838.629195,-1110.308913,10732.986159
3676.584542,-842.705048,222.061783,9992.780217
3676.584856,689.485948,2072.576638,8808.450710
3676.585171,1991.848295,2812.782580,7105.977043
3676.585485,3294.210641,3923.091493,6661.853478
3676.585800,3983.696590,4441.235652,6217.729913
3676.586114,3830.477490,3849.070898,6439.791695
3676.586428,2681.334243,2516.700203,7994.224174
3676.586743,1455.581446,1332.370696,9622.677246
3676.587057,-229.828649,222.061783,10807.006753
3676.587372,-1991.848295,-592.164754,11917.315666
3676.587686,-3140.991542,-1184.329507,12879.583391
3676.588000,-3524.039291,-1258.350101,13619.789333
3676.588315,-3294.210641,-888.247130,12435.459826
3676.588629,-1915.238745,148.041188,10732.986159
3676.588944,-612.876398,1110.308913,10140.821405
3676.589258,842.705048,2368.659014,8956.491898
3676.589572,2374.896044,3330.926739,7550.100608
3676.589887,3140.991542,3775.050304,7031.956449
3676.590201,4136.915689,3182.885551,7550.100608
3676.590515,2987.772442,2886.803174,7624.121203
3676.590830,2374.896044,1924.535449,9178.553681
3676.591144,842.705048,1110.308913,10732.986159
3676.591459,-842.705048,296.082377,11325.150913
3676.591773,-2374.896044,-740.205942,12213.398043
3676.592087,-2911.162892,-888.247130,12879.583391
3676.592402,-3447.429741,-1110.308913,12731.542202
3676.592716,-2604.724693,-666.185348,12065.356855
3676.593031,-1991.848295,-0.000000,11399.171507
3676.593345,-536.266849,888.247130,9918.759623
3676.593659,995.924147,1480.411884,9178.553681
3676.593974,2374.896044,1702.473667,8216.285956
3676.594288,2681.334243,1702.473667,7846.182985
3676.594603,3064.381992,1702.473667,7772.162391
3676.594917,2604.724693,1554.432478,8216.285956
3676.595231,1915.238745,518.144159,8586.388927
3676.595546,383.047749,-0.000000,9696.697840
3676.595860,-1149.143247,-740.205942,9992.780217
3676.596174,-1915.238745,-1406.391290,10584.944971
3676.596489,-2834.553343,-1702.473667,11473.192101
3676.596803,-2528.115143,-1998.556043,11399.171507
3676.597118,-1991.848295,-1332.370696,11029.068536
3676.597432,-995.924147,-1110.308913,10214.842000
3676.597746,306.438199,-592.164754,9178.553681
3676.598061,1532.190996,-0.000000,8216.285956
3676.598375,2374.896044,666.185348,7550.100608
3676.598690,2528.115143,1036.288319,7846.182985
3676.599004,2604.724693,1406.391290,7105.977043
3676.599318,1991.848295,666.185348,7179.997637
3676.599633,995.924147,-0.000000,8290.306550
3676.599947,-229.828649,-444.123565,9104.533087
3676.600262,-1072.533697,-1628.453072,9844.739029
3676.600576,-1915.238745,-2442.679609,10658.965565
3676.600890,-1991.848295,-2516.700203,10881.027347
3676.601205,-2068.457845,-2368.659014,10881.027347
3676.601519,-1149.143247,-1924.535449,10362.883188
3676.601834,-536.266849,-1332.370696,9918.759623
3676.602148,459.657299,-740.205942,9252.574275
3676.602462,1072.533697,-0.000000,8438.347739
3676.602777,2068.457845,666.185348,7402.059420
3676.603091,2374.896044,666.185348,7476.080014
3676.603405,1915.238745,740.205942,7624.121203
3676.603720,1455.581446,-148.041188,8142.265362
3676.604034,536.266849,-370.102971,9104.533087
3676.604349,-612.876398,-888.247130,9474.636058
3676.604663,-1608.800546,-1924.535449,10955.047942
3676.604977,-2374.896044,-2294.638420,11695.253884
3676.605292,-2298.286494,-2516.700203,11769.274478
3676.605606,-1915.238745,-2294.638420,11547.212695
3676.605921,-1149.143247,-1628.453072,10807.006753
3676.606235,0.000000,-444.123565,10066.800811
3676.606549,842.705048,666.185348,9030.512492
3676.606864,1915.238745,1110.308913,7772.162391
3676.607178,2221.676944,1850.514855,7402.059420
3676.607493,1991.848295,2072.576638,7772.162391
3676.607807,1608.800546,1258.350101,8290.306550
3676.608121,842.705048,814.226536,8882.471304
3676.608436,-229.828649,-222.061783,9844.739029
3676.608750,-1378.971896,-666.185348,10510.924376
3676.609064,-1838.629195,-1184.329507,11547.212695
3676.609379,-2145.067394,-1258.350101,12065.356855
3676.609693,-1838.629195,-962.267725,11917.315666
3676.610008,-1072.533697,-222.061783,10955.047942
3676.610322,0.000000,592.164754,10066.800811
3676.610636,689.485948,1924.535449,9474.636058
3676.610951,1762.019645,2590.720797,8290.306550
3676.611265,1991.848295,2960.823768,7254.018232
3676.611580,2374.896044,2664.741391,7105.977043
3676.611894,1762.019645,2294.638420,7772.162391
3676.612208,1532.190996,1628.453072,8438.347739
3676.612523,383.047749,1036.288319,9622.677246
3676.612837,-689.485948,296.082377,9992.780217
3676.613152,-1532.190996,-74.020594,11251.130318
3676.613466,-1608.800546,-518.144159,11843.295072
3676.613780,-1532.190996,-0.000000,11621.233289
3676.614095,-1378.971896,148.041188,11547.212695
3676.614409,-612.876398,740.205942,10732.986159
3676.614723,229.828649,1480.411884,9622.677246
3676.615038,1455.581446,2220.617826,9030.512492
3676.615352,2145.067394,2516.700203,8142.265362
3676.615667,2298.286494,2590.720797,7550.100608
3676.615981,2145.067394,1998.556043,7994.224174
3676.616295,1915.238745,1554.432478,8290.306550
3676.616610,1149.143247,962.267725,9400.615463
3676.616924,0.000000,666.185348,9918.759623
3676.617239,-766.095498,-148.041188,10436.903782
3676.617553,-1532.190996,-1110.308913,11473.192101
3676.617867,-2068.457845,-1036.288319,11843.295072
3676.618182,-1915.238745,-888.247130,11695.253884
3676.618496,-1302.362347,-222.061783,11473.192101
3676.618811,-689.485948,222.061783,10288.862594
3676.619125,689.485948,740.205942,9474.636058
3676.619439,1225.752797,1332.370696,8734.430116
3676.619754,2145.067394,1628.453072,8512.368333
3676.620068,2145.067394,1850.514855,7994.224174
3676.620382,2451.505594,1776.494261,7698.141797
3676.620697,1838.629195,1258.350101,8068.244768
3676.621011,1072.533697,148.041188,8734.430116
3676.621326,0.000000,-444.123565,9918.759623
3676.621640,-1149.143247,-1110.308913,10214.842000
3676.621954,-1608.800546,-1776.494261,11251.130318
3676.622269,-2374.896044,-1850.514855,11399.171507
3676.622583,-2374.896044,-1184.329507,11103.089130
3676.622898,-1532.190996,-740.205942,10732.986159
3676.623212,-306.438199,-74.020594,9992.780217
3676.623526,459.657299,-0.000000,9474.636058
3676.623841,1762.019645,1110.308913,8216.285956
3676.624155,2451.505594,1628.453072,7772.162391
3676.624470,2681.334243,1628.453072,7105.977043
3676.624784,2528.115143,1332.370696,7402.059420
3676.625098,1838.629195,666.185348,8290.306550
3676.625413,612.876398,-370.102971,8956.491898
3676.625727,-842.705048,-814.226536,10214.842000
3676.626042,-1762.019645,-1850.514855,11103.089130
3676.626356,-2374.896044,-2590.720797,11843.295072
3676.626670,-2528.115143,-2664.741391,11917.315666
3676.626985,-2451.505594,-2368.659014,11473.192101
3676.627299,-1302.362347,-1554.432478,10881.027347
3676.627613,0.000000,-444.123565,10066.800811
3676.627928,1072.533697,592.164754,9178.553681
3676.628242,2298.286494,1554.432478,8068.244768
3676.628557,2911.162892,1110.308913,7402.059420
3676.628871,2757.943793,1480.411884,7254.018232
3676.629185,2068.457845,962.267725,8438.347739
3676.629500,1915.238745,-370.102971,8882.471304
3676.629814,229.828649,-814.226536,9844.739029
3676.630129,-995.924147,-1702.473667,10584.944971
3676.630443,-1838.629195,-2294.638420,11695.253884
3676.630757,-2451.505594,-2294.638420,11843.295072
3676.631072,-2145.067394,-1924.535449,11843.295072
3676.631386,-1915.238745,-1406.391290,10881.027347
3676.631701,-766.095498,-1036.288319,10140.821405
3676.632015,459.657299,-0.000000,9474.636058
3676.632329,1608.800546,740.205942,8364.327145
3676.632644,1532.190996,1110.308913,7254.018232
3676.632958,2374.896044,1702.473667,7105.977043
3676.633272,1915.238745,1850.514855,7031.956449
3676.633587,1378.971896,1110.308913,7994.224174
3676.633901,536.266849,444.123565,8808.450710
3676.634216,-919.314598,-0.000000,9548.656652
3676.634530,-1762.019645,-888.247130,10807.006753
3676.634844,-2298.286494,-1110.308913,11843.295072
3676.635159,-2451.505594,-1406.391290,11843.295072
3676.635473,-2451.505594,-962.267725,11695.253884
3676.635788,-1149.143247,-222.061783,10658.965565
3676.636102,0.000000,592.164754,9770.718434
3676.636416,689.485948,1776.494261,9030.512492
3676.636731,1991.848295,2220.617826,8142.265362
3676.637045,2987.772442,2368.659014,7476.080014
3676.637360,2451.505594,2442.679609,7179.997637
3676.637674,2221.676944,2072.576638,7624.121203
3676.637988,1378.971896,1110.308913,8438.347739
3676.638303,459.657299,518.144159,9696.697840
3676.638617,-383.047749,-148.041188,10288.862594
3676.638931,-1149.143247,-296.082377,11251.130318
3676.639246,-1915.238745,-666.185348,11621.233289
3676.639560,-1915.238745,-666.185348,11621.233289
3676.639875,-1225.752797,-0.000000,11547.212695
3676.640189,-766.095498,222.061783,10955.047942
3676.640503,229.828649,1184.329507,9844.739029
3676.640818,1455.581446,1702.473667,9326.594869
3676.641132,2145.067394,2220.617826,8438.347739
3676.641447,2604.724693,2590.720797,7846.182985
3676.641761,2068.457845,2368.659014,8216.285956
3676.642075,1302.362347,1702.473667,8142.265362
3676.642390,919.314598,740.205942,9252.574275
3676.642704,-229.828649,-0.000000,10066.800811
3676.643019,-1149.143247,-666.185348,10658.965565
3676.643332,-2145.067394,-1480.411884,11251.130318
3676.643646,-2145.067394,-1258.350101,11917.315666
3676.643960,-1838.629195,-888.247130,11769.274478
3676.644275,-1378.971896,-518.144159,11325.150913
3676.644589,0.000000,370.102971,10066.800811
3676.644904,1378.971896,814.226536,8808.450710
3676.645218,1685.410096,1554.432478,8734.430116
3676.645532,2145.067394,1998.556043,7920.203579
3676.645847,2451.505594,1924.535449,7476.080014
3676.646161,1991.848295,1702.473667,7476.080014
3676.646475,1685.410096,592.164754,7994.224174
3676.646790,766.095498,-0.000000,8734.430116
3676.647104,0.000000,-296.082377,9548.656652
3676.647418,-1302.362347,-1258.350101,11029.068536
3676.647733,-1838.629195,-1628.453072,11473.192101
3676.648047,-2068.457845,-1998.556043,11547.212695
3676.648362,-1915.238745,-1184.329507,11177.109724
3676.648676,-842.705048,-814.226536,10658.965565
3676.648990,0.000000,-148.041188,10140.821405
3676.649305,1225.752797,666.185348,9104.533087
3676.649619,2068.457845,888.247130,7698.141797
3676.649933,2451.505594,1406.391290,7105.977043
3676.650248,2528.115143,1406.391290,6957.935855
3676.650562,2068.457845,1110.308913,7402.059420
3676.650877,1302.362347,370.102971,8216.285956
3676.651191,0.000000,-148.041188,9178.553681
3676.651505,-1302.362347,-1554.432478,9844.739029
3676.651820,-1838.629195,-2146.597232,10881.027347
3676.652134,-2451.505594,-2368.659014,11695.253884
3676.652448,-2681.334243,-2072.576638,11917.315666
3676.652763,-2298.286494,-1480.411884,11621.233289
3676.653077,-1072.533697,-962.267725,10510.924376
3676.653391,76.609550,-0.000000,9696.697840
3676.653706,995.924147,814.226536,8734.430116
3676.654020,1455.581446,1776.494261,7624.121203
3676.654335,2145.067394,1332.370696,7476.080014
3676.654649,2451.505594,1406.391290,6809.894666
3676.654963,1762.019645,370.102971,7846.182985
3676.655278,459.657299,-0.000000,8734.430116
3676.655592,-459.657299,-962.267725,9252.574275
3676.655906,-2145.067394,-1554.432478,10658.965565
3676.656221,-2681.334243,-2146.597232,11547.212695
3676.656535,-2681.334243,-2368.659014,12139.377449
3676.656849,-2604.724693,-2072.576638,11843.295072
3676.657164,-1685.410096,-1036.288319,11399.171507
3676.657478,-612.876398,-222.061783,9992.780217
3676.657793,842.705048,962.267725,8882.471304
3676.658107,2145.067394,1554.432478,8438.347739
3676.658421,2528.115143,2146.597232,7328.038826
3676.658736,2987.772442,2220.617826,7105.977043
3676.659050,2604.724693,1998.556043,7328.038826
3676.659364,2068.457845,1184.329507,8290.306550
3676.659679,689.485948,296.082377,9548.656652
3676.659993,-612.876398,-518.144159,10066.800811
3676.660308,-1991.848295,-1258.350101,11325.150913
3676.660622,-2451.505594,-1702.473667,12065.356855
3676.660936,-2911.162892,-1628.453072,11991.336260
3676.661251,-2068.457845,-1110.308913,12065.356855
3676.661565,-1225.752797,-222.061783,11029.068536
3676.661879,0.000000,814.226536,9992.780217
3676.662194,995.924147,1776.494261,8956.491898
3676.662508,2221.676944,2516.700203,7920.203579
3676.662822,2757.943793,2960.823768,7402.059420
3676.663137,2681.334243,2516.700203,7328.038826
3676.663451,2374.896044,1998.556043,7698.141797
3676.663766,1532.190996,962.267725,8808.450710
3676.664080,229.828649,518.144159,9844.739029
3676.664394,-1149.143247,-518.144159,10436.903782
3676.664709,-2145.067394,-1776.494261,11473.192101
3676.665023,-2145.067394,-1850.514855,12435.459826
3676.665337,-2757.943793,-1406.391290,12065.356855
3676.665652,-2145.067394,-1036.288319,11547.212695
3676.665966,-995.924147,-74.020594,11103.089130
3676.666280,0.000000,888.247130,9548.656652
3676.666595,1838.629195,1628.453072,8364.327145
3676.666909,2528.115143,1924.535449,7328.038826
3676.667224,2681.334243,2368.659014,7179.997637
3676.667538,2834.553343,2072.576638,7254.018232
3676.667852,2451.505594,1554.432478,7550.100608
3676.668167,1455.581446,666.185348,8216.285956
3676.668481,0.000000,296.082377,9252.574275
3676.668795,-995.924147,-814.226536,10658.965565
3676.669110,-2221.676944,-1702.473667,11695.253884
3676.669424,-2528.115143,-1776.494261,11843.295072
3676.669738,-2757.943793,-1776.494261,11843.295072
3676.670053,-1302.362347,-888.247130,10807.006753
3676.670367,-229.828649,-0.000000,10214.842000
3676.670682,842.705048,888.247130,9770.718434
3676.670996,1991.848295,1554.432478,8216.285956
3676.671310,2528.115143,2368.659014,7105.977043
3676.671625,2911.162892,2368.659014,7105.977043
3676.671939,2604.724693,2294.638420,7698.141797
3676.672253,1991.848295,1332.370696,8142.265362
3676.672568,1455.581446,518.144159,9030.512492
3676.672882,-766.095498,-592.164754,9918.759623
3676.673197,-1685.410096,-1184.329507,10881.027347
3676.673511,-2145.067394,-1554.432478,11843.295072
3676.673825,-2604.724693,-1628.453072,11991.336260
3676.674140,-2374.896044,-1850.514855,11547.212695
3676.674454,-1378.971896,-962.267725,10807.006753
3676.674768,-153.219100,-0.000000,10140.821405
3676.675083,919.314598,814.226536,9326.594869
3676.675397,1685.410096,1332.370696,8290.306550
3676.675711,1838.629195,2072.576638,7698.141797
3676.676026,2374.896044,1776.494261,7550.100608
3676.676340,2374.896044,1406.391290,7698.141797
3676.676655,1225.752797,740.205942,8438.347739
3676.676969,459.657299,222.061783,9548.656652
3676.677283,-919.314598,-814.226536,9918.759623
3676.677598,-1762.019645,-1480.411884,11251.130318
3676.677912,-2145.067394,-1850.514855,12065.356855
3676.678226,-2374.896044,-1776.494261,11991.336260
3676.678541,-1149.143247,-1628.453072,11251.130318
3676.678855,-229.828649,-592.164754,10584.944971
3676.679169,229.828649,222.061783,9548.656652
3676.679484,842.705048,814.226536,8364.327145
3676.679798,1838.629195,814.226536,8660.409521
3676.680113,2528.115143,1776.494261,7550.100608
3676.680427,2145.067394,1406.391290,7328.038826
3676.680741,1915.238745,666.185348,8216.285956
3676.681056,766.095498,-0.000000,9326.594869
3676.681370,-306.438199,-592.164754,10140.821405
3676.681684,-1532.190996,-1924.535449,11029.068536
3676.681999,-1915.238745,-1628.453072,11769.274478
3676.682313,-2298.286494,-1776.494261,12139.377449
3676.682628,-2221.676944,-1480.411884,11991.336260
3676.682942,-689.485948,-888.247130,11399.171507
3676.683256,-536.266849,-0.000000,10066.800811
3676.683571,612.876398,814.226536,9178.553681
3676.683885,1762.019645,1406.391290,7920.203579
3676.684199,1991.848295,1702.473667,7179.997637
3676.684514,2298.286494,1702.473667,7624.121203
3676.684828,2374.896044,1406.391290,7846.182985
3676.685142,1149.143247,370.102971,7846.182985
3676.685457,306.438199,-222.061783,9622.677246
3676.685771,-1072.533697,-444.123565,10214.842000
3676.686086,-1838.629195,-1480.411884,11325.150913
3676.686400,-2221.676944,-1628.453072,11843.295072
3676.686714,-2451.505594,-1702.473667,11547.212695
3676.687029,-1608.800546,-1184.329507,10881.027347
3676.687343,-459.657299,-518.144159,10362.883188
3676.687657,306.438199,666.185348,9548.656652
3676.687972,1685.410096,1480.411884,8142.265362
3676.688286,2374.896044,2146.597232,7550.100608
3676.688600,2221.676944,2072.576638,6957.935855
3676.688915,2681.334243,1628.453072,7328.038826
3676.689229,2374.896044,1628.453072,7772.162391
3676.689544,766.095498,740.205942,8512.368333
3676.689858,0.000000,-0.000000,9622.677246
3676.690172,-1149.143247,-888.247130,10658.965565
3676.690487,-1991.848295,-1850.514855,11621.233289
3676.690801,-2298.286494,-1554.432478,12213.398043
3676.691115,-2451.505594,-1036.288319,11917.315666
3676.691430,-1455.581446,-444.123565,11251.130318
3676.691744,0.000000,444.123565,10436.903782
3676.692059,766.095498,962.267725,9548.656652
3676.692373,2374.896044,2072.576638,8660.409521
3676.692687,2451.505594,2368.659014,7698.141797
3676.693002,2604.724693,2442.679609,7550.100608
3676.693316,2604.724693,2220.617826,7624.121203
3676.693630,1762.019645,1406.391290,9030.512492
3676.693945,689.485948,296.082377,9326.594869
3676.694259,-995.924147,-444.123565,10066.800811
3676.694573,-1838.629195,-1036.288319,11547.212695
3676.694888,-1991.848295,-1406.391290,12213.398043
3676.695202,-2451.505594,-1480.411884,12287.418637
3676.695517,-2145.067394,-1184.329507,11621.233289
3676.695831,-842.705048,-148.041188,10658.965565
3676.696145,306.438199,740.205942,9992.780217
3676.696460,1455.581446,1480.411884,9178.553681
3676.696774,2221.676944,2220.617826,8068.244768
3676.697088,2757.943793,3182.885551,7550.100608
3676.697403,2681.334243,2590.720797,6883.915261
3676.697717,2221.676944,1850.514855,7328.038826
3676.698031,1532.190996,962.267725,8438.347739
3676.698346,229.828649,-74.020594,9696.697840
3676.698660,-1149.143247,-1036.288319,10362.883188
3676.698975,-1762.019645,-1628.453072,11177.109724
3676.699289,-2374.896044,-1776.494261,12139.377449
3676.699603,-2604.724693,-1850.514855,11621.233289
3676.699918,-1915.238745,-1480.411884,11325.150913
3676.700232,-766.095498,-222.061783,10436.903782
3676.700546,229.828649,296.082377,9474.636058
3676.700861,1685.410096,1184.329507,8142.265362
3676.701175,2221.676944,1776.494261,7254.018232
3676.701490,2757.943793,1480.411884,7328.038826
3676.701804,2298.286494,1406.391290,7402.059420
3676.702118,1762.019645,1184.329507,7846.182985
3676.702433,919.314598,148.041188,9178.553681
3676.702747,-536.266849,-370.102971,9918.759623
3676.703061,-1991.848295,-1628.453072,10807.006753
3676.703376,-2681.334243,-2072.576638,11473.192101
3676.703690,-2834.553343,-1998.556043,12287.418637
3676.704004,-2528.115143,-1998.556043,11843.295072
3676.704319,-1838.629195,-1406.391290,11547.212695
3676.704633,-536.266849,-370.102971,10214.842000
3676.704948,459.657299,444.123565,9104.533087
3676.705262,1685.410096,1036.288319,8290.306550
3676.705576,2068.457845,1480.411884,7698.141797
3676.705891,2528.115143,1554.432478,7698.141797
3676.706205,2298.286494,1332.370696,7254.018232
3676.706519,2068.457845,592.164754,7476.080014
3676.706834,842.705048,-222.061783,8808.450710
3676.707148,-306.438199,-740.205942,9918.759623
3676.707462,-1455.581446,-1998.556043,10732.986159
3676.707777,-2604.724693,-2146.597232,11621.233289
3676.708091,-2604.724693,-2220.617826,11621.233289
3676.708406,-2068.457845,-2072.576638,11029.068536
3676.708720,-995.924147,-962.267725,10436.903782
3676.709034,0.000000,-370.102971,9770.718434
3676.709349,766.095498,370.102971,9104.533087
3676.709663,1378.971896,1406.391290,7846.182985
3676.709977,1991.848295,1924.535449,7328.038826
3676.710292,2451.505594,1628.453072,7402.059420
3676.710606,2145.067394,1332.370696,7846.182985
3676.710920,1532.190996,370.102971,8216.285956
3676.711235,-153.219100,-296.082377,9400.615463
3676.711549,-1072.533697,-592.164754,10288.862594
3676.711864,-1762.019645,-1332.370696,11325.150913
3676.712178,-1838.629195,-1628.453072,11769.274478
3676.712492,-2068.457845,-1184.329507,11695.253884
3676.712807,-1455.581446,-740.205942,10732.986159
3676.713121,-306.438199,-0.000000,9918.759623
3676.713435,1072.533697,666.185348,9622.677246
3676.713750,1685.410096,1480.411884,8512.368333
3676.714064,2221.676944,2146.597232,7402.059420
3676.714379,2604.724693,2368.659014,7254.018232
3676.714693,2604.724693,2146.597232,7624.121203
3676.715007,2145.067394,1702.473667,8364.327145
3676.715322,766.095498,814.226536,9104.533087
3676.715636,-383.047749,222.061783,9844.739029
3676.715950,-1532.190996,-814.226536,11251.130318
3676.716265,-1838.629195,-740.205942,11843.295072
3676.716579,-1915.238745,-1258.350101,12509.480420
3676.716893,-1685.410096,-740.205942,11621.233289
3676.717208,-1072.533697,296.082377,11029.068536
3676.717522,0.000000,740.205942,10066.800811
3676.717837,1225.752797,1924.535449,9474.636058
3676.718151,1838.629195,2072.576638,8290.306550
3676.718465,2374.896044,2664.741391,7772.162391
3676.718780,2451.505594,2442.679609,7402.059420
3676.719094,1991.848295,1702.473667,7846.182985
3676.719408,766.095498,1110.308913,8808.450710
3676.719723,0.000000,296.082377,10066.800811
3676.720037,-1302.362347,-296.082377,10066.800811
3676.720351,-2221.676944,-1110.308913,11399.171507
3676.720666,-2451.505594,-1036.288319,12065.356855
3676.720980,-2298.286494,-1258.350101,12065.356855
3676.721295,-1991.848295,-592.164754,11325.150913
3676.721609,-612.876398,-0.000000,10584.944971
3676.721923,536.266849,962.267725,9770.718434
3676.722238,1532.190996,1850.514855,8660.409521
3676.722552,2145.067394,2146.597232,7846.182985
3676.722866,2681.334243,2294.638420,7550.100608
3676.723181,2528.115143,1998.556043,7254.018232
3676.723495,1838.629195,1406.391290,7476.080014
3676.723810,1149.143247,592.164754,8808.450710
3676.724124,0.000000,-518.144159,9474.636058
3676.724438,-1302.362347,-1110.308913,10214.842000
3676.724753,-1991.848295,-1998.556043,11621.233289
3676.725067,-2374.896044,-2146.597232,11843.295072
3676.725381,-2221.676944,-1850.514855,11917.315666
3676.725696,-1455.581446,-1036.288319,12065.356855
3676.726010,-229.828649,-222.061783,10288.862594
3676.726324,612.876398,370.102971,9696.697840
3676.726639,1225.752797,1258.350101,8290.306550
3676.726953,2298.286494,1480.411884,7476.080014
3676.727268,2145.067394,1258.350101,7402.059420
3676.727582,1762.019645,1406.391290,7920.203579
3676.727896,1455.581446,592.164754,8142.265362
3676.728211,229.828649,-518.144159,8734.430116
3676.728525,-1149.143247,-1036.288319,9696.697840
3676.728839,-1838.629195,-1998.556043,10955.047942
3676.729154,-2374.896044,-2664.741391,11473.192101
3676.729468,-2604.724693,-2368.659014,11547.212695
3676.729782,-1532.190996,-2220.617826,11177.109724
3676.730097,-1072.533697,-2072.576638,11029.068536
3676.730411,0.000000,-814.226536,9770.718434
3676.730726,612.876398,-74.020594,8512.368333
3676.731040,1685.410096,1110.308913,7624.121203
3676.731354,2145.067394,1554.432478,7105.977043
3676.731669,2757.943793,1628.453072,7179.997637
3676.731983,2451.505594,1184.329507,7402.059420
3676.732297,1455.581446,370.102971,8216.285956
3676.732612,383.047749,-592.164754,9252.574275
3676.732926,-766.095498,-814.226536,9992.780217
3676.733241,-1685.410096,-1850.514855,11325.150913
3676.733555,-2068.457845,-2072.576638,11843.295072
3676.733869,-2451.505594,-1924.535449,11547.212695
3676.734184,-1685.410096,-1480.411884,10732.986159
3676.734498,-689.485948,-666.185348,10436.903782
3676.734812,459.657299,-0.000000,10066.800811
3676.735127,1225.752797,1406.391290,8734.430116
3676.735441,2068.457845,1850.514855,8142.265362
3676.735755,2374.896044,1776.494261,7105.977043
3676.736070,2451.505594,1776.494261,7105.977043
3676.736384,2145.067394,1480.411884,8364.327145
3676.736699,919.314598,444.123565,8734.430116
3676.737013,-229.828649,-0.000000,9918.759623
3676.737327,-1302.362347,-296.082377,10658.965565
3676.737642,-1838.629195,-1110.308913,11769.274478
3676.737956,-2298.286494,-1554.432478,12065.356855
3676.738270,-2298.286494,-1110.308913,11843.295072
3676.738585,-1532.190996,-296.082377,11473.192101
3676.738899,-689.485948,222.061783,10214.842000
3676.739213,612.876398,1184.329507,9622.677246
3676.739528,1378.971896,1702.473667,8882.471304
3676.739842,2068.457845,2294.638420,7698.141797
3676.740157,2298.286494,2368.659014,7550.100608
3676.740471,1991.848295,2146.597232,7772.162391
3676.740785,1991.848295,1332.370696,8734.430116
3676.741100,612.876398,740.205942,9030.512492
3676.741414,-536.266849,-74.020594,10140.821405
3676.741728,-1455.581446,-518.144159,11177.109724
3676.742043,-1762.019645,-888.247130,11769.274478
3676.742357,-1532.190996,-1258.350101,11917.315666
3676.742672,-1455.581446,-370.102971,11325.150913
3676.742986,-459.657299,222.061783,10436.903782
3676.743300,0.000000,666.185348,9548.656652
3676.743615,1378.971896,1554.432478,9252.574275
3676.743929,2068.457845,2220.617826,8216.285956
3676.744243,2298.286494,2146.597232,7328.038826
3676.744558,2374.896044,2220.617826,7772.162391
3676.744872,1762.019645,2072.576638,7550.100608
3676.745187,1072.533697,962.267725,8512.368333
3676.745501,76.609550,148.041188,9844.739029
3676.745815,-1532.190996,-444.123565,10584.944971
3676.746130,-1915.238745,-1406.391290,11621.233289
3676.746444,-2374.896044,-1110.308913,11843.295072
3676.746759,-2221.676944,-1110.308913,11621.233289
3676.747073,-1302.362347,-740.205942,12361.439231
3676.747387,-689.485948,-148.041188,10362.883188
3676.747702,459.657299,888.247130,9474.636058
3676.748016,1455.581446,1554.432478,8438.347739
3676.748331,2298.286494,1850.514855,7698.141797
3676.748645,2528.115143,2146.597232,7105.977043
3676.748959,2145.067394,1554.432478,7476.080014
3676.749274,1685.410096,666.185348,8586.388927
3676.749588,612.876398,-0.000000,8956.491898
3676.749903,-306.438199,-962.267725,9844.739029
3676.750217,-1455.581446,-1406.391290,11325.150913
3676.750531,-2145.067394,-1924.535449,11621.233289
3676.750846,-2221.676944,-1776.494261,11917.315666
3676.751160,-1991.848295,-1628.453072,11695.253884
3676.751475,-306.438199,-1110.308913,11029.068536
3676.751789,306.438199,-444.123565,10214.842000
3676.752103,1149.143247,592.164754,8734.430116
3676.752418,2374.896044,1406.391290,7772.162391
3676.752732,2528.115143,1776.494261,7402.059420
3676.753047,2834.553343,1554.432478,7179.997637
3676.753361,2374.896044,888.247130,7254.018232
3676.753675,1532.190996,-0.000000,7994.224174
3676.753990,459.657299,-444.123565,9030.512492
3676.754304,-919.314598,-962.267725,9770.718434
3676.754619,-1991.848295,-2072.576638,11399.171507
3676.754933,-2298.286494,-2738.761985,11843.295072
3676.755248,-2068.457845,-2072.576638,11843.295072
3676.755562,-2145.067394,-1776.494261,11325.150913
3676.755876,-1149.143247,-888.247130,10658.965565
3676.756191,0.000000,-0.000000,9696.697840
3676.756505,919.314598,1036.288319,9030.512492
3676.756820,1991.848295,1332.370696,7772.162391
3676.757134,2298.286494,2146.597232,7105.977043
3676.757448,2451.505594,1702.473667,7105.977043
3676.757763,2374.896044,814.226536,7846.182985
3676.758077,1225.752797,-0.000000,8660.409521
3676.758392,153.219100,-592.164754,9696.697840
3676.758706,-1378.971896,-1036.288319,10584.944971
3676.759020,-1915.238745,-1998.556043,11473.192101
3676.759335,-2221.676944,-1998.556043,12213.398043
3676.759649,-2451.505594,-1628.453072,11991.336260
3676.759964,-1608.800546,-1036.288319,11251.130318
3676.760278,-459.657299,-296.082377,9844.739029
3676.760592,536.266849,666.185348,8956.491898
3676.760907,2145.067394,1332.370696,8364.327145
3676.761221,1838.629195,1998.556043,7624.121203
3676.761536,2374.896044,2146.597232,7179.997637
3676.761850,2451.505594,1924.535449,7328.038826
3676.762164,1455.581446,962.267725,7994.224174
3676.762479,766.095498,296.082377,9252.574275
3676.762793,-766.095498,-444.123565,9770.718434
3676.763108,-1762.019645,-1406.391290,11103.089130
3676.763422,-2451.505594,-1628.453072,11843.295072
3676.763736,-2834.553343,-1628.453072,12287.418637
3676.764051,-2451.505594,-1036.288319,11991.336260
3676.764365,-1455.581446,-148.041188,11251.130318
3676.764680,0.000000,518.144159,9474.636058
3676.764994,1149.143247,1702.473667,8956.491898
3676.765308,1685.410096,1628.453072,8364.327145
3676.765623,2528.115143,2146.597232,7476.080014
3676.765937,2451.505594,2220.617826,7179.997637
3676.766252,2451.505594,1924.535449,7402.059420
3676.766566,1991.848295,1258.350101,8438.347739
3676.766880,536.266849,740.205942,9548.656652
3676.767195,-842.705048,-74.020594,10140.821405
3676.767509,-1532.190996,-1406.391290,11399.171507
3676.767824,-2221.676944,-1628.453072,11991.336260
3676.768138,-2145.067394,-1110.308913,11621.233289
3676.768452,-1532.190996,-592.164754,11251.130318
3676.768767,-689.485948,-0.000000,10584.944971
3676.769081,153.219100,666.185348,9696.697840
3676.769396,1685.410096,1480.411884,9030.512492
3676.769710,2681.334243,2294.638420,7920.203579
3676.770024,2528.115143,2590.720797,7179.997637
3676.770339,2451.505594,2590.720797,7772.162391
3676.770653,1991.848295,1554.432478,8142.265362
3676.770968,995.924147,518.144159,9030.512492
3676.771282,-229.828649,-148.041188,9548.656652
3676.771596,-1532.190996,-888.247130,11103.089130
3676.771911,-2374.896044,-1554.432478,12065.356855
3676.772225,-2528.115143,-1850.514855,12361.439231
3676.772540,-2451.505594,-1258.350101,11991.336260
3676.772854,-1991.848295,-1036.288319,11547.212695
3676.773168,-612.876398,-148.041188,10584.944971
3676.773483,306.438199,666.185348,9474.636058
3676.773797,1378.971896,1332.370696,8364.327145
3676.774112,2145.067394,2442.679609,7846.182985
3676.774426,2221.676944,2146.597232,7328.038826
3676.774740,2145.067394,1776.494261,7254.018232
3676.775055,1762.019645,1036.288319,8290.306550
3676.775369,842.705048,148.041188,8512.368333
3676.775684,0.000000,-296.082377,9696.697840
3676.775998,-1225.752797,-1554.432478,10510.924376
3676.776313,-1838.629195,-2294.638420,11843.295072
3676.776627,-2451.505594,-1998.556043,11769.274478
3676.776941,-2221.676944,-1480.411884,11399.171507
3676.777256,-1225.752797,-962.267725,10584.944971
3676.777570,-229.828649,-0.000000,9696.697840
3676.777885,1149.143247,814.226536,9178.553681
3676.778199,1838.629195,1258.350101,7328.038826
3676.778513,1838.629195,1110.308913,6883.915261
3676.778828,2298.286494,1702.473667,7254.018232
3676.779142,1838.629195,1184.329507,7846.182985
3676.779457,995.924147,740.205942,8586.388927
3676.779771,-229.828649,-0.000000,9548.656652
3676.780085,-1302.362347,-962.267725,10140.821405
3676.780400,-1838.629195,-1628.453072,11325.150913
3676.780714,-2221.676944,-1850.514855,12287.418637
3676.781029,-2528.115143,-1406.391290,12287.418637
3676.781343,-1762.019645,-888.247130,11325.150913
3676.781657,-1072.533697,-296.082377,10362.883188
3676.781972,229.828649,444.123565,9622.677246
3676.782286,1455.581446,962.267725,8734.430116
3676.782601,1838.629195,1258.350101,7550.100608
3676.782915,2298.286494,1258.350101,7254.018232
3676.783229,2604.724693,1480.411884,7624.121203
3676.783544,1838.629195,740.205942,7624.121203
3676.783858,919.314598,444.123565,8956.491898
3676.784173,-229.828649,-148.041188,9622.677246
3676.784487,-1455.581446,-1110.308913,10436.903782
3676.784801,-1991.848295,-1406.391290,11695.253884
3676.785116,-2221.676944,-1480.411884,11769.274478
3676.785430,-2221.676944,-1258.350101,11769.274478
3676.785745,-1149.143247,-888.247130,10881.027347
3676.786059,0.000000,-0.000000,10140.821405
3676.786373,536.266849,1184.329507,9548.656652
3676.786688,1685.410096,1258.350101,7846.182985
3676.787002,2604.724693,1998.556043,7698.141797
3676.787317,2528.115143,2220.617826,7624.121203
3676.787631,2068.457845,2072.576638,7402.059420
3676.787945,1532.190996,814.226536,7772.162391
3676.788260,306.438199,296.082377,9326.594869
3676.788574,-612.876398,-148.041188,10288.862594
3676.788889,-1685.410096,-1258.350101,10658.965565
3676.789203,-2145.067394,-1480.411884,11325.150913
3676.789517,-2145.067394,-1110.308913,12361.439231
3676.789832,-1991.848295,-518.144159,11473.192101
3676.790146,-995.924147,-0.000000,10732.986159
3676.790461,0.000000,814.226536,9992.780217
3676.790775,1455.581446,1554.432478,8956.491898
3676.791089,2681.334243,2072.576638,7994.224174
3676.791404,2451.505594,2516.700203,7624.121203
3676.791718,2451.505594,2294.638420,7698.141797
3676.792033,1915.238745,1850.514855,8216.285956
3676.792347,1455.581446,1036.288319,8808.450710
3676.792661,153.219100,296.082377,9548.656652
3676.792976,-1378.971896,-592.164754,10732.986159
3676.793290,-1838.629195,-1258.350101,11843.295072
3676.793605,-2451.505594,-1628.453072,12065.356855
3676.793919,-2374.896044,-1406.391290,11917.315666
3676.794233,-1685.410096,-1480.411884,11103.089130
3676.794548,0.000000,-296.082377,10288.862594
3676.794862,612.876398,592.164754,9622.677246
3676.795177,1762.019645,1258.350101,8216.285956
3676.795491,2374.896044,1998.556043,7328.038826
3676.795805,2451.505594,1776.494261,7105.977043
3676.796120,2068.457845,1406.391290,7550.100608
3676.796434,1378.971896,888.247130,8364.327145
3676.796749,536.266849,-222.061783,9178.553681
3676.797063,-383.047749,-1110.308913,10214.842000
3676.797378,-1302.362347,-1850.514855,10510.924376
3676.797692,-2374.896044,-2220.617826,11769.274478
3676.798006,-2451.505594,-1776.494261,12139.377449
3676.798321,-2068.457845,-1480.411884,11473.192101
3676.798635,-1072.533697,-518.144159,10955.047942
3676.798950,306.438199,296.082377,10140.821405
3676.799264,1608.800546,962.267725,8808.450710
3676.799578,2145.067394,1406.391290,7402.059420
3676.799893,2298.286494,1554.432478,6883.915261
3676.800207,2757.943793,2072.576638,7254.018232
3676.800522,2145.067394,1406.391290,7328.038826
3676.800836,1378.971896,592.164754,8290.306550
3676.801150,76.609550,-148.041188,9400.615463
3676.801465,-1149.143247,-888.247130,10288.862594
3676.801779,-2068.457845,-1702.473667,11251.130318
3676.802094,-1991.848295,-1776.494261,12065.356855
3676.802408,-2604.724693,-1850.514855,11917.315666
3676.802722,-1685.410096,-1184.329507,11103.089130
3676.803037,-689.485948,-222.061783,10288.862594
3676.803351,76.609550,592.164754,9918.759623
3676.803666,1532.190996,1628.453072,8956.491898
3676.803980,2298.286494,2220.617826,7846.182985
3676.804294,2528.115143,1924.535449,7550.100608
3676.804609,2604.724693,1850.514855,7328.038826
3676.804923,2145.067394,1332.370696,7846.182985
3676.805238,995.924147,296.082377,8438.347739
3676.805552,-229.828649,-592.164754,10066.800811
3676.805866,-1762.019645,-1554.432478,10881.027347
3676.806181,-2221.676944,-1924.535449,11547.212695
3676.806495,-2451.505594,-1998.556043,12213.398043
3676.806810,-2221.676944,-1406.391290,11769.274478
3676.807124,-1455.581446,-888.247130,11177.109724
3676.807438,-306.438199,-0.000000,10066.800811
3676.807753,766.095498,518.144159,9548.656652
3676.808067,1685.410096,1480.411884,8364.327145
3676.808382,2528.115143,1850.514855,7254.018232
3676.808696,2834.553343,1850.514855,7328.038826
3676.809010,2298.286494,1628.453072,7550.100608
3676.809325,2068.457845,962.267725,8438.347739
3676.809639,306.438199,296.082377,9474.636058
3676.809954,-689.485948,-444.123565,10214.842000
3676.810268,-1838.629195,-1258.350101,10881.027347
3676.810582,-2451.505594,-1776.494261,11843.295072
3676.810897,-2451.505594,-2072.576638,11769.274478
3676.811211,-2068.457845,-1036.288319,11399.171507
3676.811526,-1225.752797,-740.205942,10881.027347
3676.811840,0.000000,592.164754,9844.739029
3676.812154,1455.581446,1110.308913,8586.388927
3676.812469,1991.848295,2220.617826,7920.203579
3676.812783,2681.334243,2442.679609,7328.038826
3676.813098,2451.505594,2368.659014,7179.997637
3676.813412,2221.676944,1998.556043,7550.100608
3676.813726,1072.533697,962.267725,8068.244768
3676.814041,0.000000,148.041188,9548.656652
3676.814355,-1302.362347,-814.226536,10288.862594
3676.814670,-2451.505594,-1702.473667,11177.109724
3676.814984,-2451.505594,-1776.494261,12139.377449
3676.815298,-3217.601092,-1258.350101,11991.336260
3676.815613,-1991.848295,-1036.288319,11399.171507
3676.815927,-995.924147,-222.061783,10732.986159
3676.816242,153.219100,518.144159,9770.718434
3676.816556,1378.971896,1332.370696,8808.450710
3676.816870,2374.896044,2146.597232,7846.182985
3676.817185,2451.505594,2442.679609,7105.977043
3676.817499,2451.505594,1850.514855,7476.080014
3676.817814,1915.238745,1406.391290,7920.203579
3676.818128,1378.971896,148.041188,8438.347739
3676.818442,0.000000,-518.144159,9474.636058
3676.818757,-1149.143247,-1184.329507,10732.986159
3676.819071,-2145.067394,-1702.473667,11325.150913
3676.819386,-2451.505594,-1702.473667,11843.295072
3676.819700,-2221.676944,-1924.535449,11843.295072
3676.820015,-1302.362347,-888.247130,10807.006753
3676.820329,-229.828649,-74.020594,9918.759623
3676.820643,1302.362347,814.226536,9178.553681
3676.820958,1762.019645,1776.494261,8512.368333
3676.821272,2221.676944,2146.597232,7550.100608
3676.821587,2757.943793,1998.556043,7031.956449
3676.821901,2451.505594,1924.535449,7772.162391
3676.822215,1838.629195,1184.329507,8660.409521
3676.822530,536.266849,444.123565,9326.594869
3676.822844,-842.705048,-518.144159,10362.883188
3676.823159,-1608.800546,-1110.308913,11251.130318
3676.823473,-1915.238745,-1776.494261,11843.295072
3676.823787,-2374.896044,-1554.432478,12139.377449
3676.824102,-1608.800546,-1258.350101,11547.212695
3676.824416,-995.924147,-74.020594,10732.986159
3676.824731,153.219100,592.164754,9548.656652
3676.825045,1149.143247,1702.473667,9326.594869
3676.825359,1915.238745,2146.597232,7920.203579
3676.825674,2298.286494,1998.556043,7179.997637
3676.825988,2451.505594,1628.453072,7698.141797
3676.826303,2145.067394,1332.370696,8142.265362
3676.826617,919.314598,666.185348,8882.471304
3676.826931,-229.828649,-74.020594,9474.636058
3676.827246,-1532.190996,-1036.288319,10584.944971
3676.827560,-1685.410096,-1924.535449,11695.253884
3676.827875,-2451.505594,-1628.453072,11991.336260
3676.828189,-2451.505594,-1776.494261,11695.253884
3676.828503,-1838.629195,-1184.329507,11177.109724
3676.828818,-459.657299,-592.164754,10362.883188
3676.829132,459.657299,370.102971,9400.615463
3676.829447,1532.190996,1184.329507,8438.347739
3676.829761,2068.457845,1628.453072,7550.100608
3676.830075,2298.286494,1702.473667,7328.038826
3676.830390,2145.067394,1332.370696,7402.059420
3676.830704,1378.971896,666.185348,8142.265362
3676.831019,306.438199,-148.041188,8882.471304
3676.831333,-766.095498,-740.205942,9770.718434
3676.831647,-1915.238745,-1628.453072,10955.047942
3676.831962,-1991.848295,-2294.638420,11917.315666
3676.832276,-2834.553343,-2220.617826,11991.336260
3676.832591,-2451.505594,-1554.432478,11769.274478
3676.832905,-1532.190996,-740.205942,11325.150913
3676.833219,-229.828649,370.102971,10066.800811
3676.833534,536.266849,1110.308913,9326.594869
3676.833848,1072.533697,1628.453072,7624.121203
3676.834163,2068.457845,1406.391290,7328.038826
3676.834477,2298.286494,1702.473667,7328.038826
3676.834791,1991.848295,1406.391290,7920.203579
3676.835106,1455.581446,-0.000000,8586.388927
3676.835420,0.000000,-74.020594,8882.471304
3676.835735,-766.095498,-888.247130,9844.739029
3676.836049,-1915.238745,-1924.535449,10955.047942
3676.836363,-2298.286494,-1924.535449,11325.150913
3676.836678,-2298.286494,-1628.453072,11769.274478
3676.836992,-1685.410096,-888.247130,10807.006753
3676.837307,-612.876398,-518.144159,11103.089130
3676.837621,536.266849,370.102971,9474.636058
3676.837935,1685.410096,1184.329507,8512.368333
3676.838250,2681.334243,1480.411884,7920.203579
3676.838564,3064.381992,2146.597232,7179.997637
3676.838879,2987.772442,1998.556043,7179.997637
3676.839193,2451.505594,1258.350101,8068.244768
3676.839507,1991.848295,370.102971,8734.430116
3676.839822,459.657299,-444.123565,9474.636058
3676.840136,-842.705048,-740.205942,10658.965565
3676.840451,-1608.800546,-1702.473667,11695.253884
3676.840765,-2221.676944,-2072.576638,12361.439231
3676.841080,-2145.067394,-1628.453072,11843.295072
3676.841394,-1302.362347,-888.247130,11251.130318
3676.841708,0.000000,74.020594,9992.780217
3676.842023,1072.533697,1036.288319,9622.677246
3676.842337,1915.238745,1924.535449,8512.368333
3676.842652,2757.943793,2294.638420,7698.141797
3676.842966,2757.943793,2368.659014,7328.038826
3676.843280,2681.334243,2220.617826,7476.080014
3676.843595,1762.019645,1480.411884,8438.347739
3676.843909,766.095498,370.102971,9622.677246
3676.844224,-919.314598,-444.123565,9992.780217
3676.844538,-1838.629195,-740.205942,11695.253884
3676.844853,-2374.896044,-1110.308913,11991.336260
3676.845167,-2834.553343,-1480.411884,11843.295072
3676.845482,-2298.286494,-1036.288319,11769.274478
3676.845796,-1455.581446,-444.123565,11103.089130
3676.846111,0.000000,370.102971,9844.739029
3676.846425,995.924147,1110.308913,8956.491898
3676.846740,1838.629195,2072.576638,8068.244768
3676.847054,2221.676944,2516.700203,7254.018232
3676.847369,1915.238745,2294.638420,6957.935855
3676.847683,2221.676944,1998.556043,7254.018232
3676.847998,1378.971896,740.205942,8512.368333
3676.848312,229.828649,-0.000000,9326.594869
3676.848627,-1302.362347,-962.267725,9918.759623
3676.848941,-2298.286494,-1554.432478,11251.130318
3676.849256,-2911.162892,-1776.494261,12139.377449
3676.849570,-2987.772442,-1406.391290,11991.336260
3676.849885,-2374.896044,-1258.350101,11473.192101
3676.850199,-995.924147,-370.102971,10584.944971
3676.850514,0.000000,740.205942,9474.636058
3676.850828,1378.971896,1776.494261,8660.409521
3676.851143,2068.457845,2220.617826,7846.182985
3676.851457,2451.505594,1702.473667,7179.997637
3676.851772,2604.724693,1554.432478,7105.977043
3676.852086,2145.067394,1036.288319,7920.203579
3676.852401,919.314598,370.102971,8882.471304
3676.852715,0.000000,-296.082377,9770.718434
3676.853030,-1149.143247,-666.185348,10510.924376
3676.853344,-2145.067394,-1702.473667,11547.212695
3676.853659,-2451.505594,-1628.453072,11843.295072
3676.853973,-2145.067394,-1406.391290,11621.233289
3676.854288,-1608.800546,-1258.350101,11325.150913
3676.854602,0.000000,-370.102971,10658.965565
3676.854917,766.095498,-0.000000,9326.594869
3676.855231,1532.190996,1406.391290,8438.347739
3676.855546,2528.115143,1850.514855,7846.182985
3676.855860,2604.724693,2072.576638,7328.038826
3676.856175,2681.334243,2220.617826,7624.121203
3676.856489,2298.286494,1184.329507,8216.285956
3676.856804,919.314598,148.041188,9252.574275
3676.857118,0.000000,-592.164754,10214.842000
3676.857433,-1378.971896,-1554.432478,10955.047942
3676.857747,-1762.019645,-2146.597232,11843.295072
3676.858062,-2068.457845,-1702.473667,12065.356855
3676.858376,-1991.848295,-1554.432478,11695.253884
3676.858691,-995.924147,-740.205942,10881.027347
3676.859006,0.000000,296.082377,9918.759623
3676.859320,1072.533697,962.267725,8956.491898
3676.859635,2145.067394,1480.411884,7550.100608
3676.859949,2604.724693,1628.453072,7105.977043
3676.860264,2681.334243,1554.432478,7254.018232
3676.860578,2221.676944,1258.350101,7920.203579
3676.860893,1225.752797,666.185348,8290.306550
3676.861207,153.219100,-0.000000,9844.739029
3676.861522,-1225.752797,-592.164754,10732.986159
3676.861836,-1991.848295,-1332.370696,11695.253884
3676.862151,-2374.896044,-1628.453072,12213.398043
3676.862465,-2374.896044,-1776.494261,12213.398043
3676.862780,-1915.238745,-1184.329507,11547.212695
3676.863094,-766.095498,-296.082377,10510.924376
3676.863409,612.876398,444.123565,9992.780217
3676.863723,1762.019645,1702.473667,8734.430116
3676.864038,2298.286494,1702.473667,7476.080014
3676.864352,2757.943793,2220.617826,7179.997637
3676.864667,2451.505594,1850.514855,7254.018232
3676.864981,1685.410096,1332.370696,7846.182985
3676.865296,766.095498,-0.000000,9252.574275
3676.865610,-153.219100,-296.082377,9770.718434
3676.865925,-1608.800546,-1628.453072,10510.924376
3676.866239,-2221.676944,-1702.473667,11621.233289
3676.866554,-2757.943793,-1480.411884,12361.439231
3676.866868,-2374.896044,-1110.308913,11769.274478
3676.867183,-1455.581446,-740.205942,10658.965565
3676.867497,-536.266849,-0.000000,9696.697840
3676.867812,919.314598,962.267725,9252.574275
3676.868126,1532.190996,1702.473667,7846.182985
3676.868441,1991.848295,1924.535449,7624.121203
3676.868755,1915.238745,2220.617826,7105.977043
3676.869070,1915.238745,1850.514855,7402.059420
3676.869384,1302.362347,962.267725,7772.162391
3676.869699,0.000000,-0.000000,9252.574275
3676.870013,-1225.752797,-592.164754,10362.883188
3676.870328,-2374.896044,-1480.411884,11103.089130
3676.870642,-2451.505594,-1406.391290,12065.356855
3676.870957,-2604.724693,-1406.391290,11621.233289
3676.871271,-2451.505594,-1110.308913,11103.089130
3676.871586,-919.314598,-444.123565,10584.944971
3676.871900,306.438199,740.205942,9474.636058
3676.872215,1072.533697,1258.350101,8882.471304
3676.872529,2145.067394,1850.514855,7624.121203
3676.872844,2451.505594,2368.659014,7550.100608
3676.873158,2528.115143,2146.597232,7402.059420
3676.873473,2221.676944,1480.411884,7994.224174
3676.873787,1378.971896,518.144159,8586.388927
3676.874102,0.000000,-0.000000,9844.739029
3676.874417,-1072.533697,-1036.288319,10510.924376
3676.874731,-1838.629195,-1776.494261,11547.212695
3676.875046,-2451.505594,-1850.514855,12139.377449
3676.875360,-2068.457845,-1406.391290,12213.398043
3676.875675,-1302.362347,-814.226536,11547.212695
3676.875989,-229.828649,-0.000000,10510.924376
3676.876304,689.485948,814.226536,9844.739029
3676.876618,1991.848295,1184.329507,8068.244768
3676.876933,2834.553343,2294.638420,7476.080014
3676.877247,2834.553343,2220.617826,7254.018232
3676.877562,2451.505594,1554.432478,7994.224174
3676.877876,1991.848295,888.247130,8216.285956
3676.878191,689.485948,-0.000000,9104.533087
3676.878505,-383.047749,-518.144159,9770.718434
3676.878820,-1608.800546,-1406.391290,10881.027347
3676.879134,-2221.676944,-1776.494261,11843.295072
3676.879449,-2528.115143,-1850.514855,11843.295072
3676.879763,-2374.896044,-1406.391290,11251.130318
3676.880078,-1149.143247,-962.267725,10436.903782
3676.880392,0.000000,-148.041188,10140.821405
3676.880707,689.485948,592.164754,9252.574275
3676.881021,1302.362347,1036.288319,8142.265362
3676.881336,2145.067394,1924.535449,6883.915261
3676.881650,2374.896044,1924.535449,7105.977043
3676.881965,2221.676944,1406.391290,7476.080014
3676.882279,1685.410096,296.082377,8364.327145
3676.882594,76.609550,-666.185348,9400.615463
3676.882908,-1149.143247,-1036.288319,9918.759623
3676.883223,-1762.019645,-1776.494261,10881.027347
3676.883537,-2451.505594,-1776.494261,11769.274478
3676.883852,-2604.724693,-1924.535449,11917.315666
3676.884166,-1762.019645,-1406.391290,10881.027347
3676.884481,-689.485948,-444.123565,10288.862594
3676.884795,612.876398,370.102971,9918.759623
3676.885110,1532.190996,1332.370696,8882.471304
3676.885424,2298.286494,2294.638420,7550.100608
3676.885739,2604.724693,2146.597232,6809.894666
3676.886053,2451.505594,1850.514855,7476.080014
3676.886368,2068.457845,1036.288319,8364.327145
3676.886682,1072.533697,296.082377,9326.594869
3676.886997,-536.266849,-518.144159,9918.759623
3676.887311,-1685.410096,-888.247130,10658.965565
3676.887626,-2221.676944,-1702.473667,11843.295072
3676.887940,-2604.724693,-1850.514855,12139.377449
3676.888255,-2298.286494,-1702.473667,11769.274478
3676.888569,-1302.362347,-814.226536,10955.047942
3676.888884,-459.657299,370.102971,9844.739029
3676.889198,536.266849,1110.308913,9104.533087
3676.889513,1685.410096,1998.556043,8216.285956
3676.889828,2298.286494,2368.659014,7476.080014
3676.890142,2451.505594,2072.576638,7254.018232
3676.890457,2374.896044,1702.473667,7698.141797
3676.890771,1225.752797,814.226536,8438.347739
3676.891086,76.609550,148.041188,9696.697840
3676.891400,-995.924147,-592.164754,10362.883188
3676.891715,-1915.238745,-1110.308913,11769.274478
3676.892029,-2451.505594,-1702.473667,11769.274478
3676.892344,-2528.115143,-1554.432478,11917.315666
3676.892658,-2068.457845,-888.247130,11399.171507
3676.892973,-842.705048,-296.082377,10584.944971
3676.893287,766.095498,666.185348,9696.697840
3676.893602,1532.190996,1184.329507,8512.368333
3676.893916,2604.724693,2146.597232,7476.080014
3676.894231,2757.943793,2368.659014,7031.956449
3676.894545,2834.553343,2294.638420,7550.100608
3676.894860,2221.676944,1628.453072,7772.162391
3676.895174,1225.752797,592.164754,8364.327145
3676.895489,0.000000,-370.102971,9770.718434
3676.895803,-919.314598,-888.247130,10584.944971
3676.896118,-1915.238745,-1702.473667,11473.192101
3676.896432,-2068.457845,-1702.473667,12139.377449
3676.896747,-2145.067394,-1480.411884,11843.295072
3676.897061,-1608.800546,-1110.308913,11621.233289
3676.897376,-383.047749,-296.082377,10955.047942
3676.897690,689.485948,888.247130,9622.677246
3676.898005,1991.848295,1332.370696,8660.409521
3676.898319,2681.334243,2220.617826,7550.100608
3676.898634,2911.162892,2220.617826,7254.018232
3676.898948,2451.505594,1628.453072,7328.038826
3676.899263,2451.505594,1110.308913,8068.244768
3676.899577,459.657299,-0.000000,8956.491898
3676.899892,-612.876398,-592.164754,9474.636058
3676.900206,-1685.410096,-1184.329507,10732.986159
3676.900521,-2528.115143,-2072.576638,11843.295072
3676.900835,-2834.553343,-2146.597232,11991.336260
3676.901150,-2528.115143,-1628.453072,11547.212695
3676.901464,-1455.581446,-814.226536,11029.068536
3676.901779,-306.438199,-0.000000,10066.800811
3676.902093,689.485948,1184.329507,9030.512492
3676.902408,2068.457845,1480.411884,8068.244768
3676.902722,2834.553343,2294.638420,7254.018232
3676.903037,2757.943793,2294.638420,7105.977043
3676.903351,2451.505594,1628.453072,7179.997637
3676.903666,1378.971896,1036.288319,7994.224174
3676.903980,229.828649,296.082377,9104.533087
3676.904295,-1149.143247,-1036.288319,9770.718434
3676.904609,-1991.848295,-1924.535449,10955.047942
3676.904924,-2298.286494,-2146.597232,11843.295072
3676.905238,-2987.772442,-2220.617826,11695.253884
3676.905553,-2451.505594,-1406.391290,11325.150913
3676.905868,-766.095498,-962.267725,10436.903782
3676.906182,0.000000,74.020594,9400.615463
3676.906497,1532.190996,1406.391290,8808.450710
3676.906811,2374.896044,1998.556043,7994.224174
3676.907126,2834.553343,2146.597232,7698.141797
3676.907440,2604.724693,2072.576638,7105.977043
3676.907755,2068.457845,1332.370696,7698.141797
3676.908069,995.924147,666.185348,9474.636058
3676.908384,-459.657299,-148.041188,10066.800811
3676.908698,-1991.848295,-1110.308913,11103.089130
3676.909013,-2604.724693,-1924.535449,12213.398043
3676.909327,-2451.505594,-1702.473667,12361.439231
3676.909642,-2221.676944,-1184.329507,12435.459826
3676.909956,-1838.629195,-740.205942,11399.171507
3676.910271,-229.828649,-0.000000,10288.862594
3676.910585,153.219100,814.226536,9770.718434
3676.910900,2145.067394,1998.556043,8216.285956
3676.911214,2604.724693,2516.700203,7402.059420
3676.911529,2757.943793,2220.617826,7031.956449
3676.911843,2681.334243,1850.514855,7105.977043
3676.912158,2298.286494,1110.308913,8142.265362
3676.912472,459.657299,148.041188,9400.615463
3676.912787,-919.314598,-592.164754,10436.903782
3676.913101,-2068.457845,-1776.494261,11251.130318
3676.913416,-2528.115143,-1850.514855,12213.398043
3676.913730,-3064.381992,-1850.514855,12583.501014
3676.914045,-2221.676944,-1184.329507,11843.295072
3676.914359,-995.924147,-444.123565,11177.109724
3676.914674,229.828649,444.123565,9548.656652
3676.914988,1608.800546,1332.370696,8142.265362
3676.915303,2528.115143,2294.638420,7476.080014
3676.915617,2911.162892,2294.638420,7328.038826
3676.915932,2911.162892,1850.514855,7105.977043
3676.916246,2374.896044,1406.391290,7328.038826
3676.916561,1532.190996,592.164754,8438.347739
3676.916875,0.000000,-296.082377,9178.553681
3676.917190,-1455.581446,-518.144159,10214.842000
3676.917504,-2145.067394,-1554.432478,11325.150913
3676.917819,-2528.115143,-1850.514855,12287.418637
3676.918133,-2681.334243,-1480.411884,11399.171507
3676.918448,-1991.848295,-1184.329507,10881.027347
3676.918762,-1072.533697,-222.061783,10436.903782
3676.919077,0.000000,518.144159,9992.780217
3676.919391,1532.190996,1554.432478,8956.491898
3676.919706,2451.505594,2146.597232,7846.182985
3676.920020,2834.553343,2590.720797,7328.038826
3676.920335,2834.553343,3034.844362,7476.080014
3676.920649,2068.457845,2146.597232,7624.121203
3676.920964,1225.752797,1036.288319,8660.409521
3676.921279,0.000000,-296.082377,9474.636058
3676.921593,-1685.410096,-1184.329507,10436.903782
3676.921908,-2374.896044,-1776.494261,11769.274478
3676.922222,-2987.772442,-2072.576638,11843.295072
3676.922537,-2451.505594,-1776.494261,11843.295072
3676.922851,-1915.238745,-1184.329507,10658.965565
3676.923166,-689.485948,-74.020594,10214.842000
3676.923480,306.438199,814.226536,9400.615463
3676.923795,1685.410096,1776.494261,8290.306550
3676.924109,2298.286494,2072.576638,7698.141797
3676.924424,3064.381992,2368.659014,7254.018232
3676.924738,2528.115143,1850.514855,7698.141797
3676.925053,1762.019645,1110.308913,8660.409521
3676.925367,689.485948,370.102971,9178.553681
3676.925682,-383.047749,-0.000000,9696.697840
3676.925996,-1532.190996,-666.185348,10955.047942
3676.926311,-2374.896044,-1628.453072,12361.439231
3676.926625,-2451.505594,-1850.514855,12657.521608
3676.926940,-2451.505594,-1480.411884,11843.295072
3676.927254,-1532.190996,-1480.411884,11251.130318
3676.927569,459.657299,-0.000000,10140.821405
3676.927883,1378.971896,962.267725,9252.574275
3676.928198,2221.676944,1776.494261,8142.265362
3676.928512,2987.772442,1924.535449,7550.100608
3676.928827,2757.943793,2146.597232,7402.059420
3676.929141,2451.505594,1850.514855,7624.121203
3676.929456,1915.238745,1110.308913,8216.285956
3676.929770,306.438199,222.061783,9474.636058
3676.930085,-612.876398,-814.226536,10436.903782
3676.930399,-2298.286494,-2294.638420,11325.150913
3676.930714,-2451.505594,-2294.638420,12435.459826
3676.931028,-2911.162892,-2072.576638,12287.418637
3676.931343,-2221.676944,-1406.391290,11621.233289
3676.931657,-919.314598,-518.144159,10436.903782
3676.931972,0.000000,-0.000000,9474.636058
3676.932286,1149.143247,1036.288319,8512.368333
3676.932601,1762.019645,1702.473667,7846.182985
3676.932915,2145.067394,1406.391290,7105.977043
3676.933230,2145.067394,1110.308913,7105.977043
3676.933544,1915.238745,740.205942,7476.080014
3676.933859,1072.533697,-0.000000,8364.327145
3676.934173,0.000000,-592.164754,9474.636058
3676.934488,-1685.410096,-1258.350101,10288.862594
3676.934802,-2145.067394,-2294.638420,11251.130318
3676.935117,-2528.115143,-2146.597232,11473.192101
3676.935431,-2451.505594,-1924.535449,10955.047942
3676.935746,-1685.410096,-1184.329507,10658.965565
3676.936060,-229.828649,-370.102971,9992.780217
3676.936375,612.876398,518.144159,8956.491898
3676.936690,1838.629195,1406.391290,7920.203579
3676.937004,2145.067394,1702.473667,7328.038826
3676.937319,2528.115143,1628.453072,7328.038826
3676.937633,1915.238745,1702.473667,7920.203579
3676.937948,1378.971896,814.226536,8068.244768
3676.938262,76.609550,-0.000000,9474.636058
3676.938577,-766.095498,-666.185348,10362.883188
3676.938891,-1455.581446,-1184.329507,11325.150913
3676.939206,-2145.067394,-1924.535449,11843.295072
3676.939520,-2451.505594,-1480.411884,11547.212695
3676.939835,-1685.410096,-740.205942,11621.233289
3676.940149,-842.705048,-74.020594,10732.986159
3676.940464,0.000000,444.123565,10140.821405
3676.940778,1685.410096,1332.370696,9326.594869
3676.941093,1915.238745,2146.597232,7772.162391
3676.941407,2528.115143,2220.617826,7550.100608
3676.941722,2681.334243,1924.535449,7994.224174
3676.942036,2145.067394,1702.473667,8512.368333
3676.942351,1225.752797,666.185348,9400.615463
3676.942665,-229.828649,-0.000000,10214.842000
3676.942980,-1072.533697,-740.205942,11029.068536
3676.943294,-2068.457845,-1332.370696,11843.295072
3676.943609,-1915.238745,-1258.350101,12435.459826
3676.943923,-2145.067394,-1332.370696,11769.274478
3676.944238,-1532.190996,-518.144159,11029.068536
3676.944552,-383.047749,-0.000000,10214.842000
3676.944867,995.924147,1110.308913,9770.718434
3676.945181,1991.848295,1702.473667,8512.368333
3676.945496,2451.505594,2146.597232,7550.100608
3676.945810,2451.505594,2294.638420,7031.956449
3676.946125,2681.334243,2294.638420,7328.038826
3676.946439,2068.457845,1406.391290,8142.265362
3676.946754,919.314598,518.144159,8882.471304
3676.947068,0.000000,-592.164754,9992.780217
3676.947383,-1685.410096,-1258.350101,10881.027347
3676.947697,-2374.896044,-1924.535449,11843.295072
3676.948012,-2528.115143,-1776.494261,12065.356855
3676.948326,-2374.896044,-1184.329507,11917.315666
3676.948641,-1302.362347,-296.082377,10584.944971
3676.948955,0.000000,518.144159,9992.780217
3676.949270,1302.362347,1480.411884,9252.574275
3676.949584,2221.676944,1998.556043,7920.203579
3676.949899,2528.115143,2294.638420,7105.977043
3676.950213,2757.943793,2072.576638,7031.956449
3676.950528,2451.505594,2072.576638,7402.059420
3676.950842,1532.190996,1036.288319,8512.368333
3676.951156,306.438199,-0.000000,9474.636058
3676.951471,-1072.533697,-740.205942,10288.862594
3676.951785,-1991.848295,-1924.535449,11029.068536
3676.952100,-2374.896044,-1998.556043,11991.336260
3676.952414,-2757.943793,-1776.494261,12065.356855
3676.952729,-1838.629195,-1332.370696,11473.192101
3676.953043,-612.876398,-740.205942,10584.944971
3676.953358,842.705048,518.144159,9548.656652
3676.953672,1378.971896,1332.370696,8438.347739
3676.953987,2451.505594,2072.576638,7846.182985
3676.954301,2604.724693,2220.617826,7550.100608
3676.954616,2987.772442,1850.514855,7031.956449
3676.954930,2145.067394,1406.391290,7402.059420
3676.955244,1072.533697,-0.000000,8216.285956
3676.955559,0.000000,-666.185348,9548.656652
3676.955873,-1532.190996,-1480.411884,10955.047942
3676.956188,-2451.505594,-2220.617826,12213.398043
3676.956502,-2757.943793,-1924.535449,12213.398043
3676.956817,-2911.162892,-1998.556043,11991.336260
3676.957131,-1762.019645,-1184.329507,11029.068536
3676.957446,-689.485948,-0.000000,10288.862594
3676.957760,689.485948,370.102971,9474.636058
3676.958075,1685.410096,1258.350101,8660.409521
3676.958389,2451.505594,1850.514855,7550.100608
3676.958704,2451.505594,1924.535449,7105.977043
3676.959018,2604.724693,1554.432478,7550.100608
3676.959332,1915.238745,814.226536,7920.203579
3676.959647,766.095498,-74.020594,9030.512492
3676.959961,-459.657299,-592.164754,9918.759623
3676.960276,-1608.800546,-1332.370696,11029.068536
3676.960590,-1991.848295,-1998.556043,11843.295072
3676.960905,-2757.943793,-1554.432478,11473.192101
3676.961219,-2221.676944,-1480.411884,11621.233289
3676.961534,-1302.362347,-592.164754,10732.986159
3676.961848,0.000000,-148.041188,10214.842000
3676.962163,689.485948,814.226536,9030.512492
3676.962477,2298.286494,1332.370696,8290.306550
3676.962791,2451.505594,2146.597232,7179.997637
3676.963106,2604.724693,1924.535449,7476.080014
3676.963420,2221.676944,1628.453072,7994.224174
3676.963735,1149.143247,592.164754,8660.409521
3676.964049,76.609550,-222.061783,9622.677246
3676.964364,-995.924147,-1184.329507,10362.883188
3676.964678,-1532.190996,-1924.535449,11251.130318
3676.964993,-2298.286494,-1998.556043,12139.377449
3676.965307,-2451.505594,-1628.453072,11843.295072
3676.965622,-1838.629195,-1110.308913,11103.089130
3676.965936,-536.266849,-148.041188,10066.800811
3676.966251,459.657299,518.144159,9400.615463
3676.966565,1838.629195,962.267725,8438.347739
3676.966879,1991.848295,1480.411884,7254.018232
3676.967194,2451.505594,2072.576638,7402.059420
3676.967508,2374.896044,1850.514855,7328.038826
3676.967823,1685.410096,1332.370696,8142.265362
3676.968137,842.705048,740.205942,8882.471304
3676.968452,-459.657299,-296.082377,9770.718434
3676.968766,-995.924147,-1110.308913,10658.965565
3676.969081,-2221.676944,-1406.391290,11547.212695
3676.969395,-2528.115143,-1480.411884,11843.295072
3676.969710,-2374.896044,-1184.329507,11843.295072
3676.970024,-1378.971896,-370.102971,10732.986159
3676.970339,0.000000,444.123565,9770.718434
3676.970653,995.924147,1036.288319,9252.574275
3676.970967,2145.067394,2146.597232,8068.244768
3676.971282,2911.162892,2368.659014,7179.997637
3676.971596,2528.115143,2368.659014,6957.935855
3676.971911,2145.067394,1702.473667,7624.121203
3676.972225,1378.971896,1406.391290,8142.265362
3676.972540,229.828649,148.041188,9474.636058
3676.972854,-766.095498,-592.164754,10140.821405
3676.973169,-1685.410096,-1110.308913,11177.109724
3676.973483,-2298.286494,-1628.453072,12065.356855
3676.973798,-2604.724693,-1184.329507,12361.439231
3676.974112,-1991.848295,-1406.391290,11843.295072
3676.974427,-919.314598,-222.061783,10732.986159
3676.974741,229.828649,1036.288319,10066.800811
3676.975055,1455.581446,1406.391290,8734.430116
3676.975370,2145.067394,1998.556043,7994.224174
3676.975684,2374.896044,2294.638420,7402.059420
3676.975999,3064.381992,1110.308913,7031.956449
3676.976313,2145.067394,1332.370696,7994.224174
3676.976628,1072.533697,740.205942,8882.471304
3676.976942,-229.828649,-370.102971,9918.759623
3676.977257,-1378.971896,-1184.329507,10658.965565
3676.977571,-2451.505594,-2442.679609,11769.274478
3676.977886,-2757.943793,-2072.576638,12287.418637
3676.978200,-2604.724693,-1628.453072,11843.295072
3676.978514,-1762.019645,-1406.391290,11251.130318
3676.978829,-459.657299,-518.144159,10436.903782
3676.979143,306.438199,518.144159,9474.636058
3676.979458,1532.190996,1184.329507,8216.285956
3676.979772,2451.505594,1998.556043,7179.997637
3676.980087,2604.724693,1628.453072,7179.997637
3676.980401,2911.162892,1554.432478,7105.977043
3676.980716,2221.676944,740.205942,7994.224174
3676.981030,995.924147,-0.000000,8586.388927
3676.981345,0.000000,-888.247130,9474.636058
3676.981659,-1302.362347,-1702.473667,10732.986159
3676.981974,-1762.019645,-2220.617826,11621.233289
3676.982288,-2374.896044,-1924.535449,11843.295072
3676.982602,-1838.629195,-1628.453072,11325.150913
3676.982917,-995.924147,-740.205942,10510.924376
3676.983231,76.609550,-148.041188,9770.718434
3676.983546,919.314598,740.205942,8882.471304
3676.983860,2145.067394,1554.432478,7994.224174
3676.984175,2681.334243,1850.514855,6883.915261
3676.984489,2987.772442,1554.432478,7179.997637
3676.984804,2681.334243,1184.329507,8142.265362
3676.985118,1608.800546,666.185348,8290.306550
3676.985433,536.266849,-74.020594,9622.677246
3676.985747,-995.924147,-666.185348,10066.800811
3676.986062,-1991.848295,-1480.411884,11103.089130
3676.986376,-2451.505594,-1998.556043,11695.253884
3676.986690,-2681.334243,-1850.514855,11695.253884
3676.987005,-2298.286494,-1258.350101,11251.130318
3676.987319,-1302.362347,-518.144159,10436.903782
3676.987634,0.000000,296.082377,10362.883188
3676.987948,1149.143247,1110.308913,8956.491898
3676.988263,1685.410096,1998.556043,7772.162391
3676.988577,2451.505594,2072.576638,7476.080014
3676.988892,2451.505594,2368.659014,7624.121203
3676.989206,2068.457845,1628.453072,7920.203579
3676.989521,919.314598,592.164754,8660.409521
3676.989835,-306.438199,-0.000000,9622.677246
3676.990150,-1225.752797,-814.226536,10436.903782
3676.990464,-2068.457845,-1110.308913,11399.171507
3676.990778,-2681.334243,-1258.350101,12583.501014
3676.991093,-2451.505594,-1110.308913,12065.356855
3676.991407,-1685.410096,-592.164754,10955.047942
3676.991722,-612.876398,296.082377,10066.800811
3676.992036,612.876398,1406.391290,9400.615463
3676.992351,1915.238745,2294.638420,8364.327145
3676.992665,2681.334243,2442.679609,7550.100608
3676.992980,2834.553343,2368.659014,7179.997637
3676.993294,2681.334243,2072.576638,7550.100608
3676.993609,2068.457845,1924.535449,8068.244768
3676.993923,612.876398,666.185348,9474.636058
3676.994237,-536.266849,222.061783,10658.965565
3676.994552,-1685.410096,-592.164754,11547.212695
3676.994866,-2298.286494,-1258.350101,12213.398043
3676.995181,-2451.505594,-1332.370696,12213.398043
3676.995495,-2221.676944,-888.247130,12065.356855
3676.995810,-1455.581446,-222.061783,11177.109724
3676.996124,0.000000,592.164754,10436.903782
3676.996439,1149.143247,1406.391290,9474.636058
3676.996753,2374.896044,1776.494261,8290.306550
3676.997068,2451.505594,2442.679609,7624.121203
3676.997382,2757.943793,2072.576638,7179.997637
3676.997697,2451.505594,1776.494261,7550.100608
3676.998011,1378.971896,740.205942,8512.368333
3676.998325,229.828649,-148.041188,9918.759623
3676.998640,-689.485948,-962.267725,10510.924376
3676.998954,-1915.238745,-1998.556043,11029.068536
3676.999269,-2298.286494,-2072.576638,11991.336260
3676.999583,-2298.286494,-1628.453072,11843.295072
3676.999898,-1455.581446,-1406.391290,11325.150913
3677.000212,-536.266849,-592.164754,10436.903782
3677.000527,919.314598,370.102971,8956.491898
3677.000841,1991.848295,1184.329507,8068.244768
3677.001156,2757.943793,1924.535449,7254.018232
3677.001470,2834.553343,1702.473667,7031.956449
3677.001785,2221.676944,1332.370696,7402.059420
3677.002099,1915.238745,666.185348,7476.080014
3677.002413,536.266849,-74.020594,8734.430116
3677.002728,-536.266849,-888.247130,9548.656652
3677.003042,-1838.629195,-1998.556043,10658.965565
3677.003357,-2374.896044,-2146.597232,11695.253884
3677.003671,-3140.991542,-2368.659014,12139.377449
3677.003986,-2834.553343,-1776.494261,11695.253884
3677.004300,-1532.190996,-1036.288319,10955.047942
3677.004615,-306.438199,-0.000000,10140.821405
3677.004929,612.876398,962.267725,9474.636058
3677.005244,1915.238745,1850.514855,7698.141797
3677.005558,2451.505594,2294.638420,7105.977043
3677.005872,2528.115143,2072.576638,7105.977043
3677.006187,2451.505594,1850.514855,7624.121203
3677.006501,1302.362347,814.226536,8882.471304
3677.006816,229.828649,-222.061783,9326.594869
3677.007130,-1225.752797,-1110.308913,10510.924376
3677.007445,-2451.505594,-2072.576638,11769.274478
3677.007759,-2834.553343,-2220.617826,12287.418637
3677.008074,-3217.601092,-1998.556043,12657.521608
3677.008388,-2604.724693,-1850.514855,11621.233289
3677.008703,-1072.533697,-962.267725,10732.986159
3677.009017,0.000000,-0.000000,9696.697840
3677.009332,1225.752797,1258.350101,9030.512492
3677.009646,2068.457845,2294.638420,8068.244768
3677.009960,2451.505594,2368.659014,7031.956449
3677.010275,2681.334243,2146.597232,7105.977043
3677.010589,2451.505594,1554.432478,7698.141797
3677.010904,1685.410096,740.205942,8882.471304
3677.011218,0.000000,-518.144159,9770.718434
3677.011533,-1149.143247,-1110.308913,10584.944971
3677.011847,-2068.457845,-1702.473667,11769.274478
3677.012162,-2451.505594,-1924.535449,12139.377449
3677.012476,-3140.991542,-1628.453072,11843.295072
3677.012791,-1838.629195,-814.226536,11103.089130
3677.013105,-612.876398,-0.000000,10140.821405
3677.013420,536.266849,518.144159,9252.574275
3677.013734,2068.457845,1628.453072,8364.327145
3677.014048,2528.115143,1998.556043,7772.162391
3677.014363,2757.943793,2294.638420,7105.977043
3677.014677,2681.334243,2294.638420,6883.915261
3677.014992,2374.896044,1554.432478,8290.306550
3677.015306,1608.800546,74.020594,9104.533087
3677.015621,0.000000,-148.041188,10510.924376
3677.015935,-1225.752797,-814.226536,11103.089130
3677.016250,-2068.457845,-1406.391290,11769.274478
3677.016564,-2221.676944,-1184.329507,11991.336260
3677.016879,-2145.067394,-740.205942,11473.192101
3677.017193,-1149.143247,-296.082377,11029.068536
3677.017508,383.047749,592.164754,9770.718434
3677.017822,1225.752797,1184.329507,8882.471304
3677.018136,2298.286494,2146.597232,7846.182985
3677.018451,2528.115143,2442.679609,7105.977043
3677.018765,3064.381992,2146.597232,7179.997637
3677.019080,2451.505594,1850.514855,7624.121203
3677.019394,1378.971896,888.247130,8586.388927
3677.019709,229.828649,148.041188,9400.615463
3677.020023,-842.705048,-592.164754,10436.903782
3677.020338,-2068.457845,-1480.411884,11695.253884
3677.020652,-2604.724693,-1776.494261,12287.418637
3677.020967,-2911.162892,-1480.411884,12213.398043
3677.021281,-2221.676944,-1036.288319,11695.253884
3677.021595,-1302.362347,-518.144159,10881.027347
3677.021910,536.266849,518.144159,10066.800811
3677.022224,1378.971896,1480.411884,8956.491898
3677.022539,2451.505594,2368.659014,7846.182985
3677.022853,2528.115143,2368.659014,7179.997637
3677.023168,2681.334243,1998.556043,7328.038826
3677.023482,2068.457845,1406.391290,7994.224174
3677.023797,766.095498,740.205942,8512.368333
3677.024111,-306.438199,-148.041188,9474.636058
3677.024426,-1378.971896,-1554.432478,10881.027347
3677.024740,-2221.676944,-2146.597232,11695.253884
3677.025055,-2834.553343,-2072.576638,12361.439231
3677.025369,-2911.162892,-1480.411884,11695.253884
3677.025683,-2145.067394,-814.226536,11399.171507
3677.025998,-459.657299,-0.000000,10658.965565
3677.026312,612.876398,740.205942,9548.656652
3677.026627,1838.629195,1554.432478,8512.368333
3677.026941,2374.896044,2146.597232,7179.997637
3677.027256,2528.115143,1776.494261,7698.141797
3677.027570,2451.505594,1924.535449,7698.141797
3677.027885,1762.019645,1110.308913,8586.388927
3677.028199,459.657299,-0.000000,9178.553681
3677.028514,-842.705048,-814.226536,9622.677246
3677.028828,-2221.676944,-1924.535449,10807.006753
3677.029143,-2681.334243,-2368.659014,11843.295072
3677.029457,-2681.334243,-2368.659014,12361.439231
3677.029771,-2528.115143,-1776.494261,11547.212695
3677.030086,-1302.362347,-1036.288319,10436.903782
3677.030400,-1072.533697,222.061783,9844.739029
3677.030715,919.314598,740.205942,9104.533087
3677.031029,2298.286494,1332.370696,7920.203579
3677.031344,2604.724693,1480.411884,7105.977043
3677.031658,2604.724693,1480.411884,7031.956449
3677.031973,2528.115143,1332.370696,7624.121203
3677.032287,1532.190996,-0.000000,8734.430116
3677.032602,612.876398,-444.123565,9474.636058
3677.032916,-689.485948,-1184.329507,10436.903782
3677.033231,-1455.581446,-1776.494261,11399.171507
3677.033545,-1685.410096,-1924.535449,11621.233289
3677.033859,-2221.676944,-2072.576638,11843.295072
3677.034174,-1302.362347,-1332.370696,10658.965565
3677.034488,-153.219100,-222.061783,10066.800811
3677.034803,612.876398,-0.000000,9474.636058
3677.035117,1991.848295,1184.329507,8882.471304
3677.035432,2451.505594,1776.494261,7846.182985
3677.035746,2451.505594,2072.576638,7254.018232
3677.036061,2451.505594,1850.514855,7105.977043
3677.036375,1915.238745,1184.329507,7920.203579
3677.036690,995.924147,370.102971,9030.512492
3677.037004,0.000000,-148.041188,10066.800811
3677.037318,-1532.190996,-666.185348,10658.965565
3677.037633,-2298.286494,-1628.453072,11547.212695
3677.037947,-2757.943793,-1406.391290,12583.501014
3677.038262,-2068.457845,-1184.329507,11917.315666
3677.038576,-1149.143247,-370.102971,11177.109724
3677.038891,-229.828649,814.226536,10066.800811
3677.039205,689.485948,1554.432478,9104.533087
3677.039520,1608.800546,2368.659014,7994.224174
3677.039834,2068.457845,2442.679609,7328.038826
3677.040149,2145.067394,2220.617826,7476.080014
3677.040463,1685.410096,1850.514855,7624.121203
3677.040778,1302.362347,1332.370696,8290.306550
3677.041092,0.000000,296.082377,9474.636058
3677.041406,-1149.143247,-740.205942,10732.986159
3677.041721,-2221.676944,-1332.370696,11621.233289
3677.042035,-2451.505594,-1776.494261,12361.439231
3677.042350,-2681.334243,-1258.350101,12139.377449
3677.042664,-1685.410096,-592.164754,11547.212695
3677.042979,-766.095498,-0.000000,10658.965565
3677.043293,459.657299,1036.288319,9844.739029
3677.043608,1532.190996,1702.473667,8660.409521
3677.043922,2451.505594,2294.638420,7550.100608
3677.044237,2757.943793,2664.741391,7105.977043
3677.044551,2681.334243,1924.535449,7698.141797
3677.044866,2068.457845,1776.494261,8142.265362
3677.045180,919.314598,518.144159,8808.450710
3677.045494,-612.876398,-296.082377,9696.697840
3677.045809,-1608.800546,-1480.411884,10732.986159
3677.046123,-2451.505594,-1924.535449,11843.295072
3677.046438,-2757.943793,-2072.576638,12361.439231
3677.046752,-2834.553343,-1480.411884,12287.418637
3677.047067,-2145.067394,-962.267725,11399.171507
3677.047381,-229.828649,-0.000000,10436.903782
3677.047696,612.876398,962.267725,9770.718434
3677.048010,1762.019645,1850.514855,8438.347739
3677.048325,2528.115143,2294.638420,7179.997637
3677.048639,2911.162892,2220.617826,7328.038826
3677.048953,2604.724693,1998.556043,7772.162391
3677.049268,1762.019645,1036.288319,7994.224174
3677.049582,919.314598,-0.000000,8882.471304
3677.049897,-383.047749,-740.205942,9844.739029
3677.050211,-1608.800546,-1480.411884,10510.924376
3677.050526,-1915.238745,-2368.659014,11769.274478
3677.050840,-2911.162892,-2146.597232,11843.295072
3677.051155,-1838.629195,-1850.514855,11473.192101
3677.051469,-1072.533697,-1184.329507,10584.944971
3677.051783,76.609550,-148.041188,9474.636058
3677.052098,1302.362347,1184.329507,9030.512492
3677.052412,2298.286494,1554.432478,7920.203579
3677.052727,2681.334243,1850.514855,7031.956449
3677.053041,2987.772442,1850.514855,7254.018232
3677.053356,2298.286494,1628.453072,7994.224174
3677.053670,1685.410096,592.164754,8660.409521
3677.053984,536.266849,-222.061783,9474.636058
3677.054299,-766.095498,-1184.329507,10362.883188
3677.054613,-1838.629195,-1776.494261,11029.068536
3677.054928,-2451.505594,-2368.659014,11769.274478
3677.055242,-2604.724693,-2294.638420,12139.377449
3677.055557,-2145.067394,-1776.494261,11547.212695
3677.055871,-995.924147,-814.226536,10584.944971
3677.056186,0.000000,-0.000000,9548.656652
3677.056500,842.705048,740.205942,9178.553681
3677.056814,1685.410096,1480.411884,7550.100608
3677.057129,2221.676944,1628.453072,7550.100608
3677.057443,2451.505594,1628.453072,7772.162391
3677.057758,2145.067394,1258.350101,7402.059420
3677.058072,1455.581446,666.185348,8142.265362
3677.058387,0.000000,-148.041188,9770.718434
3677.058701,-1378.971896,-962.267725,10807.006753
3677.059015,-2451.505594,-1628.453072,11621.233289
3677.059330,-2757.943793,-1628.453072,11991.336260
3677.059644,-2911.162892,-1480.411884,12213.398043
3677.059959,-1838.629195,-1258.350101,11473.192101
3677.060273,-842.705048,-296.082377,10436.903782
3677.060588,229.828649,814.226536,9770.718434
3677.060902,1455.581446,1480.411884,8438.347739
3677.061217,2451.505594,2368.659014,7328.038826
3677.061531,2757.943793,2590.720797,7105.977043
3677.061845,2451.505594,1998.556043,7402.059420
3677.062160,1762.019645,1332.370696,7920.203579
3677.062474,919.314598,518.144159,9030.512492
3677.062789,-459.657299,-666.185348,9918.759623
3677.063103,-1991.848295,-1258.350101,10584.944971
3677.063418,-2681.334243,-1776.494261,11917.315666
3677.063732,-2757.943793,-1776.494261,12065.356855
3677.064046,-2451.505594,-1332.370696,11769.274478
3677.064361,-1532.190996,-592.164754,11177.109724
3677.064675,-229.828649,296.082377,9696.697840
3677.064990,842.705048,1110.308913,9030.512492
3677.065304,1915.238745,1850.514855,7846.182985
3677.065619,2374.896044,2146.597232,7254.018232
3677.065933,2681.334243,2294.638420,7624.121203
3677.066248,2298.286494,1776.494261,7772.162391
3677.066562,1762.019645,1110.308913,8364.327145
3677.066876,76.609550,518.144159,9326.594869
3677.067191,-766.095498,-148.041188,10140.821405
3677.067505,-1455.581446,-1184.329507,11547.212695
3677.067820,-1991.848295,-1480.411884,12065.356855
3677.068134,-1991.848295,-1480.411884,11917.315666
3677.068449,-995.924147,-962.267725,10955.047942
3677.068763,-229.828649,-222.061783,9992.780217
3677.069077,689.485948,592.164754,9474.636058
3677.069392,1532.190996,1628.453072,8808.450710
3677.069706,2451.505594,2146.597232,7772.162391
3677.070021,2834.553343,2294.638420,7179.997637
3677.070335,2757.943793,1924.535449,7550.100608
3677.070650,2068.457845,1480.411884,8290.306550
3677.070964,995.924147,666.185348,9252.574275
3677.071279,0.000000,-0.000000,10288.862594
3677.071593,-995.924147,-1258.350101,10881.027347
3677.071907,-1838.629195,-1406.391290,11843.295072
3677.072222,-2221.676944,-1480.411884,12361.439231
3677.072536,-2068.457845,-1258.350101,11843.295072
3677.072851,-1072.533697,-740.205942,10955.047942
3677.073165,-229.828649,296.082377,10066.800811
3677.073480,995.924147,740.205942,9400.615463
3677.073794,2221.676944,1480.411884,8068.244768
3677.074108,2451.505594,1850.514855,7328.038826
3677.074423,2528.115143,1110.308913,7254.018232
3677.074737,2068.457845,1258.350101,7402.059420
3677.075052,1378.971896,370.102971,8438.347739
3677.075366,306.438199,-296.082377,9326.594869
3677.075681,-689.485948,-814.226536,9918.759623
3677.075995,-2221.676944,-1702.473667,10807.006753
3677.076310,-2451.505594,-1628.453072,11843.295072
3677.076624,-2528.115143,-1702.473667,12139.377449
3677.076938,-2374.896044,-1258.350101,11991.336260
3677.077253,-1532.190996,-592.164754,10807.006753
3677.077567,-536.266849,370.102971,9770.718434
3677.077882,1225.752797,962.267725,9178.553681
3677.078196,2068.457845,1702.473667,8068.244768
3677.078511,2145.067394,1998.556043,7476.080014
3677.078825,2528.115143,1702.473667,7254.018232
3677.079139,2221.676944,1406.391290,7698.141797
3677.079454,1072.533697,666.185348,8734.430116
3677.079768,0.000000,-370.102971,9252.574275
3677.080083,-1149.143247,-1332.370696,10214.842000
3677.080397,-2068.457845,-1850.514855,11251.130318
3677.080712,-2451.505594,-1850.514855,11695.253884
3677.081026,-2528.115143,-1554.432478,11843.295072
3677.081341,-1991.848295,-1110.308913,11325.150913
3677.081655,-842.705048,-222.061783,10288.862594
3677.081969,76.609550,666.185348,9474.636058
3677.082284,1455.581446,1258.350101,8734.430116
3677.082598,2451.505594,2146.597232,7402.059420
3677.082913,2681.334243,2072.576638,7402.059420
3677.083227,2604.724693,1924.535449,7550.100608
3677.083542,2221.676944,1480.411884,7920.203579
3677.083856,1149.143247,666.185348,9104.533087
3677.084170,-229.828649,-222.061783,9400.615463
3677.084485,-1378.971896,-1110.308913,10807.006753
3677.084799,-2145.067394,-1924.535449,12213.398043
3677.085114,-2528.115143,-1702.473667,11695.253884
3677.085428,-2298.286494,-1036.288319,11695.253884
3677.085743,-1685.410096,-666.185348,11029.068536
3677.086057,0.000000,148.041188,9844.739029
3677.086372,1225.752797,1110.308913,9104.533087
3677.086686,2528.115143,1628.453072,7994.224174
3677.087000,3064.381992,2220.617826,7402.059420
3677.087315,2911.162892,2072.576638,7031.956449
3677.087629,2987.772442,1702.473667,7624.121203
3677.087944,1915.238745,1332.370696,8808.450710
3677.088258,1225.752797,148.041188,9474.636058
3677.088573,-689.485948,-518.144159,10362.883188
3677.088887,-1149.143247,-1258.350101,11695.253884
3677.089201,-2068.457845,-1924.535449,12287.418637
3677.089516,-2374.896044,-1702.473667,11917.315666
3677.089830,-1685.410096,-1184.329507,11251.130318
3677.090145,-842.705048,-444.123565,10955.047942
3677.090459,153.219100,296.082377,9770.718434
3677.090774,1838.629195,1480.411884,9104.533087
3677.091088,2374.896044,2294.638420,7550.100608
3677.091403,2681.334243,2368.659014,7031.956449
3677.091717,2451.505594,2368.659014,7402.059420
3677.092031,1991.848295,1924.535449,8216.285956
3677.092346,766.095498,814.226536,9030.512492
3677.092660,-459.657299,-296.082377,9548.656652
3677.092975,-1532.190996,-1184.329507,10288.862594
3677.093289,-2604.724693,-1776.494261,11917.315666
3677.093604,-2834.553343,-1850.514855,12213.398043
3677.093918,-2757.943793,-1258.350101,11843.295072
3677.094232,-2374.896044,-888.247130,10807.006753
3677.094547,-919.314598,-74.020594,10510.924376
3677.094861,612.876398,888.247130,9030.512492
3677.095176,1762.019645,1480.411884,7772.162391
3677.095490,2451.505594,1776.494261,7772.162391
3677.095805,2374.896044,1924.535449,6883.915261
3677.096119,2298.286494,1998.556043,7105.977043
3677.096434,1532.190996,1332.370696,7846.182985
3677.096748,536.266849,296.082377,8808.450710
3677.097062,-766.095498,-518.144159,9844.739029
3677.097377,-1225.752797,-1258.350101,10732.986159
3677.097691,-1991.848295,-2072.576638,12435.459826
3677.098006,-2681.334243,-1924.535449,11991.336260
3677.098320,-2451.505594,-1332.370696,11695.253884
3677.098635,-1378.971896,-666.185348,11029.068536
3677.098949,0.000000,518.144159,9696.697840
3677.099263,1302.362347,1184.329507,9030.512492
3677.099578,2298.286494,1998.556043,7772.162391
3677.099892,2757.943793,2072.576638,7179.997637
3677.100207,2987.772442,2220.617826,7179.997637
3677.100521,2451.505594,1480.411884,7550.100608
3677.100836,1378.971896,518.144159,8808.450710
3677.101150,383.047749,-296.082377,9770.718434
3677.101465,-1225.752797,-666.185348,10881.027347
3677.101779,-2221.676944,-1776.494261,11547.212695
3677.102093,-1991.848295,-2368.659014,12287.418637
3677.102408,-2757.943793,-1702.473667,12213.398043
3677.102722,-1991.848295,-1406.391290,11843.295072
3677.103037,-612.876398,-518.144159,10732.986159
3677.103351,536.266849,814.226536,9474.636058
3677.103666,1762.019645,1184.329507,8364.327145
3677.103980,2528.115143,1998.556043,7476.080014
3677.104294,2604.724693,2220.617826,7328.038826
3677.104609,2834.553343,1850.514855,7328.038826
3677.104923,1915.238745,1184.329507,7624.121203
3677.105238,995.924147,-0.000000,8512.368333
3677.105552,-536.266849,-444.123565,9696.697840
3677.105867,-1685.410096,-1332.370696,10732.986159
3677.106181,-2451.505594,-2368.659014,11547.212695
3677.106496,-2604.724693,-2368.659014,13027.624579
3677.106810,-2221.676944,-1850.514855,12213.398043
3677.107124,-1532.190996,-1036.288319,10881.027347
3677.107439,-383.047749,-296.082377,9770.718434
3677.107753,1072.533697,1110.308913,9104.533087
3677.108068,2451.505594,1480.411884,7772.162391
3677.108382,2911.162892,1998.556043,7105.977043
3677.108697,3140.991542,2072.576638,6883.915261
3677.109011,2834.553343,1924.535449,7105.977043
3677.109325,2298.286494,814.226536,7772.162391
3677.109640,612.876398,-370.102971,9104.533087
3677.109954,-612.876398,-666.185348,9844.739029
3677.110269,-1685.410096,-1406.391290,10732.986159
3677.110583,-2451.505594,-2220.617826,11917.315666
3677.110898,-2681.334243,-1998.556043,12287.418637
3677.111212,-2068.457845,-1628.453072,11473.192101
3677.111527,-1302.362347,-518.144159,10807.006753
3677.111841,0.000000,444.123565,9918.759623
3677.112155,1302.362347,1480.411884,9030.512492
3677.112470,2451.505594,2220.617826,7994.224174
3677.112784,2834.553343,2294.638420,7105.977043
3677.113099,2451.505594,2146.597232,7179.997637
3677.113413,2068.457845,1702.473667,7698.141797
3677.113728,1149.143247,740.205942,9030.512492
3677.114042,0.000000,-74.020594,9548.656652
3677.114356,-1455.581446,-814.226536,10584.944971
3677.114671,-2451.505594,-1554.432478,11177.109724
3677.114985,-2681.334243,-1776.494261,12583.501014
3677.115300,-2911.162892,-1480.411884,12213.398043
3677.115614,-2451.505594,-1110.308913,11621.233289
3677.115929,-919.314598,-0.000000,10436.903782
3677.116243,153.219100,592.164754,9400.615463
3677.116558,1455.581446,1554.432478,8586.388927
3677.116872,2374.896044,1998.556043,7402.059420
3677.117186,2221.676944,2220.617826,7550.100608
3677.117501,2451.505594,2146.597232,7476.080014
3677.117815,2068.457845,1702.473667,7920.203579
3677.118130,1072.533697,814.226536,8956.491898
3677.118444,0.000000,-296.082377,9992.780217
3677.118759,-1532.190996,-1332.370696,11029.068536
3677.119073,-2145.067394,-1998.556043,11769.274478
3677.119387,-2604.724693,-1998.556043,12583.501014
3677.119702,-2451.505594,-1258.350101,11917.315666
3677.120016,-1378.971896,-518.144159,10955.047942
3677.120331,0.000000,222.061783,9770.718434
3677.120645,1532.190996,1258.350101,8956.491898
3677.120960,2298.286494,1924.535449,7994.224174
3677.121274,3294.210641,2442.679609,6957.935855
3677.121589,3064.381992,2146.597232,7031.956449
3677.121903,2604.724693,1998.556043,7254.018232
3677.122217,1685.410096,814.226536,8216.285956
3677.122532,612.876398,-0.000000,9400.615463
3677.122846,-842.705048,-296.082377,10658.965565
3677.123161,-2068.457845,-1406.391290,11547.212695
3677.123475,-2374.896044,-1998.556043,12361.439231
3677.123790,-2757.943793,-1628.453072,11991.336260
3677.124104,-2145.067394,-888.247130,11769.274478
3677.124418,-689.485948,-444.123565,10362.883188
3677.124733,229.828649,222.061783,9474.636058
3677.125047,1608.800546,1406.391290,8956.491898
3677.125362,2604.724693,1924.535449,7328.038826
3677.125676,2757.943793,2368.659014,6957.935855
3677.125991,2834.553343,2072.576638,7624.121203
3677.126305,2298.286494,1332.370696,7846.182985
3677.126620,1072.533697,518.144159,8586.388927
3677.126934,0.000000,-222.061783,9474.636058
3677.127248,-1378.971896,-1258.350101,10881.027347
3677.127563,-1685.410096,-2368.659014,11325.150913
3677.127877,-2681.334243,-2072.576638,11843.295072
3677.128192,-2451.505594,-1554.432478,11843.295072
3677.128506,-2068.457845,-666.185348,10881.027347
3677.128821,-306.438199,-0.000000,10214.842000
3677.129135,612.876398,740.205942,9400.615463
3677.129449,1685.410096,1628.453072,8364.327145
3677.129764,2145.067394,2072.576638,7328.038826
3677.130078,2528.115143,1850.514855,7179.997637
3677.130393,2451.505594,1628.453072,7846.182985
3677.130707,1608.800546,518.144159,8216.285956
3677.131022,842.705048,-0.000000,9104.533087
3677.131336,-612.876398,-740.205942,9844.739029
3677.131651,-1838.629195,-1258.350101,11103.089130
3677.131965,-1915.238745,-1776.494261,12213.398043
3677.132279,-2528.115143,-2072.576638,12361.439231
3677.132594,-2068.457845,-1554.432478,12139.377449
3677.132908,-1455.581446,-592.164754,10955.047942
3677.133223,-306.438199,-74.020594,9918.759623
3677.133537,1302.362347,740.205942,9474.636058
3677.133852,1838.629195,1628.453072,8364.327145
3677.134166,2528.115143,2368.659014,7179.997637
3677.134480,2911.162892,2072.576638,7179.997637
3677.134795,2451.505594,1406.391290,7772.162391
3677.135109,1685.410096,592.164754,8808.450710
3677.135424,0.000000,-74.020594,9400.615463
3677.135738,-1302.362347,-1036.288319,10807.006753
3677.136053,-1991.848295,-1850.514855,11695.253884
3677.136367,-2451.505594,-1924.535449,12361.439231
3677.136682,-2987.772442,-1628.453072,12065.356855
3677.136996,-1915.238745,-1406.391290,11399.171507
3677.137310,-995.924147,-518.144159,10288.862594
3677.137625,229.828649,370.102971,9252.574275
3677.137939,1608.800546,1110.308913,8882.471304
3677.138254,2451.505594,1998.556043,7328.038826
3677.138568,2834.553343,2220.617826,6883.915261
3677.138883,2911.162892,1628.453072,6809.894666
3677.139197,2451.505594,1406.391290,7402.059420
3677.139511,1302.362347,666.185348,8734.430116
3677.139826,-153.219100,-296.082377,9178.553681
3677.140140,-766.095498,-1332.370696,10214.842000
3677.140455,-2068.457845,-1850.514855,11251.130318
3677.140769,-2374.896044,-2146.597232,12065.356855
3677.141084,-2451.505594,-1702.473667,11769.274478
3677.141398,-1991.848295,-1258.350101,11177.109724
3677.141713,-766.095498,-0.000000,10510.924376
3677.142027,459.657299,962.267725,9548.656652
3677.142341,1685.410096,1628.453072,8438.347739
3677.142656,2681.334243,1998.556043,7698.141797
3677.142970,2911.162892,2220.617826,7328.038826
3677.143285,2451.505594,1702.473667,7550.100608
3677.143599,1915.238745,1480.411884,7994.224174
3677.143914,919.314598,444.123565,8956.491898
3677.144228,-306.438199,-370.102971,9918.759623
3677.144542,-1455.581446,-1036.288319,11399.171507
3677.144857,-2681.334243,-1480.411884,12065.356855
3677.145171,-2757.943793,-1628.453072,11843.295072
3677.145486,-2604.724693,-1480.411884,11769.274478
3677.145800,-1378.971896,-666.185348,10881.027347
3677.146115,-229.828649,222.061783,9918.759623
3677.146429,1072.533697,518.144159,9252.574275
3677.146743,1838.629195,1628.453072,8290.306550
3677.147058,2451.505594,2146.597232,7624.121203
3677.147372,2374.896044,2294.638420,7328.038826
3677.147687,2451.505594,2072.576638,7994.224174
3677.148001,1762.019645,1036.288319,8586.388927
3677.148316,76.609550,444.123565,9622.677246
3677.148630,-1225.752797,-592.164754,10436.903782
3677.148945,-2068.457845,-962.267725,11621.233289
3677.149259,-2451.505594,-1554.432478,12361.439231
3677.149573,-2604.724693,-1406.391290,11843.295072
3677.149888,-2298.286494,-888.247130,11473.192101
3677.150202,-1072.533697,-74.020594,10955.047942
3677.150517,0.000000,444.123565,9474.636058
3677.150831,1685.410096,1406.391290,8660.409521
3677.151146,2298.286494,1776.494261,7550.100608
3677.151460,2757.943793,1924.535449,7254.018232
3677.151774,2604.724693,1702.473667,7328.038826
3677.152089,2145.067394,1036.288319,7920.203579
3677.152403,995.924147,-0.000000,8734.430116
3677.152718,0.000000,-444.123565,9400.615463
3677.153032,-842.705048,-814.226536,10288.862594
3677.153346,-1532.190996,-1628.453072,11843.295072
3677.153661,-1915.238745,-1850.514855,11991.336260
3677.153975,-2221.676944,-1480.411884,11473.192101
3677.154290,-1072.533697,-888.247130,10658.965565
3677.154604,-229.828649,-74.020594,9918.759623
3677.154919,842.705048,518.144159,9400.615463
3677.155233,1762.019645,888.247130,8512.368333
3677.155547,2451.505594,1258.350101,7698.141797
3677.155862,2298.286494,1554.432478,7476.080014
3677.156176,2068.457845,1480.411884,7772.162391
3677.156491,1225.752797,666.185348,8512.368333
3677.156805,76.609550,-296.082377,9696.697840
3677.157120,-459.657299,-814.226536,10140.821405
3677.157434,-1915.238745,-1628.453072,10955.047942
3677.157748,-1838.629195,-1850.514855,12139.377449
3677.158063,-2145.067394,-1480.411884,11917.315666
3677.158377,-1685.410096,-1184.329507,11251.130318
3677.158692,-842.705048,-518.144159,10288.862594
3677.159006,153.219100,222.061783,9474.636058
3677.159321,1532.190996,1036.288319,8586.388927
3677.159635,2068.457845,1702.473667,7698.141797
3677.159949,2298.286494,1776.494261,7254.018232
3677.160264,1991.848295,1776.494261,7105.977043
3677.160578,1762.019645,962.267725,7550.100608
3677.160893,1072.533697,-0.000000,8586.388927
3677.161207,-229.828649,-148.041188,9622.677246
3677.161521,-842.705048,-1110.308913,10584.944971
3677.161836,-1685.410096,-1480.411884,11621.233289
3677.162150,-1838.629195,-1332.370696,12139.377449
3677.162465,-1685.410096,-962.267725,11473.192101
3677.162779,-1225.752797,-370.102971,11103.089130
3677.163094,0.000000,518.144159,9770.718434
3677.163408,612.876398,1702.473667,8808.450710
3677.163722,1685.410096,1998.556043,7772.162391
3677.164037,2528.115143,1924.535449,7772.162391
3677.164351,2528.115143,1850.514855,7105.977043
3677.164666,2221.676944,1628.453072,7476.080014
3677.164980,1378.971896,1258.350101,8290.306550
3677.165295,306.438199,296.082377,9918.759623
3677.165609,-1149.143247,148.041188,10436.903782
3677.165923,-1838.629195,-740.205942,11177.109724
3677.166238,-2221.676944,-1406.391290,12435.459826
3677.166552,-2451.505594,-1406.391290,12065.356855
3677.166867,-2068.457845,-444.123565,11473.192101
3677.167181,-1149.143247,296.082377,11177.109724
3677.167496,0.000000,1258.350101,10436.903782
3677.167810,842.705048,2146.597232,9252.574275
3677.168124,1915.238745,2368.659014,7846.182985
3677.168439,2298.286494,2220.617826,7846.182985
3677.168753,2451.505594,2220.617826,7920.203579
3677.169068,1685.410096,1480.411884,8216.285956
3677.169382,842.705048,666.185348,8956.491898
3677.169696,-383.047749,-518.144159,9770.718434
3677.170011,-1455.581446,-1332.370696,10658.965565
3677.170325,-2145.067394,-1702.473667,11473.192101
3677.170640,-1991.848295,-1850.514855,12213.398043
3677.170954,-2221.676944,-1184.329507,11843.295072
3677.171269,-1685.410096,-592.164754,11103.089130
3677.171583,-306.438199,-0.000000,9992.780217
3677.171897,1072.533697,888.247130,9178.553681
3677.172212,1838.629195,1406.391290,8512.368333
3677.172526,2604.724693,1776.494261,7402.059420
3677.172841,2987.772442,1776.494261,7179.997637
3677.173155,2528.115143,1406.391290,7105.977043
3677.173470,1455.581446,444.123565,7994.224174
3677.173784,612.876398,-0.000000,8734.430116
3677.174098,-842.705048,-740.205942,9474.636058
3677.174413,-1838.629195,-1702.473667,10510.924376
3677.174727,-2451.505594,-2220.617826,11547.212695
3677.175042,-2681.334243,-2516.700203,12435.459826
3677.175356,-2757.943793,-1702.473667,11843.295072
3677.175671,-1762.019645,-1258.350101,10807.006753
3677.175985,-459.657299,-222.061783,10362.883188
3677.176299,919.314598,444.123565,9474.636058
3677.176614,1991.848295,1406.391290,8290.306550
3677.176928,3217.601092,1776.494261,7179.997637
3677.177243,3140.991542,1628.453072,6809.894666
3677.177557,2987.772442,1480.411884,7105.977043
3677.177871,2068.457845,444.123565,7772.162391
3677.178186,766.095498,-592.164754,8956.491898
3677.178500,-383.047749,-1184.329507,9770.718434
3677.178815,-1532.190996,-1776.494261,10510.924376
3677.179129,-2221.676944,-2442.679609,11769.274478
3677.179444,-2834.553343,-2220.617826,11991.336260
3677.179758,-2374.896044,-1924.535449,11695.253884
3677.180072,-1455.581446,-1110.308913,10807.006753
3677.180387,76.609550,-370.102971,9622.677246
3677.180701,1302.362347,814.226536,8882.471304
3677.181016,2374.896044,1702.473667,7772.162391
3677.181330,2451.505594,2294.638420,7105.977043
3677.181645,2834.553343,2294.638420,7105.977043
3677.181959,2451.505594,1776.494261,7328.038826
3677.182273,1532.190996,1036.288319,8512.368333
3677.182588,306.438199,-74.020594,9548.656652
3677.182902,-1532.190996,-1036.288319,10881.027347
3677.183217,-2145.067394,-1850.514855,11695.253884
3677.183531,-2987.772442,-2146.597232,12435.459826
3677.183846,-3064.381992,-2072.576638,12065.356855
3677.184160,-2221.676944,-1702.473667,11547.212695
3677.184474,-995.924147,-518.144159,10881.027347
3677.184789,0.000000,222.061783,9992.780217
3677.185103,1378.971896,1406.391290,8586.388927
3677.185418,2451.505594,2368.659014,7476.080014
3677.185732,3064.381992,2368.659014,7031.956449
3677.186046,3447.429741,2664.741391,7402.059420
3677.186361,2374.896044,1554.432478,7772.162391
