#time,accel_x,accel_y,accel_z
4155.345004,76.609550,222.061783,9622.677246
4155.345319,76.609550,-0.000000,9918.759623
4155.345635,153.219100,148.041188,9696.697840
4155.345950,229.828649,-0.000000,9622.677246
4155.346266,229.828649,148.041188,9474.636058
4155.346581,0.000000,222.061783,9548.656652
4155.346896,0.000000,74.020594,9622.677246
4155.347212,153.219100,-0.000000,9622.677246
4155.347527,0.000000,370.102971,9770.718434
4155.347843,459.657299,296.082377,9918.759623
4155.348158,0.000000,222.061783,9696.697840
4155.348474,0.000000,-0.000000,9770.718434
4155.348789,0.000000,-0.000000,9622.677246
4155.349104,229.828649,148.041188,9474.636058
4155.349420,0.000000,-0.000000,9474.636058
4155.349735,229.828649,-0.000000,9326.594869
4155.350051,76.609550,-0.000000,9326.594869
4155.350366,0.000000,-0.000000,9992.780217
4155.350682,153.219100,-296.082377,9252.574275
4155.350997,383.047749,-0.000000,9622.677246
4155.351312,76.609550,222.061783,9474.636058
4155.351628,229.828649,148.041188,9474.636058
4155.351943,-383.047749,148.041188,9474.636058
4155.352259,0.000000,-0.000000,9474.636058
4155.352574,383.047749,222.061783,9696.697840
4155.352890,0.000000,-0.000000,9326.594869
4155.353205,0.000000,-0.000000,9474.636058
4155.353520,0.000000,-74.020594,9474.636058
4155.353836,383.047749,518.144159,9474.636058
4155.354151,229.828649,222.061783,9474.636058
4155.354467,76.609550,-0.000000,9696.697840
4155.354782,76.609550,296.082377,9622.677246
4155.355097,0.000000,-0.000000,9474.636058
4155.355413,153.219100,-0.000000,9474.636058
4155.355728,383.047749,222.061783,9918.759623
4155.356044,0.000000,222.061783,9696.697840
4155.356359,76.609550,222.061783,9844.739029
4155.356675,153.219100,-0.000000,9696.697840
4155.356990,229.828649,518.144159,9770.718434
4155.357305,-76.609550,222.061783,9770.718434
4155.357621,76.609550,296.082377,9844.739029
4155.357936,0.000000,222.061783,9622.677246
4155.358252,-383.047749,-74.020594,9252.574275
4155.358567,153.219100,518.144159,9696.697840
4155.358883,0.000000,296.082377,9696.697840
4155.359198,0.000000,-0.000000,9474.636058
4155.359513,0.000000,-0.000000,9474.636058
4155.359829,-306.438199,296.082377,9770.718434
4155.360144,0.000000,-0.000000,9844.739029
4155.360460,76.609550,-0.000000,9474.636058
4155.360775,0.000000,-0.000000,9474.636058
4155.361091,76.609550,-0.000000,9770.718434
4155.361406,-229.828649,296.082377,9474.636058
4155.361721,0.000000,-0.000000,9696.697840
4155.362037,0.000000,-0.000000,9622.677246
4155.362352,0.000000,-0.000000,9548.656652
4155.362668,306.438199,-0.000000,9326.594869
4155.362983,536.266849,-0.000000,9104.533087
4155.363299,383.047749,296.082377,9992.780217
4155.363614,76.609550,-0.000000,9696.697840
4155.363929,153.219100,-0.000000,9474.636058
4155.364245,229.828649,296.082377,9474.636058
4155.364560,536.266849,-0.000000,9548.656652
4155.364876,76.609550,222.061783,9622.677246
4155.365191,153.219100,222.061783,9918.759623
4155.365506,76.609550,-0.000000,9548.656652
4155.365822,76.609550,148.041188,9400.615463
4155.366137,0.000000,-0.000000,9622.677246
4155.366453,459.657299,-0.000000,9844.739029
4155.366768,0.000000,370.102971,9696.697840
4155.367084,0.000000,518.144159,9844.739029
4155.367399,0.000000,-0.000000,9696.697840
4155.367714,0.000000,222.061783,9992.780217
4155.368030,0.000000,-0.000000,9474.636058
4155.368345,0.000000,-0.000000,9622.677246
4155.368661,0.000000,-0.000000,9474.636058
4155.368976,383.047749,-0.000000,9622.677246
4155.369292,229.828649,370.102971,10140.821405
4155.369607,-306.438199,-0.000000,9770.718434
4155.369922,76.609550,222.061783,9548.656652
4155.370238,0.000000,-0.000000,9474.636058
4155.370553,0.000000,-0.000000,9474.636058
4155.370869,0.000000,-0.000000,9918.759623
4155.371184,0.000000,-0.000000,9400.615463
4155.371500,153.219100,-0.000000,9252.574275
4155.371815,76.609550,370.102971,9622.677246
4155.372130,153.219100,-0.000000,9474.636058
4155.372446,0.000000,-0.000000,9622.677246
4155.372761,0.000000,-0.000000,9696.697840
4155.373077,76.609550,148.041188,9474.636058
4155.373392,76.609550,-0.000000,9326.594869
4155.373708,229.828649,370.102971,9400.615463
4155.374023,0.000000,-0.000000,9696.697840
4155.374338,0.000000,-0.000000,9696.697840
4155.374654,0.000000,-0.000000,9178.553681
4155.374969,-383.047749,222.061783,9104.533087
4155.375285,-306.438199,222.061783,9474.636058
4155.375600,-689.485948,148.041188,9474.636058
4155.375916,-612.876398,592.164754,9844.739029
4155.376231,-689.485948,296.082377,9918.759623
4155.376546,-842.705048,222.061783,9474.636058
4155.376862,-229.828649,296.082377,9252.574275
4155.377177,-383.047749,444.123565,9622.677246
4155.377493,-306.438199,1110.308913,9622.677246
4155.377808,-612.876398,1184.329507,9474.636058
4155.378123,-229.828649,1110.308913,9030.512492
4155.378439,-536.266849,962.267725,8956.491898
4155.378754,-1455.581446,1258.350101,8734.430116
4155.379070,-1532.190996,1036.288319,9400.615463
4155.379385,-1991.848295,1332.370696,9326.594869
4155.379701,-2374.896044,1184.329507,9474.636058
4155.380016,-2528.115143,1036.288319,9622.677246
4155.380331,-2987.772442,1406.391290,9622.677246
4155.380647,-3217.601092,1110.308913,9622.677246
4155.380962,-3064.381992,1702.473667,9770.718434
4155.381278,-2757.943793,1628.453072,9770.718434
4155.381593,-3140.991542,1702.473667,9844.739029
4155.381909,-2834.553343,2368.659014,9548.656652
4155.382224,-2757.943793,2738.761985,9030.512492
4155.382539,-2681.334243,2960.823768,9474.636058
4155.382855,-2451.505594,3182.885551,9326.594869
4155.383170,-2451.505594,2812.782580,9178.553681
4155.383486,-2451.505594,2886.803174,9400.615463
4155.383801,-2451.505594,2886.803174,9696.697840
4155.384117,-2681.334243,2516.700203,10140.821405
4155.384432,-2221.676944,2738.761985,10362.883188
4155.384747,-2145.067394,2368.659014,10288.862594
4155.385063,-1915.238745,2294.638420,10214.842000
4155.385378,-1455.581446,2812.782580,9548.656652
4155.385694,-766.095498,3108.864956,9252.574275
4155.386009,-612.876398,3404.947333,8734.430116
4155.386325,-1149.143247,3701.029710,8882.471304
4155.386640,-842.705048,4071.132681,8512.368333
4155.386955,-1378.971896,4219.173869,8882.471304
4155.387271,-1838.629195,3627.009116,9104.533087
4155.387586,-2451.505594,3108.864956,9844.739029
4155.387902,-2834.553343,2590.720797,10584.944971
4155.388217,-2681.334243,2516.700203,10881.027347
4155.388532,-2451.505594,2368.659014,11843.295072
4155.388848,-2681.334243,2886.803174,11473.192101
4155.389163,-2374.896044,3404.947333,10658.965565
4155.389479,-1838.629195,4293.194464,10214.842000
4155.389794,-1608.800546,4811.338623,9622.677246
4155.390110,-1532.190996,4737.318029,9178.553681
4155.390425,-1378.971896,4441.235652,9030.512492
4155.390740,-1149.143247,4071.132681,9030.512492
4155.391056,-2374.896044,3552.988522,9178.553681
4155.391371,-2681.334243,2516.700203,9992.780217
4155.391687,-2451.505594,2146.597232,10955.047942
4155.392002,-2604.724693,1480.411884,11103.089130
4155.392318,-2528.115143,1184.329507,11399.171507
4155.392633,-1915.238745,1628.453072,11325.150913
4155.392948,-1225.752797,2072.576638,10362.883188
4155.393264,-383.047749,2590.720797,9474.636058
4155.393579,306.438199,3034.844362,8882.471304
4155.393895,612.876398,3256.906145,7920.203579
4155.394210,689.485948,3775.050304,7772.162391
4155.394526,306.438199,3923.091493,7254.018232
4155.394841,-459.657299,3478.967927,7772.162391
4155.395156,-1532.190996,2664.741391,8364.327145
4155.395472,-2451.505594,1850.514855,9474.636058
4155.395787,-3524.039291,1036.288319,9844.739029
4155.396103,-4443.353888,592.164754,10881.027347
4155.396418,-4903.011187,222.061783,11325.150913
4155.396734,-4213.525239,-222.061783,11251.130318
4155.397049,-3907.087040,-0.000000,11325.150913
4155.397364,-3370.820191,518.144159,11399.171507
4155.397680,-2374.896044,1332.370696,10510.924376
4155.397995,-1149.143247,2072.576638,9918.759623
4155.398311,153.219100,2812.782580,9252.574275
4155.398626,919.314598,3627.009116,8364.327145
4155.398941,1149.143247,3701.029710,8142.265362
4155.399257,306.438199,3182.885551,7772.162391
4155.399572,-536.266849,2664.741391,7624.121203
4155.399888,-1532.190996,1998.556043,7698.141797
4155.400203,-2911.162892,666.185348,7846.182985
4155.400519,-3753.867940,-74.020594,9030.512492
4155.400834,-5209.449386,-740.205942,9474.636058
4155.401149,-5898.935335,-1998.556043,11325.150913
4155.401465,-5745.716235,-1184.329507,10732.986159
4155.401780,-5592.497135,-888.247130,11695.253884
4155.402096,-3983.696590,-740.205942,11917.315666
4155.402411,-2528.115143,-222.061783,12065.356855
4155.402727,-306.438199,1332.370696,10658.965565
4155.403042,1149.143247,2368.659014,9400.615463
4155.403357,2068.457845,4885.359217,7772.162391
4155.403673,2374.896044,6439.791695,7105.977043
4155.403988,1608.800546,6143.709319,5255.462188
4155.404304,995.924147,5921.647536,5477.523971
4155.404619,-1378.971896,4737.318029,6069.688724
4155.404935,-3294.210641,2590.720797,8068.244768
4155.405250,-5745.716235,-962.267725,10510.924376
4155.405565,-7048.078582,-3182.885551,13397.727550
4155.405881,-7660.954980,-4219.173869,13545.768739
4155.406196,-7354.516781,-4589.276840,15100.201217
4155.406512,-5286.058936,-3034.844362,14285.974681
4155.406827,-3447.429741,-370.102971,11399.171507
4155.407143,-536.266849,3478.967927,8364.327145
4155.407458,1455.581446,6069.688724,6439.791695
4155.407773,3217.601092,9326.594869,4885.359217
4155.408089,3524.039291,10584.944971,3849.070898
4155.408404,2068.457845,9400.615463,4367.215058
4155.408720,383.047749,6587.832884,7402.059420
4155.409035,-1225.752797,4219.173869,10658.965565
4155.409350,-3217.601092,-592.164754,13027.624579
4155.409666,-4749.792088,-3182.885551,15544.324782
4155.409981,-5286.058936,-3701.029710,16136.489536
4155.410297,-5132.839837,-3182.885551,14434.015869
4155.410612,-3983.696590,-1184.329507,11177.109724
4155.410928,-2757.943793,1702.473667,10510.924376
4155.411243,-919.314598,5033.400406,7994.224174
4155.411558,0.000000,6661.853478,4737.318029
4155.411874,1302.362347,7402.059420,4663.297435
4155.412189,919.314598,7846.182985,5107.421000
4155.412505,-536.266849,5847.626942,6883.915261
4155.412820,-842.705048,2738.761985,9104.533087
4155.413136,-1608.800546,1554.432478,11399.171507
4155.413451,-2374.896044,666.185348,11843.295072
4155.413766,-2451.505594,518.144159,12805.562797
4155.414082,-3217.601092,666.185348,12805.562797
4155.414397,-3370.820191,1110.308913,12213.398043
4155.414713,-3217.601092,2590.720797,11325.150913
4155.415028,-3294.210641,3701.029710,9104.533087
4155.415344,-3217.601092,3404.947333,8290.306550
4155.415659,-2451.505594,3478.967927,7920.203579
4155.415974,-1225.752797,3256.906145,7031.956449
4155.416290,-1685.410096,4145.153275,7402.059420
4155.416605,-1225.752797,3701.029710,8882.471304
4155.416921,-1838.629195,2812.782580,10584.944971
4155.417236,-1915.238745,2516.700203,11769.274478
4155.417552,-1532.190996,1480.411884,11769.274478
4155.417867,-1455.581446,518.144159,11547.212695
4155.418182,-612.876398,-74.020594,10807.006753
4155.418498,-459.657299,888.247130,9918.759623
4155.418813,-842.705048,2072.576638,9178.553681
4155.419129,-1149.143247,3404.947333,7772.162391
4155.419444,-689.485948,4367.215058,7698.141797
4155.419760,-842.705048,3923.091493,8216.285956
4155.420075,-1225.752797,2516.700203,8956.491898
4155.420390,-1455.581446,222.061783,10362.883188
4155.420706,-995.924147,-592.164754,10658.965565
4155.421021,-919.314598,-1110.308913,11695.253884
4155.421332,-383.047749,-1036.288319,11843.295072
4155.421647,229.828649,-814.226536,12065.356855
4155.421962,612.876398,592.164754,10807.006753
4155.422278,995.924147,1554.432478,9548.656652
4155.422593,2298.286494,2368.659014,7994.224174
4155.422908,2451.505594,2146.597232,7920.203579
4155.423224,1991.848295,2146.597232,7105.977043
4155.423539,766.095498,1850.514855,6957.935855
4155.423854,-612.876398,-0.000000,8660.409521
4155.424169,-1608.800546,-740.205942,10140.821405
4155.424485,-1838.629195,-2294.638420,10584.944971
4155.424800,-1532.190996,-3330.926739,11843.295072
4155.425115,-919.314598,-3478.967927,12065.356855
4155.425430,-229.828649,-3256.906145,11695.253884
4155.425746,-612.876398,-2220.617826,11547.212695
4155.426061,229.828649,-666.185348,10362.883188
4155.426376,919.314598,814.226536,9326.594869
4155.426691,1302.362347,1924.535449,7698.141797
4155.427007,2145.067394,1850.514855,7031.956449
4155.427322,2757.943793,1036.288319,6513.812290
4155.427637,2451.505594,592.164754,6809.894666
4155.427952,842.705048,-0.000000,7920.203579
4155.428268,-459.657299,-1110.308913,9992.780217
4155.428583,-1838.629195,-1184.329507,10436.903782
4155.428898,-2068.457845,-2442.679609,11843.295072
4155.429214,-1838.629195,-4367.215058,11325.150913
4155.429529,-1302.362347,-4515.256246,11621.233289
4155.429844,-995.924147,-3404.947333,10584.944971
4155.430159,-689.485948,-1998.556043,9548.656652
4155.430475,0.000000,-0.000000,8956.491898
4155.430790,306.438199,1628.453072,7624.121203
4155.431105,153.219100,2590.720797,6809.894666
4155.431420,919.314598,1850.514855,6735.874072
4155.431736,1302.362347,1110.308913,7179.997637
4155.432051,1149.143247,222.061783,7846.182985
4155.432366,306.438199,-888.247130,9104.533087
4155.432681,-1302.362347,-1258.350101,11621.233289
4155.432997,-1915.238745,-1554.432478,11843.295072
4155.433312,-2221.676944,-1924.535449,12361.439231
4155.433627,-1302.362347,-1702.473667,11473.192101
4155.433943,-383.047749,-1332.370696,10214.842000
4155.434258,76.609550,-74.020594,8882.471304
4155.434573,306.438199,962.267725,7920.203579
4155.434888,612.876398,2368.659014,7328.038826
4155.435204,383.047749,3034.844362,7254.018232
4155.435519,536.266849,2442.679609,7402.059420
4155.435834,995.924147,1184.329507,8660.409521
4155.436149,1378.971896,-296.082377,9696.697840
4155.436465,383.047749,-0.000000,9844.739029
4155.436780,76.609550,-518.144159,11325.150913
4155.437095,0.000000,-518.144159,11843.295072
4155.437410,-995.924147,444.123565,11473.192101
4155.437726,-536.266849,1110.308913,10658.965565
4155.438041,689.485948,444.123565,9622.677246
4155.438356,1302.362347,814.226536,8512.368333
4155.438672,766.095498,1702.473667,8216.285956
4155.438987,459.657299,1850.514855,9252.574275
4155.439302,-153.219100,2516.700203,9030.512492
4155.439617,-459.657299,2294.638420,9992.780217
4155.439933,76.609550,888.247130,10510.924376
4155.440248,76.609550,-74.020594,10881.027347
4155.440563,76.609550,-1258.350101,11325.150913
4155.440878,383.047749,-592.164754,11325.150913
4155.441194,153.219100,296.082377,11399.171507
4155.441509,689.485948,1554.432478,10510.924376
4155.441824,536.266849,2590.720797,9548.656652
4155.442139,842.705048,2738.761985,8956.491898
4155.442455,1685.410096,1850.514855,8216.285956
4155.442770,1915.238745,1554.432478,8068.244768
4155.443085,1072.533697,1036.288319,8734.430116
4155.443400,0.000000,1184.329507,9770.718434
4155.443716,-919.314598,518.144159,10436.903782
4155.444031,-1915.238745,296.082377,10732.986159
4155.444346,-1149.143247,-1110.308913,11621.233289
4155.444662,0.000000,-1110.308913,10955.047942
4155.444977,383.047749,-962.267725,11251.130318
4155.445292,612.876398,296.082377,9992.780217
4155.445607,459.657299,740.205942,8882.471304
4155.445923,766.095498,2368.659014,8438.347739
4155.446238,612.876398,2664.741391,7920.203579
4155.446553,1608.800546,1998.556043,7772.162391
4155.446868,1455.581446,888.247130,7550.100608
4155.447184,1225.752797,222.061783,8142.265362
4155.447499,0.000000,-222.061783,8882.471304
4155.447814,-1072.533697,-370.102971,9696.697840
4155.448129,-1915.238745,-1480.411884,11177.109724
4155.448445,-1915.238745,-1036.288319,10955.047942
4155.448760,-1225.752797,-1998.556043,11103.089130
4155.449075,-229.828649,-1406.391290,9622.677246
4155.449391,0.000000,-1036.288319,8882.471304
4155.449706,0.000000,-0.000000,8290.306550
4155.450021,0.000000,296.082377,8956.491898
4155.450336,153.219100,1776.494261,8438.347739
4155.450652,229.828649,1480.411884,8290.306550
4155.450967,1072.533697,444.123565,8882.471304
4155.451282,1302.362347,-296.082377,8734.430116
4155.451597,766.095498,-370.102971,9030.512492
4155.451913,76.609550,-1332.370696,10140.821405
4155.452228,-612.876398,-1258.350101,10881.027347
4155.452543,-842.705048,-1258.350101,11029.068536
4155.452858,-689.485948,-888.247130,10584.944971
4155.453174,-459.657299,-1332.370696,10214.842000
4155.453489,459.657299,-592.164754,9622.677246
4155.453804,153.219100,-666.185348,8808.450710
4155.454120,0.000000,-74.020594,9326.594869
4155.454435,0.000000,592.164754,9548.656652
4155.454750,0.000000,1258.350101,9178.553681
4155.455065,383.047749,518.144159,9474.636058
4155.455381,766.095498,-0.000000,9844.739029
4155.455696,1072.533697,-888.247130,10436.903782
4155.456011,1149.143247,-1258.350101,10214.842000
4155.456326,459.657299,-814.226536,10362.883188
4155.456642,383.047749,-0.000000,10362.883188
4155.456957,153.219100,592.164754,9844.739029
4155.457272,383.047749,888.247130,9622.677246
4155.457587,229.828649,-74.020594,9252.574275
4155.457903,536.266849,-0.000000,8882.471304
4155.458218,383.047749,-222.061783,8660.409521
4155.458533,0.000000,-444.123565,9252.574275
4155.458848,-459.657299,-370.102971,10362.883188
4155.459164,-842.705048,518.144159,9696.697840
4155.459479,-536.266849,-296.082377,9992.780217
4155.459794,0.000000,-1110.308913,10362.883188
4155.460110,689.485948,-888.247130,9474.636058
4155.460425,766.095498,-370.102971,9622.677246
4155.460740,383.047749,-0.000000,9474.636058
4155.461055,383.047749,1184.329507,9474.636058
4155.461371,0.000000,1850.514855,8586.388927
4155.461686,76.609550,1332.370696,9030.512492
4155.462001,76.609550,-0.000000,9104.533087
4155.462316,536.266849,-74.020594,8882.471304
4155.462632,76.609550,-222.061783,8660.409521
4155.462947,-536.266849,-296.082377,9844.739029
4155.463262,-1532.190996,-222.061783,10658.965565
4155.463577,-1378.971896,-0.000000,10362.883188
4155.463893,-612.876398,-518.144159,10362.883188
4155.464208,0.000000,-370.102971,10066.800811
4155.464523,612.876398,-0.000000,9474.636058
4155.464839,306.438199,296.082377,9400.615463
4155.465154,229.828649,1554.432478,9178.553681
4155.465469,383.047749,2590.720797,8586.388927
4155.465784,0.000000,3034.844362,8512.368333
4155.466100,0.000000,1554.432478,9252.574275
4155.466415,536.266849,444.123565,9622.677246
4155.466730,153.219100,-222.061783,9622.677246
4155.467045,0.000000,-0.000000,9770.718434
4155.467361,-612.876398,-296.082377,11177.109724
4155.467676,-689.485948,518.144159,10807.006753
4155.467991,-766.095498,444.123565,10881.027347
4155.468306,0.000000,888.247130,9844.739029
4155.468622,1455.581446,1110.308913,9474.636058
4155.468937,1608.800546,1036.288319,8512.368333
4155.469252,995.924147,740.205942,8956.491898
4155.469568,995.924147,1924.535449,9030.512492
4155.469883,766.095498,2368.659014,8734.430116
4155.470198,383.047749,1628.453072,9474.636058
4155.470513,612.876398,222.061783,10288.862594
4155.470829,766.095498,-74.020594,10066.800811
4155.471144,153.219100,-444.123565,9474.636058
4155.471459,-306.438199,-888.247130,10510.924376
4155.471774,-153.219100,-74.020594,11399.171507
4155.472090,-306.438199,370.102971,10214.842000
4155.472405,0.000000,148.041188,10436.903782
4155.472720,612.876398,666.185348,9622.677246
4155.473035,1378.971896,296.082377,9474.636058
4155.473351,1455.581446,592.164754,8438.347739
4155.473666,1225.752797,296.082377,8734.430116
4155.473981,612.876398,370.102971,9770.718434
4155.474296,76.609550,666.185348,9770.718434
4155.474612,-229.828649,-0.000000,10066.800811
4155.474927,0.000000,-888.247130,10807.006753
4155.475242,153.219100,-1332.370696,10288.862594
4155.475558,0.000000,-1702.473667,10288.862594
4155.475873,-306.438199,-962.267725,9918.759623
4155.476188,-536.266849,-222.061783,10140.821405
4155.476503,-229.828649,222.061783,9474.636058
4155.476819,-229.828649,444.123565,9030.512492
4155.477134,306.438199,370.102971,8882.471304
4155.477449,612.876398,-74.020594,8438.347739
4155.477764,842.705048,222.061783,8512.368333
4155.478080,306.438199,74.020594,9178.553681
4155.478395,0.000000,-0.000000,9474.636058
4155.478710,-612.876398,-222.061783,9474.636058
4155.479025,-1149.143247,-518.144159,10066.800811
4155.479341,-689.485948,-814.226536,10214.842000
4155.479656,0.000000,-1184.329507,9918.759623
4155.479971,-229.828649,-1036.288319,9548.656652
4155.480287,-536.266849,-518.144159,9474.636058
4155.480602,-842.705048,-296.082377,9326.594869
4155.480917,-919.314598,296.082377,9104.533087
4155.481232,0.000000,518.144159,9326.594869
4155.481548,229.828649,-148.041188,8660.409521
4155.481863,459.657299,-666.185348,8512.368333
4155.482178,612.876398,-592.164754,8586.388927
4155.482493,229.828649,-518.144159,9400.615463
4155.482809,0.000000,-370.102971,9622.677246
4155.483124,-842.705048,148.041188,9844.739029
4155.483439,-766.095498,-0.000000,9770.718434
4155.483754,0.000000,-592.164754,9696.697840
4155.484070,0.000000,-962.267725,9178.553681
4155.484385,-229.828649,-1036.288319,9474.636058
4155.484700,-612.876398,-592.164754,9696.697840
4155.485016,-766.095498,444.123565,10214.842000
4155.485331,-1302.362347,814.226536,9918.759623
4155.485646,-459.657299,-0.000000,10066.800811
4155.485961,459.657299,-370.102971,10140.821405
4155.486277,995.924147,-370.102971,9548.656652
4155.486592,306.438199,-444.123565,9770.718434
4155.486907,459.657299,518.144159,9622.677246
4155.487222,306.438199,1110.308913,9548.656652
4155.487538,153.219100,1554.432478,9844.739029
4155.487853,229.828649,962.267725,9622.677246
4155.488168,995.924147,518.144159,9400.615463
4155.488483,1225.752797,-0.000000,9474.636058
4155.488799,995.924147,-74.020594,9770.718434
4155.489114,612.876398,296.082377,10214.842000
4155.489429,0.000000,1036.288319,9474.636058
4155.489744,0.000000,592.164754,9844.739029
4155.490060,689.485948,296.082377,10288.862594
4155.490375,1532.190996,-74.020594,9770.718434
4155.490690,1762.019645,-0.000000,9474.636058
4155.491006,1302.362347,592.164754,9400.615463
4155.491321,766.095498,1406.391290,9252.574275
4155.491636,612.876398,1406.391290,9326.594869
4155.491951,383.047749,1628.453072,9622.677246
4155.492267,766.095498,1258.350101,9770.718434
4155.492582,1149.143247,-0.000000,9474.636058
4155.492897,766.095498,-0.000000,9326.594869
4155.493212,306.438199,444.123565,9326.594869
4155.493528,0.000000,-0.000000,9992.780217
4155.493843,-459.657299,814.226536,10214.842000
4155.494158,-306.438199,1184.329507,10288.862594
4155.494473,0.000000,444.123565,10362.883188
4155.494789,1072.533697,-74.020594,9548.656652
4155.495104,306.438199,296.082377,9474.636058
4155.495419,689.485948,-0.000000,9622.677246
4155.495735,306.438199,666.185348,9548.656652
4155.496050,0.000000,1184.329507,9770.718434
4155.496365,0.000000,1036.288319,9252.574275
4155.496680,0.000000,-0.000000,9548.656652
4155.496996,76.609550,-0.000000,9252.574275
4155.497311,0.000000,-518.144159,9474.636058
4155.497626,-459.657299,-444.123565,9844.739029
4155.497941,-1149.143247,-592.164754,10362.883188
4155.498257,-919.314598,-296.082377,9696.697840
4155.498572,-919.314598,222.061783,9992.780217
4155.498887,-536.266849,-0.000000,9770.718434
4155.499202,153.219100,-148.041188,9400.615463
4155.499518,1072.533697,444.123565,9178.553681
4155.499833,76.609550,-0.000000,9474.636058
4155.500148,-306.438199,666.185348,9252.574275
4155.500464,-612.876398,1036.288319,9178.553681
4155.500779,-536.266849,592.164754,9622.677246
4155.501094,-306.438199,-74.020594,9400.615463
4155.501409,76.609550,-296.082377,9326.594869
4155.501725,-306.438199,-666.185348,9548.656652
4155.502040,-612.876398,-592.164754,10214.842000
4155.502355,-842.705048,-0.000000,10140.821405
4155.502670,-1378.971896,518.144159,9548.656652
4155.502986,-995.924147,-0.000000,9770.718434
4155.503301,0.000000,-370.102971,9474.636058
4155.503616,459.657299,-740.205942,8734.430116
4155.503931,383.047749,-444.123565,8438.347739
4155.504247,229.828649,-0.000000,8512.368333
4155.504562,-76.609550,740.205942,9326.594869
4155.504877,-76.609550,1110.308913,9252.574275
4155.505192,0.000000,518.144159,9400.615463
4155.505508,842.705048,-0.000000,9326.594869
4155.505823,995.924147,-148.041188,9030.512492
4155.506138,612.876398,-518.144159,9622.677246
4155.506454,153.219100,-296.082377,9918.759623
4155.506769,-229.828649,-0.000000,9992.780217
4155.507084,-612.876398,-0.000000,10288.862594
4155.507399,-536.266849,-148.041188,10214.842000
4155.507715,229.828649,-148.041188,10066.800811
4155.508030,766.095498,-296.082377,9844.739029
4155.508345,153.219100,-296.082377,9400.615463
4155.508660,612.876398,296.082377,9252.574275
4155.508976,229.828649,1184.329507,9770.718434
4155.509291,0.000000,1036.288319,9770.718434
4155.509606,153.219100,-0.000000,9992.780217
4155.509921,536.266849,-148.041188,9770.718434
4155.510237,995.924147,-592.164754,9474.636058
4155.510552,689.485948,-148.041188,10140.821405
4155.510867,306.438199,370.102971,10362.883188
4155.511183,229.828649,1480.411884,9474.636058
4155.511498,0.000000,370.102971,9992.780217
4155.511813,306.438199,666.185348,9918.759623
4155.512128,1149.143247,518.144159,9474.636058
4155.512444,1149.143247,-0.000000,9326.594869
4155.512759,919.314598,222.061783,9252.574275
4155.513074,76.609550,296.082377,9844.739029
4155.513389,0.000000,740.205942,9474.636058
4155.513705,-306.438199,740.205942,10066.800811
4155.514020,0.000000,-0.000000,9696.697840
4155.514335,153.219100,-0.000000,9474.636058
4155.514650,459.657299,-518.144159,9474.636058
4155.514966,0.000000,-148.041188,9918.759623
4155.515281,0.000000,222.061783,9992.780217
4155.515596,-306.438199,370.102971,9992.780217
4155.515912,0.000000,444.123565,9770.718434
4155.516227,229.828649,-0.000000,9696.697840
4155.516542,459.657299,-74.020594,9252.574275
4155.516857,919.314598,148.041188,9030.512492
4155.517173,76.609550,370.102971,9178.553681
4155.517488,0.000000,-0.000000,9474.636058
4155.517803,-306.438199,592.164754,8956.491898
4155.518118,-229.828649,444.123565,9178.553681
4155.518434,-306.438199,-444.123565,9252.574275
4155.518749,0.000000,-296.082377,9622.677246
4155.519064,0.000000,-296.082377,9548.656652
4155.519379,-306.438199,-666.185348,9474.636058
4155.519695,-459.657299,-0.000000,9918.759623
4155.520010,-766.095498,962.267725,9474.636058
4155.520325,-766.095498,814.226536,9918.759623
4155.520640,-229.828649,518.144159,9474.636058
4155.520956,536.266849,-0.000000,9252.574275
4155.521271,689.485948,-0.000000,9104.533087
4155.521586,76.609550,-148.041188,9548.656652
4155.521902,-383.047749,370.102971,9548.656652
4155.522217,-995.924147,888.247130,9474.636058
4155.522532,0.000000,1184.329507,9770.718434
4155.522847,153.219100,444.123565,9252.574275
4155.523162,536.266849,-148.041188,9178.553681
4155.523477,766.095498,-222.061783,9252.574275
4155.523792,153.219100,-296.082377,9696.697840
4155.524107,-229.828649,222.061783,9696.697840
4155.524423,-153.219100,-0.000000,10066.800811
4155.524738,-459.657299,740.205942,9622.677246
4155.525053,0.000000,-0.000000,10066.800811
4155.525368,689.485948,-444.123565,9622.677246
4155.525683,612.876398,-222.061783,9474.636058
4155.525998,612.876398,-74.020594,9918.759623
4155.526313,76.609550,740.205942,9770.718434
4155.526628,-459.657299,962.267725,9548.656652
4155.526944,-306.438199,666.185348,9844.739029
4155.527259,536.266849,-148.041188,9548.656652
4155.527574,689.485948,-444.123565,9696.697840
4155.527889,383.047749,-222.061783,9474.636058
4155.528204,-229.828649,-74.020594,10066.800811
4155.528519,0.000000,-0.000000,10140.821405
4155.528834,-536.266849,296.082377,10214.842000
4155.529150,0.000000,-0.000000,9696.697840
4155.529465,536.266849,-296.082377,9844.739029
4155.529780,536.266849,-0.000000,9474.636058
4155.530095,1149.143247,-592.164754,9622.677246
4155.530410,459.657299,592.164754,9622.677246
4155.530725,306.438199,1406.391290,9474.636058
4155.531040,76.609550,1184.329507,9474.636058
4155.531355,76.609550,592.164754,9474.636058
4155.531671,1149.143247,-148.041188,9770.718434
4155.531986,766.095498,-444.123565,9400.615463
4155.532301,76.609550,-74.020594,9400.615463
4155.532616,-383.047749,-296.082377,10066.800811
4155.532931,-459.657299,370.102971,9696.697840
4155.533246,-612.876398,370.102971,9992.780217
4155.533561,0.000000,-0.000000,9548.656652
4155.533876,919.314598,-296.082377,9548.656652
4155.534192,1149.143247,-222.061783,9178.553681
4155.534507,766.095498,-148.041188,9326.594869
4155.534822,306.438199,-0.000000,9548.656652
4155.535137,0.000000,222.061783,9104.533087
4155.535452,-306.438199,518.144159,9030.512492
4155.535767,459.657299,-74.020594,9030.512492
4155.536082,76.609550,-444.123565,9030.512492
4155.536397,0.000000,-1184.329507,9326.594869
4155.536713,459.657299,-814.226536,9326.594869
4155.537028,-383.047749,-222.061783,9622.677246
4155.537343,-612.876398,-0.000000,9992.780217
4155.537658,-766.095498,666.185348,10214.842000
4155.537973,-229.828649,-0.000000,9770.718434
4155.538288,536.266849,-296.082377,9622.677246
4155.538603,383.047749,-296.082377,9548.656652
4155.538918,383.047749,148.041188,9474.636058
4155.539234,153.219100,444.123565,9474.636058
4155.539549,229.828649,1258.350101,9918.759623
4155.539864,-306.438199,1184.329507,9696.697840
4155.540179,0.000000,-0.000000,10066.800811
4155.540494,76.609550,148.041188,9400.615463
4155.540809,766.095498,-370.102971,9178.553681
4155.541124,76.609550,-666.185348,10066.800811
4155.541440,-459.657299,-0.000000,9548.656652
4155.541755,-612.876398,666.185348,10140.821405
4155.542070,-612.876398,666.185348,10214.842000
4155.542385,-383.047749,-0.000000,9844.739029
4155.542700,919.314598,-148.041188,9252.574275
4155.543015,842.705048,-0.000000,9104.533087
4155.543330,612.876398,740.205942,9844.739029
4155.543645,229.828649,740.205942,9844.739029
4155.543961,383.047749,1554.432478,9474.636058
4155.544276,229.828649,1110.308913,9548.656652
4155.544591,766.095498,592.164754,9696.697840
4155.544906,995.924147,518.144159,9474.636058
4155.545221,842.705048,148.041188,9474.636058
4155.545536,229.828649,-296.082377,9696.697840
4155.545851,0.000000,-74.020594,9918.759623
4155.546166,-459.657299,-0.000000,9918.759623
4155.546482,-383.047749,222.061783,10362.883188
4155.546797,459.657299,-222.061783,9770.718434
4155.547112,842.705048,-370.102971,9326.594869
4155.547427,612.876398,-370.102971,8734.430116
4155.547742,0.000000,-296.082377,9252.574275
4155.548057,0.000000,444.123565,9400.615463
4155.548372,0.000000,1036.288319,9252.574275
4155.548687,153.219100,1258.350101,9104.533087
4155.549003,536.266849,296.082377,9326.594869
4155.549318,612.876398,-444.123565,9474.636058
4155.549633,153.219100,-444.123565,9474.636058
4155.549948,0.000000,-666.185348,10214.842000
4155.550263,-689.485948,444.123565,9770.718434
4155.550578,-689.485948,962.267725,9770.718434
4155.550893,-536.266849,370.102971,9918.759623
4155.551209,153.219100,-74.020594,9548.656652
4155.551524,153.219100,-1036.288319,9030.512492
4155.551839,459.657299,-592.164754,9400.615463
4155.552154,-229.828649,-0.000000,9622.677246
4155.552469,-536.266849,444.123565,10140.821405
4155.552784,-689.485948,592.164754,9770.718434
4155.553099,-383.047749,296.082377,9696.697840
4155.553414,689.485948,-222.061783,9400.615463
4155.553730,842.705048,-370.102971,9030.512492
4155.554045,612.876398,-148.041188,9474.636058
4155.554360,383.047749,370.102971,9326.594869
4155.554675,153.219100,666.185348,9400.615463
4155.554990,306.438199,1258.350101,9474.636058
4155.555305,689.485948,444.123565,9400.615463
4155.555620,1149.143247,148.041188,8956.491898
4155.555935,1685.410096,-444.123565,9030.512492
4155.556251,689.485948,-0.000000,9326.594869
4155.556566,76.609550,-0.000000,9400.615463
4155.556881,-153.219100,518.144159,9696.697840
4155.557196,-842.705048,-0.000000,10288.862594
4155.557511,-612.876398,-518.144159,10214.842000
4155.557826,229.828649,-518.144159,9696.697840
4155.558141,0.000000,-296.082377,9844.739029
4155.558456,153.219100,-0.000000,9770.718434
4155.558772,-383.047749,370.102971,10436.903782
4155.559087,-229.828649,1184.329507,9622.677246
4155.559402,-229.828649,1258.350101,9548.656652
4155.559717,306.438199,666.185348,9844.739029
4155.560032,612.876398,-0.000000,9548.656652
4155.560347,306.438199,222.061783,9474.636058
4155.560662,0.000000,-370.102971,9622.677246
4155.560977,-383.047749,-0.000000,9992.780217
4155.561293,-612.876398,518.144159,9992.780217
4155.561608,-766.095498,222.061783,10140.821405
4155.561923,-306.438199,-666.185348,10584.944971
4155.562238,229.828649,-296.082377,9548.656652
4155.562553,0.000000,-666.185348,9622.677246
4155.562868,0.000000,-0.000000,9474.636058
4155.563183,229.828649,148.041188,10140.821405
4155.563499,0.000000,740.205942,9622.677246
4155.563814,153.219100,370.102971,9622.677246
4155.564129,842.705048,444.123565,9548.656652
4155.564444,1072.533697,-0.000000,9400.615463
4155.564759,1302.362347,222.061783,9400.615463
4155.565074,153.219100,-592.164754,9474.636058
4155.565389,0.000000,296.082377,9622.677246
4155.565704,0.000000,518.144159,9622.677246
4155.566020,-229.828649,444.123565,9548.656652
4155.566335,459.657299,-444.123565,9548.656652
4155.566650,76.609550,-592.164754,9326.594869
4155.566965,229.828649,-740.205942,9104.533087
4155.567280,0.000000,-740.205942,9326.594869
4155.567595,0.000000,-222.061783,9770.718434
4155.567910,-766.095498,296.082377,9548.656652
4155.568225,-306.438199,666.185348,9622.677246
4155.568541,306.438199,-0.000000,9400.615463
4155.568856,1072.533697,-0.000000,8808.450710
4155.569171,689.485948,-74.020594,8660.409521
4155.569486,689.485948,-0.000000,9474.636058
4155.569801,0.000000,444.123565,9622.677246
4155.570116,-842.705048,666.185348,9548.656652
4155.570431,-612.876398,-148.041188,9474.636058
4155.570746,0.000000,-592.164754,10066.800811
4155.571062,153.219100,-1036.288319,9474.636058
4155.571377,76.609550,-740.205942,8808.450710
4155.571692,-459.657299,-148.041188,10066.800811
4155.572007,-612.876398,666.185348,9474.636058
4155.572322,-612.876398,592.164754,9844.739029
4155.572637,153.219100,962.267725,9400.615463
4155.572952,383.047749,-0.000000,9548.656652
4155.573268,1072.533697,-370.102971,9400.615463
4155.573583,536.266849,370.102971,9252.574275
4155.573898,76.609550,740.205942,9622.677246
4155.574213,0.000000,1258.350101,9474.636058
4155.574528,0.000000,1776.494261,9474.636058
4155.574843,153.219100,1110.308913,9178.553681
4155.575158,689.485948,-0.000000,9622.677246
4155.575473,459.657299,-370.102971,9548.656652
4155.575789,0.000000,-296.082377,9992.780217
4155.576104,-536.266849,-0.000000,10362.883188
4155.576419,-612.876398,518.144159,10362.883188
4155.576734,-383.047749,814.226536,10362.883188
4155.577049,459.657299,222.061783,9918.759623
4155.577364,766.095498,370.102971,9622.677246
4155.577679,919.314598,592.164754,9252.574275
4155.577994,766.095498,740.205942,9104.533087
4155.578310,383.047749,740.205942,9474.636058
4155.578625,0.000000,1258.350101,9548.656652
4155.578940,-536.266849,1406.391290,9844.739029
4155.579255,-153.219100,148.041188,10362.883188
4155.579570,383.047749,-0.000000,10214.842000
4155.579885,383.047749,-296.082377,9992.780217
4155.580200,0.000000,-0.000000,10066.800811
4155.580515,-383.047749,518.144159,10510.924376
4155.580831,-229.828649,814.226536,10140.821405
4155.581146,0.000000,222.061783,9844.739029
4155.581461,229.828649,-0.000000,10362.883188
4155.581776,689.485948,-0.000000,9474.636058
4155.582091,995.924147,-0.000000,9104.533087
4155.582406,612.876398,-0.000000,9474.636058
4155.582721,612.876398,666.185348,9474.636058
4155.583037,153.219100,740.205942,9474.636058
4155.583352,0.000000,1184.329507,9548.656652
4155.583667,76.609550,-0.000000,9622.677246
4155.583982,536.266849,-222.061783,9178.553681
4155.584297,229.828649,-592.164754,9252.574275
4155.584612,-306.438199,-888.247130,9918.759623
4155.584927,-459.657299,-444.123565,9992.780217
4155.585242,-689.485948,-296.082377,9622.677246
4155.585558,-612.876398,222.061783,9622.677246
4155.585873,153.219100,-74.020594,9474.636058
4155.586188,536.266849,-296.082377,9400.615463
4155.586503,766.095498,-74.020594,8882.471304
4155.586818,383.047749,-74.020594,8882.471304
4155.587133,306.438199,148.041188,9400.615463
4155.587448,0.000000,518.144159,8882.471304
4155.587763,0.000000,370.102971,9474.636058
4155.588079,306.438199,-592.164754,9474.636058
4155.588394,459.657299,-814.226536,9252.574275
4155.588709,306.438199,-592.164754,9326.594869
4155.589024,0.000000,-592.164754,9622.677246
4155.589339,-459.657299,-592.164754,9992.780217
4155.589654,-1072.533697,-74.020594,9104.533087
4155.589969,-536.266849,-148.041188,9696.697840
4155.590284,383.047749,-444.123565,9326.594869
4155.590600,842.705048,-148.041188,9326.594869
4155.590915,689.485948,-74.020594,9474.636058
4155.591230,153.219100,-296.082377,9178.553681
4155.591545,0.000000,-0.000000,9326.594869
4155.591860,-306.438199,222.061783,9622.677246
4155.592175,-229.828649,296.082377,10288.862594
4155.592490,0.000000,-0.000000,9770.718434
4155.592805,0.000000,-888.247130,9548.656652
4155.593121,153.219100,-740.205942,9844.739029
4155.593436,-229.828649,-222.061783,9918.759623
4155.593751,-229.828649,222.061783,10140.821405
4155.594066,-689.485948,814.226536,10214.842000
4155.594381,-612.876398,888.247130,9992.780217
4155.594696,229.828649,370.102971,9622.677246
4155.595011,842.705048,-0.000000,9252.574275
4155.595327,689.485948,74.020594,9400.615463
4155.595642,76.609550,296.082377,9770.718434
4155.595957,0.000000,1036.288319,9992.780217
4155.596272,-383.047749,1480.411884,9918.759623
4155.596587,76.609550,740.205942,10066.800811
4155.596902,995.924147,296.082377,9770.718434
4155.597217,612.876398,-148.041188,9474.636058
4155.597532,76.609550,-74.020594,9696.697840
4155.597848,0.000000,-0.000000,9474.636058
4155.598163,306.438199,740.205942,9622.677246
4155.598478,-306.438199,1332.370696,9992.780217
4155.598793,-229.828649,666.185348,9474.636058
4155.599108,919.314598,-148.041188,8660.409521
4155.599423,1378.971896,-0.000000,8956.491898
4155.599738,689.485948,-0.000000,9030.512492
4155.600053,536.266849,592.164754,9548.656652
4155.600369,-153.219100,1036.288319,9770.718434
4155.600684,-306.438199,1258.350101,9548.656652
4155.600999,612.876398,222.061783,9844.739029
4155.601314,842.705048,-296.082377,9770.718434
4155.601629,766.095498,-0.000000,9548.656652
4155.601944,76.609550,-0.000000,9844.739029
4155.602259,0.000000,148.041188,9696.697840
4155.602574,-153.219100,814.226536,9252.574275
4155.602890,-306.438199,888.247130,9918.759623
4155.603205,153.219100,-0.000000,9770.718434
4155.603520,842.705048,-148.041188,9622.677246
4155.603835,919.314598,-370.102971,9178.553681
4155.604150,919.314598,-0.000000,9474.636058
4155.604465,383.047749,518.144159,9548.656652
4155.604780,0.000000,1554.432478,9400.615463
4155.605096,0.000000,1036.288319,9326.594869
4155.605411,383.047749,-0.000000,9400.615463
4155.605726,459.657299,-592.164754,9474.636058
4155.606041,229.828649,-814.226536,9474.636058
4155.606356,-612.876398,-592.164754,9770.718434
4155.606671,-1149.143247,-0.000000,9992.780217
4155.606986,-1302.362347,370.102971,10066.800811
4155.607301,-383.047749,518.144159,10140.821405
4155.607617,-229.828649,-148.041188,9770.718434
4155.607932,459.657299,-296.082377,10066.800811
4155.608247,842.705048,-0.000000,9326.594869
4155.608562,459.657299,370.102971,9400.615463
4155.608877,689.485948,1110.308913,9326.594869
4155.609192,0.000000,1776.494261,9326.594869
4155.609507,229.828649,962.267725,9326.594869
4155.609822,229.828649,-0.000000,9178.553681
4155.610138,306.438199,-666.185348,9326.594869
4155.610453,153.219100,-1110.308913,9918.759623
4155.610768,-1149.143247,-962.267725,9696.697840
4155.611083,-1608.800546,-592.164754,10140.821405
4155.611398,-1685.410096,-0.000000,10066.800811
4155.611713,-842.705048,-148.041188,9844.739029
4155.612028,0.000000,-740.205942,10362.883188
4155.612343,459.657299,-518.144159,9622.677246
4155.612659,612.876398,-0.000000,9474.636058
4155.612974,0.000000,-0.000000,9474.636058
4155.613289,153.219100,888.247130,9104.533087
4155.613604,0.000000,1184.329507,9622.677246
4155.613919,-153.219100,518.144159,9696.697840
4155.614234,306.438199,-0.000000,9992.780217
4155.614549,383.047749,-296.082377,9474.636058
4155.614864,153.219100,-814.226536,9474.636058
4155.615180,-536.266849,-1036.288319,10288.862594
4155.615495,-1225.752797,-518.144159,10510.924376
4155.615810,-842.705048,-74.020594,9770.718434
4155.616125,-459.657299,-518.144159,10066.800811
4155.616440,919.314598,-222.061783,9548.656652
4155.616755,689.485948,-444.123565,9104.533087
4155.617070,689.485948,-0.000000,9104.533087
4155.617386,383.047749,222.061783,9326.594869
4155.617701,536.266849,962.267725,9104.533087
4155.618016,229.828649,1184.329507,9178.553681
4155.618331,842.705048,444.123565,9178.553681
4155.618646,766.095498,-0.000000,9104.533087
4155.618961,1225.752797,-74.020594,9474.636058
4155.619276,766.095498,-296.082377,9474.636058
4155.619591,229.828649,-0.000000,9622.677246
4155.619907,0.000000,148.041188,9992.780217
4155.620222,76.609550,518.144159,9622.677246
4155.620537,306.438199,222.061783,9178.553681
4155.620852,766.095498,444.123565,8956.491898
4155.621167,689.485948,222.061783,9326.594869
4155.621482,689.485948,666.185348,9178.553681
4155.621797,459.657299,962.267725,9400.615463
4155.622112,229.828649,1406.391290,9104.533087
4155.622428,0.000000,1480.411884,9104.533087
4155.622743,536.266849,370.102971,9622.677246
4155.623058,766.095498,296.082377,9844.739029
4155.623373,612.876398,-74.020594,9992.780217
4155.623689,229.828649,444.123565,9770.718434
4155.624004,0.000000,666.185348,9844.739029
4155.624319,-306.438199,1406.391290,10362.883188
4155.624635,-153.219100,1258.350101,10362.883188
4155.624950,76.609550,962.267725,9696.697840
4155.625265,612.876398,222.061783,9400.615463
4155.625580,536.266849,-74.020594,9918.759623
4155.625896,76.609550,222.061783,9770.718434
4155.626211,-306.438199,740.205942,10510.924376
4155.626526,-689.485948,1110.308913,10658.965565
4155.626842,-536.266849,1110.308913,10214.842000
4155.627157,0.000000,296.082377,10436.903782
4155.627472,536.266849,-148.041188,10214.842000
4155.627788,459.657299,-74.020594,9918.759623
4155.628103,-229.828649,-0.000000,9622.677246
4155.628418,-153.219100,740.205942,10140.821405
4155.628733,-383.047749,740.205942,10436.903782
4155.629049,-383.047749,740.205942,10140.821405
4155.629364,0.000000,148.041188,9474.636058
4155.629679,459.657299,-444.123565,9696.697840
4155.629995,919.314598,-74.020594,9474.636058
4155.630310,153.219100,-74.020594,9474.636058
4155.630625,0.000000,-0.000000,9770.718434
4155.630941,-612.876398,518.144159,9770.718434
4155.631256,-919.314598,296.082377,9918.759623
4155.631571,-459.657299,-518.144159,9696.697840
4155.631886,0.000000,-666.185348,9178.553681
4155.632202,153.219100,-888.247130,9104.533087
4155.632517,-229.828649,-666.185348,9252.574275
4155.632832,-383.047749,-148.041188,9104.533087
4155.633148,-459.657299,296.082377,9178.553681
4155.633463,-229.828649,222.061783,8586.388927
4155.633778,383.047749,-148.041188,9326.594869
4155.634094,536.266849,-740.205942,8882.471304
4155.634409,153.219100,-1184.329507,8660.409521
4155.634724,0.000000,-1036.288319,9178.553681
4155.635039,-306.438199,-666.185348,9770.718434
4155.635355,-459.657299,-0.000000,9474.636058
4155.635670,-536.266849,-222.061783,9326.594869
4155.635985,76.609550,-592.164754,8808.450710
4155.636301,76.609550,-1036.288319,8882.471304
4155.636616,153.219100,-666.185348,8142.265362
4155.636931,0.000000,-1036.288319,9104.533087
4155.637247,0.000000,-0.000000,9696.697840
4155.637562,-306.438199,222.061783,9548.656652
4155.637877,-229.828649,592.164754,9178.553681
4155.638192,842.705048,-0.000000,9326.594869
4155.638508,1072.533697,-74.020594,9474.636058
4155.638823,689.485948,-444.123565,9474.636058
4155.639138,229.828649,-0.000000,9844.739029
4155.639454,229.828649,888.247130,9474.636058
4155.639769,0.000000,1332.370696,9696.697840
4155.640084,0.000000,1110.308913,9400.615463
4155.640400,153.219100,296.082377,9696.697840
4155.640715,459.657299,-444.123565,9548.656652
4155.641030,459.657299,-222.061783,9474.636058
4155.641345,0.000000,222.061783,9992.780217
4155.641661,-383.047749,518.144159,10362.883188
4155.641976,-383.047749,740.205942,10955.047942
4155.642291,383.047749,-0.000000,10436.903782
4155.642607,1149.143247,148.041188,9992.780217
4155.642922,1532.190996,-74.020594,9918.759623
4155.643237,1149.143247,740.205942,9844.739029
4155.643553,766.095498,1480.411884,9696.697840
4155.643868,766.095498,1776.494261,10066.800811
4155.644183,306.438199,1776.494261,9770.718434
4155.644498,459.657299,814.226536,9622.677246
4155.644814,995.924147,-0.000000,9844.739029
4155.645129,919.314598,-592.164754,9622.677246
4155.645444,153.219100,-0.000000,10066.800811
4155.645760,229.828649,-0.000000,10510.924376
4155.646075,-1225.752797,1036.288319,10732.986159
4155.646390,-766.095498,888.247130,10288.862594
4155.646706,0.000000,-0.000000,10214.842000
4155.647021,459.657299,-148.041188,9696.697840
4155.647336,612.876398,-222.061783,9622.677246
4155.647651,229.828649,370.102971,9696.697840
4155.647967,76.609550,888.247130,9844.739029
4155.648282,0.000000,1258.350101,9252.574275
4155.648597,229.828649,1332.370696,9030.512492
4155.648913,842.705048,592.164754,9474.636058
4155.649228,689.485948,148.041188,9104.533087
4155.649543,383.047749,-148.041188,9252.574275
4155.649859,0.000000,-592.164754,9400.615463
4155.650174,-306.438199,-444.123565,9992.780217
4155.650489,-842.705048,-0.000000,9918.759623
4155.650804,-1149.143247,-148.041188,9992.780217
4155.651120,-536.266849,-666.185348,9474.636058
4155.651435,612.876398,-592.164754,9252.574275
4155.651750,306.438199,-74.020594,9104.533087
4155.652066,612.876398,296.082377,8660.409521
4155.652381,459.657299,962.267725,8734.430116
4155.652696,76.609550,1110.308913,9104.533087
4155.653012,536.266849,592.164754,8734.430116
4155.653327,689.485948,-148.041188,8512.368333
4155.653642,842.705048,-518.144159,8660.409521
4155.653957,459.657299,-222.061783,9474.636058
4155.654273,-153.219100,-666.185348,9400.615463
4155.654588,-459.657299,-0.000000,9844.739029
4155.654903,-995.924147,-0.000000,9844.739029
4155.655219,-1225.752797,-222.061783,9696.697840
4155.655534,-689.485948,-740.205942,9622.677246
4155.655849,-153.219100,-814.226536,9474.636058
4155.656165,-383.047749,-962.267725,9178.553681
4155.656480,-459.657299,-0.000000,9548.656652
4155.656795,-689.485948,444.123565,10066.800811
4155.657110,-995.924147,1258.350101,9844.739029
4155.657426,-229.828649,444.123565,10066.800811
4155.657741,-76.609550,370.102971,9918.759623
4155.658056,0.000000,-0.000000,10066.800811
4155.658372,0.000000,-74.020594,9992.780217
4155.658687,-383.047749,-74.020594,10140.821405
4155.659002,-536.266849,444.123565,9918.759623
4155.659318,-689.485948,296.082377,9918.759623
4155.659633,0.000000,-74.020594,9918.759623
4155.659948,0.000000,-444.123565,9844.739029
4155.660263,0.000000,-444.123565,9474.636058
4155.660579,0.000000,-0.000000,9474.636058
4155.660894,-459.657299,-0.000000,9844.739029
4155.661209,0.000000,-0.000000,10288.862594
4155.661525,-689.485948,444.123565,10436.903782
4155.661840,-229.828649,-0.000000,9992.780217
4155.662155,536.266849,-0.000000,9918.759623
4155.662471,842.705048,-0.000000,9622.677246
4155.662786,1225.752797,296.082377,9696.697840
4155.663101,536.266849,814.226536,9696.697840
4155.663416,306.438199,1110.308913,9622.677246
4155.663732,536.266849,962.267725,9696.697840
4155.664047,689.485948,222.061783,9474.636058
4155.664362,689.485948,-148.041188,9548.656652
4155.664678,689.485948,-518.144159,9178.553681
4155.664993,459.657299,-222.061783,9252.574275
4155.665308,306.438199,-370.102971,9548.656652
4155.665624,0.000000,-0.000000,9474.636058
4155.665939,-459.657299,-0.000000,9474.636058
4155.666254,76.609550,-0.000000,9622.677246
4155.666569,842.705048,-222.061783,9252.574275
4155.666885,1149.143247,-74.020594,8882.471304
4155.667200,1149.143247,-74.020594,9252.574275
4155.667515,536.266849,-0.000000,9548.656652
4155.667831,76.609550,1036.288319,9474.636058
4155.668146,0.000000,888.247130,9326.594869
4155.668461,612.876398,666.185348,9400.615463
4155.668777,919.314598,518.144159,9030.512492
4155.669092,919.314598,-148.041188,8956.491898
4155.669407,153.219100,-0.000000,9252.574275
4155.669722,0.000000,222.061783,9104.533087
4155.670038,0.000000,518.144159,9474.636058
4155.670353,-766.095498,370.102971,9474.636058
4155.670668,153.219100,-222.061783,9474.636058
4155.670984,229.828649,-592.164754,9474.636058
4155.671299,459.657299,-222.061783,8660.409521
4155.671614,306.438199,-0.000000,9252.574275
4155.671930,0.000000,1110.308913,8882.471304
4155.672245,-153.219100,1850.514855,9474.636058
4155.672560,0.000000,1258.350101,9474.636058
4155.672875,153.219100,444.123565,9622.677246
4155.673191,383.047749,-0.000000,9474.636058
4155.673506,383.047749,-222.061783,9252.574275
4155.673821,-229.828649,444.123565,10214.842000
4155.674137,-766.095498,740.205942,10288.862594
4155.674452,-919.314598,1332.370696,10436.903782
4155.674767,-689.485948,962.267725,9622.677246
4155.675083,0.000000,-0.000000,10362.883188
4155.675398,229.828649,-0.000000,9622.677246
4155.675713,-306.438199,-0.000000,9696.697840
4155.676028,-766.095498,-0.000000,9918.759623
4155.676344,-842.705048,296.082377,10140.821405
4155.676659,-1225.752797,814.226536,10066.800811
4155.676974,-766.095498,222.061783,9844.739029
4155.677290,-383.047749,-296.082377,9992.780217
4155.677605,229.828649,-518.144159,9696.697840
4155.677920,153.219100,-370.102971,9474.636058
4155.678236,-842.705048,296.082377,9770.718434
4155.678551,-1072.533697,592.164754,10066.800811
4155.678866,-689.485948,444.123565,9770.718434
4155.679181,-153.219100,-0.000000,9770.718434
4155.679497,229.828649,-370.102971,9696.697840
4155.679812,0.000000,-370.102971,9474.636058
4155.680127,-306.438199,-222.061783,9548.656652
4155.680443,-612.876398,-0.000000,9696.697840
4155.680758,-536.266849,-0.000000,9474.636058
4155.681073,-306.438199,444.123565,9844.739029
4155.681389,76.609550,-666.185348,9696.697840
4155.681704,383.047749,-592.164754,9326.594869
4155.682019,1149.143247,-518.144159,8586.388927
4155.682334,689.485948,-370.102971,8734.430116
4155.682650,842.705048,-222.061783,8882.471304
4155.682965,459.657299,148.041188,9474.636058
4155.683280,153.219100,962.267725,8956.491898
4155.683596,612.876398,148.041188,9178.553681
4155.683911,1072.533697,-148.041188,8586.388927
4155.684226,1149.143247,-666.185348,8216.285956
4155.684542,1072.533697,-666.185348,9104.533087
4155.684857,383.047749,-296.082377,9178.553681
4155.685172,536.266849,-0.000000,9474.636058
4155.685487,306.438199,444.123565,9474.636058
4155.685803,689.485948,296.082377,9326.594869
4155.686118,1532.190996,-222.061783,9252.574275
4155.686433,1455.581446,-444.123565,9104.533087
4155.686749,1302.362347,-0.000000,8808.450710
4155.687064,919.314598,370.102971,8882.471304
4155.687379,689.485948,740.205942,9400.615463
4155.687695,0.000000,888.247130,9474.636058
4155.688010,76.609550,518.144159,9696.697840
4155.688325,383.047749,-0.000000,9326.594869
4155.688640,536.266849,-0.000000,9474.636058
4155.688956,76.609550,-0.000000,10288.862594
4155.689271,-459.657299,-74.020594,10510.924376
4155.689586,-766.095498,148.041188,10584.944971
4155.689902,-229.828649,518.144159,10436.903782
4155.690217,-383.047749,444.123565,10362.883188
4155.690532,229.828649,518.144159,9918.759623
4155.690848,306.438199,666.185348,9992.780217
4155.691163,0.000000,666.185348,9400.615463
4155.691478,0.000000,1036.288319,10140.821405
4155.691793,-459.657299,1776.494261,9622.677246
4155.692109,-612.876398,592.164754,9844.739029
4155.692424,-383.047749,-0.000000,10436.903782
4155.692739,229.828649,-370.102971,10214.842000
4155.693055,0.000000,-666.185348,9918.759623
4155.693370,-459.657299,-0.000000,10288.862594
4155.693685,-383.047749,814.226536,10732.986159
4155.694001,-1149.143247,888.247130,10066.800811
4155.694316,-459.657299,518.144159,10584.944971
4155.694631,76.609550,962.267725,9548.656652
4155.694946,919.314598,222.061783,9326.594869
4155.695262,919.314598,-0.000000,9474.636058
4155.695577,0.000000,148.041188,9696.697840
4155.695892,0.000000,888.247130,9622.677246
4155.696208,-459.657299,962.267725,9474.636058
4155.696523,-459.657299,518.144159,9696.697840
4155.696838,-306.438199,-222.061783,9844.739029
4155.697154,229.828649,-222.061783,9326.594869
4155.697469,76.609550,-592.164754,9400.615463
4155.697784,0.000000,-296.082377,9474.636058
4155.698099,-229.828649,-0.000000,9918.759623
4155.698415,-383.047749,666.185348,9770.718434
4155.698730,0.000000,148.041188,9474.636058
4155.699045,766.095498,-296.082377,9104.533087
4155.699361,1149.143247,-592.164754,8438.347739
4155.699676,919.314598,-148.041188,8438.347739
4155.699991,229.828649,-148.041188,8956.491898
4155.700307,153.219100,-0.000000,8660.409521
4155.700622,-459.657299,-74.020594,9104.533087
4155.700937,0.000000,-444.123565,9178.553681
4155.701253,612.876398,-1332.370696,8956.491898
4155.701568,842.705048,-888.247130,9030.512492
4155.701883,383.047749,-592.164754,9030.512492
4155.702198,153.219100,-0.000000,9178.553681
4155.702514,536.266849,592.164754,9474.636058
4155.702829,0.000000,1036.288319,9474.636058
4155.703144,153.219100,444.123565,9252.574275
4155.703460,1149.143247,-0.000000,8882.471304
4155.703775,1149.143247,-148.041188,8734.430116
4155.704090,919.314598,-370.102971,9326.594869
4155.704406,0.000000,-0.000000,9622.677246
4155.704721,-612.876398,592.164754,9918.759623
4155.705036,-459.657299,444.123565,9844.739029
4155.705351,-229.828649,592.164754,9696.697840
4155.705667,76.609550,370.102971,9844.739029
4155.705982,306.438199,-0.000000,9474.636058
4155.706297,229.828649,296.082377,10214.842000
4155.706613,0.000000,518.144159,9844.739029
4155.706928,0.000000,1036.288319,10214.842000
4155.707243,153.219100,1702.473667,9918.759623
4155.707559,306.438199,1258.350101,9918.759623
4155.707874,383.047749,1184.329507,9696.697840
4155.708189,842.705048,518.144159,9696.697840
4155.708504,689.485948,444.123565,10140.821405
4155.708820,0.000000,888.247130,10214.842000
4155.709135,-689.485948,814.226536,10362.883188
4155.709450,-919.314598,888.247130,10881.027347
4155.709766,-383.047749,-296.082377,10510.924376
4155.710081,0.000000,-222.061783,10066.800811
4155.710396,153.219100,-0.000000,10584.944971
4155.710712,-689.485948,-0.000000,10066.800811
4155.711027,-689.485948,-0.000000,10732.986159
4155.711342,-612.876398,740.205942,10140.821405
4155.711657,-536.266849,-0.000000,10584.944971
4155.711973,306.438199,-0.000000,9696.697840
4155.712288,919.314598,-148.041188,9178.553681
4155.712603,919.314598,-74.020594,9474.636058
4155.712919,459.657299,222.061783,9622.677246
4155.713234,229.828649,222.061783,9104.533087
4155.713549,-306.438199,370.102971,9844.739029
4155.713865,-229.828649,518.144159,9326.594869
4155.714180,76.609550,-740.205942,9326.594869
4155.714495,383.047749,-1258.350101,9030.512492
4155.714810,76.609550,-1258.350101,9178.553681
4155.715126,0.000000,-1036.288319,9474.636058
4155.715441,-689.485948,-592.164754,9622.677246
4155.715756,-689.485948,-0.000000,9770.718434
4155.716072,76.609550,-0.000000,9474.636058
4155.716387,842.705048,-148.041188,9104.533087
4155.716702,1149.143247,-74.020594,8660.409521
4155.717018,1072.533697,-74.020594,8586.388927
4155.717333,766.095498,-148.041188,8364.327145
4155.717648,919.314598,-0.000000,9178.553681
4155.717963,153.219100,814.226536,9104.533087
4155.718279,153.219100,370.102971,8660.409521
4155.718594,459.657299,-0.000000,8956.491898
4155.718909,766.095498,-74.020594,9030.512492
4155.719225,689.485948,-740.205942,9104.533087
4155.719540,306.438199,-1184.329507,9104.533087
4155.719855,-459.657299,-222.061783,9992.780217
4155.720171,-689.485948,74.020594,9844.739029
4155.720486,-306.438199,370.102971,9474.636058
4155.720801,766.095498,-0.000000,9326.594869
4155.721116,1072.533697,222.061783,8734.430116
4155.721432,612.876398,296.082377,9104.533087
4155.721747,76.609550,444.123565,9326.594869
4155.722062,0.000000,888.247130,9104.533087
4155.722378,-612.876398,1184.329507,9252.574275
4155.722693,-689.485948,296.082377,9844.739029
4155.723008,-689.485948,222.061783,9770.718434
4155.723324,-459.657299,-518.144159,10362.883188
4155.723639,-689.485948,-814.226536,10510.924376
4155.723954,-995.924147,-0.000000,10436.903782
4155.724269,-1378.971896,518.144159,10658.965565
4155.724585,-1225.752797,518.144159,10955.047942
4155.724900,-766.095498,592.164754,10584.944971
4155.725216,76.609550,370.102971,9992.780217
4155.725531,612.876398,-0.000000,10066.800811
4155.725846,459.657299,222.061783,9326.594869
4155.726162,0.000000,1110.308913,9770.718434
4155.726477,0.000000,2072.576638,9252.574275
4155.726792,-306.438199,1776.494261,9844.739029
4155.727108,-383.047749,518.144159,9622.677246
4155.727423,0.000000,-74.020594,10214.842000
4155.727738,0.000000,-592.164754,9844.739029
4155.728054,-153.219100,-592.164754,10584.944971
4155.728369,-612.876398,-296.082377,10436.903782
4155.728684,-689.485948,-0.000000,10658.965565
4155.729000,-459.657299,592.164754,10510.924376
4155.729315,612.876398,888.247130,10066.800811
4155.729630,1378.971896,296.082377,9326.594869
4155.729946,1991.848295,814.226536,9104.533087
4155.730261,1762.019645,1036.288319,9104.533087
4155.730576,1149.143247,740.205942,9030.512492
4155.730892,612.876398,1110.308913,9474.636058
4155.731207,459.657299,888.247130,8956.491898
4155.731522,612.876398,-0.000000,9104.533087
4155.731838,842.705048,-740.205942,9252.574275
4155.732153,306.438199,-962.267725,9474.636058
4155.732468,0.000000,-1110.308913,9992.780217
4155.732784,-842.705048,-1036.288319,10362.883188
4155.733099,-842.705048,-296.082377,9622.677246
4155.733414,0.000000,-148.041188,9548.656652
4155.733730,459.657299,-222.061783,9326.594869
4155.734045,1225.752797,-444.123565,8882.471304
4155.734360,1072.533697,-0.000000,8364.327145
4155.734676,536.266849,-444.123565,8290.306550
4155.734991,612.876398,740.205942,8882.471304
4155.735306,0.000000,1184.329507,9400.615463
4155.735622,0.000000,592.164754,8660.409521
4155.735937,153.219100,-666.185348,9400.615463
4155.736252,306.438199,-1258.350101,9326.594869
4155.736568,0.000000,-1998.556043,9548.656652
4155.736883,-766.095498,-592.164754,9622.677246
4155.737198,-1072.533697,-888.247130,9696.697840
4155.737514,-1072.533697,-0.000000,9622.677246
4155.737829,-306.438199,-0.000000,9252.574275
4155.738144,459.657299,-74.020594,9474.636058
4155.738460,766.095498,-0.000000,9326.594869
4155.738775,459.657299,592.164754,8882.471304
4155.739090,919.314598,666.185348,8734.430116
4155.739406,459.657299,814.226536,9696.697840
4155.739721,306.438199,740.205942,10510.924376
4155.740036,-229.828649,1332.370696,9918.759623
4155.740352,153.219100,518.144159,10066.800811
4155.740667,383.047749,-0.000000,9696.697840
4155.740982,0.000000,518.144159,9918.759623
4155.741298,-153.219100,222.061783,10140.821405
4155.741613,-1225.752797,296.082377,10362.883188
4155.741928,-1838.629195,444.123565,10955.047942
4155.742244,-1072.533697,518.144159,9844.739029
4155.742559,-612.876398,296.082377,9770.718434
4155.742874,76.609550,-0.000000,9844.739029
4155.743190,153.219100,-0.000000,9918.759623
4155.743505,-306.438199,666.185348,9918.759623
4155.743820,0.000000,740.205942,10140.821405
4155.744136,-306.438199,1554.432478,9918.759623
4155.744451,0.000000,1110.308913,9474.636058
4155.744766,383.047749,888.247130,9326.594869
4155.745082,612.876398,-222.061783,9622.677246
4155.745397,-229.828649,-0.000000,9326.594869
4155.745712,-689.485948,-0.000000,9770.718434
4155.746028,-612.876398,222.061783,10362.883188
4155.746343,-1225.752797,-0.000000,10436.903782
4155.746658,-383.047749,-74.020594,10140.821405
4155.746974,153.219100,-740.205942,9622.677246
4155.747289,689.485948,-518.144159,9474.636058
4155.747604,612.876398,-888.247130,9696.697840
4155.747920,459.657299,-0.000000,9474.636058
4155.748235,383.047749,666.185348,9548.656652
4155.748550,459.657299,1184.329507,9030.512492
4155.748866,1225.752797,444.123565,9326.594869
4155.749181,1532.190996,74.020594,8956.491898
4155.749496,1608.800546,-0.000000,8956.491898
4155.749812,1225.752797,-222.061783,8734.430116
4155.750127,689.485948,-74.020594,9252.574275
4155.750442,612.876398,222.061783,9918.759623
4155.750758,459.657299,222.061783,9548.656652
4155.751073,536.266849,-0.000000,9474.636058
4155.751388,1685.410096,-666.185348,8882.471304
4155.751704,1455.581446,-518.144159,9252.574275
4155.752019,1532.190996,-0.000000,9326.594869
4155.752334,919.314598,370.102971,9104.533087
4155.752650,459.657299,1036.288319,9104.533087
4155.752965,153.219100,1036.288319,9548.656652
4155.753280,612.876398,222.061783,9252.574275
4155.753596,919.314598,-370.102971,9474.636058
4155.753911,1072.533697,-518.144159,9696.697840
4155.754226,76.609550,-0.000000,9474.636058
4155.754542,-383.047749,-0.000000,10066.800811
4155.754857,-766.095498,518.144159,10362.883188
4155.755172,-842.705048,666.185348,10436.903782
4155.755488,-383.047749,-0.000000,10140.821405
4155.755803,0.000000,-814.226536,9622.677246
4155.756118,536.266849,-148.041188,9252.574275
4155.756434,0.000000,-222.061783,9178.553681
4155.756749,76.609550,-0.000000,9178.553681
4155.757064,-383.047749,370.102971,9696.697840
4155.757380,-459.657299,740.205942,9030.512492
4155.757695,-153.219100,-0.000000,9548.656652
4155.758010,153.219100,-444.123565,9400.615463
4155.758326,-153.219100,-370.102971,9400.615463
4155.758641,-689.485948,-74.020594,9474.636058
4155.758956,-842.705048,-74.020594,10436.903782
4155.759272,-1302.362347,222.061783,10510.924376
4155.759587,-995.924147,148.041188,10362.883188
4155.759902,0.000000,370.102971,9770.718434
4155.760218,229.828649,-74.020594,9844.739029
4155.760533,229.828649,518.144159,9474.636058
4155.760848,0.000000,-0.000000,9326.594869
4155.761164,-229.828649,592.164754,9918.759623
4155.761479,0.000000,888.247130,10140.821405
4155.761794,0.000000,666.185348,9400.615463
4155.762110,383.047749,-0.000000,9770.718434
4155.762425,383.047749,-148.041188,9474.636058
4155.762740,153.219100,-222.061783,9696.697840
4155.763056,-306.438199,-370.102971,9474.636058
4155.763371,-383.047749,-0.000000,9844.739029
4155.763687,-766.095498,444.123565,10362.883188
4155.764002,-383.047749,148.041188,9474.636058
4155.764317,383.047749,-0.000000,9548.656652
4155.764633,689.485948,-666.185348,9178.553681
4155.764948,612.876398,-74.020594,8586.388927
4155.765263,306.438199,-0.000000,9548.656652
4155.765579,0.000000,666.185348,9696.697840
4155.765894,76.609550,1184.329507,9918.759623
4155.766209,0.000000,-0.000000,9844.739029
4155.766525,536.266849,-0.000000,9030.512492
4155.766840,995.924147,-740.205942,9252.574275
4155.767155,689.485948,-740.205942,8882.471304
4155.767471,229.828649,-518.144159,9696.697840
4155.767786,0.000000,370.102971,9178.553681
4155.768101,-306.438199,370.102971,9548.656652
4155.768417,229.828649,444.123565,8956.491898
4155.768732,995.924147,-0.000000,9104.533087
4155.769047,1302.362347,-296.082377,8660.409521
4155.769363,919.314598,-0.000000,8586.388927
4155.769678,306.438199,222.061783,9178.553681
4155.769993,153.219100,740.205942,9474.636058
4155.770309,-383.047749,962.267725,9548.656652
4155.770624,76.609550,518.144159,9696.697840
4155.770939,612.876398,-0.000000,9474.636058
4155.771255,842.705048,-148.041188,9770.718434
4155.771570,766.095498,-0.000000,9030.512492
4155.771885,-153.219100,148.041188,9696.697840
4155.772201,-306.438199,814.226536,10362.883188
4155.772516,-536.266849,1332.370696,9696.697840
4155.772831,76.609550,962.267725,9696.697840
4155.773147,689.485948,444.123565,9696.697840
4155.773462,766.095498,296.082377,9252.574275
4155.773777,153.219100,592.164754,8956.491898
4155.774093,-459.657299,814.226536,9918.759623
4155.774408,-766.095498,1258.350101,9918.759623
4155.774723,-383.047749,592.164754,10510.924376
4155.775039,-229.828649,-0.000000,10510.924376
4155.775354,229.828649,296.082377,9992.780217
4155.775669,153.219100,370.102971,9918.759623
4155.775985,-229.828649,518.144159,9992.780217
4155.776300,-306.438199,518.144159,10510.924376
4155.776615,-383.047749,888.247130,10288.862594
4155.776931,-459.657299,962.267725,10140.821405
4155.777246,0.000000,444.123565,9992.780217
4155.777561,919.314598,296.082377,9696.697840
4155.777877,689.485948,-0.000000,9474.636058
4155.778192,0.000000,-0.000000,9918.759623
4155.778507,-383.047749,296.082377,10214.842000
4155.778823,-459.657299,222.061783,9696.697840
4155.779138,0.000000,-0.000000,9400.615463
4155.779453,459.657299,-592.164754,9992.780217
4155.779769,229.828649,-666.185348,9696.697840
4155.780084,76.609550,-518.144159,9326.594869
4155.780399,76.609550,-296.082377,9400.615463
4155.780715,0.000000,-0.000000,9252.574275
4155.781030,-306.438199,-0.000000,9696.697840
4155.781345,153.219100,740.205942,9252.574275
4155.781661,459.657299,222.061783,9326.594869
4155.781976,842.705048,-296.082377,9400.615463
4155.782291,612.876398,-814.226536,9030.512492
4155.782607,459.657299,-740.205942,8808.450710
4155.782922,153.219100,-296.082377,9992.780217
4155.783237,0.000000,222.061783,9104.533087
4155.783553,76.609550,-74.020594,9548.656652
4155.783868,536.266849,-296.082377,9326.594869
4155.784183,689.485948,-740.205942,9104.533087
4155.784499,306.438199,-740.205942,8734.430116
4155.784814,0.000000,-592.164754,9400.615463
4155.785129,0.000000,-74.020594,9474.636058
4155.785445,-306.438199,296.082377,9474.636058
4155.785760,-536.266849,222.061783,9696.697840
4155.786075,76.609550,-0.000000,9474.636058
4155.786391,612.876398,-740.205942,9252.574275
4155.786706,536.266849,-296.082377,8660.409521
4155.787021,0.000000,-444.123565,9326.594869
4155.787337,-536.266849,-0.000000,9548.656652
4155.787652,-1149.143247,666.185348,9400.615463
4155.787967,-842.705048,222.061783,9252.574275
4155.788283,-689.485948,-296.082377,9326.594869
4155.788598,-229.828649,-814.226536,9030.512492
4155.788913,-229.828649,-444.123565,9696.697840
4155.789229,-1072.533697,-666.185348,9992.780217
4155.789544,-766.095498,-0.000000,10140.821405
4155.789859,-842.705048,592.164754,9844.739029
4155.790175,-459.657299,444.123565,9548.656652
4155.790490,229.828649,518.144159,9474.636058
4155.790805,459.657299,-0.000000,9326.594869
4155.791121,536.266849,-0.000000,9400.615463
4155.791436,306.438199,814.226536,9178.553681
4155.791751,0.000000,1036.288319,9696.697840
4155.792067,-612.876398,1776.494261,9622.677246
4155.792382,-383.047749,962.267725,10140.821405
4155.792697,0.000000,-0.000000,9992.780217
4155.793013,383.047749,-296.082377,9770.718434
4155.793328,153.219100,-222.061783,9548.656652
4155.793643,-229.828649,-74.020594,10732.986159
4155.793959,-459.657299,814.226536,10362.883188
4155.794274,-229.828649,1184.329507,10140.821405
4155.794589,459.657299,1110.308913,9844.739029
4155.794905,1991.848295,814.226536,9548.656652
4155.795220,1915.238745,1258.350101,9474.636058
4155.795535,1532.190996,1184.329507,9474.636058
4155.795851,1225.752797,1554.432478,9474.636058
4155.796166,612.876398,1924.535449,9770.718434
4155.796481,306.438199,1332.370696,9992.780217
4155.796797,306.438199,592.164754,10214.842000
4155.797112,689.485948,-518.144159,10362.883188
4155.797427,612.876398,-1036.288319,10214.842000
4155.797743,153.219100,-518.144159,10436.903782
4155.798058,153.219100,-148.041188,10732.986159
4155.798373,0.000000,592.164754,10510.924376
4155.798689,459.657299,1184.329507,10066.800811
4155.799004,1302.362347,740.205942,9178.553681
4155.799319,2451.505594,444.123565,9178.553681
4155.799635,2145.067394,370.102971,8586.388927
4155.799950,1532.190996,444.123565,8808.450710
4155.800265,842.705048,592.164754,8882.471304
4155.800581,0.000000,1184.329507,8660.409521
4155.800896,76.609550,518.144159,9178.553681
4155.801211,383.047749,-370.102971,9622.677246
4155.801527,459.657299,-1628.453072,9548.656652
4155.801842,0.000000,-1480.411884,9252.574275
4155.802158,-766.095498,-1332.370696,9474.636058
4155.802473,-1225.752797,-1258.350101,10214.842000
4155.802788,-1225.752797,-296.082377,10510.924376
4155.803104,-919.314598,-148.041188,9696.697840
4155.803419,76.609550,-222.061783,9104.533087
4155.803734,842.705048,-74.020594,8660.409521
4155.804050,459.657299,148.041188,8512.368333
4155.804365,0.000000,296.082377,8956.491898
4155.804680,0.000000,814.226536,9178.553681
4155.804996,-153.219100,814.226536,9474.636058
4155.805311,-459.657299,592.164754,9400.615463
4155.805626,0.000000,-962.267725,9548.656652
4155.805942,-459.657299,-1184.329507,9474.636058
4155.806257,-842.705048,-1184.329507,10214.842000
4155.806572,-1378.971896,-1628.453072,10066.800811
4155.806888,-766.095498,-666.185348,10362.883188
4155.807203,-1991.848295,-0.000000,9992.780217
4155.807518,-1455.581446,296.082377,9696.697840
4155.807834,-612.876398,-0.000000,9844.739029
4155.808149,153.219100,-222.061783,9252.574275
4155.808464,153.219100,-0.000000,9178.553681
4155.808780,0.000000,-148.041188,9474.636058
4155.809095,-229.828649,814.226536,9474.636058
4155.809410,-536.266849,1332.370696,9844.739029
4155.809726,-306.438199,444.123565,9770.718434
4155.810041,0.000000,-74.020594,9622.677246
4155.810356,153.219100,-518.144159,9548.656652
4155.810672,-229.828649,-962.267725,10066.800811
4155.810987,-459.657299,-740.205942,10362.883188
4155.811302,-995.924147,-148.041188,10288.862594
4155.811618,153.219100,-74.020594,9992.780217
4155.811933,0.000000,222.061783,9770.718434
4155.812248,612.876398,-74.020594,9104.533087
4155.812564,1225.752797,-222.061783,9030.512492
4155.812879,1072.533697,-0.000000,8808.450710
4155.813194,536.266849,-0.000000,9622.677246
4155.813510,306.438199,1036.288319,9474.636058
4155.813825,383.047749,1332.370696,9474.636058
4155.814140,766.095498,148.041188,9770.718434
4155.814456,1608.800546,-0.000000,9400.615463
4155.814771,1685.410096,-0.000000,9622.677246
4155.815086,1149.143247,-74.020594,9696.697840
4155.815402,383.047749,444.123565,10214.842000
4155.815717,306.438199,962.267725,9474.636058
4155.816032,153.219100,814.226536,9548.656652
4155.816348,842.705048,444.123565,9474.636058
4155.816663,1762.019645,-0.000000,9474.636058
4155.816978,2145.067394,370.102971,9030.512492
4155.817294,995.924147,370.102971,9400.615463
4155.817609,995.924147,592.164754,9548.656652
4155.817924,229.828649,814.226536,9918.759623
4155.818240,229.828649,1258.350101,9474.636058
4155.818555,612.876398,444.123565,9844.739029
4155.818870,766.095498,-148.041188,9252.574275
4155.819186,689.485948,-222.061783,9696.697840
4155.819501,0.000000,-0.000000,9474.636058
4155.819816,-689.485948,148.041188,9770.718434
4155.820132,-383.047749,740.205942,9992.780217
4155.820447,0.000000,666.185348,9474.636058
4155.820762,0.000000,370.102971,9548.656652
4155.821078,0.000000,-370.102971,9622.677246
4155.821393,0.000000,-0.000000,9474.636058
4155.821708,-459.657299,-0.000000,9326.594869
4155.822024,-306.438199,-0.000000,9696.697840
4155.822339,-383.047749,296.082377,9918.759623
4155.822654,-612.876398,814.226536,9326.594869
4155.822970,-306.438199,-0.000000,9104.533087
4155.823285,0.000000,-0.000000,9474.636058
4155.823600,-153.219100,-222.061783,9400.615463
4155.823916,-612.876398,-444.123565,9548.656652
4155.824231,-842.705048,-74.020594,9918.759623
4155.824546,-1225.752797,666.185348,10066.800811
4155.824862,-1149.143247,222.061783,9770.718434
4155.825177,-306.438199,-0.000000,9918.759623
4155.825492,612.876398,-370.102971,9400.615463
4155.825808,459.657299,-0.000000,8956.491898
4155.826123,-153.219100,-74.020594,9696.697840
4155.826438,0.000000,962.267725,9326.594869
4155.826753,0.000000,1184.329507,9548.656652
4155.827069,-153.219100,1110.308913,9178.553681
4155.827384,306.438199,370.102971,9326.594869
4155.827699,383.047749,-518.144159,8734.430116
4155.828015,76.609550,-814.226536,9696.697840
4155.828330,-383.047749,-222.061783,9696.697840
4155.828645,-766.095498,-74.020594,10288.862594
4155.828961,-919.314598,814.226536,10288.862594
4155.829276,-612.876398,-0.000000,10510.924376
4155.829591,153.219100,-296.082377,9622.677246
4155.829906,919.314598,-1036.288319,9696.697840
4155.830222,229.828649,-0.000000,9030.512492
4155.830537,229.828649,444.123565,9326.594869
4155.830852,0.000000,814.226536,9548.656652
4155.831168,-229.828649,1184.329507,9992.780217
4155.831483,76.609550,740.205942,9474.636058
4155.831798,383.047749,-148.041188,9622.677246
4155.832113,383.047749,-370.102971,9400.615463
4155.832429,76.609550,-592.164754,9992.780217
4155.832744,-383.047749,-814.226536,10066.800811
4155.833059,-459.657299,-222.061783,10658.965565
4155.833375,-383.047749,-0.000000,10584.944971
4155.833690,0.000000,-296.082377,9918.759623
4155.834005,689.485948,-222.061783,9696.697840
4155.834321,1608.800546,-148.041188,8882.471304
4155.834636,1302.362347,370.102971,9030.512492
4155.834951,919.314598,888.247130,8734.430116
4155.835266,842.705048,1332.370696,8734.430116
4155.835582,459.657299,740.205942,8882.471304
4155.835897,229.828649,-74.020594,9400.615463
4155.836212,842.705048,-222.061783,9622.677246
4155.836528,612.876398,-666.185348,9474.636058
4155.836843,76.609550,-222.061783,9770.718434
4155.837158,-459.657299,-0.000000,9770.718434
4155.837474,-459.657299,-0.000000,10362.883188
4155.837789,-306.438199,518.144159,9992.780217
4155.838104,306.438199,370.102971,9622.677246
4155.838419,1072.533697,-296.082377,9474.636058
4155.838735,1455.581446,148.041188,8808.450710
4155.839050,689.485948,-0.000000,8660.409521
4155.839365,0.000000,296.082377,9178.553681
4155.839681,-153.219100,296.082377,9770.718434
4155.839996,-383.047749,740.205942,9326.594869
4155.840311,-306.438199,-148.041188,9548.656652
4155.840627,306.438199,-296.082377,9252.574275
4155.840942,0.000000,-740.205942,9474.636058
4155.841257,-383.047749,-370.102971,9696.697840
4155.841572,-689.485948,-74.020594,10214.842000
4155.841888,-459.657299,-0.000000,10288.862594
4155.842203,-153.219100,296.082377,9770.718434
4155.842518,0.000000,518.144159,9474.636058
4155.842834,536.266849,222.061783,9474.636058
4155.843149,919.314598,444.123565,9030.512492
4155.843464,766.095498,370.102971,8956.491898
4155.843779,459.657299,888.247130,9252.574275
4155.844095,-153.219100,814.226536,9474.636058
4155.844410,0.000000,-0.000000,9770.718434
4155.844725,0.000000,-0.000000,9770.718434
4155.845041,76.609550,-222.061783,10140.821405
4155.845356,459.657299,-222.061783,9104.533087
4155.845671,-383.047749,222.061783,9918.759623
4155.845987,0.000000,-0.000000,10362.883188
4155.846302,-383.047749,518.144159,9844.739029
4155.846617,-842.705048,740.205942,10066.800811
4155.846932,0.000000,-0.000000,9844.739029
4155.847248,383.047749,-0.000000,9918.759623
4155.847563,612.876398,518.144159,9548.656652
4155.847878,306.438199,296.082377,9400.615463
4155.848194,766.095498,370.102971,9474.636058
4155.848509,76.609550,814.226536,9992.780217
4155.848824,0.000000,370.102971,9474.636058
4155.849140,76.609550,-0.000000,9548.656652
4155.849455,689.485948,-222.061783,9622.677246
4155.849770,842.705048,-296.082377,9030.512492
4155.850085,306.438199,-222.061783,9400.615463
4155.850401,153.219100,222.061783,9696.697840
4155.850716,-383.047749,222.061783,9844.739029
4155.851031,-306.438199,-0.000000,9622.677246
4155.851347,229.828649,-222.061783,9252.574275
4155.851662,229.828649,-592.164754,9104.533087
4155.851977,153.219100,-296.082377,9844.739029
4155.852293,-229.828649,-296.082377,9474.636058
4155.852608,306.438199,-370.102971,10066.800811
4155.852923,-689.485948,592.164754,9918.759623
4155.853238,-229.828649,444.123565,9474.636058
4155.853554,76.609550,-0.000000,9104.533087
4155.853869,536.266849,-0.000000,9326.594869
4155.854184,536.266849,-444.123565,9030.512492
4155.854500,459.657299,-148.041188,8956.491898
4155.854815,-229.828649,74.020594,9252.574275
4155.855130,-612.876398,888.247130,9400.615463
4155.855445,-689.485948,740.205942,9400.615463
4155.855761,0.000000,-0.000000,9252.574275
4155.856076,229.828649,-222.061783,9326.594869
4155.856391,76.609550,-0.000000,9178.553681
4155.856707,0.000000,296.082377,9474.636058
4155.857022,153.219100,666.185348,9770.718434
4155.857337,-689.485948,740.205942,9770.718434
4155.857653,0.000000,740.205942,9844.739029
4155.857968,229.828649,296.082377,9548.656652
4155.858283,612.876398,518.144159,9474.636058
4155.858598,383.047749,740.205942,9030.512492
4155.858914,306.438199,518.144159,9622.677246
4155.859229,76.609550,518.144159,10510.924376
4155.859544,-383.047749,1036.288319,9844.739029
4155.859860,-306.438199,148.041188,9696.697840
4155.860175,306.438199,-0.000000,9622.677246
4155.860490,459.657299,-74.020594,9622.677246
4155.860806,842.705048,370.102971,9474.636058
4155.861121,0.000000,296.082377,9992.780217
4155.861436,-229.828649,1036.288319,9770.718434
4155.861751,-459.657299,296.082377,9696.697840
4155.862067,-306.438199,-370.102971,9474.636058
4155.862382,0.000000,-962.267725,10288.862594
4155.862697,229.828649,-370.102971,10288.862594
4155.863013,-459.657299,-666.185348,10140.821405
4155.863328,-153.219100,-0.000000,10066.800811
4155.863643,-306.438199,444.123565,10807.006753
4155.863959,-306.438199,666.185348,9844.739029
4155.864274,383.047749,222.061783,10066.800811
4155.864589,1072.533697,-222.061783,9474.636058
4155.864904,1149.143247,-444.123565,9178.553681
4155.865220,766.095498,-444.123565,9400.615463
4155.865535,536.266849,-0.000000,9548.656652
4155.865850,0.000000,444.123565,9696.697840
4155.866166,0.000000,370.102971,9326.594869
4155.866481,536.266849,-222.061783,9104.533087
4155.866796,995.924147,-814.226536,9030.512492
4155.867111,612.876398,-740.205942,9252.574275
4155.867427,153.219100,-222.061783,9178.553681
4155.867742,-306.438199,-0.000000,9622.677246
4155.868057,153.219100,-0.000000,9770.718434
4155.868373,-153.219100,296.082377,9474.636058
4155.868688,459.657299,-296.082377,9548.656652
4155.869003,1149.143247,-222.061783,9400.615463
4155.869319,995.924147,370.102971,8660.409521
4155.869634,153.219100,-0.000000,9400.615463
4155.869949,153.219100,222.061783,9622.677246
4155.870264,-153.219100,740.205942,9400.615463
4155.870580,-459.657299,444.123565,8956.491898
4155.870895,76.609550,296.082377,8660.409521
4155.871210,536.266849,-592.164754,9252.574275
4155.871526,536.266849,-740.205942,8956.491898
4155.871841,-229.828649,-444.123565,9474.636058
4155.872156,-459.657299,-444.123565,9696.697840
4155.872472,-842.705048,-222.061783,10362.883188
4155.872787,-536.266849,148.041188,9474.636058
4155.873102,306.438199,-370.102971,9474.636058
4155.873417,383.047749,-518.144159,9696.697840
4155.873733,76.609550,148.041188,9178.553681
4155.874048,-383.047749,-148.041188,9326.594869
4155.874363,-229.828649,592.164754,9770.718434
4155.874679,-689.485948,1036.288319,9548.656652
4155.874994,-612.876398,222.061783,9918.759623
4155.875309,0.000000,-0.000000,9696.697840
4155.875625,0.000000,-518.144159,9992.780217
4155.875940,-306.438199,-666.185348,10140.821405
4155.876255,-306.438199,-0.000000,10288.862594
4155.876570,-766.095498,814.226536,10362.883188
4155.876886,-689.485948,1110.308913,9844.739029
4155.877201,-306.438199,740.205942,9918.759623
4155.877516,0.000000,370.102971,9252.574275
4155.877832,459.657299,296.082377,9400.615463
4155.878147,229.828649,1036.288319,9252.574275
4155.878462,0.000000,1406.391290,10288.862594
4155.878777,0.000000,1332.370696,10214.842000
4155.879093,-306.438199,1628.453072,9548.656652
4155.879408,76.609550,592.164754,9770.718434
4155.879723,383.047749,-0.000000,10288.862594
4155.880039,383.047749,814.226536,10066.800811
4155.880354,842.705048,666.185348,10066.800811
4155.880669,229.828649,962.267725,10214.842000
4155.880985,76.609550,1332.370696,10140.821405
4155.881300,76.609550,1702.473667,9474.636058
4155.881615,612.876398,962.267725,9252.574275
4155.881930,1149.143247,592.164754,9770.718434
4155.882246,1072.533697,444.123565,9252.574275
4155.882561,306.438199,666.185348,9474.636058
4155.882876,-229.828649,592.164754,9918.759623
4155.883192,-383.047749,370.102971,9770.718434
4155.883507,76.609550,-0.000000,10066.800811
4155.883822,76.609550,-0.000000,10214.842000
4155.884138,459.657299,-222.061783,9400.615463
4155.884453,689.485948,-296.082377,9030.512492
4155.884768,689.485948,-0.000000,9104.533087
4155.885083,459.657299,-518.144159,9770.718434
4155.885399,0.000000,370.102971,9474.636058
4155.885714,153.219100,518.144159,9474.636058
4155.886029,383.047749,-74.020594,9326.594869
4155.886345,842.705048,-74.020594,8956.491898
4155.886660,766.095498,-1036.288319,8586.388927
4155.886975,229.828649,-666.185348,9326.594869
4155.887291,0.000000,-592.164754,9918.759623
4155.887606,-536.266849,-222.061783,9696.697840
4155.887921,-536.266849,-0.000000,9548.656652
4155.888236,153.219100,-148.041188,9474.636058
4155.888552,383.047749,-222.061783,8882.471304
4155.888867,842.705048,-740.205942,8882.471304
4155.889182,612.876398,-444.123565,9178.553681
4155.889498,383.047749,-0.000000,9474.636058
4155.889813,0.000000,666.185348,9400.615463
4155.890128,0.000000,888.247130,8808.450710
4155.890443,76.609550,-0.000000,9400.615463
4155.890759,766.095498,-222.061783,9252.574275
4155.891074,689.485948,-518.144159,9326.594869
4155.891389,0.000000,-444.123565,9474.636058
4155.891705,-229.828649,-74.020594,10066.800811
4155.892020,-536.266849,-0.000000,9770.718434
4155.892335,-536.266849,222.061783,9400.615463
4155.892651,0.000000,-370.102971,9696.697840
4155.892966,0.000000,-666.185348,8808.450710
4155.893281,229.828649,-444.123565,9104.533087
4155.893596,0.000000,-592.164754,9696.697840
4155.893912,-612.876398,370.102971,9696.697840
4155.894227,-612.876398,888.247130,9918.759623
4155.894542,-459.657299,370.102971,10288.862594
4155.894858,306.438199,-148.041188,9696.697840
4155.895173,383.047749,-962.267725,9992.780217
4155.895488,0.000000,-296.082377,9992.780217
4155.895804,-612.876398,-1036.288319,10436.903782
4155.896119,-919.314598,-0.000000,10362.883188
4155.896434,-1225.752797,370.102971,10140.821405
4155.896749,-919.314598,-0.000000,9844.739029
4155.897065,153.219100,-0.000000,9474.636058
4155.897380,536.266849,-444.123565,9030.512492
4155.897695,459.657299,-518.144159,9030.512492
4155.898011,0.000000,-296.082377,9844.739029
4155.898326,-536.266849,370.102971,9474.636058
4155.898641,-842.705048,370.102971,9696.697840
4155.898957,229.828649,666.185348,9696.697840
4155.899272,995.924147,-0.000000,9474.636058
4155.899587,995.924147,-148.041188,9030.512492
4155.899902,689.485948,148.041188,9400.615463
4155.900218,76.609550,-0.000000,9844.739029
4155.900533,229.828649,1184.329507,9548.656652
4155.900848,-689.485948,1332.370696,9696.697840
4155.901164,76.609550,370.102971,9696.697840
4155.901479,536.266849,-0.000000,9770.718434
4155.901794,842.705048,-0.000000,9474.636058
4155.902109,1072.533697,-0.000000,9474.636058
4155.902425,76.609550,222.061783,10658.965565
4155.902740,306.438199,814.226536,10288.862594
4155.903055,229.828649,1554.432478,9474.636058
4155.903371,1072.533697,1110.308913,9030.512492
4155.903686,2145.067394,444.123565,9622.677246
4155.904001,2068.457845,518.144159,9030.512492
4155.904317,1378.971896,962.267725,8734.430116
4155.904632,536.266849,1036.288319,9474.636058
4155.904947,153.219100,1332.370696,9474.636058
4155.905262,0.000000,518.144159,9844.739029
4155.905578,-383.047749,-592.164754,9548.656652
4155.905893,0.000000,-666.185348,9770.718434
4155.906208,-229.828649,-1110.308913,9696.697840
4155.906524,-229.828649,-666.185348,9474.636058
4155.906839,-766.095498,-148.041188,10362.883188
4155.907154,-689.485948,518.144159,10066.800811
4155.907470,0.000000,518.144159,9696.697840
4155.907785,536.266849,296.082377,9178.553681
4155.908100,1302.362347,222.061783,9030.512492
4155.908415,995.924147,296.082377,8290.306550
4155.908731,459.657299,444.123565,9326.594869
4155.909046,0.000000,518.144159,9696.697840
4155.909361,-459.657299,814.226536,9400.615463
4155.909677,-612.876398,222.061783,9844.739029
4155.909992,0.000000,-296.082377,9844.739029
4155.910307,-383.047749,-666.185348,9918.759623
4155.910623,-459.657299,-888.247130,9844.739029
4155.910938,-842.705048,-1036.288319,10510.924376
4155.911253,-612.876398,-222.061783,10658.965565
4155.911568,-995.924147,444.123565,10214.842000
4155.911884,-536.266849,740.205942,9770.718434
4155.912199,383.047749,740.205942,9252.574275
4155.912514,842.705048,444.123565,9104.533087
4155.912830,1302.362347,370.102971,8660.409521
4155.913145,306.438199,814.226536,9326.594869
4155.913460,0.000000,740.205942,9844.739029
4155.913775,-306.438199,962.267725,9844.739029
4155.914091,-536.266849,592.164754,9844.739029
4155.914406,0.000000,-222.061783,9548.656652
4155.914721,0.000000,-740.205942,10140.821405
4155.915037,-536.266849,-740.205942,10066.800811
4155.915352,-689.485948,-592.164754,10066.800811
4155.915667,-1072.533697,-444.123565,10214.842000
4155.915983,-153.219100,296.082377,9992.780217
4155.916298,-383.047749,-0.000000,9622.677246
4155.916613,306.438199,-148.041188,9104.533087
4155.916928,995.924147,-222.061783,8956.491898
4155.917244,689.485948,-148.041188,8290.306550
4155.917559,689.485948,-222.061783,9252.574275
4155.917874,229.828649,296.082377,9474.636058
4155.918190,-306.438199,666.185348,9030.512492
4155.918505,-459.657299,-0.000000,9474.636058
4155.918820,76.609550,-888.247130,9400.615463
4155.919136,383.047749,-1554.432478,9992.780217
4155.919451,0.000000,-1406.391290,9918.759623
4155.919766,-229.828649,-1184.329507,9918.759623
4155.920081,-689.485948,-0.000000,9918.759623
4155.920397,0.000000,370.102971,9918.759623
4155.920712,229.828649,-222.061783,9622.677246
4155.921027,919.314598,-0.000000,9326.594869
4155.921343,1225.752797,-0.000000,8882.471304
4155.921658,1302.362347,222.061783,8290.306550
4155.921973,766.095498,1036.288319,9030.512492
4155.922289,229.828649,1110.308913,9548.656652
4155.922604,-153.219100,962.267725,9326.594869
4155.922919,0.000000,-148.041188,9696.697840
4155.923234,459.657299,-518.144159,9696.697840
4155.923550,459.657299,-296.082377,9770.718434
4155.923865,76.609550,-0.000000,9844.739029
4155.924180,-306.438199,296.082377,10436.903782
4155.924496,-306.438199,1036.288319,10214.842000
4155.924811,0.000000,1184.329507,9622.677246
4155.925126,612.876398,1184.329507,9252.574275
4155.925441,1302.362347,1036.288319,9474.636058
4155.925757,1072.533697,962.267725,9030.512492
4155.926072,842.705048,740.205942,9400.615463
4155.926387,383.047749,888.247130,9770.718434
4155.926702,-153.219100,888.247130,9696.697840
4155.927018,-612.876398,740.205942,9918.759623
4155.927333,-153.219100,740.205942,10066.800811
4155.927648,76.609550,222.061783,9548.656652
4155.927963,306.438199,-296.082377,9474.636058
4155.928279,0.000000,222.061783,9474.636058
4155.928594,-459.657299,-148.041188,9918.759623
4155.928909,-766.095498,444.123565,10214.842000
4155.929224,-689.485948,592.164754,10510.924376
4155.929540,0.000000,-0.000000,9696.697840
4155.929855,766.095498,296.082377,9622.677246
4155.930170,1072.533697,222.061783,8882.471304
4155.930485,229.828649,-0.000000,9104.533087
4155.930801,306.438199,592.164754,9918.759623
4155.931116,0.000000,962.267725,9474.636058
4155.931431,-306.438199,888.247130,9770.718434
4155.931746,76.609550,-0.000000,9622.677246
4155.932062,306.438199,-740.205942,9696.697840
4155.932377,0.000000,-962.267725,9770.718434
4155.932692,-383.047749,-888.247130,9548.656652
4155.933007,-689.485948,-0.000000,10732.986159
4155.933323,-842.705048,444.123565,9844.739029
4155.933638,-383.047749,666.185348,9622.677246
4155.933953,766.095498,370.102971,9030.512492
4155.934268,995.924147,370.102971,9104.533087
4155.934584,995.924147,370.102971,9178.553681
4155.934899,536.266849,148.041188,9548.656652
4155.935214,153.219100,740.205942,9844.739029
4155.935529,-459.657299,666.185348,9548.656652
4155.935844,-689.485948,666.185348,9178.553681
4155.936160,-383.047749,-0.000000,9992.780217
4155.936475,153.219100,-222.061783,9548.656652
4155.936790,-306.438199,-592.164754,9992.780217
4155.937105,-536.266849,-444.123565,10436.903782
4155.937421,-612.876398,-74.020594,9770.718434
4155.937736,-842.705048,222.061783,9696.697840
4155.938051,-306.438199,-0.000000,10140.821405
4155.938366,76.609550,-740.205942,9326.594869
4155.938682,1072.533697,-296.082377,8956.491898
4155.938997,919.314598,-148.041188,8956.491898
4155.939312,153.219100,296.082377,9030.512492
4155.939627,0.000000,444.123565,8956.491898
4155.939943,0.000000,518.144159,8808.450710
4155.940258,-383.047749,-0.000000,8882.471304
4155.940573,0.000000,-1480.411884,8956.491898
4155.940888,76.609550,-1332.370696,9474.636058
4155.941204,-536.266849,-1258.350101,9104.533087
4155.941519,-536.266849,-592.164754,9770.718434
4155.941834,-612.876398,-74.020594,10140.821405
4155.942149,-459.657299,-0.000000,10140.821405
4155.942465,153.219100,-0.000000,9622.677246
4155.942780,1378.971896,-0.000000,9474.636058
4155.943095,1608.800546,-148.041188,9400.615463
4155.943410,1532.190996,296.082377,8216.285956
4155.943726,689.485948,518.144159,9400.615463
4155.944041,536.266849,592.164754,9474.636058
4155.944356,-153.219100,1036.288319,9474.636058
4155.944671,76.609550,-0.000000,9178.553681
4155.944987,842.705048,-222.061783,9548.656652
4155.945302,766.095498,-370.102971,9622.677246
4155.945617,306.438199,-296.082377,10140.821405
4155.945932,-612.876398,-0.000000,10732.986159
4155.946247,-383.047749,592.164754,10658.965565
4155.946563,153.219100,666.185348,10140.821405
4155.946878,842.705048,1036.288319,10288.862594
4155.947193,1532.190996,1036.288319,9918.759623
4155.947508,1532.190996,1480.411884,9474.636058
4155.947824,1378.971896,1406.391290,9474.636058
4155.948139,1378.971896,1628.453072,9548.656652
4155.948454,842.705048,1924.535449,9844.739029
4155.948769,306.438199,1110.308913,10066.800811
4155.949085,459.657299,-74.020594,10140.821405
4155.949400,1072.533697,-518.144159,10140.821405
4155.949715,153.219100,-962.267725,9770.718434
4155.950030,-459.657299,-592.164754,9844.739029
4155.950346,-995.924147,-814.226536,10658.965565
4155.950661,-995.924147,-0.000000,10214.842000
4155.950976,-459.657299,-370.102971,9918.759623
4155.951291,0.000000,-444.123565,9474.636058
4155.951607,689.485948,-74.020594,9474.636058
4155.951922,766.095498,-0.000000,9104.533087
4155.952237,229.828649,148.041188,9104.533087
4155.952552,459.657299,666.185348,9400.615463
4155.952868,0.000000,1332.370696,9178.553681
4155.953183,-306.438199,962.267725,9474.636058
4155.953498,0.000000,148.041188,9474.636058
4155.953813,0.000000,-222.061783,9474.636058
4155.954129,-229.828649,-592.164754,9622.677246
4155.954444,-766.095498,-1036.288319,9992.780217
4155.954759,-1378.971896,-370.102971,9992.780217
4155.955074,-1685.410096,-0.000000,9992.780217
4155.955390,-1455.581446,296.082377,9474.636058
4155.955705,76.609550,-74.020594,9400.615463
4155.956020,0.000000,-370.102971,9104.533087
4155.956335,0.000000,-0.000000,9178.553681
4155.956650,-383.047749,518.144159,9252.574275
4155.956966,-766.095498,370.102971,9474.636058
4155.957281,-306.438199,814.226536,9400.615463
4155.957596,0.000000,1036.288319,9400.615463
4155.957911,459.657299,666.185348,9696.697840
4155.958227,612.876398,-0.000000,9326.594869
4155.958542,459.657299,370.102971,9252.574275
4155.958857,0.000000,-0.000000,9326.594869
4155.959172,-612.876398,222.061783,9474.636058
4155.959488,-995.924147,370.102971,10510.924376
4155.959803,-612.876398,370.102971,9622.677246
4155.960118,-383.047749,-296.082377,9622.677246
4155.960433,383.047749,-666.185348,9770.718434
4155.960749,229.828649,-518.144159,9400.615463
4155.961064,0.000000,-296.082377,9400.615463
4155.961379,0.000000,-0.000000,9844.739029
4155.961694,76.609550,888.247130,9474.636058
4155.962010,459.657299,-0.000000,8808.450710
4155.962325,995.924147,222.061783,9104.533087
4155.962640,689.485948,370.102971,9178.553681
4155.962955,306.438199,-444.123565,8956.491898
4155.963271,76.609550,-74.020594,9622.677246
4155.963586,-306.438199,-370.102971,10584.944971
4155.963901,-689.485948,-0.000000,10066.800811
4155.964216,0.000000,222.061783,9844.739029
4155.964532,383.047749,-296.082377,10362.883188
4155.964847,1072.533697,-518.144159,9918.759623
4155.965162,1378.971896,-370.102971,9474.636058
4155.965477,612.876398,74.020594,9326.594869
4155.965793,689.485948,740.205942,9474.636058
4155.966108,842.705048,1110.308913,9844.739029
4155.966423,1225.752797,1332.370696,9178.553681
4155.966738,1838.629195,518.144159,8808.450710
4155.967053,1455.581446,148.041188,9030.512492
4155.967369,612.876398,296.082377,9474.636058
4155.967684,0.000000,962.267725,9918.759623
4155.967999,766.095498,518.144159,10066.800811
4155.968314,-76.609550,592.164754,10140.821405
4155.968630,536.266849,-0.000000,10066.800811
4155.968945,612.876398,-0.000000,10288.862594
4155.969260,766.095498,-148.041188,9548.656652
4155.969575,536.266849,-0.000000,9474.636058
4155.969891,383.047749,1036.288319,10140.821405
4155.970206,0.000000,1406.391290,10362.883188
4155.970521,-306.438199,1480.411884,9474.636058
4155.970836,76.609550,592.164754,9178.553681
4155.971152,919.314598,-296.082377,9622.677246
4155.971467,153.219100,-666.185348,9104.533087
4155.971782,-536.266849,-370.102971,9918.759623
4155.972097,-842.705048,-370.102971,9844.739029
4155.972413,-842.705048,-74.020594,10214.842000
4155.972728,-1225.752797,-296.082377,9548.656652
4155.973043,-229.828649,-740.205942,9474.636058
4155.973358,76.609550,-888.247130,9918.759623
4155.973674,0.000000,-740.205942,8882.471304
4155.973989,-612.876398,-518.144159,9104.533087
4155.974304,-536.266849,-370.102971,9474.636058
4155.974619,-766.095498,-0.000000,9474.636058
4155.974935,-536.266849,592.164754,9400.615463
4155.975250,536.266849,-74.020594,9400.615463
4155.975565,536.266849,-814.226536,9696.697840
4155.975880,459.657299,-148.041188,8808.450710
4155.976196,0.000000,-296.082377,9178.553681
4155.976511,-612.876398,-0.000000,9770.718434
4155.976826,-536.266849,518.144159,9918.759623
4155.977141,-229.828649,296.082377,8956.491898
4155.977456,383.047749,-296.082377,9622.677246
4155.977772,383.047749,-148.041188,9474.636058
4155.978087,459.657299,222.061783,8956.491898
4155.978402,-229.828649,518.144159,9326.594869
4155.978717,0.000000,444.123565,10140.821405
4155.979033,-229.828649,1110.308913,9252.574275
4155.979348,0.000000,740.205942,9696.697840
4155.979663,0.000000,740.205942,9400.615463
4155.979978,229.828649,-0.000000,9474.636058
4155.980294,0.000000,666.185348,9474.636058
4155.980609,-383.047749,222.061783,10140.821405
4155.980924,-383.047749,444.123565,10658.965565
4155.981239,-612.876398,592.164754,10436.903782
4155.981555,-536.266849,666.185348,10288.862594
4155.981870,306.438199,296.082377,9992.780217
4155.982185,306.438199,444.123565,9252.574275
4155.982500,459.657299,-0.000000,9474.636058
4155.982816,0.000000,296.082377,9548.656652
4155.983131,0.000000,296.082377,10066.800811
4155.983446,0.000000,888.247130,9696.697840
4155.983761,0.000000,222.061783,9622.677246
4155.984077,76.609550,-222.061783,10214.842000
4155.984392,383.047749,-666.185348,9770.718434
4155.984707,229.828649,-666.185348,9474.636058
4155.985022,76.609550,-370.102971,9622.677246
4155.985338,0.000000,-0.000000,10066.800811
4155.985653,153.219100,666.185348,9474.636058
4155.985968,383.047749,296.082377,9474.636058
4155.986283,766.095498,-0.000000,9400.615463
4155.986599,1149.143247,-148.041188,8808.450710
4155.986914,612.876398,-74.020594,9030.512492
4155.987229,383.047749,-74.020594,9030.512492
4155.987544,-229.828649,148.041188,9474.636058
4155.987859,-153.219100,666.185348,10140.821405
4155.988175,0.000000,-222.061783,9474.636058
4155.988490,612.876398,222.061783,9918.759623
4155.988805,459.657299,-0.000000,9252.574275
4155.989120,383.047749,-0.000000,9252.574275
4155.989436,76.609550,-0.000000,10066.800811
4155.989751,383.047749,888.247130,9992.780217
4155.990066,0.000000,1110.308913,9548.656652
4155.990381,0.000000,666.185348,9400.615463
4155.990697,536.266849,-0.000000,9474.636058
4155.991012,1149.143247,370.102971,8882.471304
4155.991327,383.047749,222.061783,8734.430116
4155.991642,0.000000,444.123565,9770.718434
4155.991958,-612.876398,740.205942,9770.718434
4155.992273,-612.876398,1036.288319,9548.656652
4155.992588,-229.828649,370.102971,9474.636058
4155.992903,76.609550,296.082377,9548.656652
4155.993219,306.438199,-74.020594,10140.821405
4155.993534,229.828649,-0.000000,9696.697840
4155.993849,153.219100,-0.000000,10362.883188
4155.994164,-229.828649,666.185348,9770.718434
4155.994480,-383.047749,370.102971,9918.759623
4155.994795,76.609550,-222.061783,10288.862594
4155.995110,612.876398,-148.041188,9474.636058
4155.995425,995.924147,-74.020594,9104.533087
4155.995741,536.266849,-74.020594,8734.430116
4155.996056,306.438199,-444.123565,9548.656652
4155.996371,612.876398,222.061783,9918.759623
4155.996686,459.657299,518.144159,9474.636058
4155.997002,842.705048,-0.000000,9548.656652
4155.997317,1378.971896,-370.102971,9252.574275
4155.997632,1225.752797,-518.144159,9326.594869
4155.997947,383.047749,-296.082377,9548.656652
4155.998262,0.000000,-296.082377,10510.924376
4155.998578,-153.219100,-0.000000,9474.636058
4155.998893,0.000000,740.205942,10066.800811
4155.999208,306.438199,888.247130,9844.739029
4155.999523,459.657299,-222.061783,9622.677246
4155.999839,153.219100,-444.123565,9918.759623
4156.000154,0.000000,-888.247130,10362.883188
4156.000469,-689.485948,-518.144159,10288.862594
4156.000784,-689.485948,518.144159,10807.006753
4156.001100,-689.485948,444.123565,10140.821405
4156.001415,-306.438199,370.102971,9696.697840
4156.001730,306.438199,222.061783,9252.574275
4156.002045,0.000000,-74.020594,8956.491898
4156.002361,-306.438199,-148.041188,9696.697840
4156.002676,-306.438199,518.144159,9696.697840
4156.002991,-919.314598,962.267725,9326.594869
4156.003306,-229.828649,222.061783,9326.594869
4156.003622,-306.438199,-444.123565,9326.594869
4156.003937,76.609550,-888.247130,9252.574275
4156.004252,-383.047749,-518.144159,9178.553681
4156.004567,-1149.143247,-0.000000,9622.677246
4156.004883,-766.095498,444.123565,9696.697840
4156.005198,-995.924147,592.164754,9622.677246
4156.005513,-1072.533697,-0.000000,9474.636058
4156.005828,-306.438199,-444.123565,9474.636058
4156.006144,229.828649,-814.226536,9104.533087
4156.006459,153.219100,-148.041188,8956.491898
4156.006774,-306.438199,-0.000000,9548.656652
4156.007089,-612.876398,592.164754,9326.594869
4156.007405,-766.095498,222.061783,9474.636058
4156.007720,-459.657299,-0.000000,9622.677246
4156.008035,536.266849,-222.061783,9178.553681
4156.008350,766.095498,-518.144159,8734.430116
4156.008665,0.000000,-666.185348,9104.533087
4156.008981,0.000000,296.082377,9474.636058
4156.009296,-459.657299,666.185348,9474.636058
4156.009611,-153.219100,370.102971,9474.636058
4156.009926,689.485948,518.144159,9770.718434
4156.010242,536.266849,370.102971,9474.636058
4156.010557,995.924147,370.102971,9474.636058
4156.010872,842.705048,148.041188,9844.739029
4156.011187,306.438199,296.082377,10288.862594
4156.011503,153.219100,814.226536,10658.965565
4156.011818,229.828649,1258.350101,10362.883188
4156.012133,1302.362347,1184.329507,9918.759623
4156.012448,1608.800546,962.267725,10510.924376
4156.012764,1685.410096,740.205942,9548.656652
4156.013079,1149.143247,888.247130,9030.512492
4156.013394,459.657299,888.247130,9992.780217
4156.013709,0.000000,1258.350101,9918.759623
4156.014025,383.047749,592.164754,9622.677246
4156.014340,459.657299,592.164754,9696.697840
4156.014655,536.266849,-0.000000,9770.718434
4156.014970,459.657299,-222.061783,9844.739029
4156.015286,306.438199,-0.000000,9622.677246
4156.015601,459.657299,370.102971,10584.944971
4156.015916,153.219100,740.205942,10066.800811
4156.016231,76.609550,666.185348,9992.780217
4156.016547,766.095498,740.205942,9474.636058
4156.016862,1378.971896,-0.000000,9548.656652
4156.017177,1072.533697,-0.000000,9030.512492
4156.017492,306.438199,296.082377,9474.636058
4156.017808,229.828649,518.144159,9548.656652
4156.018123,-383.047749,888.247130,9474.636058
4156.018438,-306.438199,-0.000000,9548.656652
4156.018753,0.000000,-666.185348,9992.780217
4156.019068,-229.828649,-1036.288319,9474.636058
4156.019384,0.000000,-888.247130,9474.636058
4156.019699,-612.876398,-740.205942,9844.739029
4156.020014,-612.876398,-222.061783,9992.780217
4156.020329,-459.657299,-0.000000,9918.759623
4156.020645,0.000000,148.041188,9548.656652
4156.020960,229.828649,370.102971,9326.594869
4156.021275,689.485948,-222.061783,9474.636058
4156.021590,919.314598,-0.000000,8734.430116
4156.021906,76.609550,-0.000000,8734.430116
4156.022221,0.000000,370.102971,9474.636058
4156.022536,-612.876398,296.082377,9918.759623
4156.022851,-995.924147,-444.123565,9992.780217
4156.023167,76.609550,-518.144159,9844.739029
4156.023482,-229.828649,-814.226536,9474.636058
4156.023797,-459.657299,-370.102971,9474.636058
4156.024112,-689.485948,-444.123565,10140.821405
4156.024428,-842.705048,-370.102971,10214.842000
4156.024743,-995.924147,296.082377,9918.759623
4156.025058,-459.657299,-0.000000,9474.636058
4156.025373,0.000000,-0.000000,8956.491898
4156.025689,383.047749,-0.000000,8882.471304
4156.026004,306.438199,-0.000000,8882.471304
4156.026319,-383.047749,-0.000000,9104.533087
4156.026634,-536.266849,444.123565,9622.677246
4156.026950,-689.485948,666.185348,9474.636058
4156.027265,-919.314598,148.041188,9474.636058
4156.027580,-689.485948,-296.082377,9844.739029
4156.027896,0.000000,-1406.391290,9622.677246
4156.028211,0.000000,-962.267725,9548.656652
4156.028526,-306.438199,-148.041188,9474.636058
4156.028842,-153.219100,222.061783,9474.636058
4156.029157,-383.047749,592.164754,9770.718434
4156.029472,153.219100,296.082377,9104.533087
4156.029788,1225.752797,370.102971,9474.636058
4156.030103,1455.581446,296.082377,8882.471304
4156.030418,995.924147,370.102971,8586.388927
4156.030734,842.705048,-0.000000,9696.697840
4156.031049,383.047749,518.144159,9326.594869
4156.031364,536.266849,1036.288319,10066.800811
4156.031680,766.095498,296.082377,9844.739029
4156.031995,1225.752797,-444.123565,9918.759623
4156.032310,1378.971896,-370.102971,9326.594869
4156.032626,842.705048,-0.000000,9770.718434
4156.032941,612.876398,592.164754,9622.677246
4156.033256,459.657299,1110.308913,10288.862594
4156.033572,459.657299,962.267725,9770.718434
4156.033887,1149.143247,296.082377,9622.677246
4156.034202,1225.752797,222.061783,9474.636058
4156.034518,1378.971896,-0.000000,9400.615463
4156.034833,459.657299,1110.308913,9844.739029
4156.035148,306.438199,962.267725,10066.800811
4156.035464,153.219100,962.267725,10214.842000
4156.035779,-229.828649,1036.288319,9992.780217
4156.036094,0.000000,296.082377,9844.739029
4156.036409,229.828649,-222.061783,9918.759623
4156.036725,229.828649,-222.061783,9844.739029
4156.037040,-306.438199,-0.000000,9622.677246
4156.037355,-689.485948,296.082377,10066.800811
4156.037671,-842.705048,592.164754,9844.739029
4156.037986,-612.876398,740.205942,9992.780217
4156.038301,76.609550,222.061783,9400.615463
4156.038617,229.828649,518.144159,9252.574275
4156.038932,306.438199,222.061783,9326.594869
4156.039247,76.609550,222.061783,9474.636058
4156.039563,0.000000,370.102971,9252.574275
4156.039878,76.609550,296.082377,9474.636058
4156.040193,-229.828649,888.247130,8882.471304
4156.040509,0.000000,-0.000000,9252.574275
4156.040824,0.000000,-222.061783,9326.594869
4156.041139,-306.438199,222.061783,8956.491898
4156.041455,-536.266849,-222.061783,9770.718434
4156.041770,-919.314598,-148.041188,9770.718434
4156.042085,-842.705048,-0.000000,9918.759623
4156.042401,-766.095498,-0.000000,10288.862594
4156.042716,-536.266849,-592.164754,10288.862594
4156.043031,229.828649,-518.144159,10066.800811
4156.043347,383.047749,370.102971,9474.636058
4156.043662,153.219100,444.123565,9400.615463
4156.043977,153.219100,518.144159,9844.739029
4156.044293,0.000000,1036.288319,9474.636058
4156.044608,153.219100,518.144159,9178.553681
4156.044923,689.485948,-222.061783,8512.368333
4156.045239,842.705048,-444.123565,9030.512492
4156.045554,229.828649,-666.185348,9030.512492
4156.045869,-459.657299,-740.205942,9696.697840
4156.046185,-612.876398,-370.102971,9992.780217
4156.046500,-919.314598,-518.144159,9992.780217
4156.046815,-383.047749,-222.061783,10066.800811
4156.047131,536.266849,-444.123565,9622.677246
4156.047446,919.314598,-962.267725,8808.450710
4156.047761,919.314598,-296.082377,9104.533087
4156.048077,842.705048,-0.000000,9400.615463
4156.048392,919.314598,518.144159,9622.677246
4156.048707,229.828649,1184.329507,9548.656652
4156.049023,0.000000,370.102971,9252.574275
4156.049338,689.485948,-0.000000,9252.574275
4156.049653,536.266849,-370.102971,9474.636058
4156.049969,0.000000,-592.164754,9474.636058
4156.050284,-306.438199,-888.247130,10510.924376
4156.050599,-1149.143247,-666.185348,10584.944971
4156.050915,-536.266849,-222.061783,10288.862594
4156.051230,0.000000,-592.164754,9918.759623
4156.051545,612.876398,-592.164754,9474.636058
4156.051860,1225.752797,-74.020594,8882.471304
4156.052176,766.095498,592.164754,8438.347739
4156.052491,459.657299,1184.329507,9178.553681
4156.052806,229.828649,1332.370696,9548.656652
4156.053122,76.609550,1406.391290,9696.697840
4156.053437,76.609550,444.123565,9770.718434
4156.053752,536.266849,296.082377,9474.636058
4156.054068,306.438199,-74.020594,10140.821405
4156.054383,0.000000,222.061783,10066.800811
4156.054698,-612.876398,-222.061783,10881.027347
4156.055014,-766.095498,444.123565,10955.047942
4156.055329,-766.095498,740.205942,10362.883188
4156.055644,0.000000,962.267725,9844.739029
4156.055960,536.266849,370.102971,9474.636058
4156.056275,612.876398,296.082377,9104.533087
4156.056590,76.609550,-0.000000,8956.491898
4156.056906,-153.219100,370.102971,9252.574275
4156.057221,-612.876398,370.102971,9252.574275
4156.057536,-306.438199,814.226536,9474.636058
4156.057852,-306.438199,-0.000000,9548.656652
4156.058167,0.000000,-0.000000,9918.759623
4156.058482,0.000000,-592.164754,9844.739029
4156.058798,-689.485948,-814.226536,9548.656652
4156.059113,-536.266849,-296.082377,10140.821405
4156.059428,-536.266849,444.123565,10658.965565
4156.059744,229.828649,444.123565,10066.800811
4156.060059,0.000000,1258.350101,9252.574275
4156.060374,612.876398,222.061783,9252.574275
4156.060690,1149.143247,-0.000000,8512.368333
4156.061005,536.266849,592.164754,9030.512492
4156.061320,536.266849,518.144159,9326.594869
4156.061636,153.219100,740.205942,9844.739029
4156.061951,153.219100,444.123565,9548.656652
4156.062266,0.000000,-74.020594,9400.615463
4156.062582,306.438199,-370.102971,9918.759623
4156.062897,536.266849,-814.226536,8882.471304
4156.063212,153.219100,-740.205942,9992.780217
4156.063528,76.609550,-74.020594,9770.718434
4156.063843,-306.438199,814.226536,9474.636058
4156.064158,0.000000,740.205942,9474.636058
4156.064474,383.047749,814.226536,9030.512492
4156.064789,1149.143247,740.205942,9400.615463
4156.065104,1302.362347,370.102971,8808.450710
4156.065420,383.047749,518.144159,9474.636058
4156.065735,459.657299,666.185348,9918.759623
4156.066050,-689.485948,740.205942,10214.842000
4156.066365,-766.095498,518.144159,10066.800811
4156.066681,0.000000,296.082377,9992.780217
4156.066996,229.828649,-148.041188,9400.615463
4156.067311,0.000000,-592.164754,9548.656652
4156.067627,0.000000,-370.102971,9918.759623
4156.067942,-536.266849,-0.000000,9622.677246
4156.068257,-919.314598,518.144159,9770.718434
4156.068573,-459.657299,444.123565,9474.636058
4156.068888,0.000000,-0.000000,9400.615463
4156.069203,459.657299,-740.205942,9696.697840
4156.069519,383.047749,-518.144159,8438.347739
4156.069834,0.000000,-370.102971,9622.677246
4156.070149,-383.047749,592.164754,9696.697840
4156.070465,-919.314598,1036.288319,9696.697840
4156.070780,-229.828649,296.082377,9696.697840
4156.071095,153.219100,-296.082377,9474.636058
4156.071411,153.219100,-740.205942,9326.594869
4156.071726,0.000000,-74.020594,9104.533087
4156.072041,-766.095498,-370.102971,9918.759623
4156.072357,-536.266849,148.041188,10584.944971
4156.072672,-842.705048,740.205942,9622.677246
4156.072987,-536.266849,-0.000000,9474.636058
4156.073303,0.000000,-74.020594,9844.739029
4156.073618,229.828649,-518.144159,9548.656652
4156.073933,766.095498,-296.082377,9474.636058
4156.074249,229.828649,-0.000000,9770.718434
4156.074564,0.000000,444.123565,10066.800811
4156.074879,-383.047749,1332.370696,9474.636058
4156.075195,612.876398,-0.000000,9474.636058
4156.075510,842.705048,666.185348,9400.615463
4156.075825,1149.143247,-0.000000,9548.656652
4156.076141,536.266849,-0.000000,9474.636058
4156.076456,229.828649,-0.000000,10140.821405
4156.076771,0.000000,296.082377,10288.862594
4156.077087,-306.438199,148.041188,10510.924376
4156.077402,76.609550,-222.061783,10362.883188
4156.077717,1149.143247,-148.041188,10288.862594
4156.078033,1302.362347,-0.000000,9474.636058
4156.078348,766.095498,-0.000000,9474.636058
4156.078663,459.657299,370.102971,9474.636058
4156.078979,229.828649,962.267725,9474.636058
4156.079294,383.047749,592.164754,9474.636058
4156.079609,842.705048,-0.000000,9252.574275
4156.079925,1225.752797,-518.144159,9178.553681
4156.080240,1072.533697,-740.205942,8956.491898
4156.080555,536.266849,-592.164754,9326.594869
4156.080870,-76.609550,-592.164754,10214.842000
4156.081186,-689.485948,-148.041188,10584.944971
4156.081501,0.000000,-0.000000,9696.697840
4156.081816,229.828649,-222.061783,9178.553681
4156.082132,842.705048,-666.185348,9178.553681
4156.082447,919.314598,-592.164754,9030.512492
4156.082762,536.266849,-222.061783,9252.574275
4156.083078,383.047749,-0.000000,9622.677246
4156.083393,0.000000,888.247130,9326.594869
4156.083708,76.609550,1036.288319,9326.594869
4156.084024,536.266849,444.123565,8956.491898
4156.084339,995.924147,-296.082377,9030.512492
4156.084654,0.000000,-518.144159,9178.553681
4156.084970,-229.828649,-370.102971,9622.677246
4156.085285,-689.485948,-0.000000,9844.739029
4156.085600,-1378.971896,814.226536,9770.718434
4156.085916,-1072.533697,518.144159,10140.821405
4156.086231,-229.828649,-666.185348,9918.759623
4156.086546,612.876398,-740.205942,9770.718434
4156.086862,536.266849,-0.000000,9400.615463
4156.087177,-459.657299,518.144159,9548.656652
4156.087492,-229.828649,888.247130,9474.636058
4156.087808,-383.047749,1184.329507,9844.739029
4156.088123,0.000000,666.185348,9474.636058
4156.088438,0.000000,296.082377,9252.574275
4156.088754,76.609550,74.020594,9696.697840
4156.089069,0.000000,-0.000000,9474.636058
4156.089384,-842.705048,-0.000000,10214.842000
4156.089700,-842.705048,444.123565,10214.842000
4156.090015,-1455.581446,222.061783,10436.903782
4156.090330,-919.314598,-148.041188,10140.821405
4156.090646,-153.219100,-592.164754,9770.718434
4156.090961,0.000000,-0.000000,9178.553681
4156.091276,0.000000,-0.000000,9326.594869
4156.091592,-459.657299,444.123565,9400.615463
4156.091907,-306.438199,1036.288319,9178.553681
4156.092222,-689.485948,1184.329507,9474.636058
4156.092538,0.000000,444.123565,9474.636058
4156.092853,536.266849,-148.041188,9696.697840
4156.093168,766.095498,-370.102971,9844.739029
4156.093484,689.485948,-0.000000,9548.656652
4156.093799,229.828649,-0.000000,9844.739029
4156.094114,0.000000,962.267725,10066.800811
4156.094430,0.000000,888.247130,9474.636058
4156.094745,229.828649,518.144159,9252.574275
4156.095060,1225.752797,-74.020594,9696.697840
4156.095375,1225.752797,-0.000000,9030.512492
4156.095691,995.924147,296.082377,9104.533087
4156.096006,459.657299,592.164754,9696.697840
4156.096321,153.219100,740.205942,9844.739029
4156.096637,306.438199,814.226536,10066.800811
4156.096952,689.485948,296.082377,9696.697840
4156.097267,1378.971896,370.102971,9844.739029
4156.097583,1685.410096,148.041188,9770.718434
4156.097898,1378.971896,-0.000000,9178.553681
4156.098213,919.314598,518.144159,9696.697840
4156.098529,919.314598,740.205942,9548.656652
4156.098844,536.266849,444.123565,9548.656652
4156.099159,842.705048,-0.000000,9770.718434
4156.099475,766.095498,-0.000000,9548.656652
4156.099790,766.095498,-444.123565,10066.800811
4156.100105,0.000000,-148.041188,9844.739029
4156.100421,0.000000,148.041188,9992.780217
4156.100736,0.000000,296.082377,9844.739029
4156.101051,-306.438199,-0.000000,10288.862594
4156.101367,229.828649,-518.144159,9696.697840
4156.101682,766.095498,-592.164754,9400.615463
4156.101997,689.485948,-296.082377,9696.697840
4156.102313,229.828649,-444.123565,9474.636058
4156.102628,0.000000,-0.000000,9474.636058
4156.102943,-459.657299,-0.000000,9548.656652
4156.103259,-536.266849,148.041188,9400.615463
4156.103574,0.000000,-518.144159,9474.636058
4156.103889,0.000000,-1036.288319,9104.533087
4156.104205,0.000000,-888.247130,9252.574275
4156.104520,-995.924147,-740.205942,9400.615463
4156.104835,-919.314598,-370.102971,9770.718434
4156.105151,-995.924147,-0.000000,9622.677246
4156.105466,-995.924147,666.185348,9474.636058
4156.105781,-995.924147,-370.102971,9474.636058
4156.106097,76.609550,-518.144159,9178.553681
4156.106412,383.047749,-148.041188,8882.471304
4156.106727,-229.828649,740.205942,9178.553681
4156.107043,-459.657299,1184.329507,9104.533087
4156.107358,-612.876398,814.226536,9844.739029
4156.107673,-383.047749,666.185348,9548.656652
4156.107989,536.266849,296.082377,9030.512492
4156.108304,612.876398,-148.041188,9400.615463
4156.108619,153.219100,444.123565,8956.491898
4156.108935,-229.828649,296.082377,9770.718434
4156.109250,-689.485948,296.082377,9918.759623
4156.109565,-919.314598,-0.000000,9992.780217
4156.109880,-612.876398,-0.000000,9844.739029
4156.110196,153.219100,-296.082377,9696.697840
4156.110511,612.876398,-0.000000,9252.574275
4156.110826,76.609550,-0.000000,9400.615463
4156.111142,153.219100,592.164754,9400.615463
4156.111457,76.609550,962.267725,9992.780217
4156.111772,-536.266849,740.205942,10066.800811
4156.112088,-383.047749,1110.308913,9622.677246
4156.112403,842.705048,74.020594,9844.739029
4156.112718,1532.190996,222.061783,10140.821405
4156.113034,1072.533697,-370.102971,10140.821405
4156.113349,-229.828649,888.247130,9474.636058
4156.113664,-383.047749,444.123565,10362.883188
4156.113980,0.000000,962.267725,9770.718434
4156.114295,229.828649,370.102971,9992.780217
4156.114610,306.438199,370.102971,9400.615463
4156.114926,459.657299,-518.144159,8882.471304
4156.115241,0.000000,-0.000000,9474.636058
4156.115556,0.000000,-370.102971,10436.903782
4156.115872,0.000000,666.185348,9696.697840
4156.116187,-229.828649,296.082377,10732.986159
4156.116502,459.657299,1184.329507,9548.656652
4156.116818,842.705048,-0.000000,9548.656652
4156.117133,919.314598,592.164754,9474.636058
4156.117448,612.876398,518.144159,9474.636058
4156.117764,0.000000,888.247130,9992.780217
4156.118079,0.000000,888.247130,9474.636058
4156.118394,0.000000,1406.391290,9548.656652
4156.118710,229.828649,888.247130,9474.636058
4156.119025,689.485948,-0.000000,9992.780217
4156.119340,689.485948,-222.061783,9770.718434
4156.119656,76.609550,-74.020594,10140.821405
4156.119971,0.000000,-370.102971,9696.697840
4156.120286,153.219100,444.123565,10214.842000
4156.120602,153.219100,148.041188,9548.656652
4156.120917,536.266849,222.061783,9844.739029
4156.121232,919.314598,518.144159,9030.512492
4156.121548,842.705048,-74.020594,8808.450710
4156.121863,612.876398,296.082377,9178.553681
4156.122178,766.095498,296.082377,9474.636058
4156.122494,153.219100,518.144159,9622.677246
4156.122809,-459.657299,-0.000000,9770.718434
4156.123124,-536.266849,-444.123565,9622.677246
4156.123440,0.000000,-1184.329507,9918.759623
4156.123755,0.000000,-1110.308913,9548.656652
4156.124070,-536.266849,-1184.329507,9400.615463
4156.124386,-995.924147,-962.267725,9474.636058
4156.124701,-612.876398,-518.144159,9622.677246
4156.125016,-383.047749,-0.000000,9326.594869
4156.125332,153.219100,-148.041188,9030.512492
4156.125647,1149.143247,-0.000000,8216.285956
4156.125962,766.095498,-518.144159,8364.327145
4156.126278,612.876398,-296.082377,9030.512492
4156.126593,153.219100,-222.061783,9326.594869
4156.126908,-689.485948,296.082377,9326.594869
4156.127224,-1149.143247,-0.000000,9844.739029
4156.127539,-536.266849,-222.061783,9844.739029
4156.127854,383.047749,-444.123565,9548.656652
4156.128170,229.828649,-740.205942,9992.780217
4156.128485,-306.438199,-148.041188,10288.862594
4156.128800,-842.705048,-370.102971,10140.821405
4156.129116,-995.924147,296.082377,10436.903782
4156.129431,-153.219100,1406.391290,10066.800811
4156.129746,689.485948,888.247130,8882.471304
4156.130062,1225.752797,592.164754,9030.512492
4156.130377,995.924147,-0.000000,8956.491898
4156.130692,536.266849,518.144159,9252.574275
4156.131008,0.000000,814.226536,9474.636058
4156.131323,0.000000,1184.329507,9622.677246
4156.131638,-459.657299,814.226536,10362.883188
4156.131954,153.219100,-148.041188,9992.780217
4156.132269,153.219100,-518.144159,9992.780217
4156.132584,-306.438199,-888.247130,9696.697840
4156.132900,-459.657299,-592.164754,10881.027347
4156.133215,-229.828649,-222.061783,10955.047942
4156.133531,-459.657299,-0.000000,10510.924376
4156.133846,76.609550,444.123565,9844.739029
4156.134161,1455.581446,-0.000000,9252.574275
4156.134477,1991.848295,-0.000000,8882.471304
4156.134792,1991.848295,296.082377,8438.347739
4156.135107,1225.752797,-0.000000,8734.430116
4156.135423,612.876398,-74.020594,9252.574275
4156.135738,0.000000,814.226536,9622.677246
4156.136053,0.000000,-74.020594,9030.512492
4156.136369,383.047749,-740.205942,9474.636058
4156.136684,306.438199,-1184.329507,9844.739029
4156.136999,0.000000,-1258.350101,9400.615463
4156.137315,-612.876398,-666.185348,9696.697840
4156.137630,-1149.143247,-296.082377,10066.800811
4156.137945,-919.314598,296.082377,10362.883188
4156.138261,-306.438199,518.144159,9844.739029
4156.138576,689.485948,962.267725,8512.368333
4156.138891,1072.533697,962.267725,8808.450710
4156.139207,689.485948,888.247130,9400.615463
4156.139522,-306.438199,1110.308913,9400.615463
4156.139837,0.000000,1480.411884,9252.574275
4156.140153,-536.266849,1628.453072,9474.636058
4156.140468,0.000000,518.144159,9178.553681
4156.140783,995.924147,-296.082377,9696.697840
4156.141099,0.000000,-518.144159,9400.615463
4156.141414,-919.314598,-370.102971,9696.697840
4156.141729,-842.705048,296.082377,10288.862594
4156.142045,-612.876398,444.123565,9992.780217
4156.142360,0.000000,814.226536,10214.842000
4156.142676,459.657299,666.185348,9770.718434
4156.142991,1072.533697,-0.000000,9474.636058
4156.143306,1762.019645,-0.000000,9548.656652
4156.143622,1149.143247,-0.000000,9844.739029
4156.143937,1378.971896,518.144159,9844.739029
4156.144252,1302.362347,814.226536,10362.883188
4156.144568,1685.410096,740.205942,9696.697840
4156.144883,1762.019645,-0.000000,9104.533087
4156.145198,2221.676944,-666.185348,9400.615463
4156.145514,1838.629195,-1184.329507,9326.594869
4156.145829,766.095498,-1184.329507,9104.533087
4156.146144,383.047749,-1184.329507,9770.718434
4156.146460,459.657299,-1480.411884,10140.821405
4156.146775,919.314598,-1850.514855,10584.944971
4156.147090,995.924147,-1850.514855,10732.986159
4156.147406,1685.410096,-2072.576638,10362.883188
4156.147721,2451.505594,-1998.556043,9918.759623
4156.148036,3140.991542,-1702.473667,9474.636058
4156.148352,2451.505594,-740.205942,9252.574275
4156.148667,2911.162892,-518.144159,9548.656652
4156.148982,3294.210641,-0.000000,9992.780217
4156.149298,2987.772442,-444.123565,9474.636058
4156.149613,2528.115143,-1036.288319,9400.615463
4156.149928,3217.601092,-2072.576638,9178.553681
4156.150244,2681.334243,-2146.597232,9252.574275
4156.150559,2451.505594,-2146.597232,9326.594869
4156.150874,1991.848295,-2368.659014,9622.677246
4156.151190,2145.067394,-2812.782580,10584.944971
4156.151505,1762.019645,-2812.782580,11029.068536
4156.151820,1762.019645,-2368.659014,10362.883188
4156.152136,1762.019645,-2812.782580,9400.615463
4156.152451,2528.115143,-2220.617826,8956.491898
4156.152767,2987.772442,-1998.556043,8808.450710
4156.153082,2604.724693,-1258.350101,7994.224174
4156.153397,2145.067394,-962.267725,8660.409521
4156.153713,1685.410096,-888.247130,9178.553681
4156.154028,1838.629195,-1554.432478,9474.636058
4156.154343,1608.800546,-2294.638420,9696.697840
4156.154659,1149.143247,-2516.700203,9696.697840
4156.154974,612.876398,-3701.029710,9992.780217
4156.155289,842.705048,-3775.050304,9844.739029
4156.155605,536.266849,-3552.988522,9918.759623
4156.155920,229.828649,-2886.803174,9844.739029
