#time,accel_x,accel_y,accel_z
3760.551581,153.219100,-148.041188,9770.718434
3760.551896,76.609550,148.041188,9844.739029
3760.552210,0.000000,370.102971,9548.656652
3760.552525,76.609550,148.041188,9400.615463
3760.552840,0.000000,296.082377,9474.636058
3760.553154,383.047749,-0.000000,9622.677246
3760.553469,0.000000,-148.041188,9400.615463
3760.553784,0.000000,-0.000000,9696.697840
3760.554099,76.609550,370.102971,9474.636058
3760.554413,0.000000,-0.000000,9622.677246
3760.554728,-536.266849,222.061783,9400.615463
3760.555043,0.000000,222.061783,9326.594869
3760.555357,0.000000,-74.020594,9326.594869
3760.555672,76.609550,296.082377,9326.594869
3760.555987,76.609550,-0.000000,9474.636058
3760.556301,-383.047749,-0.000000,9474.636058
3760.556616,459.657299,222.061783,9548.656652
3760.556931,153.219100,-0.000000,9030.512492
3760.557245,306.438199,370.102971,9252.574275
3760.557560,153.219100,-0.000000,9992.780217
3760.557875,0.000000,-74.020594,9770.718434
3760.558189,0.000000,-0.000000,9474.636058
3760.558504,306.438199,-74.020594,9400.615463
3760.558819,229.828649,-222.061783,9474.636058
3760.559133,612.876398,-0.000000,9770.718434
3760.559448,76.609550,-0.000000,9696.697840
3760.559763,0.000000,-0.000000,9474.636058
3760.560077,383.047749,-0.000000,9400.615463
3760.560392,306.438199,-0.000000,9696.697840
3760.560707,0.000000,222.061783,9770.718434
3760.561021,76.609550,-74.020594,9844.739029
3760.561336,76.609550,-0.000000,9548.656652
3760.561651,153.219100,-0.000000,9844.739029
3760.561965,0.000000,-0.000000,9474.636058
3760.562280,-383.047749,-0.000000,9622.677246
3760.562595,-842.705048,-0.000000,9918.759623
3760.562909,229.828649,-0.000000,9548.656652
3760.563224,76.609550,-0.000000,9622.677246
3760.563539,0.000000,-0.000000,9696.697840
3760.563854,-306.438199,296.082377,9252.574275
3760.564168,0.000000,-0.000000,9474.636058
3760.564483,0.000000,-0.000000,9474.636058
3760.564798,0.000000,-0.000000,9548.656652
3760.565112,0.000000,-74.020594,9696.697840
3760.565427,0.000000,222.061783,9548.656652
3760.565742,-383.047749,222.061783,9104.533087
3760.566056,-153.219100,74.020594,8956.491898
3760.566371,0.000000,-0.000000,9400.615463
3760.566686,229.828649,-0.000000,9474.636058
3760.567000,0.000000,222.061783,9252.574275
3760.567315,766.095498,-0.000000,9400.615463
3760.567630,76.609550,-0.000000,9178.553681
3760.567944,383.047749,370.102971,9178.553681
3760.568259,306.438199,222.061783,9474.636058
3760.568574,459.657299,-370.102971,9622.677246
3760.568888,229.828649,-0.000000,9844.739029
3760.569203,76.609550,-0.000000,9326.594869
3760.569518,76.609550,296.082377,9474.636058
3760.569832,229.828649,148.041188,9770.718434
3760.570147,229.828649,-0.000000,9474.636058
3760.570462,229.828649,-0.000000,9696.697840
3760.570776,153.219100,-0.000000,9474.636058
3760.571091,306.438199,-74.020594,9696.697840
3760.571406,153.219100,148.041188,9696.697840
3760.571720,153.219100,-0.000000,9992.780217
3760.572035,229.828649,-222.061783,9918.759623
3760.572350,76.609550,-0.000000,9844.739029
3760.572664,153.219100,-0.000000,9622.677246
3760.572979,153.219100,518.144159,9918.759623
3760.573294,229.828649,296.082377,10066.800811
3760.573609,0.000000,-0.000000,9696.697840
3760.573923,0.000000,-0.000000,9696.697840
3760.574238,0.000000,296.082377,9770.718434
3760.574553,76.609550,296.082377,9770.718434
3760.574867,76.609550,-0.000000,9844.739029
3760.575182,153.219100,-0.000000,9696.697840
3760.575497,0.000000,-0.000000,9696.697840
3760.575811,306.438199,-74.020594,9474.636058
3760.576126,76.609550,-0.000000,9918.759623
3760.576441,229.828649,370.102971,9844.739029
3760.576755,229.828649,518.144159,9474.636058
3760.577070,229.828649,814.226536,9326.594869
3760.577385,766.095498,740.205942,9178.553681
3760.577699,612.876398,814.226536,8660.409521
3760.578014,612.876398,740.205942,8660.409521
3760.578329,842.705048,222.061783,8882.471304
3760.578643,766.095498,444.123565,9178.553681
3760.578958,383.047749,148.041188,9252.574275
3760.579273,459.657299,222.061783,9696.697840
3760.579587,383.047749,148.041188,9844.739029
3760.579902,459.657299,444.123565,9622.677246
3760.580217,612.876398,666.185348,9548.656652
3760.580531,995.924147,740.205942,9474.636058
3760.580846,1378.971896,814.226536,9918.759623
3760.581161,1532.190996,888.247130,9696.697840
3760.581475,1991.848295,962.267725,10066.800811
3760.581790,2298.286494,1036.288319,10288.862594
3760.582105,2757.943793,1480.411884,9844.739029
3760.582419,2681.334243,1702.473667,9770.718434
3760.582734,3294.210641,2146.597232,9474.636058
3760.583049,3677.258390,2294.638420,9104.533087
3760.583364,3600.648841,2664.741391,8660.409521
3760.583678,3677.258390,2516.700203,8956.491898
3760.583993,3447.429741,2072.576638,9622.677246
3760.584308,3370.820191,2072.576638,9326.594869
3760.584622,3140.991542,2294.638420,9030.512492
3760.584937,3370.820191,2442.679609,9696.697840
3760.585252,2834.553343,2590.720797,9474.636058
3760.585566,2757.943793,2812.782580,9474.636058
3760.585881,2834.553343,2886.803174,9326.594869
3760.586196,2911.162892,3108.864956,8956.491898
3760.586510,2834.553343,3330.926739,8512.368333
3760.586825,2911.162892,3552.988522,8512.368333
3760.587140,2604.724693,3627.009116,9178.553681
3760.587454,2604.724693,3478.967927,9400.615463
3760.587769,2451.505594,3330.926739,9770.718434
3760.588084,1991.848295,3627.009116,10066.800811
3760.588398,1838.629195,3404.947333,10214.842000
3760.588713,1838.629195,3701.029710,10436.903782
3760.589028,1762.019645,3849.070898,10658.965565
3760.589342,1608.800546,3478.967927,10584.944971
3760.589657,1762.019645,3849.070898,10807.006753
3760.589972,1685.410096,3701.029710,10807.006753
3760.590286,1608.800546,3552.988522,10510.924376
3760.590601,2145.067394,3775.050304,10214.842000
3760.590916,1838.629195,3997.112087,9770.718434
3760.591230,2451.505594,3923.091493,9548.656652
3760.591545,2528.115143,3627.009116,9844.739029
3760.591860,2528.115143,3404.947333,9770.718434
3760.592174,1991.848295,3182.885551,9622.677246
3760.592489,2145.067394,2886.803174,9844.739029
3760.592804,2145.067394,2738.761985,10214.842000
3760.593119,1991.848295,2812.782580,10214.842000
3760.593433,2068.457845,2886.803174,9844.739029
3760.593748,2374.896044,2664.741391,10436.903782
3760.594063,1455.581446,3330.926739,10214.842000
3760.594377,1608.800546,3330.926739,10140.821405
3760.594692,1608.800546,3034.844362,9844.739029
3760.595007,1838.629195,3034.844362,9622.677246
3760.595321,1532.190996,3034.844362,9400.615463
3760.595636,1608.800546,2442.679609,9400.615463
3760.595951,1685.410096,1998.556043,9918.759623
3760.596265,1685.410096,1258.350101,10436.903782
3760.596580,1378.971896,1480.411884,10140.821405
3760.596895,1532.190996,1480.411884,10140.821405
3760.597209,1149.143247,1554.432478,9844.739029
3760.597524,1915.238745,1776.494261,10214.842000
3760.597839,2068.457845,1924.535449,9474.636058
3760.598153,2298.286494,1998.556043,9030.512492
3760.598468,2604.724693,1702.473667,8364.327145
3760.598783,2911.162892,1850.514855,7994.224174
3760.599097,3294.210641,1850.514855,8438.347739
3760.599412,3677.258390,1776.494261,8438.347739
3760.599727,3217.601092,1628.453072,8512.368333
3760.600041,3677.258390,1406.391290,8586.388927
3760.600356,2604.724693,1406.391290,8734.430116
3760.600671,2145.067394,1184.329507,8956.491898
3760.600985,1762.019645,666.185348,9104.533087
3760.601300,1685.410096,370.102971,9252.574275
3760.601615,1532.190996,444.123565,9622.677246
3760.601929,2145.067394,-444.123565,10288.862594
3760.602244,2068.457845,814.226536,10510.924376
3760.602559,2145.067394,1332.370696,10214.842000
3760.602874,2451.505594,1628.453072,9622.677246
3760.603188,3140.991542,2146.597232,9178.553681
3760.603503,4136.915689,2664.741391,8512.368333
3760.603818,3983.696590,2590.720797,8142.265362
3760.604132,3907.087040,2368.659014,7846.182985
3760.604447,3983.696590,1702.473667,8290.306550
3760.604762,2374.896044,1332.370696,8586.388927
3760.605076,1302.362347,814.226536,9400.615463
3760.605391,536.266849,-148.041188,10732.986159
3760.605706,229.828649,-444.123565,11843.295072
3760.606020,-229.828649,-0.000000,12583.501014
3760.606335,-306.438199,-0.000000,12361.439231
3760.606650,306.438199,962.267725,11843.295072
3760.606964,1532.190996,1850.514855,11029.068536
3760.607279,2834.553343,3256.906145,9992.780217
3760.607594,3370.820191,3849.070898,8364.327145
3760.607908,4443.353888,4663.297435,7328.038826
3760.608223,4903.011187,4663.297435,7105.977043
3760.608538,4673.182538,3997.112087,7179.997637
3760.608852,4213.525239,2886.803174,7772.162391
3760.609167,2757.943793,1850.514855,9548.656652
3760.609482,766.095498,814.226536,10881.027347
3760.609796,-459.657299,370.102971,12065.356855
3760.610111,-995.924147,370.102971,12139.377449
3760.610426,-1072.533697,592.164754,11991.336260
3760.610740,-383.047749,2220.617826,10881.027347
3760.611055,536.266849,3330.926739,9474.636058
3760.611370,1915.238745,3923.091493,8216.285956
3760.611685,3447.429741,4071.132681,7402.059420
3760.611999,4213.525239,4219.173869,7846.182985
3760.612314,4903.011187,4071.132681,7846.182985
3760.612629,3907.087040,4219.173869,8512.368333
3760.612943,3447.429741,3552.988522,9992.780217
3760.613258,2604.724693,3108.864956,11325.150913
3760.613573,1762.019645,2738.761985,11251.130318
3760.613887,536.266849,3256.906145,10584.944971
3760.614202,689.485948,3256.906145,10214.842000
3760.614517,1225.752797,2368.659014,10066.800811
3760.614831,1685.410096,2072.576638,9400.615463
3760.615146,2145.067394,2146.597232,8734.430116
3760.615461,1838.629195,2294.638420,8290.306550
3760.615775,2451.505594,2886.803174,8364.327145
3760.616090,2145.067394,2590.720797,9252.574275
3760.616405,1685.410096,2960.823768,9178.553681
3760.616719,842.705048,2812.782580,9622.677246
3760.617034,459.657299,2146.597232,10510.924376
3760.617349,306.438199,1110.308913,11473.192101
3760.617663,0.000000,1184.329507,12361.439231
3760.617978,-459.657299,1258.350101,12139.377449
3760.618293,0.000000,1998.556043,11547.212695
3760.618607,689.485948,2738.761985,10881.027347
3760.618922,1378.971896,3404.947333,9252.574275
3760.619237,2221.676944,3701.029710,8142.265362
3760.619551,2298.286494,2812.782580,7105.977043
3760.619866,2451.505594,1332.370696,8142.265362
3760.620181,1991.848295,222.061783,8660.409521
3760.620495,459.657299,-740.205942,9770.718434
3760.620810,-153.219100,-1480.411884,11177.109724
3760.621125,-842.705048,-1332.370696,11473.192101
3760.621440,-1608.800546,-370.102971,11325.150913
3760.621754,-1378.971896,-148.041188,10881.027347
3760.622069,-153.219100,296.082377,9696.697840
3760.622384,689.485948,888.247130,9622.677246
3760.622698,1378.971896,1332.370696,8364.327145
3760.623013,2298.286494,1406.391290,7994.224174
3760.623328,2757.943793,1184.329507,7994.224174
3760.623642,2834.553343,888.247130,7994.224174
3760.623957,2451.505594,444.123565,8882.471304
3760.624271,1532.190996,222.061783,8956.491898
3760.624586,766.095498,-1406.391290,9696.697840
3760.624900,-536.266849,-1258.350101,10510.924376
3760.625215,-1302.362347,-1850.514855,11177.109724
3760.625529,-2528.115143,-2368.659014,11399.171507
3760.625844,-2528.115143,-2664.741391,10658.965565
3760.626158,-2145.067394,-2146.597232,10362.883188
3760.626473,-1302.362347,-1036.288319,9474.636058
3760.626787,229.828649,-444.123565,9030.512492
3760.627102,1149.143247,-0.000000,8512.368333
3760.627416,1991.848295,-148.041188,8290.306550
3760.627731,2528.115143,-296.082377,8734.430116
3760.628046,2221.676944,-370.102971,9326.594869
3760.628360,1915.238745,-148.041188,9770.718434
3760.628675,995.924147,-296.082377,9548.656652
3760.628989,306.438199,-296.082377,9178.553681
3760.629304,0.000000,-1332.370696,9622.677246
3760.629618,-536.266849,-1554.432478,9252.574275
3760.629933,-1149.143247,-1702.473667,9474.636058
3760.630247,-1302.362347,-1554.432478,9030.512492
3760.630562,-1302.362347,-1628.453072,8660.409521
3760.630876,-766.095498,-1480.411884,8808.450710
3760.631191,-842.705048,-1480.411884,9104.533087
3760.631505,0.000000,-1332.370696,9326.594869
3760.631820,76.609550,-1110.308913,9548.656652
3760.632134,0.000000,-888.247130,9844.739029
3760.632449,306.438199,-222.061783,9992.780217
3760.632763,306.438199,-148.041188,10436.903782
3760.633078,306.438199,370.102971,9622.677246
3760.633392,0.000000,1184.329507,8808.450710
3760.633707,306.438199,814.226536,8956.491898
3760.634021,153.219100,592.164754,8808.450710
3760.634336,0.000000,-296.082377,8364.327145
3760.634650,0.000000,-666.185348,9326.594869
3760.634965,-459.657299,-1110.308913,8808.450710
3760.635279,-612.876398,-1776.494261,9400.615463
3760.635594,-689.485948,-1036.288319,10510.924376
3760.635909,-1685.410096,-740.205942,10214.842000
3760.636223,-1532.190996,-296.082377,10288.862594
3760.636538,-995.924147,-148.041188,10436.903782
3760.636852,-766.095498,222.061783,10066.800811
3760.637167,0.000000,1110.308913,10066.800811
3760.637481,612.876398,1332.370696,9326.594869
3760.637796,1302.362347,2220.617826,9178.553681
3760.638110,1455.581446,2590.720797,8142.265362
3760.638425,1915.238745,2442.679609,8290.306550
3760.638739,1685.410096,1554.432478,8956.491898
3760.639054,1149.143247,666.185348,9622.677246
3760.639368,153.219100,444.123565,10288.862594
3760.639683,0.000000,-814.226536,10436.903782
3760.639997,-842.705048,-814.226536,10955.047942
3760.640312,-1149.143247,-370.102971,10807.006753
3760.640626,-1302.362347,222.061783,10658.965565
3760.640941,-995.924147,592.164754,10288.862594
3760.641255,-229.828649,740.205942,9622.677246
3760.641570,459.657299,1702.473667,9474.636058
3760.641884,1072.533697,1406.391290,9104.533087
3760.642199,1991.848295,1406.391290,8956.491898
3760.642513,2145.067394,1480.411884,9178.553681
3760.642828,2374.896044,1776.494261,8660.409521
3760.643142,1915.238745,1998.556043,8882.471304
3760.643457,1302.362347,1406.391290,9548.656652
3760.643772,306.438199,888.247130,10658.965565
3760.644086,-689.485948,296.082377,10955.047942
3760.644401,-919.314598,-74.020594,10732.986159
3760.644715,-459.657299,-148.041188,10658.965565
3760.645030,-459.657299,-0.000000,9918.759623
3760.645344,-612.876398,740.205942,9474.636058
3760.645659,0.000000,518.144159,8882.471304
3760.645973,383.047749,148.041188,8956.491898
3760.646288,919.314598,444.123565,9178.553681
3760.646602,919.314598,666.185348,9474.636058
3760.646917,995.924147,518.144159,9548.656652
3760.647231,995.924147,592.164754,9548.656652
3760.647546,536.266849,592.164754,9326.594869
3760.647860,76.609550,1406.391290,9252.574275
3760.648175,536.266849,814.226536,10214.842000
3760.648489,0.000000,518.144159,10288.862594
3760.648804,-536.266849,814.226536,9992.780217
3760.649118,-536.266849,444.123565,9770.718434
3760.649433,-459.657299,-0.000000,9844.739029
3760.649747,-383.047749,-222.061783,9992.780217
3760.650062,-229.828649,-0.000000,8808.450710
3760.650376,0.000000,-518.144159,8586.388927
3760.650691,0.000000,-814.226536,9252.574275
3760.651005,-536.266849,-962.267725,9326.594869
3760.651320,-995.924147,-74.020594,9474.636058
3760.651635,-842.705048,-370.102971,10066.800811
3760.651949,-459.657299,-444.123565,9918.759623
3760.652264,-995.924147,370.102971,9622.677246
3760.652578,-842.705048,370.102971,9030.512492
3760.652893,0.000000,-74.020594,9548.656652
3760.653207,0.000000,-370.102971,9548.656652
3760.653522,0.000000,-740.205942,9474.636058
3760.653836,0.000000,-296.082377,9622.677246
3760.654151,153.219100,-148.041188,9548.656652
3760.654465,0.000000,-444.123565,9548.656652
3760.654780,-459.657299,-296.082377,9252.574275
3760.655094,-229.828649,-296.082377,9548.656652
3760.655409,-459.657299,-666.185348,10066.800811
3760.655723,-995.924147,-888.247130,10584.944971
3760.656038,-1149.143247,-814.226536,10510.924376
3760.656352,-383.047749,-888.247130,10288.862594
3760.656667,306.438199,-888.247130,10140.821405
3760.656981,689.485948,-444.123565,9030.512492
3760.657296,995.924147,-0.000000,9178.553681
3760.657610,1532.190996,-0.000000,8956.491898
3760.657925,1378.971896,-0.000000,9104.533087
3760.658239,1378.971896,-518.144159,8956.491898
3760.658554,1225.752797,-740.205942,9474.636058
3760.658868,995.924147,-740.205942,9918.759623
3760.659183,0.000000,-888.247130,9844.739029
3760.659497,-229.828649,-444.123565,9548.656652
3760.659812,-459.657299,-222.061783,9696.697840
3760.660127,0.000000,-1110.308913,9992.780217
3760.660441,0.000000,-518.144159,9770.718434
3760.660756,153.219100,-222.061783,9622.677246
3760.661070,306.438199,-222.061783,9252.574275
3760.661385,536.266849,148.041188,9252.574275
3760.661699,1149.143247,222.061783,8882.471304
3760.662014,995.924147,444.123565,8808.450710
3760.662328,766.095498,370.102971,8660.409521
3760.662643,842.705048,148.041188,9326.594869
3760.662957,383.047749,296.082377,9326.594869
3760.663272,459.657299,222.061783,9844.739029
3760.663586,383.047749,-74.020594,9622.677246
3760.663901,-459.657299,148.041188,9104.533087
3760.664215,-459.657299,740.205942,9326.594869
3760.664530,-842.705048,962.267725,8068.244768
3760.664844,766.095498,-740.205942,9622.677246
3760.665159,612.876398,888.247130,9770.718434
3760.665473,-536.266849,222.061783,9178.553681
3760.665788,229.828649,-0.000000,9770.718434
3760.666102,153.219100,1184.329507,9696.697840
3760.666417,0.000000,1776.494261,9474.636058
3760.666731,612.876398,1554.432478,9474.636058
3760.667046,0.000000,1554.432478,9770.718434
3760.667360,0.000000,814.226536,10362.883188
3760.667675,0.000000,962.267725,10510.924376
3760.667990,-306.438199,1258.350101,10436.903782
3760.668304,76.609550,888.247130,10066.800811
3760.668619,0.000000,1332.370696,10214.842000
3760.668933,0.000000,1554.432478,9474.636058
3760.669248,383.047749,1110.308913,9696.697840
3760.669562,383.047749,888.247130,9696.697840
3760.669877,-689.485948,518.144159,10288.862594
3760.670191,-766.095498,518.144159,10066.800811
3760.670506,-383.047749,370.102971,10436.903782
3760.670820,0.000000,592.164754,10288.862594
3760.671135,0.000000,962.267725,10362.883188
3760.671449,-459.657299,1332.370696,9844.739029
3760.671764,-153.219100,1110.308913,10288.862594
3760.672078,0.000000,1110.308913,9918.759623
3760.672393,0.000000,592.164754,9844.739029
3760.672707,1302.362347,74.020594,10140.821405
3760.673022,459.657299,296.082377,9548.656652
3760.673336,459.657299,666.185348,9548.656652
3760.673651,76.609550,814.226536,9326.594869
3760.673965,76.609550,518.144159,9474.636058
3760.674280,459.657299,370.102971,9548.656652
3760.674594,153.219100,-74.020594,9622.677246
3760.674909,0.000000,-0.000000,9474.636058
3760.675223,0.000000,-296.082377,9400.615463
3760.675538,383.047749,-0.000000,8734.430116
3760.675853,0.000000,-0.000000,9400.615463
3760.676167,383.047749,-0.000000,8586.388927
3760.676482,459.657299,-370.102971,8882.471304
3760.676796,383.047749,-444.123565,8956.491898
3760.677111,536.266849,-296.082377,9474.636058
3760.677425,689.485948,-0.000000,9548.656652
3760.677740,459.657299,-222.061783,10066.800811
3760.678054,306.438199,-0.000000,10140.821405
3760.678369,76.609550,222.061783,9400.615463
3760.678683,689.485948,-0.000000,8956.491898
3760.678998,1072.533697,-148.041188,9474.636058
3760.679312,459.657299,-370.102971,9474.636058
3760.679627,689.485948,-518.144159,9474.636058
3760.679941,919.314598,-666.185348,8956.491898
3760.680256,919.314598,-814.226536,9178.553681
3760.680570,153.219100,-444.123565,9104.533087
3760.680885,76.609550,-814.226536,9252.574275
3760.681199,76.609550,-1554.432478,9548.656652
3760.681514,0.000000,-1480.411884,9548.656652
3760.681828,-612.876398,-1332.370696,10066.800811
3760.682143,-229.828649,-962.267725,10288.862594
3760.682457,-229.828649,-888.247130,10510.924376
3760.682772,0.000000,-370.102971,9992.780217
3760.683086,459.657299,-74.020594,9252.574275
3760.683401,1072.533697,-0.000000,9252.574275
3760.683716,919.314598,-0.000000,9918.759623
3760.684030,459.657299,-0.000000,9104.533087
3760.684345,153.219100,-296.082377,8660.409521
3760.684659,76.609550,-370.102971,9474.636058
3760.684974,76.609550,-518.144159,9474.636058
3760.685288,-153.219100,-74.020594,9178.553681
3760.685603,0.000000,-740.205942,9326.594869
3760.685917,-612.876398,-518.144159,10066.800811
3760.686232,-995.924147,-888.247130,10066.800811
3760.686546,-1149.143247,-1332.370696,10288.862594
3760.686861,-919.314598,-962.267725,10140.821405
3760.687175,-306.438199,-296.082377,9696.697840
3760.687490,0.000000,-0.000000,9326.594869
3760.687804,76.609550,962.267725,8512.368333
3760.688119,536.266849,1036.288319,8882.471304
3760.688433,1072.533697,814.226536,8808.450710
3760.688748,536.266849,518.144159,8956.491898
3760.689062,306.438199,-0.000000,9474.636058
3760.689377,0.000000,592.164754,9622.677246
3760.689691,-229.828649,444.123565,9622.677246
3760.690006,-689.485948,518.144159,9770.718434
3760.690320,-766.095498,296.082377,9770.718434
3760.690635,-612.876398,444.123565,9474.636058
3760.690949,-459.657299,370.102971,9622.677246
3760.691264,-383.047749,-74.020594,9770.718434
3760.691579,0.000000,296.082377,9844.739029
3760.691893,229.828649,518.144159,9474.636058
3760.692208,306.438199,1036.288319,9474.636058
3760.692522,1149.143247,740.205942,9104.533087
3760.692837,842.705048,1036.288319,9326.594869
3760.693151,1072.533697,962.267725,9696.697840
3760.693466,229.828649,962.267725,9844.739029
3760.693780,383.047749,888.247130,10214.842000
3760.694095,612.876398,518.144159,9252.574275
3760.694409,229.828649,740.205942,9696.697840
3760.694724,-459.657299,1036.288319,10362.883188
3760.695038,-383.047749,1110.308913,9474.636058
3760.695353,0.000000,962.267725,9474.636058
3760.695667,0.000000,-0.000000,9696.697840
3760.695982,0.000000,370.102971,9918.759623
3760.696296,383.047749,296.082377,10140.821405
3760.696611,459.657299,518.144159,10066.800811
3760.696925,536.266849,1184.329507,10732.986159
3760.697240,689.485948,1480.411884,9622.677246
3760.697554,766.095498,1480.411884,9400.615463
3760.697869,612.876398,1258.350101,9770.718434
3760.698183,536.266849,962.267725,9400.615463
3760.698498,689.485948,666.185348,9326.594869
3760.698812,1072.533697,888.247130,9252.574275
3760.699127,842.705048,518.144159,9400.615463
3760.699441,383.047749,888.247130,9030.512492
3760.699756,0.000000,518.144159,9178.553681
3760.700071,0.000000,-0.000000,10140.821405
3760.700385,-76.609550,-0.000000,10288.862594
3760.700700,-306.438199,-74.020594,10140.821405
3760.701014,0.000000,-0.000000,10288.862594
3760.701329,76.609550,-0.000000,9992.780217
3760.701643,-383.047749,888.247130,9918.759623
3760.701958,0.000000,592.164754,9844.739029
3760.702272,536.266849,1036.288319,9474.636058
3760.702587,766.095498,814.226536,9104.533087
3760.702901,612.876398,592.164754,9252.574275
3760.703216,995.924147,148.041188,9696.697840
3760.703530,689.485948,-0.000000,9252.574275
3760.703845,306.438199,-222.061783,9104.533087
3760.704159,0.000000,-0.000000,9178.553681
3760.704474,-842.705048,-666.185348,9400.615463
3760.704788,-229.828649,-814.226536,9474.636058
3760.705103,-612.876398,-1036.288319,10140.821405
3760.705417,-1225.752797,-1332.370696,10510.924376
3760.705732,-995.924147,-1998.556043,10510.924376
3760.706046,-842.705048,-1110.308913,10436.903782
3760.706361,-383.047749,-222.061783,10140.821405
3760.706675,0.000000,-296.082377,9030.512492
3760.706990,842.705048,74.020594,9252.574275
3760.707304,1225.752797,296.082377,8956.491898
3760.707619,766.095498,-74.020594,9622.677246
3760.707934,842.705048,-0.000000,9252.574275
3760.708248,459.657299,-296.082377,9030.512492
3760.708563,612.876398,-666.185348,9030.512492
3760.708877,153.219100,-814.226536,9252.574275
3760.709192,-229.828649,-740.205942,8882.471304
3760.709506,-306.438199,-740.205942,9104.533087
3760.709821,-842.705048,-1036.288319,9770.718434
3760.710135,-919.314598,-1258.350101,10214.842000
3760.710450,-1149.143247,-1184.329507,9548.656652
3760.710764,-459.657299,-1332.370696,9992.780217
3760.711079,-536.266849,-740.205942,9918.759623
3760.711393,0.000000,222.061783,9474.636058
3760.711708,229.828649,222.061783,9474.636058
3760.712022,995.924147,296.082377,9770.718434
3760.712337,612.876398,666.185348,9770.718434
3760.712651,766.095498,740.205942,9474.636058
3760.712966,1072.533697,666.185348,8956.491898
3760.713280,842.705048,888.247130,8808.450710
3760.713595,842.705048,888.247130,8586.388927
3760.713909,0.000000,444.123565,8586.388927
3760.714224,0.000000,-74.020594,9474.636058
3760.714538,-229.828649,-814.226536,9696.697840
3760.714853,-995.924147,-888.247130,10066.800811
3760.715167,-383.047749,-1258.350101,10881.027347
3760.715482,-612.876398,-740.205942,10362.883188
3760.715797,-689.485948,-0.000000,10066.800811
3760.716111,-306.438199,296.082377,9474.636058
3760.716426,76.609550,666.185348,9474.636058
3760.716740,1455.581446,814.226536,9474.636058
3760.717055,1608.800546,1332.370696,9104.533087
3760.717369,1838.629195,1850.514855,9030.512492
3760.717684,1915.238745,1332.370696,9252.574275
3760.717998,1608.800546,1184.329507,9178.553681
3760.718313,612.876398,592.164754,8808.450710
3760.718627,306.438199,814.226536,9474.636058
3760.718942,153.219100,296.082377,9770.718434
3760.719256,-536.266849,-370.102971,10214.842000
3760.719571,-1378.971896,-74.020594,10140.821405
3760.719885,-842.705048,-1184.329507,10510.924376
3760.720200,-919.314598,-370.102971,10658.965565
3760.720514,-995.924147,-0.000000,10807.006753
3760.720829,-383.047749,888.247130,10140.821405
3760.721143,0.000000,1258.350101,9474.636058
3760.721458,536.266849,1776.494261,9474.636058
3760.721772,1149.143247,1850.514855,9030.512492
3760.722087,1149.143247,1702.473667,9326.594869
3760.722401,995.924147,1332.370696,9474.636058
3760.722716,995.924147,1332.370696,9770.718434
3760.723030,229.828649,1480.411884,9400.615463
3760.723345,0.000000,1258.350101,9104.533087
3760.723660,0.000000,444.123565,9918.759623
3760.723974,-842.705048,-0.000000,10214.842000
3760.724289,-842.705048,-444.123565,11103.089130
3760.724603,-1149.143247,-740.205942,9918.759623
3760.724917,-689.485948,-370.102971,9992.780217
3760.725232,-459.657299,370.102971,9770.718434
3760.725546,-536.266849,370.102971,9326.594869
3760.725861,306.438199,666.185348,8734.430116
3760.726175,919.314598,666.185348,9326.594869
3760.726490,766.095498,1258.350101,9474.636058
3760.726804,1149.143247,814.226536,9104.533087
3760.727119,1225.752797,814.226536,8808.450710
3760.727433,1532.190996,592.164754,9400.615463
3760.727748,612.876398,740.205942,8956.491898
3760.728062,0.000000,370.102971,9326.594869
3760.728376,0.000000,-296.082377,9696.697840
3760.728691,-536.266849,-592.164754,9844.739029
3760.729005,-612.876398,-1036.288319,9844.739029
3760.729320,-536.266849,-1036.288319,10140.821405
3760.729634,-459.657299,-962.267725,10214.842000
3760.729949,-536.266849,-814.226536,9770.718434
3760.730263,-612.876398,-370.102971,9474.636058
3760.730578,0.000000,-444.123565,9696.697840
3760.730892,536.266849,-222.061783,9474.636058
3760.731207,766.095498,370.102971,9400.615463
3760.731521,766.095498,296.082377,9474.636058
3760.731835,1149.143247,370.102971,9178.553681
3760.732150,919.314598,-0.000000,8882.471304
3760.732464,842.705048,592.164754,8882.471304
3760.732779,766.095498,296.082377,9474.636058
3760.733093,383.047749,-222.061783,9548.656652
3760.733408,0.000000,-740.205942,9474.636058
3760.733722,-306.438199,-444.123565,10584.944971
3760.734037,-536.266849,-1258.350101,10510.924376
3760.734351,-459.657299,-962.267725,10288.862594
3760.734666,-536.266849,-518.144159,10066.800811
3760.734980,-536.266849,-444.123565,9474.636058
3760.735294,0.000000,-148.041188,9474.636058
3760.735609,306.438199,296.082377,9696.697840
3760.735923,612.876398,296.082377,9548.656652
3760.736238,306.438199,222.061783,9474.636058
3760.736552,766.095498,-148.041188,9400.615463
3760.736867,995.924147,-0.000000,8956.491898
3760.737181,383.047749,444.123565,8882.471304
3760.737496,536.266849,518.144159,9030.512492
3760.737810,306.438199,-0.000000,8660.409521
3760.738124,-306.438199,-444.123565,9622.677246
3760.738439,-229.828649,-296.082377,9696.697840
3760.738753,-536.266849,-740.205942,9622.677246
3760.739068,-536.266849,-592.164754,10140.821405
3760.739382,-1149.143247,-74.020594,9918.759623
3760.739697,-919.314598,222.061783,9400.615463
3760.740011,-153.219100,-0.000000,9548.656652
3760.740326,229.828649,-148.041188,9622.677246
3760.740640,0.000000,-148.041188,10066.800811
3760.740955,153.219100,-0.000000,9548.656652
3760.741269,689.485948,444.123565,9178.553681
3760.741583,689.485948,888.247130,9178.553681
3760.741898,919.314598,1184.329507,9326.594869
3760.742212,842.705048,1110.308913,8882.471304
3760.742527,383.047749,814.226536,9030.512492
3760.742841,229.828649,-0.000000,9400.615463
3760.743156,-383.047749,-0.000000,9548.656652
3760.743470,-842.705048,-962.267725,10214.842000
3760.743785,-995.924147,-148.041188,10510.924376
3760.744099,-1378.971896,-0.000000,10288.862594
3760.744414,-1149.143247,740.205942,9696.697840
3760.744728,-459.657299,444.123565,9770.718434
3760.745042,229.828649,962.267725,9844.739029
3760.745357,-306.438199,1036.288319,10066.800811
3760.745671,766.095498,1702.473667,9474.636058
3760.745986,1378.971896,1110.308913,9474.636058
3760.746300,1302.362347,1554.432478,9548.656652
3760.746615,919.314598,2072.576638,9104.533087
3760.746929,842.705048,1554.432478,9104.533087
3760.747244,383.047749,814.226536,9252.574275
3760.747558,153.219100,370.102971,9474.636058
3760.747873,-229.828649,-222.061783,9918.759623
3760.748187,-306.438199,-370.102971,10362.883188
3760.748501,-766.095498,-814.226536,10584.944971
3760.748816,-842.705048,-74.020594,9918.759623
3760.749130,-766.095498,-0.000000,10288.862594
3760.749445,-153.219100,-0.000000,10066.800811
3760.749759,306.438199,740.205942,9770.718434
3760.750074,842.705048,888.247130,9844.739029
3760.750388,1455.581446,1332.370696,9474.636058
3760.750703,1762.019645,1258.350101,9548.656652
3760.751017,1915.238745,1258.350101,9178.553681
3760.751332,1838.629195,1184.329507,9104.533087
3760.751646,1149.143247,888.247130,9474.636058
3760.751960,1072.533697,-0.000000,9178.553681
3760.752275,459.657299,-222.061783,9770.718434
3760.752589,0.000000,-740.205942,10066.800811
3760.752904,0.000000,-1776.494261,10584.944971
3760.753218,-612.876398,-1258.350101,10362.883188
3760.753533,-766.095498,-888.247130,9844.739029
3760.753847,-689.485948,-444.123565,10140.821405
3760.754162,76.609550,-74.020594,9918.759623
3760.754476,229.828649,-74.020594,9770.718434
3760.754790,459.657299,-444.123565,9252.574275
3760.755105,995.924147,-296.082377,9548.656652
3760.755419,1302.362347,370.102971,9622.677246
3760.755734,1072.533697,666.185348,9252.574275
3760.756048,612.876398,962.267725,9178.553681
3760.756363,153.219100,222.061783,8734.430116
3760.756677,0.000000,-0.000000,8882.471304
3760.756992,-229.828649,-370.102971,9696.697840
3760.757306,-1072.533697,-1036.288319,9622.677246
3760.757621,-1455.581446,-1406.391290,9918.759623
3760.757935,-919.314598,-1480.411884,9622.677246
3760.758249,-1225.752797,-962.267725,9400.615463
3760.758564,-1302.362347,-148.041188,9104.533087
3760.758878,-536.266849,-814.226536,9548.656652
3760.759193,0.000000,-0.000000,9400.615463
3760.759507,153.219100,-148.041188,9030.512492
3760.759822,459.657299,-0.000000,8882.471304
3760.760136,842.705048,296.082377,8660.409521
3760.760451,1072.533697,740.205942,8512.368333
3760.760765,766.095498,1036.288319,8660.409521
3760.761080,0.000000,592.164754,9178.553681
3760.761394,153.219100,-0.000000,9326.594869
3760.761708,0.000000,-74.020594,9474.636058
3760.762023,-536.266849,-592.164754,10066.800811
3760.762337,153.219100,-888.247130,10362.883188
3760.762652,-229.828649,-1110.308913,10140.821405
3760.762966,-536.266849,-296.082377,9992.780217
3760.763281,-536.266849,370.102971,9104.533087
3760.763595,0.000000,-0.000000,9326.594869
3760.763910,459.657299,296.082377,9326.594869
3760.764224,459.657299,518.144159,9474.636058
3760.764539,689.485948,888.247130,9104.533087
3760.764853,1149.143247,518.144159,9696.697840
3760.765167,766.095498,740.205942,9844.739029
3760.765482,689.485948,888.247130,9548.656652
3760.765796,229.828649,1036.288319,9400.615463
3760.766111,0.000000,1110.308913,10140.821405
3760.766425,0.000000,666.185348,10362.883188
3760.766740,-383.047749,-0.000000,10658.965565
3760.767054,-306.438199,-74.020594,10658.965565
3760.767369,-306.438199,296.082377,10140.821405
3760.767683,-383.047749,592.164754,10214.842000
3760.767998,76.609550,666.185348,9622.677246
3760.768312,76.609550,518.144159,9770.718434
3760.768626,459.657299,814.226536,9918.759623
3760.768941,459.657299,814.226536,9696.697840
3760.769255,536.266849,1110.308913,9622.677246
3760.769570,766.095498,1110.308913,9548.656652
3760.769884,842.705048,888.247130,9696.697840
3760.770199,612.876398,444.123565,8956.491898
3760.770513,229.828649,1110.308913,9326.594869
3760.770828,383.047749,518.144159,9844.739029
3760.771142,0.000000,-74.020594,10140.821405
3760.771456,0.000000,-74.020594,10066.800811
3760.771771,-383.047749,-148.041188,9992.780217
3760.772085,0.000000,-0.000000,9918.759623
3760.772400,0.000000,222.061783,9548.656652
3760.772714,0.000000,-0.000000,9326.594869
3760.773029,995.924147,-0.000000,9326.594869
3760.773343,229.828649,370.102971,9474.636058
3760.773658,0.000000,296.082377,9992.780217
3760.773972,306.438199,-222.061783,10214.842000
3760.774287,842.705048,-0.000000,9622.677246
3760.774601,229.828649,740.205942,9918.759623
3760.774915,383.047749,1036.288319,9326.594869
3760.775230,0.000000,370.102971,8734.430116
3760.775544,612.876398,-0.000000,9030.512492
3760.775859,76.609550,-518.144159,9770.718434
3760.776173,0.000000,-370.102971,9844.739029
3760.776488,-306.438199,-740.205942,9696.697840
3760.776802,-689.485948,-1036.288319,9696.697840
3760.777117,-766.095498,-518.144159,9918.759623
3760.777431,-536.266849,-370.102971,8734.430116
3760.777746,-153.219100,-296.082377,9178.553681
3760.778060,76.609550,-0.000000,9400.615463
3760.778374,0.000000,-222.061783,9030.512492
3760.778689,229.828649,222.061783,8808.450710
3760.779003,306.438199,-0.000000,9326.594869
3760.779318,383.047749,-0.000000,9030.512492
3760.779632,459.657299,740.205942,8956.491898
3760.779947,229.828649,-74.020594,8734.430116
3760.780261,153.219100,-222.061783,9548.656652
3760.780576,-229.828649,-518.144159,9918.759623
3760.780890,-383.047749,-592.164754,9918.759623
3760.781205,-306.438199,-888.247130,10288.862594
3760.781519,-536.266849,-814.226536,10140.821405
3760.781833,-229.828649,-296.082377,9770.718434
3760.782148,0.000000,-0.000000,9252.574275
3760.782462,383.047749,-0.000000,9326.594869
3760.782777,383.047749,-74.020594,9400.615463
3760.783091,459.657299,148.041188,9400.615463
3760.783406,536.266849,222.061783,9474.636058
3760.783720,612.876398,-0.000000,9548.656652
3760.784035,229.828649,518.144159,9400.615463
3760.784349,612.876398,666.185348,8956.491898
3760.784664,766.095498,370.102971,9326.594869
3760.784978,229.828649,-0.000000,10066.800811
3760.785292,0.000000,-370.102971,10362.883188
3760.785607,-383.047749,-370.102971,10955.047942
3760.785921,-229.828649,-148.041188,10658.965565
3760.786236,0.000000,444.123565,10288.862594
3760.786550,0.000000,592.164754,10584.944971
3760.786865,76.609550,444.123565,9844.739029
3760.787179,76.609550,-148.041188,9622.677246
3760.787494,306.438199,370.102971,9548.656652
3760.787808,153.219100,1036.288319,9844.739029
3760.788123,229.828649,592.164754,9474.636058
3760.788437,383.047749,296.082377,9104.533087
3760.788751,689.485948,370.102971,9918.759623
3760.789066,0.000000,592.164754,8956.491898
3760.789380,-383.047749,592.164754,9474.636058
3760.789695,-306.438199,666.185348,9548.656652
3760.790009,-536.266849,296.082377,9696.697840
3760.790324,-306.438199,-0.000000,9992.780217
3760.790638,-383.047749,-74.020594,10140.821405
3760.790953,-383.047749,-0.000000,10362.883188
3760.791267,-306.438199,962.267725,9844.739029
3760.791581,0.000000,740.205942,9548.656652
3760.791896,306.438199,1184.329507,9622.677246
3760.792210,919.314598,1184.329507,9326.594869
3760.792525,689.485948,1184.329507,8808.450710
3760.792839,612.876398,592.164754,8808.450710
3760.793154,689.485948,444.123565,9104.533087
3760.793468,229.828649,222.061783,9178.553681
3760.793783,76.609550,444.123565,8512.368333
3760.794097,-383.047749,-222.061783,9474.636058
3760.794412,-459.657299,-814.226536,9844.739029
3760.794726,-612.876398,-1110.308913,10362.883188
3760.795040,-995.924147,-370.102971,10214.842000
3760.795355,-842.705048,-814.226536,10436.903782
3760.795669,-612.876398,-444.123565,10510.924376
3760.795984,-459.657299,148.041188,9992.780217
3760.796298,229.828649,370.102971,9622.677246
3760.796613,842.705048,592.164754,9696.697840
3760.796927,919.314598,666.185348,9326.594869
3760.797242,995.924147,888.247130,9474.636058
3760.797556,766.095498,592.164754,9474.636058
3760.797871,919.314598,222.061783,9548.656652
3760.798185,536.266849,444.123565,9252.574275
3760.798499,-76.609550,370.102971,9474.636058
3760.798814,-383.047749,-0.000000,9844.739029
3760.799128,-612.876398,-740.205942,9992.780217
3760.799443,-306.438199,-814.226536,10066.800811
3760.799757,-459.657299,-962.267725,9696.697840
3760.800072,-229.828649,-1036.288319,9622.677246
3760.800386,229.828649,-666.185348,9696.697840
3760.800701,1072.533697,592.164754,8956.491898
3760.801015,536.266849,666.185348,8734.430116
3760.801330,995.924147,740.205942,8586.388927
3760.801644,1149.143247,296.082377,9030.512492
3760.801958,1072.533697,740.205942,8808.450710
3760.802273,995.924147,296.082377,9252.574275
3760.802587,766.095498,370.102971,9474.636058
3760.802902,306.438199,-0.000000,9770.718434
3760.803216,0.000000,518.144159,9400.615463
3760.803531,-459.657299,-74.020594,9474.636058
3760.803845,-306.438199,-370.102971,9918.759623
3760.804160,-459.657299,-814.226536,10066.800811
3760.804474,-306.438199,-518.144159,9622.677246
3760.804789,-153.219100,-592.164754,9696.697840
3760.805103,76.609550,-222.061783,10362.883188
3760.805417,459.657299,222.061783,9178.553681
3760.805732,459.657299,962.267725,8660.409521
3760.806046,919.314598,888.247130,9326.594869
3760.806361,766.095498,296.082377,9400.615463
3760.806675,842.705048,444.123565,9696.697840
3760.806990,612.876398,-74.020594,9844.739029
3760.807304,0.000000,-0.000000,10066.800811
3760.807619,-229.828649,222.061783,10214.842000
3760.807933,-459.657299,222.061783,10066.800811
3760.808247,-383.047749,-0.000000,10658.965565
3760.808562,-153.219100,-0.000000,10362.883188
3760.808876,-612.876398,-0.000000,10510.924376
3760.809191,-306.438199,-0.000000,10362.883188
3760.809505,0.000000,-0.000000,10510.924376
3760.809820,0.000000,-0.000000,10288.862594
3760.810134,0.000000,296.082377,9474.636058
3760.810449,229.828649,740.205942,9030.512492
3760.810763,689.485948,592.164754,9252.574275
3760.811078,229.828649,740.205942,9252.574275
3760.811392,0.000000,444.123565,9474.636058
3760.811706,76.609550,-0.000000,9326.594869
3760.812021,0.000000,-0.000000,9326.594869
3760.812335,-383.047749,-0.000000,9696.697840
3760.812650,-766.095498,222.061783,9400.615463
3760.812964,-766.095498,-0.000000,9104.533087
3760.813279,-842.705048,-148.041188,9400.615463
3760.813593,-766.095498,-74.020594,9696.697840
3760.813908,-536.266849,-0.000000,9622.677246
3760.814222,-383.047749,-0.000000,9918.759623
3760.814537,-459.657299,888.247130,9474.636058
3760.814851,0.000000,1110.308913,9326.594869
3760.815165,459.657299,1110.308913,9104.533087
3760.815480,229.828649,666.185348,8882.471304
3760.815794,76.609550,-0.000000,9252.574275
3760.816109,229.828649,-222.061783,9326.594869
3760.816423,0.000000,222.061783,9252.574275
3760.816738,383.047749,444.123565,9548.656652
3760.817052,76.609550,222.061783,9696.697840
3760.817367,-306.438199,444.123565,9474.636058
3760.817681,0.000000,-370.102971,8882.471304
3760.817996,383.047749,-740.205942,8956.491898
3760.818310,229.828649,-222.061783,10584.944971
3760.818624,536.266849,-0.000000,9918.759623
3760.818939,766.095498,-222.061783,9844.739029
3760.819253,995.924147,-148.041188,10214.842000
3760.819568,383.047749,740.205942,9622.677246
3760.819882,1072.533697,814.226536,9474.636058
3760.820197,1302.362347,592.164754,9844.739029
3760.820511,995.924147,296.082377,10214.842000
3760.820826,1072.533697,222.061783,9548.656652
3760.821140,383.047749,370.102971,9474.636058
3760.821455,689.485948,-0.000000,10066.800811
3760.821769,459.657299,-0.000000,9844.739029
3760.822083,306.438199,-0.000000,9326.594869
3760.822398,383.047749,-592.164754,9326.594869
3760.822712,0.000000,-592.164754,9548.656652
3760.823027,-153.219100,-740.205942,9992.780217
3760.823341,-766.095498,-518.144159,9918.759623
3760.823656,-383.047749,-666.185348,10140.821405
3760.823970,-229.828649,-592.164754,10288.862594
3760.824285,0.000000,296.082377,9030.512492
3760.824599,0.000000,814.226536,9030.512492
3760.824913,612.876398,444.123565,9252.574275
3760.825229,306.438199,296.082377,9474.636058
3760.825544,842.705048,74.020594,9400.615463
3760.825858,766.095498,-0.000000,9474.636058
3760.826173,383.047749,-0.000000,9252.574275
3760.826487,153.219100,222.061783,9030.512492
3760.826802,0.000000,148.041188,9104.533087
3760.827116,-766.095498,-370.102971,8734.430116
3760.827431,-459.657299,-518.144159,9474.636058
3760.827746,-306.438199,-296.082377,9770.718434
3760.828060,-306.438199,-370.102971,9622.677246
3760.828375,0.000000,-740.205942,9918.759623
3760.828689,229.828649,-740.205942,9400.615463
3760.829004,0.000000,370.102971,9548.656652
3760.829318,0.000000,740.205942,9474.636058
3760.829633,536.266849,740.205942,9474.636058
3760.829947,689.485948,888.247130,9474.636058
3760.830262,1072.533697,444.123565,9104.533087
3760.830576,995.924147,222.061783,9400.615463
3760.830891,612.876398,74.020594,9918.759623
3760.831205,0.000000,370.102971,9622.677246
3760.831520,-612.876398,666.185348,9030.512492
3760.831834,-536.266849,148.041188,9622.677246
3760.832149,-76.609550,-296.082377,9474.636058
3760.832464,-766.095498,-740.205942,10362.883188
3760.832778,-1149.143247,-666.185348,10658.965565
3760.833093,-1225.752797,-518.144159,10436.903782
3760.833407,-1072.533697,-148.041188,10881.027347
3760.833722,-919.314598,1036.288319,9918.759623
3760.834036,153.219100,296.082377,9400.615463
3760.834351,612.876398,814.226536,9178.553681
3760.834665,919.314598,1406.391290,9696.697840
3760.834980,842.705048,962.267725,9474.636058
3760.835294,842.705048,888.247130,8734.430116
3760.835609,842.705048,1036.288319,9252.574275
3760.835923,612.876398,592.164754,8956.491898
3760.836238,459.657299,296.082377,8956.491898
3760.836552,0.000000,-148.041188,9178.553681
3760.836867,-612.876398,-0.000000,9696.697840
3760.837182,-919.314598,-148.041188,9770.718434
3760.837496,-612.876398,-518.144159,9992.780217
3760.837811,-612.876398,-148.041188,10288.862594
3760.838125,0.000000,-0.000000,9918.759623
3760.838440,153.219100,740.205942,9844.739029
3760.838754,536.266849,1406.391290,9104.533087
3760.839069,919.314598,1480.411884,9474.636058
3760.839383,1608.800546,1332.370696,9178.553681
3760.839698,1838.629195,1036.288319,9178.553681
3760.840012,1608.800546,666.185348,9326.594869
3760.840327,1302.362347,370.102971,9992.780217
3760.840641,536.266849,962.267725,9548.656652
3760.840956,459.657299,222.061783,9400.615463
3760.841271,0.000000,-74.020594,9474.636058
3760.841585,-306.438199,-814.226536,10288.862594
3760.841900,-383.047749,-740.205942,10288.862594
3760.842214,-459.657299,-962.267725,9992.780217
3760.842529,-536.266849,-444.123565,9770.718434
3760.842843,-153.219100,-148.041188,9918.759623
3760.843158,0.000000,740.205942,10214.842000
3760.843472,383.047749,370.102971,9770.718434
3760.843787,536.266849,666.185348,9548.656652
3760.844101,842.705048,666.185348,9696.697840
3760.844416,766.095498,814.226536,9548.656652
3760.844730,995.924147,814.226536,10214.842000
3760.845045,1149.143247,518.144159,9622.677246
3760.845359,229.828649,444.123565,9474.636058
3760.845674,536.266849,444.123565,9178.553681
3760.845989,459.657299,-222.061783,9178.553681
3760.846303,0.000000,-666.185348,9474.636058
3760.846618,-766.095498,-1036.288319,9844.739029
3760.846932,-919.314598,-1406.391290,9918.759623
3760.847247,-766.095498,-1702.473667,9696.697840
3760.847561,-919.314598,-1036.288319,9474.636058
3760.847876,-536.266849,-444.123565,9918.759623
3760.848190,-383.047749,-148.041188,9178.553681
3760.848505,76.609550,-0.000000,9030.512492
3760.848819,0.000000,148.041188,9992.780217
3760.849134,76.609550,296.082377,9400.615463
3760.849448,536.266849,296.082377,9400.615463
3760.849763,766.095498,296.082377,9400.615463
3760.850077,689.485948,518.144159,9326.594869
3760.850392,0.000000,592.164754,8956.491898
3760.850707,0.000000,-0.000000,9104.533087
3760.851021,-306.438199,-444.123565,9770.718434
3760.851336,-995.924147,-444.123565,9770.718434
3760.851650,-919.314598,-888.247130,9918.759623
3760.851965,-842.705048,-1184.329507,9844.739029
3760.852279,-459.657299,-814.226536,10066.800811
3760.852594,-612.876398,-222.061783,9326.594869
3760.852908,-383.047749,-0.000000,9030.512492
3760.853223,459.657299,740.205942,9474.636058
3760.853537,919.314598,666.185348,9326.594869
3760.853852,919.314598,592.164754,9326.594869
3760.854166,1072.533697,666.185348,9326.594869
3760.854481,919.314598,-74.020594,9474.636058
3760.854795,536.266849,666.185348,9474.636058
3760.855110,306.438199,962.267725,9326.594869
3760.855425,689.485948,444.123565,9770.718434
3760.855739,383.047749,-148.041188,9918.759623
3760.856054,76.609550,-148.041188,10066.800811
3760.856368,-229.828649,-370.102971,9992.780217
3760.856683,-536.266849,-222.061783,10140.821405
3760.856997,0.000000,-74.020594,10214.842000
3760.857312,0.000000,296.082377,9844.739029
3760.857626,536.266849,444.123565,9030.512492
3760.857941,536.266849,222.061783,9178.553681
3760.858255,689.485948,740.205942,9622.677246
3760.858570,1149.143247,666.185348,9770.718434
3760.858884,995.924147,888.247130,9474.636058
3760.859199,1838.629195,666.185348,9696.697840
3760.859514,1072.533697,1184.329507,9252.574275
3760.859828,842.705048,1406.391290,8734.430116
3760.860143,612.876398,962.267725,9104.533087
3760.860457,153.219100,370.102971,9770.718434
3760.860772,-459.657299,296.082377,9770.718434
3760.861086,-689.485948,-148.041188,9622.677246
3760.861401,-689.485948,-370.102971,10066.800811
3760.861715,-766.095498,-148.041188,10510.924376
3760.862030,-919.314598,592.164754,10066.800811
3760.862344,-689.485948,888.247130,10510.924376
3760.862659,0.000000,740.205942,10362.883188
3760.862973,229.828649,962.267725,9770.718434
3760.863288,459.657299,1628.453072,9400.615463
3760.863602,229.828649,1258.350101,10066.800811
3760.863917,919.314598,1258.350101,10140.821405
3760.864232,919.314598,1036.288319,9252.574275
3760.864546,766.095498,962.267725,8882.471304
3760.864861,383.047749,518.144159,9178.553681
3760.865175,383.047749,-296.082377,9548.656652
3760.865490,-306.438199,-74.020594,9918.759623
3760.865804,-842.705048,-444.123565,9696.697840
3760.866119,-766.095498,-1036.288319,10436.903782
3760.866433,-995.924147,-888.247130,10584.944971
3760.866748,-1072.533697,-370.102971,9548.656652
3760.867062,-689.485948,-148.041188,9548.656652
3760.867377,0.000000,-148.041188,9622.677246
3760.867691,0.000000,296.082377,9770.718434
3760.868006,1072.533697,518.144159,9770.718434
3760.868320,919.314598,518.144159,9104.533087
3760.868635,995.924147,814.226536,8956.491898
3760.868950,995.924147,814.226536,8512.368333
3760.869264,689.485948,444.123565,8734.430116
3760.869579,383.047749,-0.000000,8660.409521
3760.869893,0.000000,-666.185348,9548.656652
3760.870208,-766.095498,-1184.329507,9474.636058
3760.870522,-995.924147,-1480.411884,10066.800811
3760.870837,-842.705048,-1406.391290,10584.944971
3760.871151,-229.828649,-1258.350101,10510.924376
3760.871466,-766.095498,-814.226536,9548.656652
3760.871780,-536.266849,-444.123565,9104.533087
3760.872095,0.000000,-74.020594,8882.471304
3760.872409,919.314598,-370.102971,9104.533087
3760.872724,995.924147,-0.000000,9622.677246
3760.873039,689.485948,-0.000000,9104.533087
3760.873353,766.095498,-0.000000,8734.430116
3760.873668,995.924147,518.144159,9474.636058
3760.873982,766.095498,814.226536,9104.533087
3760.874297,383.047749,518.144159,9474.636058
3760.874611,0.000000,-222.061783,9548.656652
3760.874926,-459.657299,-814.226536,9992.780217
3760.875240,-612.876398,-888.247130,10436.903782
3760.875555,-689.485948,-1110.308913,10436.903782
3760.875869,-383.047749,-666.185348,10140.821405
3760.876184,-306.438199,-148.041188,9770.718434
3760.876498,0.000000,-296.082377,9326.594869
3760.876813,536.266849,-0.000000,9326.594869
3760.877127,689.485948,296.082377,9326.594869
3760.877442,459.657299,1184.329507,9474.636058
3760.877757,689.485948,1036.288319,8734.430116
3760.878071,536.266849,962.267725,9474.636058
3760.878386,383.047749,962.267725,9178.553681
3760.878700,306.438199,518.144159,9252.574275
3760.879015,229.828649,370.102971,9918.759623
3760.879329,229.828649,222.061783,10362.883188
3760.879644,0.000000,148.041188,10288.862594
3760.879958,-153.219100,-0.000000,10362.883188
3760.880273,-689.485948,-0.000000,10436.903782
3760.880587,-536.266849,-148.041188,9770.718434
3760.880902,-612.876398,666.185348,9548.656652
3760.881216,-229.828649,740.205942,9622.677246
3760.881531,76.609550,518.144159,9400.615463
3760.881845,229.828649,296.082377,9474.636058
3760.882160,306.438199,666.185348,9622.677246
3760.882475,459.657299,592.164754,9696.697840
3760.882789,383.047749,888.247130,9992.780217
3760.883104,229.828649,1036.288319,9548.656652
3760.883418,153.219100,888.247130,9622.677246
3760.883733,383.047749,962.267725,9252.574275
3760.884047,0.000000,74.020594,9548.656652
3760.884362,0.000000,222.061783,9770.718434
3760.884676,-383.047749,-0.000000,10288.862594
3760.884991,-689.485948,-148.041188,10658.965565
3760.885305,-459.657299,-0.000000,9770.718434
3760.885620,-306.438199,814.226536,9252.574275
3760.885934,76.609550,592.164754,9326.594869
3760.886249,229.828649,370.102971,9474.636058
3760.886563,-153.219100,518.144159,9918.759623
3760.886878,-383.047749,518.144159,10066.800811
3760.887193,0.000000,296.082377,9696.697840
3760.887507,153.219100,370.102971,9548.656652
3760.887822,383.047749,1036.288319,9622.677246
3760.888136,76.609550,592.164754,10140.821405
3760.888451,0.000000,222.061783,9474.636058
3760.888765,0.000000,296.082377,9770.718434
3760.889080,-306.438199,666.185348,9696.697840
3760.889394,0.000000,-0.000000,9400.615463
3760.889709,459.657299,-222.061783,9400.615463
3760.890023,689.485948,-0.000000,9400.615463
3760.890338,383.047749,-0.000000,9178.553681
3760.890652,0.000000,-0.000000,9030.512492
3760.890967,306.438199,-444.123565,9474.636058
3760.891282,459.657299,-222.061783,9474.636058
3760.891596,229.828649,-222.061783,9918.759623
3760.891911,153.219100,-444.123565,9696.697840
3760.892225,306.438199,-222.061783,9918.759623
3760.892540,76.609550,370.102971,9770.718434
3760.892854,842.705048,592.164754,9178.553681
3760.893169,1072.533697,370.102971,9400.615463
3760.893483,766.095498,-74.020594,9622.677246
3760.893798,536.266849,-0.000000,9548.656652
3760.894112,536.266849,-148.041188,9622.677246
3760.894427,459.657299,-444.123565,10214.842000
3760.894741,612.876398,-370.102971,9844.739029
3760.895056,229.828649,-0.000000,9252.574275
3760.895370,229.828649,-0.000000,9104.533087
3760.895685,689.485948,-666.185348,9696.697840
3760.896000,153.219100,-888.247130,9844.739029
3760.896314,-459.657299,-666.185348,9696.697840
3760.896629,0.000000,-296.082377,9918.759623
3760.896943,-306.438199,-222.061783,9770.718434
3760.897258,-229.828649,-0.000000,9622.677246
3760.897572,153.219100,-0.000000,9400.615463
3760.897887,0.000000,222.061783,9178.553681
3760.898201,306.438199,-0.000000,9622.677246
3760.898516,0.000000,296.082377,9918.759623
3760.898830,-306.438199,-444.123565,9844.739029
3760.899145,306.438199,-148.041188,9770.718434
3760.899459,0.000000,-148.041188,9622.677246
3760.899774,-306.438199,-0.000000,9622.677246
3760.900088,-153.219100,-148.041188,9474.636058
3760.900403,-459.657299,-74.020594,9918.759623
3760.900718,-153.219100,-740.205942,9918.759623
3760.901032,0.000000,-444.123565,9770.718434
3760.901347,0.000000,-148.041188,9548.656652
3760.901661,0.000000,148.041188,9474.636058
3760.901976,0.000000,296.082377,9252.574275
3760.902290,-612.876398,592.164754,9252.574275
3760.902605,-383.047749,-0.000000,9400.615463
3760.902919,76.609550,370.102971,9992.780217
3760.903234,0.000000,518.144159,9844.739029
3760.903548,229.828649,-0.000000,9696.697840
3760.903863,76.609550,-148.041188,10362.883188
3760.904177,-306.438199,370.102971,9696.697840
3760.904492,0.000000,888.247130,9400.615463
3760.904807,459.657299,666.185348,9474.636058
3760.905121,229.828649,666.185348,9030.512492
3760.905436,459.657299,518.144159,9326.594869
3760.905750,229.828649,148.041188,8956.491898
3760.906065,306.438199,-296.082377,9474.636058
3760.906379,383.047749,-370.102971,9474.636058
3760.906694,0.000000,-0.000000,9400.615463
3760.907008,0.000000,592.164754,9030.512492
3760.907323,306.438199,148.041188,8956.491898
3760.907637,229.828649,296.082377,9474.636058
3760.907952,0.000000,296.082377,9844.739029
3760.908266,0.000000,-0.000000,9622.677246
3760.908581,689.485948,296.082377,9844.739029
3760.908895,383.047749,1036.288319,9474.636058
3760.909210,383.047749,1184.329507,9400.615463
3760.909525,229.828649,814.226536,9474.636058
3760.909839,766.095498,740.205942,9178.553681
3760.910154,766.095498,370.102971,9696.697840
3760.910468,766.095498,740.205942,9474.636058
3760.910783,1072.533697,592.164754,9548.656652
3760.911097,536.266849,444.123565,9696.697840
3760.911412,229.828649,814.226536,9622.677246
3760.911726,76.609550,740.205942,9474.636058
3760.912041,153.219100,296.082377,9622.677246
3760.912355,153.219100,222.061783,10214.842000
3760.912670,-153.219100,-0.000000,10140.821405
3760.912984,153.219100,-222.061783,9992.780217
3760.913299,536.266849,-0.000000,9918.759623
3760.913613,612.876398,740.205942,10214.842000
3760.913928,689.485948,1332.370696,9622.677246
3760.914243,689.485948,1258.350101,9178.553681
3760.914557,1149.143247,1332.370696,9770.718434
3760.914872,919.314598,1332.370696,9326.594869
3760.915186,842.705048,666.185348,9030.512492
3760.915501,689.485948,-0.000000,10140.821405
3760.915815,306.438199,-0.000000,9622.677246
3760.916130,0.000000,-74.020594,10066.800811
3760.916444,-842.705048,-0.000000,9474.636058
3760.916759,-612.876398,-592.164754,9696.697840
3760.917073,-689.485948,-148.041188,10214.842000
3760.917388,-536.266849,-518.144159,9622.677246
3760.917702,-612.876398,-222.061783,9844.739029
3760.918017,-459.657299,-518.144159,9918.759623
3760.918331,-306.438199,-74.020594,9622.677246
3760.918646,0.000000,592.164754,9178.553681
3760.918961,153.219100,222.061783,9178.553681
3760.919275,153.219100,222.061783,8956.491898
3760.919590,306.438199,-222.061783,9030.512492
3760.919904,536.266849,-444.123565,9178.553681
3760.920219,-229.828649,-74.020594,9104.533087
3760.920533,0.000000,-222.061783,9252.574275
3760.920848,-766.095498,-444.123565,9252.574275
3760.921162,-842.705048,-444.123565,9326.594869
3760.921477,-383.047749,-1110.308913,9696.697840
3760.921791,-919.314598,-1332.370696,9770.718434
3760.922106,-612.876398,-1406.391290,9844.739029
3760.922420,-383.047749,-740.205942,9474.636058
3760.922735,76.609550,-296.082377,10066.800811
3760.923050,306.438199,-0.000000,9474.636058
3760.923364,383.047749,444.123565,8734.430116
3760.923679,766.095498,740.205942,8734.430116
3760.923994,1225.752797,592.164754,8438.347739
3760.924308,1225.752797,-0.000000,8956.491898
3760.924623,459.657299,222.061783,9548.656652
3760.924938,612.876398,-0.000000,9696.697840
3760.925252,0.000000,-666.185348,9918.759623
3760.925567,0.000000,-518.144159,9696.697840
3760.925881,-383.047749,-0.000000,9400.615463
3760.926196,-689.485948,-370.102971,10214.842000
3760.926511,-995.924147,-518.144159,10214.842000
3760.926825,-383.047749,-370.102971,10066.800811
3760.927140,-383.047749,-444.123565,9918.759623
3760.927455,459.657299,-444.123565,9992.780217
3760.927769,383.047749,-74.020594,9992.780217
3760.928084,689.485948,1554.432478,8438.347739
3760.928398,1225.752797,1258.350101,8882.471304
3760.928713,1455.581446,740.205942,9104.533087
3760.929028,1455.581446,888.247130,9178.553681
3760.929342,1072.533697,370.102971,9474.636058
3760.929657,459.657299,-0.000000,9474.636058
3760.929972,383.047749,-148.041188,9696.697840
3760.930286,0.000000,-0.000000,9770.718434
3760.930601,-689.485948,-0.000000,9326.594869
3760.930916,-383.047749,-592.164754,9992.780217
3760.931230,-536.266849,-296.082377,9696.697840
3760.931545,-612.876398,-0.000000,9992.780217
3760.931859,-306.438199,370.102971,9622.677246
3760.932174,0.000000,444.123565,9622.677246
3760.932489,536.266849,962.267725,9326.594869
3760.932803,229.828649,1332.370696,9326.594869
3760.933118,536.266849,1184.329507,9178.553681
3760.933433,842.705048,1258.350101,9548.656652
3760.933747,306.438199,1036.288319,10510.924376
3760.934062,0.000000,740.205942,10362.883188
3760.934376,76.609550,962.267725,9918.759623
3760.934691,0.000000,222.061783,9622.677246
3760.935006,76.609550,518.144159,9696.697840
3760.935320,-153.219100,370.102971,9178.553681
3760.935635,-229.828649,370.102971,9252.574275
3760.935950,-306.438199,-222.061783,9918.759623
3760.936264,-306.438199,370.102971,9770.718434
3760.936579,-229.828649,444.123565,9548.656652
3760.936894,0.000000,-0.000000,10214.842000
3760.937208,-153.219100,296.082377,10436.903782
3760.937523,0.000000,814.226536,9474.636058
3760.937837,229.828649,1110.308913,9178.553681
3760.938152,459.657299,592.164754,9622.677246
3760.938467,919.314598,740.205942,9918.759623
3760.938781,459.657299,592.164754,9548.656652
3760.939096,459.657299,592.164754,9400.615463
3760.939411,536.266849,296.082377,9548.656652
3760.939725,0.000000,444.123565,9252.574275
3760.940040,-306.438199,370.102971,8956.491898
3760.940355,0.000000,-222.061783,9548.656652
3760.940669,-459.657299,-1184.329507,9844.739029
3760.940984,-459.657299,-1480.411884,9770.718434
3760.941298,-459.657299,-1110.308913,10214.842000
3760.941613,-229.828649,-666.185348,9918.759623
3760.941928,-536.266849,-0.000000,9918.759623
3760.942242,0.000000,296.082377,8956.491898
3760.942557,459.657299,-0.000000,9252.574275
3760.942872,1149.143247,-148.041188,8586.388927
3760.943186,1072.533697,-370.102971,9696.697840
3760.943501,689.485948,148.041188,9252.574275
3760.943815,766.095498,-0.000000,9326.594869
3760.944130,766.095498,296.082377,9474.636058
3760.944445,229.828649,-0.000000,9104.533087
3760.944759,0.000000,-370.102971,9252.574275
3760.945074,0.000000,-888.247130,9548.656652
3760.945389,-306.438199,-1036.288319,9622.677246
3760.945703,-766.095498,-740.205942,9918.759623
3760.946018,-766.095498,-666.185348,10214.842000
3760.946333,0.000000,-1332.370696,10436.903782
3760.946647,-153.219100,-666.185348,10288.862594
3760.946962,153.219100,-74.020594,9252.574275
3760.947276,842.705048,-0.000000,9622.677246
3760.947591,842.705048,666.185348,9622.677246
3760.947906,1302.362347,518.144159,9326.594869
3760.948220,689.485948,666.185348,9104.533087
3760.948535,995.924147,148.041188,9104.533087
3760.948850,919.314598,-0.000000,9030.512492
3760.949164,459.657299,518.144159,8882.471304
3760.949479,0.000000,444.123565,9104.533087
3760.949793,-76.609550,-148.041188,9548.656652
3760.950108,-612.876398,-518.144159,9992.780217
3760.950423,-689.485948,-1184.329507,10288.862594
3760.950737,-766.095498,-1258.350101,10584.944971
3760.951052,0.000000,-814.226536,10881.027347
3760.951367,-842.705048,-0.000000,10066.800811
3760.951681,-536.266849,814.226536,9252.574275
3760.951996,306.438199,1110.308913,8808.450710
3760.952311,842.705048,962.267725,9252.574275
3760.952625,1149.143247,1554.432478,8808.450710
3760.952940,1149.143247,1258.350101,8364.327145
3760.953254,919.314598,1332.370696,8438.347739
3760.953569,306.438199,1036.288319,9030.512492
3760.953884,-383.047749,592.164754,9474.636058
3760.954198,-229.828649,-0.000000,9622.677246
3760.954513,-995.924147,-370.102971,9992.780217
3760.954828,-1608.800546,-592.164754,10807.006753
3760.955142,-1762.019645,-370.102971,10584.944971
3760.955457,-1608.800546,-592.164754,10658.965565
3760.955772,-1378.971896,-222.061783,10881.027347
3760.956086,-766.095498,518.144159,10732.986159
3760.956401,0.000000,1110.308913,9696.697840
3760.956715,612.876398,1924.535449,9844.739029
3760.957030,1378.971896,2294.638420,9474.636058
3760.957345,1685.410096,2220.617826,9030.512492
3760.957659,1455.581446,2220.617826,8586.388927
3760.957974,1762.019645,1332.370696,9474.636058
3760.958289,1149.143247,666.185348,10140.821405
3760.958603,383.047749,370.102971,9844.739029
3760.958918,0.000000,-74.020594,9400.615463
3760.959232,-383.047749,-444.123565,10140.821405
3760.959547,-919.314598,-592.164754,10288.862594
3760.959862,-689.485948,-740.205942,10436.903782
3760.960176,-995.924147,-888.247130,10140.821405
3760.960491,-383.047749,-0.000000,9992.780217
3760.960806,0.000000,592.164754,9770.718434
3760.961120,459.657299,1110.308913,9474.636058
3760.961435,919.314598,1258.350101,9252.574275
3760.961750,1378.971896,1184.329507,9474.636058
3760.962064,1685.410096,962.267725,9844.739029
3760.962379,1608.800546,888.247130,9696.697840
3760.962693,1225.752797,592.164754,9474.636058
3760.963008,995.924147,740.205942,9548.656652
3760.963323,459.657299,74.020594,9400.615463
3760.963637,0.000000,-0.000000,8956.491898
3760.963952,76.609550,-814.226536,9474.636058
3760.964267,-536.266849,-1406.391290,9178.553681
3760.964581,-459.657299,-1628.453072,9548.656652
3760.964896,-306.438199,-1258.350101,9474.636058
3760.965210,0.000000,-1258.350101,9178.553681
3760.965525,0.000000,-962.267725,9474.636058
3760.965840,536.266849,-0.000000,8660.409521
3760.966154,689.485948,222.061783,8734.430116
3760.966469,842.705048,444.123565,9474.636058
3760.966784,842.705048,-0.000000,9252.574275
3760.967098,612.876398,296.082377,9178.553681
3760.967413,689.485948,-148.041188,9474.636058
3760.967728,536.266849,-0.000000,10066.800811
3760.968042,0.000000,-296.082377,9400.615463
3760.968357,0.000000,444.123565,9326.594869
3760.968671,-306.438199,-370.102971,9474.636058
3760.968986,-612.876398,-962.267725,9844.739029
3760.969301,-689.485948,-592.164754,9770.718434
3760.969615,-766.095498,-740.205942,9770.718434
3760.969930,-536.266849,-1036.288319,10288.862594
3760.970245,-383.047749,-592.164754,9992.780217
3760.970559,-229.828649,-222.061783,9474.636058
3760.970874,0.000000,222.061783,9474.636058
3760.971189,306.438199,-0.000000,9622.677246
3760.971503,0.000000,518.144159,9400.615463
3760.971818,0.000000,592.164754,9400.615463
3760.972132,76.609550,-0.000000,9918.759623
3760.972447,0.000000,148.041188,9918.759623
3760.972762,-306.438199,592.164754,9474.636058
3760.973076,-459.657299,518.144159,9622.677246
3760.973391,-459.657299,-0.000000,9696.697840
3760.973706,-383.047749,-0.000000,10140.821405
3760.974020,-612.876398,-296.082377,9696.697840
3760.974335,-536.266849,-666.185348,10066.800811
3760.974649,-689.485948,-518.144159,10214.842000
3760.974964,-459.657299,370.102971,9548.656652
3760.975279,-459.657299,740.205942,9178.553681
3760.975593,0.000000,444.123565,8956.491898
3760.975908,842.705048,-74.020594,9696.697840
3760.976223,306.438199,-0.000000,9696.697840
3760.976537,459.657299,296.082377,9548.656652
3760.976852,459.657299,444.123565,9992.780217
3760.977167,459.657299,740.205942,9400.615463
3760.977481,612.876398,814.226536,9326.594869
3760.977796,383.047749,1110.308913,8882.471304
3760.978110,689.485948,370.102971,9178.553681
3760.978425,536.266849,148.041188,9918.759623
3760.978740,153.219100,148.041188,9696.697840
3760.979054,0.000000,-0.000000,10140.821405
3760.979369,76.609550,222.061783,9918.759623
3760.979684,0.000000,518.144159,10066.800811
3760.979998,0.000000,518.144159,9622.677246
3760.980313,0.000000,-0.000000,9918.759623
3760.980627,536.266849,-0.000000,9844.739029
3760.980942,612.876398,666.185348,9770.718434
3760.981257,1072.533697,1332.370696,9252.574275
3760.981571,766.095498,888.247130,9474.636058
3760.981886,842.705048,962.267725,9326.594869
3760.982201,766.095498,1258.350101,9400.615463
3760.982515,689.485948,1110.308913,9030.512492
3760.982830,919.314598,444.123565,10066.800811
3760.983145,383.047749,-0.000000,9696.697840
3760.983459,0.000000,222.061783,9770.718434
3760.983774,-306.438199,-444.123565,9844.739029
3760.984088,229.828649,-592.164754,10066.800811
3760.984403,0.000000,-0.000000,10288.862594
3760.984718,-229.828649,370.102971,9326.594869
3760.985032,229.828649,296.082377,9474.636058
3760.985347,153.219100,-0.000000,9474.636058
3760.985662,153.219100,148.041188,9548.656652
3760.985976,229.828649,444.123565,9252.574275
3760.986291,383.047749,222.061783,9474.636058
3760.986605,689.485948,-0.000000,9474.636058
3760.986920,459.657299,666.185348,8586.388927
3760.987235,612.876398,1036.288319,8586.388927
3760.987549,229.828649,148.041188,9844.739029
3760.987864,-383.047749,-444.123565,9918.759623
3760.988179,-383.047749,-1110.308913,9696.697840
3760.988493,-612.876398,-888.247130,9622.677246
3760.988808,-612.876398,-444.123565,9992.780217
3760.989123,-842.705048,-74.020594,9622.677246
3760.989437,-383.047749,222.061783,9474.636058
3760.989752,0.000000,-0.000000,9548.656652
3760.990066,0.000000,-444.123565,9400.615463
3760.990381,76.609550,148.041188,9326.594869
3760.990696,536.266849,-0.000000,9474.636058
3760.991010,383.047749,-74.020594,9770.718434
3760.991325,306.438199,-0.000000,9770.718434
3760.991640,153.219100,666.185348,9030.512492
3760.991954,153.219100,296.082377,9104.533087
3760.992269,306.438199,222.061783,9622.677246
3760.992584,0.000000,-296.082377,9548.656652
3760.992898,-536.266849,-148.041188,9548.656652
3760.993213,-459.657299,-444.123565,9696.697840
3760.993527,-689.485948,-962.267725,9992.780217
3760.993842,-1225.752797,-740.205942,10140.821405
3760.994157,-766.095498,-148.041188,10066.800811
3760.994471,-306.438199,-296.082377,9696.697840
3760.994786,0.000000,-296.082377,9474.636058
3760.995101,459.657299,-148.041188,9992.780217
3760.995415,536.266849,370.102971,9696.697840
3760.995730,919.314598,222.061783,9104.533087
3760.996044,1149.143247,666.185348,9104.533087
3760.996359,1378.971896,888.247130,8660.409521
3760.996674,1225.752797,888.247130,9252.574275
3760.996988,536.266849,-74.020594,9400.615463
3760.997303,306.438199,-148.041188,9548.656652
3760.997618,0.000000,-370.102971,9696.697840
3760.997932,76.609550,-370.102971,9696.697840
3760.998247,0.000000,-1036.288319,10732.986159
3760.998562,-229.828649,-1184.329507,10362.883188
3760.998876,-459.657299,-370.102971,9474.636058
3760.999191,-306.438199,-0.000000,9178.553681
3760.999505,306.438199,592.164754,9474.636058
3760.999820,459.657299,888.247130,9770.718434
3761.000135,1072.533697,666.185348,9474.636058
3761.000449,1072.533697,444.123565,9622.677246
3761.000764,842.705048,370.102971,9474.636058
3761.001079,1149.143247,1480.411884,8956.491898
3761.001393,459.657299,1110.308913,9326.594869
3761.001708,306.438199,666.185348,9696.697840
3761.002022,0.000000,222.061783,9992.780217
3761.002337,0.000000,-0.000000,9770.718434
3761.002652,0.000000,-296.082377,9844.739029
3761.002966,-536.266849,-296.082377,10140.821405
3761.003281,-842.705048,-0.000000,9844.739029
3761.003596,-766.095498,518.144159,9400.615463
3761.003910,0.000000,222.061783,9252.574275
3761.004225,76.609550,370.102971,9474.636058
3761.004540,153.219100,814.226536,9622.677246
3761.004854,459.657299,1110.308913,9326.594869
3761.005169,229.828649,888.247130,9622.677246
3761.005483,306.438199,888.247130,9696.697840
3761.005798,0.000000,814.226536,9400.615463
3761.006113,76.609550,666.185348,9178.553681
3761.006427,306.438199,222.061783,9770.718434
3761.006742,-153.219100,-0.000000,9474.636058
3761.007057,-306.438199,370.102971,9918.759623
3761.007371,-383.047749,370.102971,9770.718434
3761.007686,-766.095498,-74.020594,9844.739029
3761.008001,-459.657299,-0.000000,9770.718434
3761.008315,-459.657299,-74.020594,9474.636058
3761.008630,-766.095498,-148.041188,9400.615463
3761.008944,-766.095498,-296.082377,10140.821405
3761.009259,-1149.143247,-592.164754,10140.821405
3761.009574,-689.485948,-592.164754,9992.780217
3761.009888,0.000000,592.164754,9696.697840
3761.010203,76.609550,1110.308913,9474.636058
3761.010518,0.000000,1258.350101,9326.594869
3761.010832,306.438199,888.247130,9474.636058
3761.011147,536.266849,518.144159,9104.533087
3761.011461,229.828649,-0.000000,9770.718434
3761.011776,229.828649,-0.000000,9770.718434
3761.012091,0.000000,-444.123565,9696.697840
3761.012405,-229.828649,-962.267725,10140.821405
3761.012720,-459.657299,-666.185348,9992.780217
3761.013035,-229.828649,-370.102971,9474.636058
3761.013349,76.609550,-296.082377,9178.553681
3761.013664,0.000000,-148.041188,9918.759623
3761.013979,229.828649,-74.020594,9696.697840
3761.014293,612.876398,-740.205942,9326.594869
3761.014608,995.924147,-296.082377,9104.533087
3761.014922,1225.752797,-222.061783,9326.594869
3761.015237,1149.143247,148.041188,8882.471304
3761.015552,995.924147,444.123565,8956.491898
3761.015866,1378.971896,444.123565,9178.553681
3761.016181,995.924147,-74.020594,9474.636058
3761.016496,383.047749,-148.041188,9030.512492
3761.016810,383.047749,-814.226536,9622.677246
3761.017125,0.000000,-1184.329507,10584.944971
3761.017439,153.219100,-1406.391290,9844.739029
3761.017754,76.609550,-0.000000,9252.574275
3761.018069,536.266849,-0.000000,9474.636058
3761.018383,536.266849,296.082377,9178.553681
3761.018698,919.314598,-0.000000,9252.574275
3761.019013,919.314598,-296.082377,9326.594869
3761.019327,995.924147,-222.061783,9400.615463
3761.019642,919.314598,222.061783,8956.491898
3761.019957,459.657299,296.082377,8882.471304
3761.020271,383.047749,-296.082377,9178.553681
3761.020586,153.219100,-74.020594,9252.574275
3761.020900,0.000000,-592.164754,9844.739029
3761.021215,-383.047749,-370.102971,10362.883188
3761.021530,-229.828649,-444.123565,10436.903782
3761.021844,-459.657299,-0.000000,9992.780217
3761.022159,-229.828649,814.226536,9696.697840
3761.022474,0.000000,888.247130,9474.636058
3761.022788,0.000000,370.102971,9326.594869
3761.023103,306.438199,296.082377,9696.697840
3761.023418,229.828649,222.061783,9252.574275
3761.023732,153.219100,370.102971,9104.533087
3761.024047,153.219100,444.123565,9252.574275
3761.024362,0.000000,888.247130,9548.656652
3761.024677,-689.485948,814.226536,9696.697840
3761.024991,-842.705048,814.226536,9474.636058
3761.025306,-995.924147,-0.000000,9104.533087
3761.025621,-842.705048,-0.000000,9992.780217
3761.025936,-1302.362347,444.123565,10066.800811
3761.026250,-1072.533697,-0.000000,10955.047942
3761.026565,-919.314598,-0.000000,10362.883188
3761.026880,-612.876398,-0.000000,10214.842000
3761.027195,-459.657299,1480.411884,9474.636058
3761.027509,0.000000,1332.370696,9548.656652
3761.027824,459.657299,1628.453072,9992.780217
3761.028139,689.485948,1406.391290,9474.636058
3761.028454,383.047749,666.185348,9326.594869
3761.028768,766.095498,666.185348,9770.718434
3761.029083,536.266849,740.205942,9548.656652
3761.029398,0.000000,666.185348,9326.594869
3761.029713,0.000000,592.164754,9696.697840
3761.030027,76.609550,-0.000000,9696.697840
3761.030342,0.000000,-222.061783,9844.739029
3761.030657,-536.266849,-0.000000,10214.842000
3761.030972,0.000000,-444.123565,10214.842000
3761.031286,536.266849,-0.000000,10288.862594
3761.031601,536.266849,370.102971,9622.677246
3761.031916,842.705048,1110.308913,9474.636058
3761.032231,1455.581446,962.267725,9696.697840
3761.032545,1608.800546,814.226536,9696.697840
3761.032860,1302.362347,592.164754,9474.636058
3761.033175,1608.800546,370.102971,9400.615463
3761.033490,1378.971896,-0.000000,9548.656652
3761.033804,919.314598,-148.041188,9400.615463
3761.034119,459.657299,-74.020594,9178.553681
3761.034434,153.219100,-518.144159,9400.615463
3761.034749,306.438199,-962.267725,10140.821405
3761.035063,76.609550,-740.205942,9992.780217
3761.035378,-383.047749,-962.267725,10214.842000
3761.035693,0.000000,-888.247130,10214.842000
3761.036007,306.438199,-740.205942,9918.759623
3761.036322,383.047749,-0.000000,9400.615463
3761.036637,383.047749,370.102971,9030.512492
3761.036952,612.876398,370.102971,9252.574275
3761.037266,919.314598,-74.020594,8734.430116
3761.037581,766.095498,-0.000000,8586.388927
3761.037896,383.047749,-0.000000,8808.450710
3761.038211,536.266849,-444.123565,9252.574275
3761.038525,76.609550,-814.226536,9030.512492
3761.038840,-536.266849,-666.185348,9622.677246
3761.039155,-842.705048,-592.164754,9326.594869
3761.039470,-995.924147,-1184.329507,9844.739029
3761.039784,-842.705048,-1332.370696,10288.862594
3761.040099,-766.095498,-1036.288319,10066.800811
3761.040414,-612.876398,-962.267725,9548.656652
3761.040729,-229.828649,-370.102971,9178.553681
3761.041043,-153.219100,-0.000000,9326.594869
3761.041358,0.000000,1184.329507,8660.409521
3761.041673,459.657299,962.267725,8364.327145
3761.041988,689.485948,444.123565,9104.533087
3761.042302,995.924147,296.082377,8956.491898
3761.042617,0.000000,-0.000000,9474.636058
3761.042932,-229.828649,-0.000000,9696.697840
3761.043247,-842.705048,-0.000000,10140.821405
3761.043561,-1302.362347,222.061783,9696.697840
3761.043876,-1072.533697,-148.041188,9992.780217
3761.044191,-919.314598,-592.164754,9992.780217
3761.044506,-1225.752797,-444.123565,10881.027347
3761.044820,-842.705048,-0.000000,10362.883188
3761.045135,-612.876398,222.061783,10066.800811
3761.045450,-153.219100,444.123565,10288.862594
3761.045765,153.219100,1036.288319,9548.656652
3761.046079,689.485948,1406.391290,9104.533087
3761.046394,1225.752797,1332.370696,8956.491898
3761.046709,995.924147,1036.288319,9622.677246
3761.047024,536.266849,666.185348,9400.615463
3761.047338,536.266849,740.205942,9474.636058
3761.047653,153.219100,148.041188,9918.759623
3761.047968,76.609550,-0.000000,9992.780217
3761.048283,-229.828649,296.082377,9104.533087
3761.048597,0.000000,-74.020594,9622.677246
3761.048912,-459.657299,-0.000000,9918.759623
3761.049227,-306.438199,-222.061783,10510.924376
3761.049542,-612.876398,-0.000000,10140.821405
3761.049856,153.219100,-148.041188,9770.718434
3761.050171,919.314598,370.102971,9770.718434
3761.050486,919.314598,962.267725,9474.636058
3761.050801,995.924147,1480.411884,9252.574275
3761.051115,1378.971896,1332.370696,9400.615463
3761.051430,995.924147,1036.288319,9400.615463
3761.051745,459.657299,1110.308913,9474.636058
3761.052060,1072.533697,518.144159,9992.780217
3761.052374,842.705048,370.102971,9844.739029
3761.052689,306.438199,-0.000000,9696.697840
3761.053004,153.219100,148.041188,9178.553681
3761.053319,459.657299,-74.020594,8956.491898
3761.053633,536.266849,-370.102971,10510.924376
3761.053948,76.609550,-0.000000,10214.842000
3761.054263,0.000000,-148.041188,9770.718434
3761.054578,76.609550,148.041188,9844.739029
3761.054892,306.438199,-148.041188,10066.800811
3761.055207,842.705048,296.082377,9696.697840
3761.055522,229.828649,592.164754,9474.636058
3761.055837,995.924147,888.247130,9326.594869
3761.056151,689.485948,666.185348,9622.677246
3761.056466,459.657299,518.144159,9548.656652
3761.056781,153.219100,-74.020594,9474.636058
3761.057096,0.000000,-0.000000,9474.636058
3761.057410,0.000000,-74.020594,9770.718434
3761.057725,-383.047749,-222.061783,9178.553681
3761.058040,-229.828649,-0.000000,8882.471304
3761.058354,-383.047749,-666.185348,9474.636058
3761.058669,-689.485948,-592.164754,9326.594869
3761.058984,-766.095498,-592.164754,9400.615463
3761.059299,-689.485948,-518.144159,9474.636058
3761.059613,-306.438199,-148.041188,9622.677246
3761.059928,-536.266849,-0.000000,9252.574275
3761.060243,-383.047749,-0.000000,8882.471304
3761.060558,-383.047749,-148.041188,9252.574275
3761.060872,-306.438199,148.041188,9844.739029
3761.061187,0.000000,-444.123565,9696.697840
3761.061502,-229.828649,-222.061783,9622.677246
3761.061817,0.000000,-370.102971,9844.739029
3761.062131,-383.047749,-222.061783,9474.636058
3761.062446,-306.438199,-222.061783,9178.553681
3761.062761,-536.266849,-148.041188,9252.574275
3761.063076,-919.314598,-740.205942,9326.594869
3761.063390,-995.924147,-1110.308913,9696.697840
3761.063705,-995.924147,-740.205942,9844.739029
3761.064020,-306.438199,-740.205942,9992.780217
3761.064335,0.000000,-1480.411884,9696.697840
3761.064649,76.609550,-0.000000,9696.697840
3761.064964,153.219100,222.061783,9474.636058
3761.065279,995.924147,740.205942,9252.574275
3761.065594,1225.752797,962.267725,9326.594869
3761.065908,1225.752797,666.185348,9178.553681
3761.066223,1762.019645,444.123565,9474.636058
3761.066538,1455.581446,370.102971,9104.533087
3761.066853,766.095498,296.082377,8956.491898
3761.067167,153.219100,370.102971,9326.594869
3761.067482,229.828649,-0.000000,9178.553681
3761.067797,153.219100,-74.020594,9696.697840
3761.068112,0.000000,-592.164754,10140.821405
3761.068426,-306.438199,-666.185348,10362.883188
3761.068741,0.000000,-518.144159,10510.924376
3761.069056,0.000000,-0.000000,10288.862594
3761.069371,0.000000,962.267725,9696.697840
3761.069685,536.266849,740.205942,9400.615463
3761.070000,995.924147,962.267725,9400.615463
3761.070315,1532.190996,1184.329507,9030.512492
3761.070630,1532.190996,1036.288319,9326.594869
3761.070944,1149.143247,1184.329507,9178.553681
3761.071259,995.924147,740.205942,9474.636058
3761.071574,536.266849,888.247130,9696.697840
3761.071889,612.876398,666.185348,9400.615463
3761.072203,-229.828649,148.041188,9622.677246
3761.072518,0.000000,-370.102971,9992.780217
3761.072833,-689.485948,-222.061783,10140.821405
3761.073148,-919.314598,-74.020594,10140.821405
3761.073462,-536.266849,-296.082377,10436.903782
3761.073777,-383.047749,222.061783,10066.800811
3761.074092,0.000000,888.247130,9548.656652
3761.074407,306.438199,1332.370696,9178.553681
3761.074721,995.924147,1110.308913,9548.656652
3761.075036,536.266849,962.267725,9992.780217
3761.075351,689.485948,962.267725,9178.553681
3761.075666,459.657299,740.205942,9474.636058
3761.075980,306.438199,888.247130,9622.677246
3761.076295,229.828649,1036.288319,9474.636058
3761.076610,-229.828649,888.247130,9326.594869
3761.076925,-229.828649,444.123565,9622.677246
3761.077239,-383.047749,-444.123565,10214.842000
3761.077554,-919.314598,-444.123565,9770.718434
3761.077869,-1072.533697,-0.000000,9770.718434
3761.078184,-1378.971896,-222.061783,10140.821405
3761.078498,-612.876398,-222.061783,10140.821405
3761.078813,-459.657299,-0.000000,9844.739029
3761.079128,-383.047749,592.164754,9326.594869
3761.079443,76.609550,888.247130,9474.636058
3761.079757,76.609550,1110.308913,9696.697840
3761.080072,0.000000,962.267725,9474.636058
3761.080387,0.000000,814.226536,9474.636058
3761.080701,76.609550,-0.000000,9844.739029
3761.081016,0.000000,148.041188,9474.636058
3761.081331,-229.828649,-0.000000,9326.594869
3761.081646,-383.047749,-74.020594,9178.553681
3761.081960,-612.876398,-814.226536,9696.697840
3761.082275,-689.485948,-1036.288319,10214.842000
3761.082590,-383.047749,-1184.329507,9918.759623
3761.082905,-459.657299,-1258.350101,9548.656652
3761.083219,0.000000,-370.102971,9844.739029
3761.083534,76.609550,-0.000000,8956.491898
3761.083849,306.438199,-74.020594,8956.491898
3761.084164,842.705048,-444.123565,9030.512492
3761.084478,995.924147,-888.247130,9400.615463
3761.084793,1225.752797,-296.082377,9474.636058
3761.085108,766.095498,-370.102971,9252.574275
3761.085423,766.095498,222.061783,9400.615463
3761.085737,766.095498,-148.041188,9548.656652
3761.086052,612.876398,-370.102971,9178.553681
3761.086367,459.657299,-962.267725,9104.533087
3761.086682,612.876398,-962.267725,9622.677246
3761.086996,0.000000,-1110.308913,9992.780217
3761.087311,0.000000,-1184.329507,10066.800811
3761.087626,0.000000,-740.205942,9844.739029
3761.087941,0.000000,-888.247130,9696.697840
3761.088255,0.000000,-592.164754,9548.656652
3761.088570,383.047749,-518.144159,9400.615463
3761.088885,766.095498,-296.082377,9696.697840
3761.089200,229.828649,-222.061783,9548.656652
3761.089514,536.266849,-0.000000,9918.759623
3761.089829,612.876398,-0.000000,9400.615463
3761.090144,612.876398,222.061783,9474.636058
3761.090459,766.095498,-0.000000,9992.780217
3761.090773,153.219100,740.205942,8808.450710
3761.091088,229.828649,-0.000000,8956.491898
3761.091403,306.438199,148.041188,9400.615463
3761.091718,-459.657299,222.061783,9474.636058
3761.092032,-459.657299,-74.020594,9844.739029
3761.092347,-919.314598,-592.164754,10214.842000
3761.092662,-536.266849,-296.082377,9918.759623
3761.092977,-766.095498,148.041188,9696.697840
3761.093291,0.000000,444.123565,9252.574275
3761.093606,76.609550,-0.000000,9918.759623
3761.093921,306.438199,666.185348,10288.862594
3761.094236,689.485948,1110.308913,9326.594869
3761.094550,919.314598,1258.350101,9474.636058
3761.094865,1302.362347,1110.308913,9474.636058
3761.095180,842.705048,1258.350101,8808.450710
3761.095495,536.266849,1702.473667,8586.388927
3761.095809,306.438199,1258.350101,8734.430116
3761.096124,0.000000,592.164754,9252.574275
3761.096439,-229.828649,-0.000000,10362.883188
3761.096754,-1072.533697,-0.000000,10066.800811
3761.097068,-1302.362347,-0.000000,10881.027347
3761.097383,-1455.581446,-296.082377,10436.903782
3761.097698,-1225.752797,296.082377,10436.903782
3761.098013,-1072.533697,1036.288319,10955.047942
3761.098327,-766.095498,666.185348,10362.883188
3761.098642,-229.828649,814.226536,10214.842000
3761.098957,153.219100,1332.370696,9474.636058
3761.099272,153.219100,1628.453072,9548.656652
3761.099586,383.047749,1702.473667,9770.718434
3761.099901,689.485948,1850.514855,9104.533087
3761.100216,229.828649,1480.411884,8956.491898
3761.100531,689.485948,592.164754,9030.512492
3761.100845,76.609550,222.061783,9770.718434
3761.101160,-383.047749,-74.020594,10066.800811
3761.101475,-1225.752797,-592.164754,10510.924376
3761.101790,-1378.971896,-518.144159,10732.986159
3761.102104,-766.095498,-370.102971,10436.903782
3761.102419,-766.095498,-74.020594,10214.842000
3761.102734,-306.438199,740.205942,9696.697840
3761.103048,306.438199,-0.000000,9770.718434
3761.103363,689.485948,814.226536,9104.533087
3761.103678,1378.971896,962.267725,9104.533087
3761.103993,2068.457845,1110.308913,9030.512492
3761.104307,2068.457845,444.123565,9030.512492
3761.104622,1991.848295,1184.329507,8882.471304
3761.104937,1532.190996,814.226536,8586.388927
3761.105252,1685.410096,-0.000000,9104.533087
3761.105566,919.314598,-666.185348,9474.636058
3761.105881,689.485948,-1110.308913,9992.780217
3761.106196,-306.438199,-518.144159,9474.636058
3761.106511,-536.266849,-2072.576638,9770.718434
3761.106825,306.438199,-1850.514855,9548.656652
3761.107140,459.657299,-444.123565,10362.883188
3761.107455,536.266849,-666.185348,8882.471304
3761.107770,766.095498,-888.247130,8956.491898
3761.108084,1149.143247,-74.020594,9474.636058
3761.108399,1149.143247,148.041188,8956.491898
3761.108714,1149.143247,-0.000000,9622.677246
3761.109029,1149.143247,-370.102971,9770.718434
3761.109343,919.314598,370.102971,9474.636058
3761.109658,766.095498,222.061783,9326.594869
3761.109973,153.219100,-148.041188,9548.656652
3761.110288,153.219100,-888.247130,10584.944971
3761.110602,-842.705048,-740.205942,10066.800811
3761.110917,-919.314598,-1184.329507,10807.006753
3761.111232,-995.924147,-1258.350101,10881.027347
3761.111547,-766.095498,-888.247130,10510.924376
3761.111861,-459.657299,-0.000000,9474.636058
3761.112176,-229.828649,-148.041188,9252.574275
3761.112491,153.219100,148.041188,9178.553681
3761.112806,306.438199,-0.000000,8956.491898
3761.113120,383.047749,-0.000000,9474.636058
3761.113435,689.485948,-222.061783,9474.636058
3761.113750,229.828649,592.164754,9030.512492
3761.114065,0.000000,222.061783,9178.553681
3761.114379,-536.266849,444.123565,9252.574275
3761.114694,-766.095498,-0.000000,9326.594869
3761.115009,-1072.533697,-222.061783,9622.677246
3761.115324,-1532.190996,-592.164754,9918.759623
3761.115638,-1608.800546,-666.185348,10288.862594
3761.115953,-1762.019645,-814.226536,10140.821405
3761.116268,-1685.410096,296.082377,9844.739029
3761.116583,-1532.190996,814.226536,10140.821405
3761.116897,-995.924147,666.185348,9104.533087
3761.117212,-229.828649,814.226536,8882.471304
3761.117527,153.219100,814.226536,9030.512492
3761.117842,0.000000,1406.391290,9252.574275
3761.118156,-383.047749,370.102971,9474.636058
3761.118471,229.828649,666.185348,9400.615463
3761.118786,0.000000,1110.308913,9252.574275
3761.119101,-229.828649,888.247130,8808.450710
3761.119415,0.000000,666.185348,9178.553681
3761.119730,0.000000,-0.000000,9474.636058
3761.120045,-153.219100,-0.000000,9696.697840
3761.120360,-383.047749,296.082377,9696.697840
3761.120674,0.000000,-148.041188,10140.821405
3761.120989,306.438199,-0.000000,10436.903782
3761.121304,229.828649,444.123565,9696.697840
3761.121619,612.876398,962.267725,9844.739029
3761.121933,995.924147,888.247130,9844.739029
3761.122248,995.924147,1258.350101,9918.759623
3761.122563,1149.143247,740.205942,9770.718434
3761.122878,1685.410096,814.226536,9992.780217
3761.123192,1685.410096,444.123565,10732.986159
3761.123507,1225.752797,518.144159,10140.821405
3761.123822,1225.752797,888.247130,9474.636058
3761.124137,1378.971896,148.041188,9992.780217
3761.124451,1378.971896,-0.000000,9770.718434
3761.124766,995.924147,-0.000000,9474.636058
3761.125081,612.876398,-0.000000,9622.677246
3761.125395,919.314598,-222.061783,9770.718434
3761.125710,766.095498,-518.144159,9844.739029
3761.126025,459.657299,296.082377,9326.594869
3761.126340,689.485948,444.123565,9178.553681
3761.126654,766.095498,370.102971,9326.594869
3761.126969,995.924147,296.082377,9400.615463
3761.127284,842.705048,222.061783,9918.759623
3761.127599,612.876398,-0.000000,9622.677246
3761.127913,842.705048,-0.000000,9622.677246
3761.128228,459.657299,666.185348,9474.636058
3761.128543,383.047749,888.247130,9104.533087
3761.128857,306.438199,370.102971,9548.656652
3761.129172,306.438199,-518.144159,9474.636058
3761.129487,0.000000,-444.123565,9474.636058
3761.129801,-76.609550,-814.226536,9400.615463
3761.130116,0.000000,-666.185348,9104.533087
3761.130431,536.266849,-370.102971,9696.697840
3761.130745,-459.657299,-0.000000,9030.512492
3761.131060,-612.876398,-0.000000,9104.533087
3761.131375,-383.047749,-74.020594,8956.491898
3761.131689,-612.876398,-222.061783,9326.594869
3761.132004,-306.438199,-0.000000,9474.636058
3761.132319,-612.876398,-740.205942,9696.697840
3761.132633,-536.266849,-592.164754,10288.862594
3761.132948,-919.314598,-296.082377,9474.636058
3761.133263,-842.705048,444.123565,9474.636058
3761.133577,-383.047749,296.082377,9326.594869
3761.133892,-766.095498,-148.041188,9992.780217
3761.134207,-919.314598,222.061783,9918.759623
3761.134522,-842.705048,-74.020594,9326.594869
3761.134836,-995.924147,-1036.288319,10362.883188
3761.135151,-995.924147,-1258.350101,10658.965565
3761.135466,-1608.800546,-296.082377,9844.739029
3761.135780,-1302.362347,-0.000000,9178.553681
3761.136095,-919.314598,-370.102971,9992.780217
3761.136410,-536.266849,-370.102971,9918.759623
3761.136724,-383.047749,-0.000000,9474.636058
3761.137039,0.000000,-0.000000,9474.636058
3761.137354,0.000000,-74.020594,9474.636058
3761.137668,306.438199,370.102971,9326.594869
3761.137983,306.438199,666.185348,9252.574275
3761.138298,153.219100,444.123565,9548.656652
3761.138612,229.828649,222.061783,9474.636058
3761.138927,229.828649,222.061783,9696.697840
3761.139242,306.438199,-0.000000,9770.718434
3761.139556,766.095498,-148.041188,10140.821405
3761.139871,76.609550,-0.000000,10066.800811
3761.140186,229.828649,444.123565,9474.636058
3761.140500,306.438199,666.185348,9474.636058
3761.140815,612.876398,592.164754,9400.615463
3761.141130,995.924147,148.041188,9474.636058
3761.141444,1225.752797,296.082377,9326.594869
3761.141759,1302.362347,-0.000000,9474.636058
3761.142074,1225.752797,-0.000000,9178.553681
3761.142388,995.924147,888.247130,8956.491898
3761.142703,995.924147,1184.329507,8808.450710
3761.143018,1225.752797,740.205942,9326.594869
3761.143332,536.266849,-148.041188,9252.574275
3761.143647,689.485948,-0.000000,10066.800811
3761.143962,383.047749,-0.000000,10362.883188
3761.144277,229.828649,148.041188,10140.821405
3761.144591,612.876398,296.082377,10140.821405
3761.144906,306.438199,148.041188,9918.759623
3761.145221,229.828649,888.247130,9178.553681
3761.145535,229.828649,222.061783,9622.677246
3761.145850,459.657299,296.082377,10066.800811
3761.146165,0.000000,666.185348,9918.759623
3761.146479,0.000000,296.082377,9770.718434
3761.146794,306.438199,222.061783,9548.656652
3761.147109,229.828649,444.123565,9696.697840
3761.147423,153.219100,592.164754,9400.615463
3761.147738,383.047749,444.123565,9474.636058
3761.148053,-153.219100,-0.000000,9844.739029
3761.148367,-306.438199,370.102971,10214.842000
3761.148682,-459.657299,222.061783,9622.677246
3761.148997,-306.438199,-592.164754,10288.862594
3761.149311,-612.876398,-0.000000,10436.903782
3761.149626,-536.266849,814.226536,9326.594869
3761.149941,0.000000,740.205942,9474.636058
3761.150255,306.438199,1036.288319,9770.718434
3761.150570,383.047749,1036.288319,9918.759623
3761.150885,459.657299,666.185348,9178.553681
3761.151199,153.219100,518.144159,9178.553681
3761.151514,0.000000,518.144159,9696.697840
3761.151829,0.000000,592.164754,9326.594869
3761.152143,0.000000,666.185348,9326.594869
3761.152458,-383.047749,-74.020594,9918.759623
3761.152773,-1072.533697,222.061783,9696.697840
3761.153088,-919.314598,-0.000000,9770.718434
3761.153402,-612.876398,-222.061783,9770.718434
3761.153717,-919.314598,-518.144159,10881.027347
3761.154032,-536.266849,-148.041188,9400.615463
3761.154346,-536.266849,370.102971,8142.265362
3761.154661,-153.219100,296.082377,8882.471304
3761.154976,76.609550,222.061783,9474.636058
3761.155290,0.000000,-0.000000,9104.533087
3761.155605,-383.047749,-0.000000,9400.615463
3761.155920,-536.266849,-296.082377,9770.718434
3761.156234,-612.876398,-740.205942,9992.780217
3761.156549,-536.266849,-296.082377,9770.718434
3761.156864,-689.485948,-370.102971,9622.677246
3761.157178,-459.657299,-740.205942,9696.697840
3761.157493,-306.438199,-962.267725,9844.739029
3761.157808,0.000000,-740.205942,10288.862594
3761.158122,383.047749,-222.061783,9918.759623
3761.158437,919.314598,-222.061783,9548.656652
3761.158752,689.485948,-222.061783,9400.615463
3761.159066,842.705048,-0.000000,9178.553681
3761.159381,919.314598,-74.020594,8808.450710
3761.159696,842.705048,-444.123565,9104.533087
3761.160010,1225.752797,-888.247130,9918.759623
3761.160325,689.485948,-148.041188,9104.533087
3761.160640,766.095498,-518.144159,9474.636058
3761.160954,536.266849,-518.144159,9622.677246
3761.161269,383.047749,-518.144159,9696.697840
3761.161584,612.876398,-0.000000,8512.368333
3761.161898,459.657299,-444.123565,9252.574275
3761.162213,766.095498,-148.041188,9548.656652
3761.162528,689.485948,-0.000000,9844.739029
3761.162843,919.314598,222.061783,9696.697840
3761.163157,689.485948,-0.000000,10140.821405
3761.163472,612.876398,444.123565,9548.656652
3761.163787,842.705048,962.267725,8734.430116
3761.164101,995.924147,888.247130,8438.347739
3761.164416,1455.581446,-0.000000,9622.677246
3761.164731,919.314598,296.082377,9622.677246
3761.165045,229.828649,666.185348,8808.450710
3761.165360,0.000000,296.082377,9252.574275
3761.165675,0.000000,-222.061783,9696.697840
3761.165989,-153.219100,148.041188,9400.615463
3761.166304,153.219100,296.082377,9400.615463
3761.166619,-306.438199,74.020594,9252.574275
3761.166933,-459.657299,-0.000000,9400.615463
3761.167248,0.000000,370.102971,9474.636058
3761.167563,459.657299,518.144159,9918.759623
3761.167877,-536.266849,222.061783,10881.027347
3761.168192,-229.828649,888.247130,9918.759623
3761.168507,-306.438199,1332.370696,9696.697840
3761.168821,-383.047749,1332.370696,9548.656652
3761.169136,-383.047749,888.247130,10658.965565
3761.169451,0.000000,518.144159,10362.883188
3761.169765,-536.266849,296.082377,10288.862594
3761.170080,-995.924147,-148.041188,10140.821405
3761.170395,-766.095498,-74.020594,10510.924376
3761.170709,-1072.533697,-0.000000,9622.677246
3761.171024,-766.095498,296.082377,9400.615463
3761.171339,-536.266849,592.164754,9400.615463
3761.171654,-306.438199,518.144159,9326.594869
3761.171968,-536.266849,592.164754,9696.697840
3761.172283,-383.047749,148.041188,9696.697840
3761.172598,-383.047749,148.041188,9696.697840
3761.172912,-153.219100,296.082377,9696.697840
3761.173227,-153.219100,1036.288319,9770.718434
3761.173542,76.609550,962.267725,9770.718434
3761.173856,0.000000,666.185348,9400.615463
3761.174171,0.000000,814.226536,9844.739029
3761.174486,76.609550,962.267725,9770.718434
3761.174800,76.609550,814.226536,9770.718434
3761.175115,459.657299,-0.000000,9844.739029
3761.175430,153.219100,518.144159,9548.656652
3761.175744,383.047749,370.102971,9400.615463
3761.176059,76.609550,148.041188,9252.574275
3761.176374,229.828649,-0.000000,9252.574275
3761.176688,229.828649,-0.000000,9548.656652
3761.177003,306.438199,-296.082377,9252.574275
3761.177318,689.485948,-518.144159,8882.471304
3761.177632,612.876398,-296.082377,9474.636058
3761.177947,459.657299,-0.000000,9474.636058
3761.178262,766.095498,-74.020594,8808.450710
3761.178576,995.924147,-296.082377,9474.636058
3761.178891,1072.533697,-444.123565,9844.739029
3761.179206,842.705048,-0.000000,9326.594869
3761.179520,1072.533697,-0.000000,9252.574275
3761.179835,1149.143247,-0.000000,9548.656652
3761.180150,1072.533697,148.041188,8882.471304
3761.180465,766.095498,-0.000000,8956.491898
3761.180779,459.657299,-814.226536,9326.594869
3761.181094,612.876398,-888.247130,9918.759623
3761.181409,0.000000,-962.267725,9844.739029
3761.181723,0.000000,-814.226536,10362.883188
3761.182038,0.000000,-1184.329507,10214.842000
3761.182353,306.438199,-296.082377,10214.842000
3761.182667,612.876398,-222.061783,9622.677246
3761.182982,919.314598,-0.000000,9474.636058
3761.183297,1378.971896,222.061783,9696.697840
3761.183611,536.266849,592.164754,9178.553681
3761.183926,459.657299,740.205942,9030.512492
3761.184241,306.438199,-74.020594,9474.636058
3761.184555,536.266849,-148.041188,9474.636058
3761.184870,536.266849,-222.061783,9400.615463
3761.185185,-229.828649,296.082377,9252.574275
3761.185499,-383.047749,-0.000000,9622.677246
3761.185814,-1072.533697,-0.000000,10066.800811
3761.186129,-1225.752797,-0.000000,9992.780217
3761.186443,-1455.581446,-0.000000,10732.986159
3761.186758,-1072.533697,-296.082377,10658.965565
3761.187073,-995.924147,-0.000000,10214.842000
3761.187387,-842.705048,1036.288319,9474.636058
3761.187702,-229.828649,1184.329507,9178.553681
3761.188017,-383.047749,1480.411884,9622.677246
3761.188331,-76.609550,1332.370696,9474.636058
3761.188646,383.047749,1184.329507,8956.491898
3761.188961,0.000000,444.123565,9104.533087
3761.189275,229.828649,-74.020594,9400.615463
3761.189590,-383.047749,-0.000000,9400.615463
3761.189905,-689.485948,444.123565,9030.512492
3761.190220,-689.485948,-0.000000,9474.636058
3761.190534,-1072.533697,-444.123565,10214.842000
3761.190849,-1302.362347,-592.164754,10510.924376
3761.191164,-1072.533697,-592.164754,9992.780217
3761.191478,-766.095498,-370.102971,10881.027347
3761.191793,-153.219100,-0.000000,10436.903782
3761.192108,-229.828649,888.247130,9770.718434
3761.192422,459.657299,1406.391290,9400.615463
3761.192737,1072.533697,814.226536,9622.677246
3761.193052,1149.143247,1110.308913,9696.697840
3761.193366,919.314598,1036.288319,9548.656652
3761.193681,1072.533697,1036.288319,9992.780217
3761.193996,995.924147,370.102971,10066.800811
3761.194310,459.657299,370.102971,9400.615463
3761.194625,383.047749,-0.000000,9104.533087
3761.194940,76.609550,-296.082377,9474.636058
3761.195254,-229.828649,-740.205942,9622.677246
3761.195569,0.000000,-740.205942,9992.780217
3761.195884,-306.438199,-666.185348,9548.656652
3761.196198,229.828649,-666.185348,10214.842000
3761.196513,612.876398,-74.020594,9918.759623
3761.196828,919.314598,148.041188,9548.656652
3761.197142,1378.971896,962.267725,9178.553681
3761.197457,1608.800546,962.267725,9252.574275
3761.197772,1685.410096,1332.370696,9474.636058
3761.198086,1608.800546,962.267725,9548.656652
3761.198401,2068.457845,962.267725,8956.491898
3761.198716,1378.971896,518.144159,9326.594869
3761.199031,229.828649,888.247130,8882.471304
3761.199345,0.000000,296.082377,8956.491898
3761.199660,0.000000,-518.144159,8956.491898
3761.199975,-612.876398,-1036.288319,9770.718434
3761.200289,-1532.190996,-1258.350101,9770.718434
3761.200604,-919.314598,-1258.350101,10288.862594
3761.200919,-1072.533697,-1110.308913,10510.924376
3761.201233,-689.485948,-222.061783,10362.883188
3761.201548,0.000000,222.061783,9400.615463
3761.201863,229.828649,518.144159,8808.450710
3761.202177,1378.971896,444.123565,9474.636058
3761.202492,1455.581446,592.164754,9178.553681
3761.202807,689.485948,370.102971,9400.615463
3761.203121,919.314598,296.082377,9104.533087
3761.203436,612.876398,-0.000000,9548.656652
3761.203751,536.266849,444.123565,9474.636058
3761.204065,0.000000,-0.000000,9104.533087
3761.204380,-459.657299,-962.267725,9622.677246
3761.204695,-689.485948,-1110.308913,10214.842000
3761.205009,-1685.410096,-962.267725,10066.800811
3761.205324,-1608.800546,-962.267725,10214.842000
3761.205639,-1302.362347,-1110.308913,10510.924376
3761.205953,-995.924147,-222.061783,9844.739029
3761.206268,-919.314598,-222.061783,9918.759623
3761.206583,-383.047749,518.144159,9326.594869
3761.206897,76.609550,888.247130,9696.697840
3761.207212,306.438199,1332.370696,9844.739029
3761.207527,536.266849,1258.350101,10140.821405
3761.207841,459.657299,1258.350101,9252.574275
3761.208156,383.047749,1110.308913,9326.594869
3761.208471,0.000000,1184.329507,9400.615463
3761.208786,-306.438199,444.123565,9474.636058
3761.209100,-689.485948,-222.061783,9770.718434
3761.209415,-1072.533697,-814.226536,9992.780217
3761.209730,-1608.800546,-370.102971,10066.800811
3761.210044,-1302.362347,-74.020594,9474.636058
3761.210359,-1149.143247,-222.061783,10288.862594
3761.210674,-1149.143247,-0.000000,9918.759623
3761.210988,-459.657299,148.041188,9548.656652
3761.211303,153.219100,444.123565,8808.450710
3761.211618,766.095498,592.164754,9252.574275
3761.211932,1149.143247,1184.329507,9400.615463
3761.212247,1378.971896,1258.350101,8882.471304
3761.212562,1608.800546,1554.432478,8956.491898
3761.212876,1608.800546,740.205942,9474.636058
3761.213191,1149.143247,888.247130,9252.574275
3761.213506,459.657299,444.123565,9474.636058
3761.213820,689.485948,-0.000000,9326.594869
3761.214135,76.609550,-740.205942,9622.677246
3761.214450,-229.828649,-740.205942,9918.759623
3761.214764,0.000000,-1110.308913,10362.883188
3761.215079,0.000000,-814.226536,10732.986159
3761.215394,0.000000,-888.247130,9992.780217
3761.215708,459.657299,518.144159,9548.656652
3761.216023,1149.143247,444.123565,9622.677246
3761.216338,1532.190996,666.185348,9474.636058
3761.216652,1915.238745,1110.308913,9474.636058
3761.216967,1532.190996,370.102971,9770.718434
3761.217282,1608.800546,74.020594,9696.697840
3761.217597,1378.971896,444.123565,9918.759623
3761.217911,842.705048,740.205942,9770.718434
3761.218226,306.438199,888.247130,9622.677246
3761.218541,842.705048,-0.000000,9918.759623
3761.218855,612.876398,-0.000000,9474.636058
3761.219170,0.000000,-148.041188,9770.718434
3761.219485,0.000000,-296.082377,10510.924376
3761.219799,229.828649,-444.123565,10436.903782
3761.220114,0.000000,222.061783,9770.718434
3761.220429,153.219100,666.185348,9474.636058
3761.220743,76.609550,592.164754,8586.388927
3761.221058,612.876398,666.185348,9548.656652
3761.221373,612.876398,592.164754,8956.491898
3761.221687,689.485948,814.226536,8956.491898
3761.222002,306.438199,592.164754,9326.594869
3761.222317,76.609550,592.164754,8956.491898
3761.222631,-383.047749,296.082377,9178.553681
3761.222946,-536.266849,148.041188,8882.471304
3761.223261,-919.314598,-296.082377,9622.677246
3761.223575,-766.095498,-592.164754,9770.718434
3761.223890,-1685.410096,-740.205942,9622.677246
3761.224205,-1915.238745,-814.226536,10288.862594
3761.224519,-1455.581446,-740.205942,10436.903782
3761.224834,-1532.190996,-0.000000,9770.718434
3761.225149,-919.314598,-0.000000,9474.636058
3761.225464,-383.047749,-222.061783,9326.594869
3761.225778,-383.047749,-222.061783,9178.553681
3761.226093,-306.438199,-0.000000,9178.553681
3761.226408,-459.657299,444.123565,9326.594869
3761.226722,-689.485948,-74.020594,9622.677246
3761.227037,-383.047749,-148.041188,10066.800811
3761.227352,-536.266849,-222.061783,9770.718434
3761.227666,-919.314598,-444.123565,9548.656652
3761.227981,-689.485948,-444.123565,10214.842000
3761.228296,-766.095498,-666.185348,10510.924376
3761.228611,-536.266849,-592.164754,10362.883188
3761.228925,-306.438199,-296.082377,10140.821405
3761.229240,0.000000,-222.061783,9770.718434
3761.229555,76.609550,-0.000000,9622.677246
3761.229869,229.828649,296.082377,9622.677246
3761.230184,536.266849,74.020594,9548.656652
3761.230499,689.485948,222.061783,9474.636058
3761.230814,842.705048,-0.000000,9326.594869
3761.231128,1225.752797,-0.000000,9548.656652
3761.231443,1149.143247,148.041188,9178.553681
3761.231758,1378.971896,-0.000000,9474.636058
3761.232072,919.314598,518.144159,8660.409521
3761.232387,459.657299,296.082377,8956.491898
3761.232702,612.876398,-0.000000,9104.533087
3761.233016,536.266849,-222.061783,9104.533087
3761.233331,689.485948,-0.000000,9474.636058
3761.233646,919.314598,-74.020594,9622.677246
3761.233961,1149.143247,-148.041188,9992.780217
3761.234275,689.485948,222.061783,10066.800811
3761.234590,612.876398,1332.370696,9178.553681
3761.234905,842.705048,1184.329507,8882.471304
3761.235219,1378.971896,592.164754,9252.574275
3761.235534,1378.971896,222.061783,9400.615463
3761.235849,1532.190996,370.102971,9400.615463
3761.236163,1225.752797,370.102971,9474.636058
3761.236478,459.657299,518.144159,9474.636058
3761.236793,536.266849,592.164754,9474.636058
3761.237108,689.485948,296.082377,9104.533087
3761.237422,1149.143247,148.041188,9400.615463
3761.237737,459.657299,-296.082377,9844.739029
3761.238052,76.609550,-0.000000,10288.862594
3761.238366,0.000000,-0.000000,10066.800811
3761.238681,-536.266849,-0.000000,10066.800811
3761.238996,0.000000,-0.000000,9844.739029
3761.239310,76.609550,740.205942,9844.739029
3761.239625,0.000000,518.144159,9696.697840
3761.239940,0.000000,296.082377,9992.780217
3761.240255,-306.438199,296.082377,10140.821405
3761.240569,-306.438199,592.164754,9918.759623
3761.240884,-306.438199,518.144159,10510.924376
3761.241199,-689.485948,518.144159,10288.862594
3761.241513,-689.485948,1258.350101,9844.739029
3761.241828,-766.095498,1036.288319,9474.636058
3761.242143,-689.485948,518.144159,9474.636058
3761.242458,-612.876398,-0.000000,10584.944971
3761.242772,-383.047749,-0.000000,9326.594869
3761.243087,-1072.533697,-74.020594,10066.800811
3761.243402,-689.485948,370.102971,9474.636058
3761.243716,-766.095498,-0.000000,9548.656652
3761.244031,-689.485948,740.205942,9030.512492
3761.244346,-766.095498,148.041188,9104.533087
3761.244660,-383.047749,222.061783,9252.574275
3761.244975,-459.657299,-74.020594,9696.697840
3761.245290,-689.485948,-0.000000,9104.533087
3761.245605,-536.266849,-0.000000,10362.883188
3761.245919,-306.438199,148.041188,9770.718434
3761.246234,0.000000,444.123565,9252.574275
3761.246549,153.219100,814.226536,8956.491898
3761.246863,995.924147,296.082377,9400.615463
3761.247178,689.485948,370.102971,9104.533087
3761.247493,689.485948,-0.000000,9104.533087
3761.247807,842.705048,-74.020594,9474.636058
3761.248122,383.047749,-518.144159,9474.636058
3761.248437,536.266849,-592.164754,9104.533087
3761.248752,306.438199,-814.226536,9548.656652
3761.249066,229.828649,-962.267725,9696.697840
3761.249381,536.266849,-1036.288319,9770.718434
3761.249696,842.705048,-444.123565,9548.656652
3761.250010,612.876398,-666.185348,9622.677246
3761.250325,766.095498,-370.102971,9992.780217
3761.250640,766.095498,-740.205942,9844.739029
3761.250955,1149.143247,-0.000000,9252.574275
3761.251269,1072.533697,-74.020594,9030.512492
3761.251584,1455.581446,-74.020594,9326.594869
3761.251899,995.924147,-222.061783,9770.718434
3761.252213,612.876398,-148.041188,9400.615463
3761.252528,689.485948,-814.226536,10214.842000
3761.252843,1378.971896,-962.267725,9918.759623
3761.253157,76.609550,-370.102971,9696.697840
3761.253472,76.609550,-518.144159,9622.677246
3761.253787,153.219100,-370.102971,9548.656652
3761.254102,0.000000,-148.041188,9400.615463
3761.254416,76.609550,-444.123565,9474.636058
3761.254731,0.000000,-0.000000,9178.553681
3761.255046,76.609550,-444.123565,9696.697840
3761.255360,153.219100,-0.000000,10066.800811
3761.255675,-229.828649,814.226536,8882.471304
3761.255990,383.047749,592.164754,9474.636058
3761.256304,612.876398,592.164754,9992.780217
3761.256619,229.828649,518.144159,9548.656652
3761.256934,229.828649,666.185348,9696.697840
3761.257249,153.219100,444.123565,9474.636058
3761.257563,612.876398,444.123565,9770.718434
3761.257878,383.047749,1184.329507,9548.656652
3761.258193,0.000000,1332.370696,8882.471304
3761.258507,0.000000,592.164754,9178.553681
3761.258822,153.219100,-0.000000,9474.636058
3761.259137,-306.438199,370.102971,9252.574275
3761.259451,0.000000,518.144159,9474.636058
3761.259766,-689.485948,-0.000000,10066.800811
3761.260081,-689.485948,-0.000000,9992.780217
3761.260396,-536.266849,518.144159,9474.636058
3761.260710,-995.924147,888.247130,9474.636058
3761.261025,-995.924147,-0.000000,10140.821405
3761.261340,-919.314598,370.102971,10362.883188
3761.261654,-919.314598,740.205942,9770.718434
3761.261969,-919.314598,518.144159,10214.842000
3761.262284,-383.047749,370.102971,10732.986159
3761.262599,-766.095498,518.144159,10436.903782
3761.262913,-536.266849,814.226536,9696.697840
3761.263228,-459.657299,370.102971,9770.718434
3761.263543,-306.438199,222.061783,10214.842000
3761.263857,0.000000,-0.000000,9918.759623
3761.264172,0.000000,148.041188,9474.636058
3761.264487,153.219100,-74.020594,9696.697840
3761.264801,153.219100,370.102971,9252.574275
3761.265116,229.828649,444.123565,9474.636058
3761.265431,383.047749,666.185348,8882.471304
3761.265746,459.657299,370.102971,9474.636058
3761.266060,689.485948,370.102971,9992.780217
3761.266375,689.485948,666.185348,9474.636058
3761.266690,612.876398,666.185348,9918.759623
3761.267004,919.314598,592.164754,10436.903782
3761.267319,689.485948,888.247130,10140.821405
3761.267634,995.924147,1480.411884,9252.574275
3761.267948,1225.752797,1184.329507,9104.533087
3761.268263,1149.143247,592.164754,9104.533087
3761.268578,1072.533697,740.205942,9474.636058
3761.268893,766.095498,518.144159,9400.615463
3761.269207,459.657299,-222.061783,9252.574275
3761.269522,689.485948,-370.102971,9844.739029
3761.269837,383.047749,148.041188,9474.636058
3761.270151,383.047749,-222.061783,9252.574275
3761.270466,766.095498,-444.123565,9992.780217
3761.270781,0.000000,-740.205942,9918.759623
3761.271096,0.000000,-74.020594,9770.718434
3761.271410,153.219100,-148.041188,9770.718434
3761.271725,536.266849,-222.061783,9696.697840
3761.272040,459.657299,148.041188,9844.739029
3761.272354,612.876398,444.123565,9104.533087
3761.272669,919.314598,592.164754,9030.512492
3761.272984,766.095498,-0.000000,9326.594869
3761.273298,612.876398,-74.020594,9326.594869
3761.273613,306.438199,-518.144159,9474.636058
3761.273928,766.095498,-1258.350101,10214.842000
3761.274243,-306.438199,-1702.473667,9992.780217
3761.274557,-766.095498,-1184.329507,9770.718434
3761.274872,-1072.533697,-962.267725,9696.697840
3761.275187,-995.924147,-1184.329507,9992.780217
3761.275501,-1149.143247,-1628.453072,9622.677246
3761.275816,-1455.581446,-1554.432478,9918.759623
3761.276131,-766.095498,-1554.432478,10214.842000
3761.276445,-766.095498,-1184.329507,10214.842000
3761.276760,-459.657299,-296.082377,9622.677246
3761.277075,-306.438199,222.061783,9104.533087
3761.277390,536.266849,370.102971,9252.574275
3761.277704,536.266849,296.082377,8808.450710
3761.278019,919.314598,-0.000000,8882.471304
3761.278334,536.266849,-0.000000,8808.450710
3761.278648,306.438199,-148.041188,9030.512492
3761.278963,0.000000,296.082377,8956.491898
3761.279278,-536.266849,222.061783,8882.471304
3761.279592,-766.095498,-148.041188,9104.533087
3761.279907,-306.438199,-592.164754,9326.594869
3761.280222,-766.095498,-1184.329507,9696.697840
3761.280537,-1225.752797,-222.061783,9622.677246
3761.280851,-919.314598,-296.082377,9844.739029
3761.281166,-536.266849,74.020594,9770.718434
3761.281481,-766.095498,814.226536,9474.636058
3761.281795,306.438199,1480.411884,9104.533087
3761.282110,1072.533697,1480.411884,8956.491898
3761.282425,842.705048,1554.432478,9474.636058
3761.282740,689.485948,1702.473667,9326.594869
3761.283054,1302.362347,1332.370696,9326.594869
3761.283369,459.657299,888.247130,9400.615463
3761.283684,919.314598,888.247130,10584.944971
3761.283998,0.000000,1258.350101,9844.739029
3761.284313,0.000000,444.123565,9622.677246
3761.284628,-1072.533697,-0.000000,9770.718434
3761.284942,-306.438199,-370.102971,10436.903782
3761.285257,-306.438199,-444.123565,10214.842000
3761.285572,0.000000,-148.041188,10436.903782
3761.285887,459.657299,-0.000000,10436.903782
3761.286201,153.219100,-0.000000,9548.656652
3761.286516,689.485948,1554.432478,9252.574275
3761.286831,919.314598,1184.329507,9474.636058
3761.287145,1608.800546,888.247130,9844.739029
3761.287460,1532.190996,1036.288319,9696.697840
3761.287775,1302.362347,962.267725,9696.697840
3761.288089,1302.362347,518.144159,10288.862594
3761.288404,536.266849,740.205942,9918.759623
3761.288719,0.000000,814.226536,9622.677246
3761.289034,0.000000,444.123565,10214.842000
3761.289348,153.219100,-148.041188,9992.780217
3761.289663,0.000000,222.061783,10214.842000
3761.289978,-383.047749,-0.000000,9918.759623
3761.290292,-536.266849,296.082377,10066.800811
3761.290607,0.000000,222.061783,9992.780217
3761.290922,-153.219100,888.247130,9474.636058
3761.291237,-229.828649,1406.391290,9400.615463
3761.291551,306.438199,1184.329507,9474.636058
3761.291866,842.705048,888.247130,9548.656652
3761.292181,919.314598,888.247130,8660.409521
3761.292495,766.095498,592.164754,8808.450710
3761.292810,842.705048,1184.329507,9178.553681
3761.293125,536.266849,1110.308913,9178.553681
3761.293439,-306.438199,962.267725,9474.636058
3761.293754,0.000000,-0.000000,9474.636058
3761.294069,-383.047749,-222.061783,9030.512492
3761.294384,-612.876398,-740.205942,9770.718434
3761.294698,-995.924147,-592.164754,9696.697840
3761.295013,-1072.533697,-1110.308913,10362.883188
3761.295328,-919.314598,-1110.308913,10140.821405
3761.295642,-459.657299,-592.164754,9474.636058
3761.295957,-229.828649,296.082377,9326.594869
3761.296272,153.219100,222.061783,8882.471304
3761.296586,306.438199,-296.082377,9400.615463
3761.296901,536.266849,-518.144159,9696.697840
3761.297216,383.047749,222.061783,8882.471304
3761.297531,383.047749,-222.061783,9474.636058
3761.297845,306.438199,-814.226536,9918.759623
3761.298160,229.828649,-444.123565,9474.636058
3761.298475,-306.438199,-814.226536,9326.594869
3761.298789,-689.485948,-1036.288319,10066.800811
3761.299104,-689.485948,-1480.411884,10066.800811
3761.299419,-995.924147,-1850.514855,10288.862594
3761.299734,-995.924147,-2294.638420,10362.883188
3761.300048,-689.485948,-1110.308913,10288.862594
3761.300363,-383.047749,-444.123565,9992.780217
3761.300678,229.828649,444.123565,9104.533087
3761.300992,842.705048,370.102971,9622.677246
3761.301307,1225.752797,444.123565,9326.594869
3761.301622,1072.533697,444.123565,8956.491898
3761.301936,1532.190996,444.123565,8808.450710
3761.302251,1455.581446,370.102971,9104.533087
3761.302566,1378.971896,666.185348,8882.471304
3761.302881,383.047749,666.185348,8290.306550
3761.303195,306.438199,296.082377,8734.430116
3761.303510,0.000000,-370.102971,9622.677246
3761.303825,0.000000,-740.205942,9622.677246
3761.304139,-689.485948,-814.226536,9918.759623
3761.304454,-383.047749,-370.102971,9844.739029
3761.304769,0.000000,-0.000000,9844.739029
3761.305083,153.219100,814.226536,8956.491898
3761.305398,459.657299,814.226536,8956.491898
3761.305713,995.924147,592.164754,9104.533087
3761.306028,1455.581446,1110.308913,8808.450710
3761.306342,1149.143247,1480.411884,8808.450710
3761.306657,1532.190996,1184.329507,8808.450710
3761.306972,995.924147,1036.288319,9252.574275
3761.307286,1378.971896,814.226536,8956.491898
3761.307601,229.828649,518.144159,9474.636058
3761.307916,-689.485948,-0.000000,9696.697840
3761.308230,-995.924147,-222.061783,10288.862594
3761.308545,-995.924147,-814.226536,10807.006753
3761.308860,-1685.410096,-74.020594,10955.047942
3761.309175,-1915.238745,-444.123565,10881.027347
3761.309489,-689.485948,-962.267725,11177.109724
3761.309804,-612.876398,222.061783,10362.883188
3761.310119,0.000000,1480.411884,9696.697840
3761.310433,459.657299,1184.329507,9844.739029
3761.310748,536.266849,1554.432478,9548.656652
3761.311063,919.314598,1554.432478,9474.636058
3761.311378,842.705048,1406.391290,9326.594869
3761.311692,1532.190996,888.247130,9770.718434
3761.312007,766.095498,1036.288319,9918.759623
3761.312322,0.000000,1258.350101,9548.656652
3761.312636,-153.219100,444.123565,9474.636058
3761.312951,-612.876398,-296.082377,10436.903782
3761.313266,-1072.533697,-444.123565,10955.047942
3761.313580,-766.095498,-0.000000,10510.924376
3761.313895,-229.828649,-222.061783,10214.842000
3761.314210,-229.828649,222.061783,10288.862594
3761.314525,-383.047749,814.226536,9548.656652
3761.314839,76.609550,1480.411884,9030.512492
3761.315154,459.657299,1110.308913,9252.574275
3761.315469,995.924147,1332.370696,9400.615463
3761.315783,995.924147,1406.391290,9104.533087
3761.316098,919.314598,1480.411884,8808.450710
3761.316413,612.876398,444.123565,9770.718434
3761.316727,229.828649,592.164754,9400.615463
3761.317042,-153.219100,592.164754,9030.512492
3761.317357,-306.438199,148.041188,8808.450710
3761.317672,76.609550,-1184.329507,9770.718434
3761.317986,-306.438199,-1184.329507,9474.636058
3761.318301,-612.876398,-1036.288319,9474.636058
3761.318616,-612.876398,-1258.350101,10066.800811
3761.318930,0.000000,-814.226536,9696.697840
3761.319245,76.609550,-296.082377,9474.636058
3761.319560,612.876398,-0.000000,8956.491898
3761.319875,1149.143247,-444.123565,9252.574275
3761.320189,1225.752797,-296.082377,8956.491898
3761.320504,1149.143247,-74.020594,9326.594869
3761.320819,919.314598,222.061783,9474.636058
3761.321133,766.095498,-740.205942,9696.697840
3761.321448,919.314598,-370.102971,9474.636058
3761.321763,459.657299,-444.123565,9178.553681
3761.322077,306.438199,-888.247130,9326.594869
3761.322392,0.000000,-1184.329507,10140.821405
3761.322707,-229.828649,-814.226536,10658.965565
3761.323022,-536.266849,-1110.308913,10066.800811
3761.323336,-306.438199,-888.247130,9696.697840
3761.323651,0.000000,-962.267725,10288.862594
3761.323966,383.047749,-592.164754,9918.759623
3761.324280,153.219100,-0.000000,9548.656652
3761.324595,76.609550,222.061783,9474.636058
3761.324910,153.219100,444.123565,9474.636058
3761.325224,0.000000,518.144159,9474.636058
3761.325539,153.219100,296.082377,9548.656652
3761.325854,383.047749,222.061783,9326.594869
3761.326168,383.047749,-0.000000,9326.594869
3761.326483,-229.828649,814.226536,8734.430116
3761.326798,0.000000,740.205942,8660.409521
3761.327112,0.000000,592.164754,9178.553681
3761.327427,-536.266849,-0.000000,9622.677246
3761.327741,-1149.143247,-0.000000,9252.574275
3761.328056,-689.485948,-518.144159,9548.656652
3761.328371,-766.095498,-444.123565,10288.862594
3761.328685,-766.095498,74.020594,9770.718434
3761.329000,-1225.752797,444.123565,9474.636058
3761.329314,-689.485948,-0.000000,9696.697840
3761.329629,-459.657299,296.082377,10214.842000
3761.329944,-306.438199,296.082377,10066.800811
3761.330258,0.000000,666.185348,10214.842000
3761.330573,0.000000,592.164754,9992.780217
3761.330888,306.438199,1184.329507,9474.636058
3761.331202,229.828649,1258.350101,8660.409521
3761.331517,612.876398,444.123565,9326.594869
3761.331831,919.314598,-74.020594,9252.574275
3761.332146,76.609550,-370.102971,9474.636058
3761.332461,-306.438199,-74.020594,9548.656652
3761.332775,-383.047749,-296.082377,10066.800811
3761.333090,-536.266849,-370.102971,10214.842000
3761.333404,-689.485948,-740.205942,10288.862594
3761.333719,-383.047749,-370.102971,10214.842000
3761.334034,0.000000,-74.020594,9992.780217
3761.334348,0.000000,370.102971,9844.739029
3761.334663,383.047749,1036.288319,10288.862594
3761.334978,459.657299,962.267725,9474.636058
3761.335292,1149.143247,740.205942,9770.718434
3761.335607,1225.752797,1258.350101,9474.636058
3761.335921,1225.752797,1480.411884,9252.574275
3761.336236,1072.533697,1332.370696,9104.533087
3761.336551,1149.143247,1258.350101,9622.677246
3761.336865,229.828649,444.123565,9696.697840
3761.337180,0.000000,148.041188,10288.862594
3761.337494,153.219100,-296.082377,9992.780217
3761.337809,-383.047749,-74.020594,10362.883188
3761.338124,153.219100,296.082377,10140.821405
3761.338438,153.219100,666.185348,9474.636058
3761.338753,383.047749,296.082377,9474.636058
3761.339068,459.657299,-0.000000,9622.677246
3761.339382,1149.143247,814.226536,9474.636058
3761.339697,919.314598,592.164754,8808.450710
3761.340011,1302.362347,592.164754,9326.594869
3761.340326,1685.410096,1258.350101,8734.430116
3761.340641,1532.190996,1332.370696,8290.306550
3761.340955,1455.581446,222.061783,8216.285956
3761.341270,1225.752797,-74.020594,9030.512492
3761.341584,229.828649,-222.061783,9770.718434
3761.341899,-76.609550,-296.082377,9474.636058
3761.342214,-459.657299,-1110.308913,9844.739029
3761.342528,-1302.362347,-1628.453072,10510.924376
3761.342843,-842.705048,-1036.288319,10214.842000
3761.343158,-536.266849,-444.123565,9474.636058
3761.343472,-229.828649,-222.061783,9770.718434
3761.343787,153.219100,-296.082377,9548.656652
3761.344101,76.609550,-0.000000,9474.636058
3761.344416,0.000000,-0.000000,9030.512492
3761.344731,766.095498,-222.061783,9696.697840
3761.345045,153.219100,666.185348,9474.636058
3761.345360,-536.266849,518.144159,9178.553681
3761.345674,-383.047749,-296.082377,9474.636058
3761.345989,-612.876398,-370.102971,10140.821405
3761.346304,-1072.533697,-518.144159,10214.842000
3761.346618,-1378.971896,-592.164754,10362.883188
3761.346933,-1225.752797,-888.247130,10436.903782
3761.347248,-842.705048,-1110.308913,11399.171507
3761.347562,-1149.143247,-0.000000,9548.656652
3761.347877,-383.047749,222.061783,9252.574275
3761.348191,76.609550,-0.000000,9400.615463
3761.348506,76.609550,-0.000000,9474.636058
3761.348821,229.828649,592.164754,9474.636058
3761.349135,-306.438199,296.082377,9400.615463
3761.349450,0.000000,296.082377,9400.615463
3761.349764,153.219100,444.123565,8956.491898
3761.350079,-229.828649,444.123565,9252.574275
3761.350394,0.000000,518.144159,9622.677246
3761.350708,0.000000,148.041188,9474.636058
3761.351023,-612.876398,-148.041188,9548.656652
3761.351338,-306.438199,-74.020594,9696.697840
3761.351652,-229.828649,-370.102971,9992.780217
3761.351967,0.000000,-0.000000,9622.677246
3761.352281,0.000000,518.144159,9178.553681
3761.352596,153.219100,962.267725,8956.491898
3761.352911,689.485948,-0.000000,9104.533087
3761.353225,612.876398,296.082377,9326.594869
3761.353540,306.438199,370.102971,9770.718434
3761.353854,612.876398,-0.000000,8808.450710
3761.354169,1072.533697,-0.000000,9622.677246
3761.354484,919.314598,814.226536,9474.636058
3761.354798,306.438199,444.123565,9400.615463
3761.355113,459.657299,148.041188,9548.656652
3761.355428,306.438199,-148.041188,9844.739029
3761.355742,229.828649,-0.000000,10214.842000
3761.356057,0.000000,-74.020594,10288.862594
3761.356371,76.609550,-222.061783,10881.027347
3761.356686,76.609550,-148.041188,10436.903782
3761.357001,0.000000,740.205942,9770.718434
3761.357315,229.828649,814.226536,9326.594869
3761.357630,536.266849,518.144159,9696.697840
3761.357944,1072.533697,518.144159,10066.800811
3761.358259,153.219100,444.123565,9474.636058
3761.358574,306.438199,370.102971,9622.677246
3761.358888,842.705048,518.144159,10214.842000
3761.359203,76.609550,666.185348,9918.759623
3761.359518,229.828649,666.185348,9918.759623
