#time,accel_x,accel_y,accel_z
3859.606753,229.828649,296.082377,9400.615463
3859.607067,0.000000,-0.000000,9770.718434
3859.607382,0.000000,222.061783,9992.780217
3859.607697,0.000000,222.061783,9548.656652
3859.608011,0.000000,-0.000000,9326.594869
3859.608326,153.219100,-0.000000,9622.677246
3859.608640,0.000000,74.020594,9474.636058
3859.608955,0.000000,-0.000000,9696.697840
3859.609269,76.609550,-0.000000,9474.636058
3859.609584,0.000000,-0.000000,9474.636058
3859.609898,0.000000,148.041188,9548.656652
3859.610213,459.657299,-148.041188,9696.697840
3859.610527,229.828649,-74.020594,9474.636058
3859.610842,0.000000,-0.000000,9622.677246
3859.611157,153.219100,-0.000000,9548.656652
3859.611471,306.438199,222.061783,9178.553681
3859.611786,153.219100,-74.020594,9400.615463
3859.612100,0.000000,-0.000000,9474.636058
3859.612415,0.000000,-0.000000,9548.656652
3859.612729,76.609550,-0.000000,9918.759623
3859.613044,229.828649,148.041188,9548.656652
3859.613358,383.047749,296.082377,9770.718434
3859.613673,0.000000,370.102971,9474.636058
3859.613987,76.609550,222.061783,9326.594869
3859.614302,229.828649,222.061783,9400.615463
3859.614617,306.438199,-0.000000,9548.656652
3859.614931,306.438199,-0.000000,9992.780217
3859.615246,0.000000,296.082377,9548.656652
3859.615560,0.000000,-0.000000,9622.677246
3859.615875,0.000000,222.061783,9696.697840
3859.616189,306.438199,222.061783,9770.718434
3859.616504,0.000000,-0.000000,9474.636058
3859.616818,0.000000,740.205942,9992.780217
3859.617133,0.000000,370.102971,9548.656652
3859.617448,153.219100,370.102971,9178.553681
3859.617762,0.000000,444.123565,9770.718434
3859.618077,0.000000,-0.000000,9696.697840
3859.618391,-383.047749,-0.000000,9474.636058
3859.618706,153.219100,-0.000000,9622.677246
3859.619020,76.609550,-0.000000,9770.718434
3859.619335,153.219100,-0.000000,9622.677246
3859.619649,0.000000,-0.000000,9474.636058
3859.619964,0.000000,-0.000000,9400.615463
3859.620278,76.609550,-148.041188,9548.656652
3859.620593,229.828649,148.041188,9548.656652
3859.620908,306.438199,-0.000000,9622.677246
3859.621222,76.609550,-0.000000,9622.677246
3859.621537,153.219100,-0.000000,9474.636058
3859.621851,306.438199,-0.000000,9622.677246
3859.622166,76.609550,-0.000000,9326.594869
3859.622480,306.438199,148.041188,9474.636058
3859.622795,383.047749,-74.020594,9548.656652
3859.623109,-229.828649,-0.000000,9696.697840
3859.623424,76.609550,-0.000000,9548.656652
3859.623738,76.609550,-0.000000,9622.677246
3859.624053,0.000000,296.082377,9844.739029
3859.624368,153.219100,296.082377,9474.636058
3859.624682,0.000000,-0.000000,9770.718434
3859.624997,306.438199,-0.000000,9326.594869
3859.625311,153.219100,370.102971,9548.656652
3859.625626,153.219100,296.082377,9844.739029
3859.625940,0.000000,-0.000000,9548.656652
3859.626255,-229.828649,-0.000000,9474.636058
3859.626569,0.000000,148.041188,9770.718434
3859.626884,383.047749,296.082377,9548.656652
3859.627198,229.828649,222.061783,9474.636058
3859.627513,306.438199,222.061783,9400.615463
3859.627828,0.000000,222.061783,9696.697840
3859.628142,76.609550,-0.000000,9474.636058
3859.628457,-153.219100,296.082377,9622.677246
3859.628771,0.000000,148.041188,9548.656652
3859.629086,-229.828649,-0.000000,9770.718434
3859.629400,536.266849,-0.000000,9252.574275
3859.629715,0.000000,-0.000000,9474.636058
3859.630029,0.000000,148.041188,9548.656652
3859.630344,0.000000,-0.000000,9326.594869
3859.630658,153.219100,-74.020594,9622.677246
3859.630973,153.219100,-74.020594,9548.656652
3859.631288,153.219100,-0.000000,9474.636058
3859.631602,383.047749,-0.000000,9548.656652
3859.631917,0.000000,-0.000000,9622.677246
3859.632231,306.438199,-0.000000,9622.677246
3859.632546,306.438199,370.102971,9326.594869
3859.632860,536.266849,-0.000000,9252.574275
3859.633175,229.828649,-0.000000,9622.677246
3859.633489,153.219100,-0.000000,9252.574275
3859.633804,0.000000,-0.000000,9622.677246
3859.634118,0.000000,-148.041188,9474.636058
3859.634433,0.000000,296.082377,9622.677246
3859.634748,153.219100,222.061783,9696.697840
3859.635062,0.000000,-0.000000,9696.697840
3859.635377,0.000000,222.061783,9770.718434
3859.635691,459.657299,-0.000000,9326.594869
3859.636006,76.609550,296.082377,9474.636058
3859.636320,306.438199,-0.000000,9770.718434
3859.636635,-229.828649,148.041188,9918.759623
3859.636949,0.000000,-0.000000,9622.677246
3859.637264,76.609550,-0.000000,9474.636058
3859.637578,76.609550,222.061783,10066.800811
3859.637893,0.000000,222.061783,9548.656652
3859.638208,0.000000,296.082377,9474.636058
3859.638522,0.000000,370.102971,9770.718434
3859.638837,306.438199,444.123565,9474.636058
3859.639151,153.219100,296.082377,9474.636058
3859.639466,0.000000,518.144159,9844.739029
3859.639780,76.609550,-0.000000,9622.677246
3859.640095,76.609550,222.061783,9474.636058
3859.640409,76.609550,222.061783,9548.656652
3859.640724,153.219100,296.082377,9696.697840
3859.641039,229.828649,148.041188,9474.636058
3859.641353,153.219100,-0.000000,9474.636058
3859.641668,153.219100,-0.000000,9474.636058
3859.641982,153.219100,-0.000000,9548.656652
3859.642297,536.266849,-222.061783,9770.718434
3859.642611,0.000000,-74.020594,9770.718434
3859.642926,689.485948,-0.000000,9918.759623
3859.643240,536.266849,-0.000000,9474.636058
3859.643555,612.876398,592.164754,9548.656652
3859.643869,919.314598,740.205942,9770.718434
3859.644184,612.876398,518.144159,9178.553681
3859.644499,842.705048,814.226536,8882.471304
3859.644813,766.095498,222.061783,8956.491898
3859.645128,766.095498,370.102971,9474.636058
3859.645442,766.095498,222.061783,9548.656652
3859.645757,0.000000,592.164754,10066.800811
3859.646071,306.438199,444.123565,10140.821405
3859.646386,306.438199,444.123565,9770.718434
3859.646700,536.266849,814.226536,9474.636058
3859.647015,766.095498,666.185348,9622.677246
3859.647329,1302.362347,592.164754,9474.636058
3859.647644,1149.143247,888.247130,9696.697840
3859.647959,1685.410096,814.226536,9770.718434
3859.648273,2068.457845,1332.370696,9770.718434
3859.648588,2451.505594,1332.370696,9770.718434
3859.648902,2528.115143,1776.494261,9696.697840
3859.649217,2757.943793,2072.576638,9548.656652
3859.649531,3064.381992,2146.597232,9178.553681
3859.649846,3294.210641,2442.679609,8808.450710
3859.650160,3830.477490,2442.679609,7994.224174
3859.650475,3370.820191,2220.617826,8438.347739
3859.650789,3447.429741,2072.576638,8734.430116
3859.651104,3600.648841,2072.576638,8734.430116
3859.651419,3524.039291,2220.617826,8882.471304
3859.651733,3447.429741,2368.659014,9178.553681
3859.652048,3370.820191,2590.720797,8882.471304
3859.652362,3064.381992,2960.823768,9400.615463
3859.652677,3064.381992,3108.864956,9178.553681
3859.652991,3064.381992,3182.885551,9030.512492
3859.653306,2757.943793,3034.844362,8808.450710
3859.653620,2834.553343,3552.988522,9178.553681
3859.653935,2757.943793,3478.967927,9104.533087
3859.654249,2681.334243,3627.009116,9548.656652
3859.654564,2451.505594,3478.967927,10288.862594
3859.654879,1838.629195,3478.967927,10436.903782
3859.655193,1608.800546,3627.009116,10807.006753
3859.655508,1762.019645,3849.070898,10658.965565
3859.655822,1378.971896,3552.988522,10732.986159
3859.656137,1915.238745,3627.009116,10955.047942
3859.656451,1838.629195,3701.029710,11029.068536
3859.656766,1838.629195,3552.988522,10658.965565
3859.657080,2145.067394,3627.009116,10362.883188
3859.657395,2298.286494,4071.132681,9770.718434
3859.657709,2298.286494,4219.173869,9622.677246
3859.658024,2604.724693,3775.050304,9696.697840
3859.658339,2834.553343,3256.906145,10362.883188
3859.658653,2528.115143,3256.906145,9918.759623
3859.658968,1991.848295,3182.885551,9844.739029
3859.659282,1915.238745,2812.782580,9992.780217
3859.659597,1762.019645,2886.803174,10510.924376
3859.659911,1915.238745,2812.782580,10066.800811
3859.660226,2068.457845,2812.782580,9844.739029
3859.660540,1685.410096,3034.844362,9622.677246
3859.660855,1608.800546,3108.864956,9548.656652
3859.661170,1685.410096,3034.844362,9474.636058
3859.661484,1685.410096,2960.823768,9474.636058
3859.661799,1762.019645,2738.761985,9326.594869
3859.662113,1225.752797,2220.617826,9548.656652
3859.662428,1302.362347,1776.494261,9770.718434
3859.662742,1762.019645,1406.391290,9918.759623
3859.663057,1378.971896,962.267725,10362.883188
3859.663371,919.314598,1258.350101,10362.883188
3859.663686,1302.362347,1480.411884,10140.821405
3859.664000,1532.190996,1850.514855,9992.780217
3859.664315,1991.848295,1850.514855,9622.677246
3859.664630,2298.286494,1924.535449,8808.450710
3859.664944,2911.162892,2442.679609,8438.347739
3859.665259,3370.820191,2072.576638,8660.409521
3859.665573,3294.210641,1702.473667,8660.409521
3859.665888,3447.429741,1628.453072,8586.388927
3859.666202,3370.820191,1628.453072,8438.347739
3859.666517,3140.991542,1258.350101,8882.471304
3859.666831,2911.162892,1258.350101,9252.574275
3859.667146,2451.505594,1110.308913,9178.553681
3859.667460,2145.067394,518.144159,8882.471304
3859.667775,1685.410096,370.102971,9252.574275
3859.668090,1455.581446,740.205942,9622.677246
3859.668404,1838.629195,296.082377,10066.800811
3859.668719,2221.676944,518.144159,10436.903782
3859.669033,2221.676944,814.226536,9992.780217
3859.669348,2604.724693,1554.432478,9696.697840
3859.669662,3600.648841,2294.638420,9252.574275
3859.669977,3983.696590,2738.761985,9030.512492
3859.670291,4519.963438,2590.720797,8586.388927
3859.670606,3140.991542,2664.741391,8142.265362
3859.670920,3524.039291,2220.617826,8068.244768
3859.671235,3064.381992,1628.453072,8660.409521
3859.671550,2145.067394,1110.308913,8660.409521
3859.671864,995.924147,444.123565,9844.739029
3859.672179,383.047749,-592.164754,10955.047942
3859.672493,-229.828649,-666.185348,11473.192101
3859.672808,-536.266849,-518.144159,12139.377449
3859.673122,-383.047749,-0.000000,12805.562797
3859.673437,612.876398,1184.329507,11843.295072
3859.673751,1915.238745,2442.679609,10436.903782
3859.674066,3217.601092,3627.009116,9178.553681
3859.674380,4213.525239,4441.235652,7994.224174
3859.674695,4903.011187,4811.338623,7031.956449
3859.675010,5515.887586,4885.359217,6809.894666
3859.675324,4903.011187,3923.091493,7328.038826
3859.675639,4060.306139,2812.782580,8438.347739
3859.675953,2145.067394,1998.556043,9918.759623
3859.676268,536.266849,888.247130,11325.150913
3859.676582,-383.047749,370.102971,12435.459826
3859.676897,-1532.190996,222.061783,12361.439231
3859.677211,-766.095498,1110.308913,11917.315666
3859.677526,-536.266849,2146.597232,11029.068536
3859.677840,612.876398,3034.844362,9548.656652
3859.678155,2068.457845,3997.112087,8068.244768
3859.678470,3677.258390,4145.153275,7550.100608
3859.678784,4673.182538,4737.318029,7846.182985
3859.679099,4596.572988,4589.276840,8142.265362
3859.679413,3753.867940,4145.153275,9104.533087
3859.679728,2987.772442,3478.967927,10288.862594
3859.680042,2451.505594,3478.967927,10807.006753
3859.680357,995.924147,3478.967927,11103.089130
3859.680671,306.438199,3478.967927,10732.986159
3859.680986,842.705048,2738.761985,10510.924376
3859.681300,1225.752797,1998.556043,10436.903782
3859.681615,1838.629195,2146.597232,9400.615463
3859.681930,2145.067394,2442.679609,9104.533087
3859.682244,2221.676944,2738.761985,8660.409521
3859.682559,2987.772442,2516.700203,8734.430116
3859.682873,3140.991542,3182.885551,8956.491898
3859.683188,2681.334243,3404.947333,8660.409521
3859.683502,2451.505594,3478.967927,9178.553681
3859.683817,2374.896044,2220.617826,10955.047942
3859.684131,2145.067394,1850.514855,11103.089130
3859.684446,1455.581446,1702.473667,11103.089130
3859.684761,1762.019645,2146.597232,11103.089130
3859.685075,2221.676944,3256.906145,10732.986159
3859.685390,2374.896044,3923.091493,9548.656652
3859.685704,3600.648841,3404.947333,8734.430116
3859.686019,3677.258390,3552.988522,7994.224174
3859.686333,3983.696590,2886.803174,8216.285956
3859.686648,3677.258390,2220.617826,8216.285956
3859.686962,3217.601092,888.247130,9474.636058
3859.687277,2451.505594,148.041188,10362.883188
3859.687591,1915.238745,444.123565,10584.944971
3859.687906,1225.752797,1332.370696,10510.924376
3859.688221,1608.800546,1406.391290,10807.006753
3859.688536,2374.896044,2294.638420,10732.986159
3859.688851,2451.505594,2368.659014,9622.677246
3859.689166,2834.553343,2664.741391,8882.471304
3859.689480,3677.258390,3478.967927,8364.327145
3859.689795,3753.867940,3330.926739,8068.244768
3859.690110,3677.258390,3256.906145,7772.162391
3859.690425,3064.381992,2146.597232,8438.347739
3859.690740,2681.334243,1110.308913,9622.677246
3859.691054,1685.410096,740.205942,11029.068536
3859.691369,689.485948,1480.411884,11103.089130
3859.691684,459.657299,592.164754,12065.356855
3859.691999,0.000000,1184.329507,10807.006753
3859.692314,383.047749,1036.288319,10807.006753
3859.692628,1149.143247,814.226536,10214.842000
3859.692943,1532.190996,1628.453072,9918.759623
3859.693258,2374.896044,2220.617826,9474.636058
3859.693573,2987.772442,2812.782580,8068.244768
3859.693888,3217.601092,3330.926739,7179.997637
3859.694203,3524.039291,3108.864956,7031.956449
3859.694517,4136.915689,1406.391290,7994.224174
3859.694832,2987.772442,1036.288319,8808.450710
3859.695147,1149.143247,444.123565,9992.780217
3859.695462,0.000000,370.102971,10214.842000
3859.695777,-383.047749,666.185348,10732.986159
3859.696091,-612.876398,592.164754,10955.047942
3859.696406,536.266849,222.061783,10732.986159
3859.696721,383.047749,1110.308913,10436.903782
3859.697036,766.095498,1628.453072,10362.883188
3859.697351,1225.752797,2072.576638,9252.574275
3859.697666,1762.019645,2738.761985,8734.430116
3859.697980,2911.162892,2812.782580,8364.327145
3859.698295,3983.696590,1924.535449,8882.471304
3859.698610,3753.867940,1924.535449,9178.553681
3859.698925,3140.991542,1850.514855,9770.718434
3859.699240,2451.505594,2294.638420,9696.697840
3859.699554,1378.971896,2738.761985,9474.636058
3859.699869,1762.019645,2294.638420,9844.739029
3859.700184,2068.457845,1628.453072,9770.718434
3859.700499,1762.019645,1332.370696,10066.800811
3859.700814,1225.752797,1110.308913,10436.903782
3859.701129,1532.190996,1850.514855,9178.553681
3859.701443,1915.238745,2590.720797,8586.388927
3859.701758,3524.039291,2442.679609,9548.656652
3859.702073,3830.477490,3256.906145,9030.512492
3859.702388,3370.820191,2812.782580,9474.636058
3859.702703,2834.553343,3182.885551,9474.636058
3859.703017,2145.067394,3182.885551,9104.533087
3859.703332,2451.505594,2886.803174,9992.780217
3859.703647,2145.067394,2220.617826,10140.821405
3859.703962,689.485948,2294.638420,10732.986159
3859.704277,0.000000,2220.617826,10807.006753
3859.704592,-229.828649,2368.659014,9622.677246
3859.704906,689.485948,1924.535449,10288.862594
3859.705221,1991.848295,1998.556043,10436.903782
3859.705536,1455.581446,1776.494261,10732.986159
3859.705851,1302.362347,2146.597232,9326.594869
3859.706166,1225.752797,2146.597232,8660.409521
3859.706480,1838.629195,1406.391290,9252.574275
3859.706795,2145.067394,1998.556043,9326.594869
3859.707110,1838.629195,2664.741391,9178.553681
3859.707425,1225.752797,2368.659014,9696.697840
3859.707740,536.266849,2886.803174,9178.553681
3859.708054,383.047749,1924.535449,9622.677246
3859.708369,383.047749,814.226536,10658.965565
3859.708684,459.657299,1332.370696,10362.883188
3859.708999,-612.876398,592.164754,10214.842000
3859.709314,-306.438199,1258.350101,9474.636058
3859.709629,383.047749,740.205942,9474.636058
3859.709943,536.266849,148.041188,10214.842000
3859.710258,766.095498,444.123565,9696.697840
3859.710573,-459.657299,962.267725,9622.677246
3859.710888,-383.047749,1628.453072,8882.471304
3859.711203,153.219100,1184.329507,9548.656652
3859.711517,766.095498,296.082377,9548.656652
3859.711832,229.828649,222.061783,9992.780217
3859.712147,-612.876398,592.164754,9992.780217
3859.712462,-1378.971896,740.205942,9770.718434
3859.712777,-766.095498,-0.000000,9696.697840
3859.713092,306.438199,-592.164754,10288.862594
3859.713406,536.266849,-370.102971,9696.697840
3859.713721,-383.047749,-518.144159,9918.759623
3859.714036,-612.876398,-148.041188,9548.656652
3859.714351,-153.219100,-1184.329507,9992.780217
3859.714666,612.876398,-740.205942,9474.636058
3859.714980,1072.533697,-1258.350101,9474.636058
3859.715295,612.876398,-0.000000,8660.409521
3859.715610,0.000000,888.247130,7846.182985
3859.715925,919.314598,-0.000000,8660.409521
3859.716240,1455.581446,-1036.288319,9326.594869
3859.716555,1072.533697,-370.102971,8438.347739
3859.716869,383.047749,-888.247130,9030.512492
3859.717184,0.000000,-592.164754,8512.368333
3859.717499,459.657299,-1850.514855,10214.842000
3859.717814,306.438199,-2146.597232,9918.759623
3859.718129,0.000000,-1480.411884,9992.780217
3859.718443,-459.657299,-592.164754,9918.759623
3859.718758,-766.095498,-1036.288319,9622.677246
3859.719073,153.219100,-1184.329507,10066.800811
3859.719388,383.047749,-1332.370696,9992.780217
3859.719703,766.095498,-814.226536,8808.450710
3859.720018,229.828649,-74.020594,9178.553681
3859.720332,536.266849,-0.000000,8512.368333
3859.720647,1455.581446,-962.267725,9400.615463
3859.720962,1685.410096,-962.267725,9326.594869
3859.721277,842.705048,-1258.350101,9252.574275
3859.721592,0.000000,-814.226536,9696.697840
3859.721906,-919.314598,-814.226536,10584.944971
3859.722221,-612.876398,-1776.494261,11103.089130
3859.722536,-766.095498,-1258.350101,9844.739029
3859.722851,-536.266849,-1628.453072,9918.759623
3859.723166,-1378.971896,-592.164754,9992.780217
3859.723481,-1225.752797,-740.205942,9474.636058
3859.723795,-76.609550,-592.164754,10510.924376
3859.724110,766.095498,148.041188,8956.491898
3859.724425,76.609550,296.082377,9104.533087
3859.724740,0.000000,1110.308913,8956.491898
3859.725055,0.000000,-74.020594,9548.656652
3859.725369,153.219100,-74.020594,9918.759623
3859.725684,0.000000,-296.082377,9548.656652
3859.725999,-689.485948,370.102971,9474.636058
3859.726314,-1149.143247,740.205942,9400.615463
3859.726629,-1072.533697,-0.000000,9622.677246
3859.726943,-383.047749,-0.000000,10066.800811
3859.727258,0.000000,-148.041188,9474.636058
3859.727573,-1149.143247,148.041188,9104.533087
3859.727888,-842.705048,962.267725,8882.471304
3859.728203,-459.657299,518.144159,9400.615463
3859.728518,229.828649,518.144159,9474.636058
3859.728832,229.828649,444.123565,8956.491898
3859.729147,0.000000,1258.350101,9104.533087
3859.729462,-459.657299,1998.556043,8734.430116
3859.729777,0.000000,1258.350101,9474.636058
3859.730092,536.266849,1332.370696,9474.636058
3859.730406,612.876398,1406.391290,9622.677246
3859.730721,306.438199,1480.411884,9696.697840
3859.731036,0.000000,1554.432478,8808.450710
3859.731351,1072.533697,592.164754,10584.944971
3859.731666,1532.190996,666.185348,10140.821405
3859.731981,383.047749,1406.391290,9992.780217
3859.732295,229.828649,1776.494261,9548.656652
3859.732610,153.219100,1554.432478,9326.594869
3859.732925,995.924147,1110.308913,10510.924376
3859.733240,1455.581446,444.123565,10140.821405
3859.733555,766.095498,444.123565,9918.759623
3859.733869,0.000000,740.205942,10214.842000
3859.734184,0.000000,1184.329507,10214.842000
3859.734499,459.657299,296.082377,11251.130318
3859.734814,1685.410096,888.247130,10436.903782
3859.735129,919.314598,666.185348,9992.780217
3859.735444,536.266849,1332.370696,9474.636058
3859.735758,612.876398,1850.514855,9400.615463
3859.736073,1149.143247,962.267725,9548.656652
3859.736388,1685.410096,-0.000000,9252.574275
3859.736703,995.924147,740.205942,9104.533087
3859.737018,612.876398,-0.000000,9696.697840
3859.737332,383.047749,-74.020594,9992.780217
3859.737647,459.657299,-0.000000,10807.006753
3859.737962,153.219100,-148.041188,10436.903782
3859.738277,-536.266849,592.164754,9326.594869
3859.738592,-536.266849,518.144159,9548.656652
3859.738907,76.609550,-444.123565,9474.636058
3859.739221,919.314598,-296.082377,9474.636058
3859.739536,1149.143247,-0.000000,8956.491898
3859.739851,0.000000,-148.041188,9252.574275
3859.740166,-153.219100,962.267725,8142.265362
3859.740481,-153.219100,-518.144159,9696.697840
3859.740795,306.438199,-666.185348,10140.821405
3859.741110,153.219100,-1110.308913,9400.615463
3859.741425,-1149.143247,-592.164754,9622.677246
3859.741740,-1225.752797,-0.000000,9178.553681
3859.742055,-842.705048,-370.102971,9400.615463
3859.742369,229.828649,-888.247130,9548.656652
3859.742684,689.485948,-444.123565,9030.512492
3859.742999,-153.219100,444.123565,7994.224174
3859.743314,-536.266849,-222.061783,7920.203579
3859.743629,0.000000,-814.226536,9548.656652
3859.743944,153.219100,-592.164754,9474.636058
3859.744258,-459.657299,-148.041188,8734.430116
3859.744573,-1225.752797,-962.267725,10362.883188
3859.744888,-1608.800546,-518.144159,10066.800811
3859.745203,-995.924147,-1702.473667,10955.047942
3859.745518,76.609550,-888.247130,10140.821405
3859.745832,-689.485948,-1036.288319,9918.759623
3859.746147,-919.314598,-0.000000,9474.636058
3859.746462,-612.876398,-0.000000,9474.636058
3859.746777,383.047749,-0.000000,9918.759623
3859.747092,766.095498,-592.164754,9992.780217
3859.747407,383.047749,-444.123565,9252.574275
3859.747721,306.438199,296.082377,8808.450710
3859.748036,0.000000,-0.000000,9178.553681
3859.748351,536.266849,-1110.308913,9844.739029
3859.748666,995.924147,-1258.350101,9474.636058
3859.748981,-153.219100,-814.226536,9844.739029
3859.749295,-153.219100,-148.041188,9326.594869
3859.749610,-229.828649,-1110.308913,9844.739029
3859.749925,612.876398,-1184.329507,10658.965565
3859.750240,919.314598,-1036.288319,9622.677246
3859.750555,229.828649,-0.000000,8956.491898
3859.750870,229.828649,592.164754,8734.430116
3859.751184,0.000000,518.144159,8956.491898
3859.751499,689.485948,222.061783,9918.759623
3859.751814,1378.971896,-0.000000,9622.677246
3859.752129,229.828649,518.144159,9474.636058
3859.752444,306.438199,666.185348,8808.450710
3859.752758,306.438199,-296.082377,10214.842000
3859.753073,612.876398,222.061783,9992.780217
3859.753388,689.485948,148.041188,10066.800811
3859.753703,153.219100,592.164754,9326.594869
3859.754018,-229.828649,1406.391290,8956.491898
3859.754333,383.047749,1110.308913,9696.697840
3859.754647,1608.800546,962.267725,9178.553681
3859.754962,1149.143247,1110.308913,8586.388927
3859.755277,612.876398,888.247130,9030.512492
3859.755592,0.000000,444.123565,8882.471304
3859.755907,766.095498,-222.061783,10288.862594
3859.756221,536.266849,148.041188,10584.944971
3859.756536,0.000000,1702.473667,9844.739029
3859.756851,-766.095498,2072.576638,10214.842000
3859.757166,-766.095498,1998.556043,9474.636058
3859.757481,229.828649,296.082377,10584.944971
3859.757795,766.095498,962.267725,10214.842000
3859.758110,383.047749,1184.329507,9992.780217
3859.758425,-306.438199,2368.659014,9474.636058
3859.758740,-153.219100,1998.556043,9770.718434
3859.759055,0.000000,1554.432478,10362.883188
3859.759370,766.095498,296.082377,10288.862594
3859.759684,229.828649,592.164754,10214.842000
3859.759999,-689.485948,1258.350101,9474.636058
3859.760314,-689.485948,1036.288319,9474.636058
3859.760629,76.609550,148.041188,10288.862594
3859.760944,76.609550,-74.020594,9548.656652
3859.761258,-306.438199,-222.061783,9400.615463
3859.761573,-612.876398,666.185348,8956.491898
3859.761888,-612.876398,592.164754,9400.615463
3859.762203,612.876398,-222.061783,10288.862594
3859.762518,842.705048,444.123565,8808.450710
3859.762833,0.000000,740.205942,9252.574275
3859.763147,-536.266849,814.226536,9178.553681
3859.763462,-383.047749,370.102971,9918.759623
3859.763777,229.828649,-0.000000,10732.986159
3859.764092,766.095498,-0.000000,9992.780217
3859.764407,0.000000,592.164754,9622.677246
3859.764721,-459.657299,1036.288319,9326.594869
3859.765036,0.000000,296.082377,10288.862594
3859.765351,536.266849,-444.123565,10066.800811
3859.765666,919.314598,-592.164754,9326.594869
3859.765981,0.000000,444.123565,9030.512492
3859.766296,-306.438199,370.102971,8586.388927
3859.766610,0.000000,-666.185348,9548.656652
3859.766925,536.266849,-888.247130,9770.718434
3859.767240,612.876398,-888.247130,9474.636058
3859.767555,0.000000,-222.061783,8956.491898
3859.767870,0.000000,-0.000000,8586.388927
3859.768184,306.438199,-666.185348,9326.594869
3859.768499,919.314598,-1554.432478,9770.718434
3859.768814,536.266849,-1110.308913,9474.636058
3859.769129,0.000000,148.041188,9104.533087
3859.769444,-229.828649,222.061783,8512.368333
3859.769759,612.876398,-148.041188,9992.780217
3859.770073,1149.143247,-296.082377,9104.533087
3859.770388,459.657299,-518.144159,9104.533087
3859.770703,76.609550,-148.041188,9400.615463
3859.771018,0.000000,-666.185348,9326.594869
3859.771333,153.219100,-888.247130,9844.739029
3859.771647,919.314598,-1776.494261,9622.677246
3859.771962,-153.219100,-1184.329507,9770.718434
3859.772277,-919.314598,-0.000000,9548.656652
3859.772592,-1072.533697,-148.041188,9400.615463
3859.772907,-306.438199,-962.267725,10362.883188
3859.773221,1072.533697,-592.164754,9474.636058
3859.773536,229.828649,-740.205942,9474.636058
3859.773851,0.000000,1184.329507,8512.368333
3859.774166,0.000000,-148.041188,10140.821405
3859.774481,689.485948,-740.205942,10288.862594
3859.774796,689.485948,-666.185348,10288.862594
3859.775110,306.438199,-0.000000,9474.636058
3859.775425,0.000000,-0.000000,10066.800811
3859.775740,-306.438199,444.123565,10584.944971
3859.776055,383.047749,-0.000000,10362.883188
3859.776370,612.876398,-0.000000,9844.739029
3859.776684,0.000000,444.123565,9474.636058
3859.776999,-383.047749,740.205942,9326.594869
3859.777314,229.828649,814.226536,9474.636058
3859.777629,766.095498,444.123565,9474.636058
3859.777944,689.485948,518.144159,9696.697840
3859.778259,-306.438199,444.123565,9400.615463
3859.778573,-612.876398,1036.288319,9252.574275
3859.778888,-842.705048,-0.000000,9992.780217
3859.779203,153.219100,-518.144159,10066.800811
3859.779518,0.000000,-740.205942,9622.677246
3859.779833,-1302.362347,-0.000000,9918.759623
3859.780147,-1915.238745,888.247130,9770.718434
3859.780462,-1838.629195,666.185348,10436.903782
3859.780777,229.828649,-148.041188,10955.047942
3859.781092,689.485948,148.041188,10362.883188
3859.781407,766.095498,1554.432478,9030.512492
3859.781722,383.047749,2146.597232,8216.285956
3859.782036,919.314598,1480.411884,9474.636058
3859.782351,1608.800546,1332.370696,9622.677246
3859.782666,1225.752797,666.185348,8734.430116
3859.782981,842.705048,518.144159,8882.471304
3859.783296,383.047749,-0.000000,9400.615463
3859.783610,-306.438199,-0.000000,9474.636058
3859.783925,-229.828649,-370.102971,9474.636058
3859.784240,-229.828649,-370.102971,9474.636058
3859.784555,-689.485948,148.041188,9474.636058
3859.784870,-383.047749,148.041188,9178.553681
3859.785185,536.266849,-0.000000,9844.739029
3859.785499,1302.362347,296.082377,9474.636058
3859.785814,995.924147,814.226536,9178.553681
3859.786129,76.609550,1480.411884,8808.450710
3859.786444,153.219100,1702.473667,9622.677246
3859.786759,919.314598,518.144159,10436.903782
3859.787074,1302.362347,370.102971,9770.718434
3859.787389,229.828649,370.102971,9548.656652
3859.787704,-612.876398,1332.370696,9252.574275
3859.788019,-919.314598,666.185348,9844.739029
3859.788334,0.000000,-0.000000,10288.862594
3859.788649,612.876398,-444.123565,10140.821405
3859.788964,0.000000,-222.061783,9400.615463
3859.789279,-306.438199,370.102971,8808.450710
3859.789594,-306.438199,-222.061783,9548.656652
3859.789909,689.485948,-444.123565,9992.780217
3859.790224,766.095498,-370.102971,9770.718434
3859.790539,0.000000,666.185348,9696.697840
3859.790854,-153.219100,1480.411884,9178.553681
3859.791169,306.438199,888.247130,9844.739029
3859.791484,1302.362347,-74.020594,10510.924376
3859.791799,995.924147,-222.061783,10066.800811
3859.792114,306.438199,518.144159,9696.697840
3859.792429,76.609550,1036.288319,9548.656652
3859.792744,-153.219100,370.102971,9770.718434
3859.793059,842.705048,-1036.288319,10214.842000
3859.793374,459.657299,-518.144159,9474.636058
3859.793689,-689.485948,-444.123565,9844.739029
3859.794004,-1302.362347,-74.020594,9696.697840
3859.794319,-459.657299,-1258.350101,10362.883188
3859.794634,229.828649,-1332.370696,9696.697840
3859.794949,0.000000,-1406.391290,9474.636058
3859.795264,-919.314598,-592.164754,9844.739029
3859.795579,-766.095498,-0.000000,9400.615463
3859.795894,153.219100,-0.000000,9844.739029
3859.796209,1302.362347,-444.123565,10362.883188
3859.796523,995.924147,-0.000000,8512.368333
3859.796838,536.266849,-0.000000,8512.368333
3859.797153,0.000000,518.144159,8882.471304
3859.797468,0.000000,-1036.288319,10288.862594
3859.797783,612.876398,-1110.308913,9622.677246
3859.798098,-612.876398,-962.267725,9178.553681
3859.798413,-919.314598,-222.061783,9474.636058
3859.798728,-842.705048,-1110.308913,9326.594869
3859.799043,-612.876398,-1628.453072,10955.047942
3859.799358,153.219100,-740.205942,10510.924376
3859.799673,-383.047749,-222.061783,9030.512492
3859.799988,-689.485948,370.102971,9178.553681
3859.800303,0.000000,222.061783,9104.533087
3859.800618,766.095498,-0.000000,9474.636058
3859.800933,1532.190996,-148.041188,8216.285956
3859.801248,842.705048,-148.041188,8290.306550
3859.801563,0.000000,592.164754,8438.347739
3859.801878,0.000000,296.082377,8882.471304
3859.802193,306.438199,-74.020594,9622.677246
3859.802508,-153.219100,-148.041188,9474.636058
3859.802823,-995.924147,-0.000000,9030.512492
3859.803138,-995.924147,296.082377,9696.697840
3859.803453,-842.705048,-74.020594,9622.677246
3859.803768,0.000000,-222.061783,9918.759623
3859.804083,306.438199,-370.102971,9548.656652
3859.804398,153.219100,814.226536,8882.471304
3859.804713,76.609550,1184.329507,9400.615463
3859.805028,612.876398,814.226536,9252.574275
3859.805343,1072.533697,592.164754,9992.780217
3859.805658,1302.362347,814.226536,9474.636058
3859.805973,459.657299,1628.453072,9474.636058
3859.806288,459.657299,1850.514855,8808.450710
3859.806603,612.876398,592.164754,9992.780217
3859.806918,995.924147,-74.020594,11399.171507
3859.807233,689.485948,296.082377,10140.821405
3859.807547,0.000000,1184.329507,9622.677246
3859.807862,-306.438199,888.247130,9548.656652
3859.808177,383.047749,666.185348,10510.924376
3859.808492,995.924147,-0.000000,10362.883188
3859.808807,919.314598,-0.000000,10288.862594
3859.809122,-153.219100,962.267725,10214.842000
3859.809437,-383.047749,1480.411884,9326.594869
3859.809752,0.000000,814.226536,10881.027347
3859.810067,536.266849,814.226536,10807.006753
3859.810382,383.047749,444.123565,10288.862594
3859.810697,0.000000,888.247130,9548.656652
3859.811012,-459.657299,814.226536,9844.739029
3859.811327,76.609550,-0.000000,11325.150913
3859.811642,1225.752797,666.185348,9918.759623
3859.811957,536.266849,1258.350101,9400.615463
3859.812272,153.219100,1628.453072,8956.491898
3859.812587,0.000000,1258.350101,8734.430116
3859.812902,766.095498,-0.000000,9030.512492
3859.813217,689.485948,-0.000000,9326.594869
3859.813532,-383.047749,370.102971,9474.636058
3859.813847,-1302.362347,518.144159,9770.718434
3859.814162,-1455.581446,-518.144159,9992.780217
3859.814477,-766.095498,-740.205942,10732.986159
3859.814792,-459.657299,-888.247130,9992.780217
3859.815107,-919.314598,296.082377,9548.656652
3859.815422,-1378.971896,962.267725,9696.697840
3859.815737,-919.314598,370.102971,9252.574275
3859.816052,536.266849,-0.000000,9178.553681
3859.816367,919.314598,222.061783,8956.491898
3859.816682,459.657299,-222.061783,8808.450710
3859.816997,0.000000,444.123565,8734.430116
3859.817312,612.876398,148.041188,9474.636058
3859.817627,766.095498,-296.082377,9622.677246
3859.817942,536.266849,-592.164754,8734.430116
3859.818257,-459.657299,-74.020594,8956.491898
3859.818572,-1225.752797,-0.000000,8882.471304
3859.818886,-995.924147,-962.267725,9252.574275
3859.819201,306.438199,-1258.350101,9474.636058
3859.819516,306.438199,-1258.350101,8808.450710
3859.819831,-229.828649,-74.020594,8882.471304
3859.820146,229.828649,222.061783,8956.491898
3859.820461,229.828649,-888.247130,9992.780217
3859.820776,1225.752797,-592.164754,9992.780217
3859.821091,995.924147,-222.061783,9326.594869
3859.821406,76.609550,592.164754,9622.677246
3859.821721,-306.438199,1036.288319,9474.636058
3859.822036,229.828649,148.041188,10584.944971
3859.822351,1302.362347,-0.000000,9696.697840
3859.822666,689.485948,-222.061783,9696.697840
3859.822981,229.828649,296.082377,9844.739029
3859.823296,612.876398,222.061783,9104.533087
3859.823611,1072.533697,-740.205942,9844.739029
3859.823926,1608.800546,-1036.288319,9844.739029
3859.824241,306.438199,-666.185348,9252.574275
3859.824556,-306.438199,-74.020594,9252.574275
3859.824871,0.000000,-370.102971,9992.780217
3859.825186,919.314598,-444.123565,10658.965565
3859.825501,689.485948,-296.082377,9622.677246
3859.825816,383.047749,-74.020594,9326.594869
3859.826131,-459.657299,296.082377,10214.842000
3859.826446,153.219100,-0.000000,9918.759623
3859.826761,766.095498,-370.102971,10510.924376
3859.827076,1838.629195,666.185348,9844.739029
3859.827391,766.095498,370.102971,9770.718434
3859.827706,383.047749,1406.391290,8734.430116
3859.828021,-153.219100,-0.000000,10362.883188
3859.828336,459.657299,222.061783,10140.821405
3859.828651,689.485948,-592.164754,9474.636058
3859.828966,-459.657299,444.123565,9104.533087
3859.829281,-842.705048,518.144159,9474.636058
3859.829596,-995.924147,148.041188,10362.883188
3859.829910,0.000000,-0.000000,10510.924376
3859.830225,-229.828649,-666.185348,9622.677246
3859.830540,-612.876398,222.061783,9844.739029
3859.830855,-766.095498,1184.329507,8956.491898
3859.831170,0.000000,814.226536,9474.636058
3859.831485,1149.143247,962.267725,9474.636058
3859.831800,766.095498,1184.329507,8586.388927
3859.832115,0.000000,1258.350101,8438.347739
3859.832430,-229.828649,666.185348,9400.615463
3859.832745,-383.047749,-0.000000,9770.718434
3859.833060,-229.828649,-740.205942,10066.800811
3859.833375,-383.047749,-222.061783,9844.739029
3859.833690,-1762.019645,370.102971,10658.965565
3859.834005,-2145.067394,814.226536,9252.574275
3859.834320,-766.095498,-148.041188,10288.862594
3859.834635,229.828649,370.102971,9252.574275
3859.834950,0.000000,444.123565,9326.594869
3859.835265,0.000000,2146.597232,8438.347739
3859.835580,-383.047749,1184.329507,9178.553681
3859.835895,766.095498,592.164754,9326.594869
3859.836210,1302.362347,-0.000000,9622.677246
3859.836525,536.266849,444.123565,9326.594869
3859.836840,0.000000,666.185348,10066.800811
3859.837155,0.000000,1184.329507,9992.780217
3859.837470,76.609550,-0.000000,10436.903782
3859.837785,229.828649,-0.000000,10066.800811
3859.838100,76.609550,-74.020594,9696.697840
3859.838415,0.000000,962.267725,8882.471304
3859.838730,229.828649,222.061783,9474.636058
3859.839045,1072.533697,-592.164754,10288.862594
3859.839360,1455.581446,-222.061783,9104.533087
3859.839675,1072.533697,-0.000000,9474.636058
3859.839990,229.828649,592.164754,9770.718434
3859.840305,0.000000,148.041188,9696.697840
3859.840620,919.314598,-222.061783,10436.903782
3859.840934,612.876398,-888.247130,10140.821405
3859.841249,383.047749,740.205942,9918.759623
3859.841564,-306.438199,1184.329507,9400.615463
3859.841879,-229.828649,-0.000000,10214.842000
3859.842194,1072.533697,-666.185348,10807.006753
3859.842509,1378.971896,-0.000000,9844.739029
3859.842824,919.314598,-0.000000,9326.594869
3859.843139,459.657299,518.144159,9326.594869
3859.843454,153.219100,-148.041188,10140.821405
3859.843769,689.485948,-740.205942,9622.677246
3859.844084,612.876398,-888.247130,9770.718434
3859.844399,153.219100,-296.082377,9770.718434
3859.844714,-1072.533697,-74.020594,8882.471304
3859.845029,0.000000,-0.000000,9622.677246
3859.845344,383.047749,-592.164754,9622.677246
3859.845659,306.438199,-592.164754,9474.636058
3859.845974,229.828649,-148.041188,9178.553681
3859.846289,-306.438199,592.164754,8586.388927
3859.846604,536.266849,-148.041188,10288.862594
3859.846919,1149.143247,592.164754,8734.430116
3859.847234,612.876398,518.144159,8586.388927
3859.847549,0.000000,518.144159,8956.491898
3859.847864,-766.095498,222.061783,8882.471304
3859.848179,-229.828649,-518.144159,9918.759623
3859.848494,153.219100,-1036.288319,10066.800811
3859.848809,-383.047749,-222.061783,9918.759623
3859.849124,-995.924147,-0.000000,9918.759623
3859.849439,-1915.238745,370.102971,9918.759623
3859.849754,-1378.971896,-444.123565,10436.903782
3859.850069,-306.438199,-370.102971,9622.677246
3859.850384,153.219100,-296.082377,9178.553681
3859.850699,-536.266849,148.041188,8660.409521
3859.851014,-536.266849,148.041188,9474.636058
3859.851329,0.000000,-0.000000,9400.615463
3859.851644,459.657299,-888.247130,9622.677246
3859.851958,-229.828649,-0.000000,10436.903782
3859.852273,-689.485948,888.247130,9104.533087
3859.852588,-536.266849,518.144159,9104.533087
3859.852903,229.828649,-148.041188,10140.821405
3859.853218,306.438199,-222.061783,10140.821405
3859.853533,0.000000,222.061783,9474.636058
3859.853848,-306.438199,888.247130,8734.430116
3859.854163,-536.266849,518.144159,9622.677246
3859.854478,612.876398,-0.000000,9326.594869
3859.854793,842.705048,-740.205942,9474.636058
3859.855108,306.438199,-0.000000,9844.739029
3859.855423,-612.876398,-0.000000,9474.636058
3859.855738,-306.438199,518.144159,9622.677246
3859.856053,919.314598,-148.041188,10140.821405
3859.856368,612.876398,592.164754,10066.800811
3859.856683,842.705048,666.185348,9770.718434
3859.856998,0.000000,1332.370696,8956.491898
3859.857313,383.047749,888.247130,9918.759623
3859.857628,1302.362347,148.041188,9918.759623
3859.857943,1532.190996,222.061783,9178.553681
3859.858258,1378.971896,814.226536,8956.491898
3859.858573,459.657299,370.102971,8660.409521
3859.858888,689.485948,296.082377,9252.574275
3859.859203,1378.971896,-444.123565,9918.759623
3859.859518,1149.143247,-518.144159,9770.718434
3859.859833,0.000000,296.082377,9622.677246
3859.860148,-383.047749,740.205942,9770.718434
3859.860463,229.828649,222.061783,10510.924376
3859.860778,612.876398,-222.061783,10362.883188
3859.861093,306.438199,518.144159,9696.697840
3859.861408,0.000000,1036.288319,9696.697840
3859.861723,153.219100,1628.453072,9326.594869
3859.862038,1378.971896,1110.308913,9918.759623
3859.862353,1991.848295,1332.370696,8808.450710
3859.862668,612.876398,888.247130,9178.553681
3859.862982,0.000000,444.123565,9622.677246
3859.863297,-689.485948,370.102971,9622.677246
3859.863612,-459.657299,-370.102971,9992.780217
3859.863927,-229.828649,-592.164754,10584.944971
3859.864242,-1225.752797,-148.041188,9844.739029
3859.864557,-2068.457845,-148.041188,9622.677246
3859.864872,-2221.676944,-0.000000,9770.718434
3859.865187,-689.485948,-296.082377,10066.800811
3859.865502,459.657299,-148.041188,9696.697840
3859.865817,306.438199,666.185348,8956.491898
3859.866132,-459.657299,1332.370696,8216.285956
3859.866447,-229.828649,1110.308913,9252.574275
3859.866762,536.266849,444.123565,9622.677246
3859.867077,689.485948,444.123565,9696.697840
3859.867392,-229.828649,740.205942,9474.636058
3859.867707,-1072.533697,888.247130,9622.677246
3859.868022,-612.876398,518.144159,10436.903782
3859.868337,-536.266849,-222.061783,10658.965565
3859.868652,-383.047749,-518.144159,10288.862594
3859.868967,-689.485948,-296.082377,10732.986159
3859.869282,-1302.362347,-0.000000,9474.636058
3859.869597,-612.876398,296.082377,9918.759623
3859.869912,612.876398,-148.041188,9548.656652
3859.870227,842.705048,-0.000000,9400.615463
3859.870542,153.219100,-296.082377,9104.533087
3859.870857,0.000000,888.247130,8882.471304
3859.871172,229.828649,-148.041188,9770.718434
3859.871487,1225.752797,-296.082377,9548.656652
3859.871802,1225.752797,-148.041188,9770.718434
3859.872117,153.219100,740.205942,10066.800811
3859.872432,0.000000,-0.000000,10288.862594
3859.872747,-383.047749,-444.123565,10658.965565
3859.873062,766.095498,-370.102971,9622.677246
3859.873377,612.876398,-444.123565,9400.615463
3859.873692,76.609550,-74.020594,8956.491898
3859.874006,-153.219100,-222.061783,9400.615463
3859.874321,153.219100,-592.164754,9548.656652
3859.874636,1302.362347,-1258.350101,9622.677246
3859.874951,612.876398,-1184.329507,9474.636058
3859.875266,229.828649,-148.041188,9844.739029
3859.875581,0.000000,296.082377,9104.533087
3859.875896,612.876398,-444.123565,9770.718434
3859.876211,1378.971896,-814.226536,9622.677246
3859.876526,1072.533697,-1036.288319,9104.533087
3859.876841,306.438199,518.144159,8438.347739
3859.877156,76.609550,518.144159,9104.533087
3859.877471,459.657299,-0.000000,8586.388927
3859.877786,1149.143247,-370.102971,8586.388927
3859.878101,766.095498,-814.226536,9104.533087
3859.878416,-306.438199,-296.082377,9252.574275
3859.878731,-383.047749,-518.144159,9918.759623
3859.879046,0.000000,-962.267725,10362.883188
3859.879361,0.000000,-296.082377,10140.821405
3859.879676,-459.657299,222.061783,9770.718434
3859.879991,-1072.533697,740.205942,9474.636058
3859.880306,-995.924147,592.164754,9622.677246
3859.880621,383.047749,-0.000000,9252.574275
3859.880936,1302.362347,-0.000000,9252.574275
3859.881251,612.876398,1184.329507,8956.491898
3859.881566,153.219100,1258.350101,8364.327145
3859.881881,459.657299,1036.288319,9104.533087
3859.882196,612.876398,592.164754,9474.636058
3859.882511,919.314598,444.123565,9844.739029
3859.882826,0.000000,1110.308913,9622.677246
3859.883141,-1149.143247,1184.329507,9770.718434
3859.883456,-919.314598,592.164754,10362.883188
3859.883771,-383.047749,-0.000000,9844.739029
3859.884086,0.000000,-148.041188,9622.677246
3859.884401,-1149.143247,-0.000000,9992.780217
3859.884716,-1302.362347,814.226536,10510.924376
3859.885030,-459.657299,222.061783,10807.006753
3859.885345,76.609550,296.082377,9548.656652
3859.885660,153.219100,-444.123565,10955.047942
3859.885975,-689.485948,814.226536,9770.718434
3859.886290,-1149.143247,1554.432478,9622.677246
3859.886605,0.000000,444.123565,10214.842000
3859.886920,612.876398,370.102971,9844.739029
3859.887235,229.828649,-0.000000,9918.759623
3859.887550,-153.219100,370.102971,9696.697840
3859.887865,-383.047749,1184.329507,10140.821405
3859.888180,0.000000,-0.000000,9918.759623
3859.888495,1072.533697,-0.000000,9548.656652
3859.888810,919.314598,444.123565,8882.471304
3859.889125,0.000000,666.185348,8734.430116
3859.889440,153.219100,-0.000000,8882.471304
3859.889755,383.047749,-74.020594,9548.656652
3859.890069,1378.971896,-888.247130,9178.553681
3859.890384,306.438199,-666.185348,9844.739029
3859.890699,-459.657299,296.082377,9696.697840
3859.891014,76.609550,-0.000000,10214.842000
3859.891329,995.924147,74.020594,10140.821405
3859.891643,1915.238745,-0.000000,9696.697840
3859.891958,1149.143247,814.226536,9474.636058
3859.892273,612.876398,962.267725,9030.512492
3859.892588,766.095498,1480.411884,8586.388927
3859.892902,2374.896044,518.144159,9178.553681
3859.893217,2221.676944,296.082377,8734.430116
3859.893532,1072.533697,-0.000000,8882.471304
3859.893847,0.000000,592.164754,8808.450710
3859.894162,0.000000,-0.000000,9474.636058
3859.894476,306.438199,-814.226536,10362.883188
3859.894791,229.828649,-888.247130,9770.718434
3859.895106,-689.485948,-592.164754,10066.800811
3859.895421,-842.705048,740.205942,9770.718434
3859.895736,-459.657299,296.082377,9474.636058
3859.896050,536.266849,-0.000000,9400.615463
3859.896365,1149.143247,444.123565,9400.615463
3859.896680,612.876398,814.226536,8660.409521
3859.896995,229.828649,814.226536,8364.327145
3859.897309,459.657299,148.041188,9252.574275
3859.897624,995.924147,-148.041188,9696.697840
3859.897939,76.609550,-74.020594,10066.800811
3859.898254,-689.485948,370.102971,9622.677246
3859.898569,-1608.800546,148.041188,9844.739029
3859.898883,-1302.362347,-666.185348,10214.842000
3859.899198,-229.828649,-666.185348,9696.697840
3859.899513,-1149.143247,-666.185348,9770.718434
3859.899828,-1685.410096,148.041188,9474.636058
3859.900142,-1378.971896,-0.000000,9622.677246
3859.900457,-153.219100,-222.061783,9992.780217
3859.900772,919.314598,-444.123565,9474.636058
3859.901087,459.657299,-0.000000,9622.677246
3859.901402,-229.828649,1036.288319,10066.800811
3859.901716,-919.314598,1776.494261,9474.636058
3859.902031,612.876398,1258.350101,9474.636058
3859.902346,1608.800546,-814.226536,11399.171507
3859.902661,76.609550,222.061783,10510.924376
3859.902975,-1532.190996,-222.061783,9770.718434
3859.903290,-1225.752797,-296.082377,11325.150913
3859.903605,-1072.533697,-444.123565,10881.027347
3859.903920,0.000000,-148.041188,10807.006753
3859.904235,-306.438199,-370.102971,9696.697840
3859.904549,-306.438199,-148.041188,9548.656652
3859.904864,-229.828649,-0.000000,9548.656652
3859.905179,459.657299,-74.020594,9400.615463
3859.905494,919.314598,222.061783,9252.574275
3859.905808,689.485948,222.061783,8882.471304
3859.906123,459.657299,814.226536,9104.533087
3859.906438,306.438199,-0.000000,9178.553681
3859.906753,1915.238745,-444.123565,9474.636058
3859.907068,842.705048,370.102971,9400.615463
3859.907382,76.609550,518.144159,8734.430116
3859.907697,-842.705048,1036.288319,8734.430116
3859.908012,-306.438199,-0.000000,9252.574275
3859.908327,689.485948,-962.267725,9474.636058
3859.908642,766.095498,-1110.308913,8956.491898
3859.908956,0.000000,-222.061783,8586.388927
3859.909271,-689.485948,-0.000000,9326.594869
3859.909586,-229.828649,-0.000000,9326.594869
3859.909901,919.314598,-666.185348,10288.862594
3859.910215,612.876398,-370.102971,9474.636058
3859.910530,229.828649,-0.000000,9400.615463
3859.910845,0.000000,962.267725,8586.388927
3859.911160,612.876398,1036.288319,9104.533087
3859.911475,1532.190996,-0.000000,9104.533087
3859.911789,1302.362347,-370.102971,8882.471304
3859.912104,459.657299,1184.329507,8290.306550
3859.912419,-383.047749,370.102971,9252.574275
3859.912734,612.876398,-740.205942,10214.842000
3859.913048,919.314598,-592.164754,10362.883188
3859.913363,0.000000,148.041188,10140.821405
3859.913678,-919.314598,666.185348,10658.965565
3859.913993,-995.924147,814.226536,10584.944971
3859.914308,76.609550,518.144159,10658.965565
3859.914622,1149.143247,222.061783,10288.862594
3859.914937,766.095498,814.226536,9696.697840
3859.915252,153.219100,1702.473667,9622.677246
3859.915567,153.219100,1924.535449,8882.471304
3859.915881,612.876398,1110.308913,9474.636058
3859.916196,1532.190996,-0.000000,9696.697840
3859.916511,229.828649,518.144159,9326.594869
3859.916826,0.000000,666.185348,9622.677246
3859.917141,-1149.143247,962.267725,10214.842000
3859.917455,-612.876398,444.123565,10436.903782
3859.917770,-306.438199,-370.102971,10807.006753
3859.918085,-1149.143247,222.061783,10807.006753
3859.918400,-1225.752797,1036.288319,10066.800811
3859.918714,-1072.533697,592.164754,10362.883188
3859.919029,153.219100,-0.000000,10362.883188
3859.919344,459.657299,518.144159,9474.636058
3859.919659,-383.047749,592.164754,9548.656652
3859.919974,-766.095498,1110.308913,9474.636058
3859.920288,-459.657299,592.164754,9696.697840
3859.920603,919.314598,-222.061783,9474.636058
3859.920918,383.047749,-666.185348,9474.636058
3859.921233,-536.266849,888.247130,9474.636058
3859.921548,-995.924147,592.164754,8956.491898
3859.921862,-689.485948,-592.164754,9474.636058
3859.922177,229.828649,-1480.411884,10436.903782
3859.922492,766.095498,-666.185348,9104.533087
3859.922807,-306.438199,-592.164754,8660.409521
3859.923121,-766.095498,444.123565,9178.553681
3859.923436,0.000000,370.102971,9252.574275
3859.923751,1072.533697,-0.000000,8882.471304
3859.924066,919.314598,-592.164754,9030.512492
3859.924381,612.876398,444.123565,9030.512492
3859.924695,0.000000,-222.061783,8364.327145
3859.925010,0.000000,-222.061783,9696.697840
3859.925325,1072.533697,-592.164754,11103.089130
3859.925640,383.047749,-666.185348,9918.759623
3859.925954,0.000000,222.061783,9844.739029
3859.926269,-536.266849,740.205942,9548.656652
3859.926584,842.705048,-222.061783,10140.821405
3859.926899,1455.581446,-222.061783,9400.615463
3859.927214,766.095498,-0.000000,9178.553681
3859.927528,229.828649,370.102971,8882.471304
3859.927843,0.000000,74.020594,9178.553681
3859.928158,1225.752797,-444.123565,9548.656652
3859.928473,1455.581446,-1036.288319,9104.533087
3859.928787,383.047749,-518.144159,9104.533087
3859.929102,-229.828649,-0.000000,9474.636058
3859.929417,0.000000,148.041188,9474.636058
3859.929732,459.657299,-148.041188,9844.739029
3859.930047,1225.752797,-444.123565,9474.636058
3859.930361,536.266849,148.041188,9474.636058
3859.930676,0.000000,518.144159,8956.491898
3859.930991,229.828649,592.164754,9030.512492
3859.931306,842.705048,-148.041188,9696.697840
3859.931620,689.485948,-518.144159,9178.553681
3859.931935,459.657299,-0.000000,9178.553681
3859.932250,76.609550,-0.000000,9474.636058
3859.932565,-383.047749,-0.000000,9844.739029
3859.932880,0.000000,-296.082377,9992.780217
3859.933194,76.609550,-962.267725,10066.800811
3859.933509,-612.876398,-518.144159,10140.821405
3859.933824,-995.924147,370.102971,10066.800811
3859.934139,-1149.143247,-0.000000,9326.594869
3859.934453,536.266849,-592.164754,10066.800811
3859.934768,766.095498,-222.061783,9400.615463
3859.935083,0.000000,444.123565,9030.512492
3859.935398,-842.705048,592.164754,8586.388927
3859.935713,-383.047749,518.144159,9622.677246
3859.936027,306.438199,-222.061783,10140.821405
3859.936342,76.609550,-74.020594,10214.842000
3859.936657,-766.095498,888.247130,10658.965565
3859.936972,-1302.362347,1258.350101,9992.780217
3859.937287,-995.924147,370.102971,10658.965565
3859.937601,0.000000,-0.000000,10510.924376
3859.937916,-229.828649,296.082377,10066.800811
3859.938231,-383.047749,962.267725,9252.574275
3859.938546,-536.266849,518.144159,9548.656652
3859.938860,76.609550,222.061783,9326.594869
3859.939175,995.924147,518.144159,8882.471304
3859.939490,-153.219100,296.082377,8734.430116
3859.939805,0.000000,814.226536,8734.430116
3859.940120,-459.657299,592.164754,9326.594869
3859.940434,383.047749,-0.000000,9474.636058
3859.940749,153.219100,-370.102971,10288.862594
3859.941064,-306.438199,-74.020594,10140.821405
3859.941379,-689.485948,1110.308913,10214.842000
3859.941693,-612.876398,888.247130,9252.574275
3859.942008,919.314598,518.144159,9844.739029
3859.942323,1072.533697,148.041188,9252.574275
3859.942638,1149.143247,518.144159,8586.388927
3859.942953,153.219100,1184.329507,9178.553681
3859.943267,153.219100,962.267725,9178.553681
3859.943582,842.705048,-0.000000,9918.759623
3859.943897,536.266849,-518.144159,9252.574275
3859.944212,229.828649,-740.205942,10140.821405
3859.944526,-306.438199,296.082377,9844.739029
3859.944841,-766.095498,518.144159,9696.697840
3859.945156,153.219100,-74.020594,9992.780217
3859.945471,766.095498,222.061783,10288.862594
3859.945786,612.876398,-74.020594,9992.780217
3859.946100,459.657299,592.164754,8660.409521
3859.946415,766.095498,518.144159,8808.450710
3859.946730,1838.629195,296.082377,9844.739029
3859.947045,1302.362347,-0.000000,9622.677246
3859.947359,536.266849,-0.000000,9622.677246
3859.947674,-459.657299,148.041188,9696.697840
3859.947989,-383.047749,222.061783,9400.615463
3859.948304,689.485948,-296.082377,10881.027347
3859.948619,306.438199,-0.000000,10214.842000
3859.948933,-229.828649,-222.061783,10658.965565
3859.949248,-689.485948,222.061783,9770.718434
3859.949563,0.000000,-0.000000,10362.883188
3859.949878,766.095498,222.061783,9622.677246
3859.950193,842.705048,-444.123565,9696.697840
3859.950507,842.705048,666.185348,8882.471304
3859.950822,306.438199,888.247130,8068.244768
3859.951137,995.924147,444.123565,8734.430116
3859.951452,1685.410096,296.082377,8956.491898
3859.951766,536.266849,-0.000000,9696.697840
3859.952081,-306.438199,370.102971,9178.553681
3859.952396,-612.876398,148.041188,9252.574275
3859.952711,-612.876398,-370.102971,10362.883188
3859.953026,76.609550,-740.205942,10436.903782
3859.953340,-766.095498,-0.000000,9326.594869
3859.953655,-1072.533697,814.226536,8882.471304
3859.953970,-1072.533697,666.185348,9030.512492
3859.954285,0.000000,-444.123565,9992.780217
3859.954599,383.047749,-962.267725,8956.491898
3859.954914,-383.047749,-1184.329507,9992.780217
3859.955229,-1302.362347,-0.000000,9992.780217
3859.955544,-1455.581446,-0.000000,10214.842000
3859.955859,-459.657299,222.061783,9992.780217
3859.956173,306.438199,-444.123565,10362.883188
3859.956488,0.000000,-0.000000,10362.883188
3859.956803,-76.609550,1184.329507,9030.512492
3859.957118,0.000000,1628.453072,8512.368333
3859.957432,459.657299,666.185348,9178.553681
3859.957747,1149.143247,222.061783,9326.594869
3859.958062,612.876398,-0.000000,9178.553681
3859.958377,229.828649,-148.041188,8512.368333
3859.958692,0.000000,-518.144159,9622.677246
3859.959006,383.047749,-1480.411884,10288.862594
3859.959321,0.000000,-666.185348,10584.944971
3859.959636,-1072.533697,-0.000000,10658.965565
3859.959951,-1149.143247,518.144159,10436.903782
3859.960265,-689.485948,444.123565,10584.944971
3859.960580,842.705048,-0.000000,10288.862594
3859.960895,919.314598,-296.082377,9474.636058
3859.961210,842.705048,814.226536,9918.759623
3859.961525,536.266849,1776.494261,8956.491898
3859.961839,1225.752797,518.144159,9178.553681
3859.962154,2374.896044,-74.020594,9400.615463
3859.962469,1685.410096,-0.000000,9474.636058
3859.962784,1302.362347,444.123565,9474.636058
3859.963099,-229.828649,-0.000000,9178.553681
3859.963413,-229.828649,222.061783,9622.677246
3859.963728,689.485948,-1480.411884,10066.800811
3859.964043,76.609550,-1702.473667,9474.636058
3859.964358,-153.219100,-1184.329507,10066.800811
3859.964672,-459.657299,-814.226536,9696.697840
3859.964987,306.438199,-592.164754,9992.780217
3859.965302,1455.581446,-296.082377,9400.615463
3859.965617,1072.533697,444.123565,9030.512492
3859.965932,919.314598,1258.350101,8956.491898
3859.966246,995.924147,888.247130,8438.347739
3859.966561,1838.629195,222.061783,9178.553681
3859.966876,2451.505594,-0.000000,9548.656652
3859.967191,1149.143247,-0.000000,9474.636058
3859.967505,76.609550,222.061783,9622.677246
3859.967820,-306.438199,-0.000000,9918.759623
3859.968135,0.000000,-370.102971,10510.924376
3859.968450,0.000000,-888.247130,9992.780217
3859.968765,0.000000,-740.205942,9178.553681
3859.969079,-689.485948,518.144159,9178.553681
3859.969394,-612.876398,666.185348,8956.491898
3859.969709,229.828649,-0.000000,8808.450710
3859.970024,459.657299,-444.123565,9252.574275
3859.970338,536.266849,-148.041188,9326.594869
3859.970653,-306.438199,814.226536,8808.450710
3859.970968,-153.219100,1184.329507,9252.574275
3859.971283,306.438199,962.267725,9918.759623
3859.971598,153.219100,666.185348,10362.883188
3859.971912,-689.485948,814.226536,10288.862594
3859.972227,-1762.019645,962.267725,9770.718434
3859.972542,-995.924147,444.123565,9770.718434
3859.972857,-306.438199,296.082377,9622.677246
3859.973171,-536.266849,222.061783,9622.677246
3859.973486,-766.095498,740.205942,9696.697840
3859.973801,-842.705048,962.267725,9104.533087
3859.974116,-459.657299,444.123565,9770.718434
3859.974431,76.609550,-0.000000,9474.636058
3859.974745,229.828649,222.061783,9474.636058
3859.975060,-612.876398,740.205942,9770.718434
3859.975375,-1225.752797,1258.350101,9918.759623
3859.975690,-1149.143247,1110.308913,10362.883188
3859.976005,-306.438199,1184.329507,9622.677246
3859.976319,-459.657299,-0.000000,9622.677246
3859.976634,0.000000,370.102971,9548.656652
3859.976949,-306.438199,740.205942,9252.574275
3859.977264,383.047749,-0.000000,9326.594869
3859.977578,153.219100,-444.123565,10584.944971
3859.977893,153.219100,-74.020594,9844.739029
3859.978208,0.000000,296.082377,9696.697840
3859.978523,-766.095498,962.267725,9474.636058
3859.978838,919.314598,-1184.329507,10288.862594
3859.979152,1302.362347,-148.041188,10288.862594
3859.979467,-153.219100,-74.020594,10066.800811
3859.979782,-766.095498,-444.123565,9622.677246
3859.980097,-536.266849,-370.102971,9844.739029
3859.980411,1302.362347,-296.082377,9770.718434
3859.980726,2221.676944,-740.205942,9548.656652
3859.981041,1762.019645,-74.020594,9474.636058
3859.981356,459.657299,296.082377,9252.574275
3859.981671,0.000000,222.061783,9400.615463
3859.981985,1455.581446,-296.082377,10584.944971
3859.982300,2068.457845,-592.164754,9548.656652
3859.982615,1225.752797,-740.205942,9474.636058
3859.982930,612.876398,-0.000000,8956.491898
3859.983244,153.219100,-370.102971,9844.739029
3859.983559,536.266849,-592.164754,10140.821405
3859.983874,306.438199,-296.082377,9992.780217
3859.984189,229.828649,-0.000000,8956.491898
3859.984504,0.000000,-74.020594,8068.244768
3859.984818,459.657299,296.082377,9030.512492
3859.985133,919.314598,-444.123565,8882.471304
3859.985448,1072.533697,-814.226536,8068.244768
3859.985763,0.000000,-444.123565,8512.368333
3859.986077,-383.047749,296.082377,8364.327145
3859.986392,76.609550,-222.061783,8882.471304
3859.986707,1302.362347,-666.185348,9252.574275
3859.987032,536.266849,-592.164754,9326.594869
3859.987346,-536.266849,222.061783,9548.656652
3859.987661,-1532.190996,1184.329507,9400.615463
3859.987976,-995.924147,592.164754,9770.718434
3859.988291,0.000000,-74.020594,9474.636058
3859.988606,383.047749,-592.164754,9400.615463
3859.988921,-612.876398,296.082377,8586.388927
3859.989236,-689.485948,296.082377,9104.533087
3859.989551,-459.657299,-0.000000,9696.697840
3859.989866,-229.828649,-296.082377,9918.759623
3859.990181,-459.657299,-148.041188,10214.842000
3859.990496,-1149.143247,-0.000000,10140.821405
3859.990810,-1225.752797,518.144159,10140.821405
3859.991125,-612.876398,-0.000000,10658.965565
3859.991440,-229.828649,370.102971,10584.944971
3859.991755,-306.438199,740.205942,10140.821405
3859.992070,459.657299,1406.391290,9400.615463
3859.992385,-612.876398,1184.329507,9326.594869
3859.992700,459.657299,518.144159,10140.821405
3859.993015,766.095498,-0.000000,9844.739029
3859.993330,0.000000,-222.061783,9918.759623
3859.993645,-689.485948,592.164754,10807.006753
3859.993959,-1302.362347,666.185348,10436.903782
3859.994274,-459.657299,-0.000000,11029.068536
3859.994589,0.000000,-222.061783,10955.047942
3859.994904,-459.657299,296.082377,11029.068536
3859.995219,-383.047749,1110.308913,10140.821405
3859.995534,-383.047749,1924.535449,10140.821405
3859.995849,766.095498,740.205942,9474.636058
3859.996164,1762.019645,-0.000000,9104.533087
3859.996479,1685.410096,-0.000000,8660.409521
3859.996794,1302.362347,666.185348,9030.512492
3859.997108,1225.752797,1110.308913,8734.430116
3859.997423,1378.971896,444.123565,9474.636058
3859.997738,1302.362347,370.102971,9474.636058
3859.998053,383.047749,296.082377,9326.594869
3859.998368,-153.219100,444.123565,9400.615463
3859.998683,0.000000,-222.061783,9474.636058
3859.998998,689.485948,-814.226536,9844.739029
3859.999313,1302.362347,-444.123565,9474.636058
3859.999628,536.266849,888.247130,8438.347739
3859.999943,383.047749,1258.350101,8586.388927
3860.000257,1072.533697,518.144159,9474.636058
3860.000572,2374.896044,148.041188,8956.491898
3860.000887,1915.238745,518.144159,8586.388927
3860.001202,612.876398,666.185348,8660.409521
3860.001517,153.219100,592.164754,8512.368333
3860.001832,459.657299,-222.061783,9548.656652
3860.002147,995.924147,-1110.308913,10214.842000
3860.002462,383.047749,-1184.329507,10807.006753
3860.002777,-612.876398,-444.123565,9622.677246
3860.003092,-919.314598,-148.041188,9474.636058
3860.003406,-229.828649,592.164754,9474.636058
3860.003721,459.657299,-0.000000,9178.553681
3860.004036,306.438199,-296.082377,9178.553681
3860.004351,153.219100,296.082377,9252.574275
3860.004666,0.000000,-0.000000,9104.533087
3860.004981,229.828649,-74.020594,9474.636058
3860.005296,689.485948,-222.061783,10066.800811
3860.005611,0.000000,148.041188,10140.821405
3860.005926,-919.314598,-0.000000,9992.780217
3860.006241,-766.095498,814.226536,9992.780217
3860.006555,-689.485948,-0.000000,10881.027347
3860.006870,-383.047749,-0.000000,10288.862594
3860.007185,-766.095498,370.102971,10214.842000
3860.007500,-689.485948,1184.329507,9030.512492
3860.007815,-612.876398,444.123565,9474.636058
3860.008130,0.000000,-518.144159,9844.739029
3860.008445,536.266849,-518.144159,9918.759623
3860.008760,-383.047749,-444.123565,9844.739029
3860.009075,-919.314598,518.144159,9400.615463
3860.009390,-995.924147,962.267725,9474.636058
3860.009704,-689.485948,370.102971,9696.697840
3860.010019,0.000000,-518.144159,10140.821405
3860.010334,-612.876398,-148.041188,9770.718434
3860.010649,-1302.362347,148.041188,9918.759623
3860.010964,-689.485948,518.144159,9474.636058
3860.011279,536.266849,-74.020594,9770.718434
3860.011594,919.314598,-0.000000,9770.718434
3860.011909,612.876398,962.267725,8956.491898
3860.012224,0.000000,814.226536,9252.574275
3860.012539,153.219100,814.226536,9030.512492
3860.012853,842.705048,-0.000000,9548.656652
3860.013168,612.876398,-444.123565,9326.594869
3860.013483,-229.828649,-444.123565,10066.800811
3860.013798,-459.657299,222.061783,9474.636058
3860.014113,0.000000,-814.226536,10066.800811
3860.014428,459.657299,-592.164754,10066.800811
3860.014743,459.657299,-222.061783,9548.656652
3860.015058,306.438199,518.144159,8438.347739
3860.015373,229.828649,222.061783,8142.265362
3860.015688,689.485948,370.102971,8216.285956
3860.016002,1762.019645,-740.205942,8586.388927
3860.016317,919.314598,-592.164754,9178.553681
3860.016632,383.047749,-370.102971,9326.594869
3860.016947,-612.876398,-0.000000,9252.574275
3860.017262,0.000000,-444.123565,10436.903782
3860.017577,459.657299,-592.164754,10510.924376
3860.017892,76.609550,-74.020594,10214.842000
3860.018207,-383.047749,370.102971,10214.842000
3860.018522,-612.876398,518.144159,9548.656652
3860.018837,459.657299,-0.000000,9548.656652
3860.019152,1149.143247,-74.020594,9696.697840
3860.019466,1455.581446,222.061783,9252.574275
3860.019781,229.828649,1036.288319,8808.450710
3860.020096,383.047749,444.123565,8882.471304
3860.020411,1072.533697,296.082377,9474.636058
3860.020726,1685.410096,-0.000000,10066.800811
3860.021041,1149.143247,1184.329507,9548.656652
3860.021356,76.609550,1258.350101,9252.574275
3860.021671,-306.438199,888.247130,9770.718434
3860.021986,229.828649,222.061783,10510.924376
3860.022301,459.657299,-0.000000,9918.759623
3860.022615,0.000000,814.226536,9696.697840
3860.022930,0.000000,1480.411884,9474.636058
3860.023245,-153.219100,1184.329507,9178.553681
3860.023560,383.047749,222.061783,9992.780217
3860.023875,306.438199,-518.144159,10584.944971
3860.024190,-536.266849,-0.000000,10362.883188
3860.024505,-306.438199,518.144159,9622.677246
3860.024820,-536.266849,1036.288319,9548.656652
3860.025135,-306.438199,444.123565,10658.965565
3860.025450,-689.485948,-814.226536,10584.944971
3860.025764,-1838.629195,-740.205942,10881.027347
3860.026079,-1915.238745,-0.000000,10066.800811
3860.026394,-1225.752797,296.082377,10214.842000
3860.026709,0.000000,444.123565,9474.636058
3860.027024,153.219100,-0.000000,9548.656652
3860.027339,0.000000,296.082377,9770.718434
3860.027654,0.000000,370.102971,9104.533087
3860.027969,0.000000,814.226536,8956.491898
3860.028284,766.095498,-148.041188,9252.574275
3860.028599,689.485948,-0.000000,9474.636058
3860.028913,0.000000,-0.000000,9252.574275
3860.029228,-229.828649,148.041188,9178.553681
3860.029543,0.000000,-740.205942,10214.842000
3860.029858,383.047749,-296.082377,10214.842000
3860.030173,-229.828649,-518.144159,9844.739029
3860.030488,0.000000,-0.000000,9252.574275
3860.030803,-383.047749,888.247130,8808.450710
3860.031118,536.266849,-0.000000,9030.512492
3860.031433,1072.533697,-666.185348,9326.594869
3860.031748,689.485948,-0.000000,9030.512492
3860.032062,459.657299,444.123565,8956.491898
3860.032377,0.000000,666.185348,8660.409521
3860.032692,1225.752797,222.061783,9622.677246
3860.033007,612.876398,-814.226536,10436.903782
3860.033322,76.609550,-740.205942,9770.718434
3860.033637,0.000000,-0.000000,9918.759623
3860.033952,-689.485948,444.123565,9474.636058
3860.034267,76.609550,-0.000000,9622.677246
3860.034582,1608.800546,-444.123565,8808.450710
3860.034897,919.314598,-592.164754,8956.491898
3860.035211,612.876398,-518.144159,8808.450710
3860.035526,383.047749,-296.082377,9474.636058
3860.035841,536.266849,-296.082377,9770.718434
3860.036156,536.266849,-0.000000,9918.759623
3860.036471,229.828649,370.102971,8956.491898
3860.036786,536.266849,-74.020594,9178.553681
3860.037101,306.438199,74.020594,9918.759623
3860.037416,842.705048,-370.102971,10214.842000
3860.037731,1225.752797,-74.020594,9770.718434
3860.038046,383.047749,-74.020594,9696.697840
3860.038360,229.828649,962.267725,8808.450710
3860.038675,766.095498,-148.041188,9992.780217
3860.038990,1608.800546,-74.020594,9178.553681
3860.039305,842.705048,-370.102971,9770.718434
3860.039620,0.000000,74.020594,10140.821405
3860.039935,-766.095498,666.185348,9770.718434
3860.040250,-612.876398,296.082377,9474.636058
3860.040565,153.219100,-370.102971,10214.842000
3860.040880,76.609550,-814.226536,9918.759623
3860.041195,-766.095498,-296.082377,10214.842000
3860.041509,-1225.752797,962.267725,10140.821405
3860.041824,-842.705048,1110.308913,10436.903782
3860.042139,0.000000,1036.288319,9696.697840
3860.042454,766.095498,814.226536,9252.574275
3860.042769,536.266849,1258.350101,9030.512492
3860.043084,0.000000,1110.308913,9030.512492
3860.043399,-306.438199,666.185348,10362.883188
3860.043714,-229.828649,740.205942,10214.842000
3860.044029,-536.266849,-148.041188,10140.821405
3860.044344,-995.924147,-0.000000,9992.780217
3860.044659,-1378.971896,296.082377,10584.944971
3860.044973,-383.047749,-0.000000,10436.903782
3860.045288,0.000000,-370.102971,10436.903782
3860.045603,-383.047749,-0.000000,10140.821405
3860.045918,-536.266849,1110.308913,8586.388927
3860.046233,0.000000,888.247130,8142.265362
3860.046548,995.924147,592.164754,8808.450710
3860.046863,1685.410096,296.082377,9030.512492
3860.047178,995.924147,-0.000000,8068.244768
3860.047493,0.000000,296.082377,8734.430116
3860.047808,-383.047749,222.061783,9104.533087
3860.048122,-229.828649,-296.082377,9992.780217
3860.048437,-383.047749,-1258.350101,10732.986159
3860.048752,-1225.752797,-814.226536,10955.047942
3860.049067,-1072.533697,-296.082377,10214.842000
3860.049382,-1149.143247,370.102971,9770.718434
3860.049697,-459.657299,370.102971,9918.759623
3860.050012,536.266849,-222.061783,9326.594869
3860.050327,1149.143247,-0.000000,9030.512492
3860.050642,1608.800546,666.185348,8586.388927
3860.050957,1455.581446,518.144159,8660.409521
3860.051271,1685.410096,-148.041188,9400.615463
3860.051586,1378.971896,-0.000000,9622.677246
3860.051901,995.924147,444.123565,8586.388927
3860.052216,76.609550,222.061783,10140.821405
3860.052531,153.219100,518.144159,9696.697840
3860.052846,1149.143247,-0.000000,9918.759623
3860.053161,459.657299,-1036.288319,9770.718434
3860.053476,0.000000,-74.020594,9548.656652
3860.053791,-153.219100,666.185348,8734.430116
3860.054106,229.828649,-222.061783,9622.677246
3860.054420,1225.752797,-148.041188,10584.944971
3860.054735,1225.752797,-74.020594,9326.594869
3860.055050,459.657299,-74.020594,9770.718434
3860.055365,-536.266849,666.185348,10140.821405
3860.055680,-842.705048,1332.370696,10362.883188
3860.055995,229.828649,444.123565,9992.780217
3860.056310,612.876398,444.123565,9252.574275
3860.056625,76.609550,1036.288319,9918.759623
3860.056940,229.828649,444.123565,8808.450710
3860.057255,76.609550,592.164754,9104.533087
3860.057569,229.828649,-0.000000,9844.739029
3860.057884,0.000000,-0.000000,10362.883188
3860.058199,-612.876398,518.144159,9400.615463
3860.058514,-919.314598,-222.061783,9548.656652
3860.058829,-842.705048,-1110.308913,10362.883188
3860.059144,-612.876398,-1554.432478,10140.821405
3860.059459,-1378.971896,-740.205942,9992.780217
3860.059774,-1762.019645,-0.000000,9696.697840
3860.060089,-995.924147,-0.000000,9696.697840
3860.060404,536.266849,-1184.329507,10066.800811
3860.060718,919.314598,-666.185348,9770.718434
3860.061033,459.657299,-370.102971,9400.615463
3860.061348,0.000000,740.205942,8586.388927
3860.061663,-306.438199,962.267725,8364.327145
3860.061978,995.924147,666.185348,8956.491898
3860.062293,842.705048,-74.020594,8512.368333
3860.062608,766.095498,-518.144159,8734.430116
3860.062923,-306.438199,-370.102971,9474.636058
3860.063238,-842.705048,-592.164754,9770.718434
3860.063553,-383.047749,-592.164754,10510.924376
3860.063867,-766.095498,-444.123565,10658.965565
3860.064182,-306.438199,-148.041188,10214.842000
3860.064497,-459.657299,-0.000000,9770.718434
3860.064812,0.000000,888.247130,9622.677246
3860.065127,766.095498,1406.391290,9474.636058
3860.065442,766.095498,1184.329507,8438.347739
3860.065757,1149.143247,1776.494261,8068.244768
3860.066072,919.314598,1184.329507,8438.347739
3860.066387,1302.362347,518.144159,9474.636058
3860.066702,1378.971896,-444.123565,9474.636058
3860.067016,689.485948,-222.061783,10510.924376
3860.067331,-383.047749,296.082377,10066.800811
3860.067646,-842.705048,740.205942,9548.656652
3860.067961,-536.266849,444.123565,10436.903782
3860.068276,229.828649,222.061783,10362.883188
3860.068591,306.438199,-0.000000,10362.883188
3860.068906,229.828649,592.164754,9104.533087
3860.069221,383.047749,444.123565,8956.491898
3860.069536,995.924147,370.102971,9918.759623
3860.069851,1532.190996,296.082377,9622.677246
3860.070165,2298.286494,-518.144159,9178.553681
3860.070480,1762.019645,-222.061783,10066.800811
3860.070795,536.266849,592.164754,9844.739029
3860.071110,1072.533697,370.102971,10362.883188
3860.071425,1378.971896,-0.000000,10288.862594
3860.071740,383.047749,-0.000000,9844.739029
3860.072055,0.000000,-74.020594,9992.780217
3860.072370,-459.657299,-74.020594,9104.533087
3860.072685,383.047749,-444.123565,10214.842000
3860.073000,536.266849,-592.164754,10066.800811
3860.073315,0.000000,-0.000000,9622.677246
3860.073629,0.000000,74.020594,9696.697840
3860.073944,-536.266849,444.123565,9696.697840
3860.074259,689.485948,370.102971,9548.656652
3860.074574,766.095498,-370.102971,10510.924376
3860.074889,306.438199,1406.391290,10510.924376
3860.075204,-383.047749,814.226536,8808.450710
3860.075519,-689.485948,814.226536,9474.636058
3860.075834,383.047749,962.267725,10807.006753
3860.076149,0.000000,-222.061783,9030.512492
3860.076464,-383.047749,222.061783,9548.656652
3860.076778,-536.266849,888.247130,8734.430116
3860.077093,-766.095498,666.185348,9104.533087
3860.077408,-229.828649,814.226536,9252.574275
3860.077723,0.000000,148.041188,8734.430116
3860.078038,-459.657299,222.061783,8734.430116
3860.078353,-1072.533697,-74.020594,8660.409521
3860.078668,-995.924147,-0.000000,9474.636058
3860.078983,-612.876398,-74.020594,10214.842000
3860.079298,-995.924147,-296.082377,9474.636058
3860.079613,-1072.533697,-296.082377,9400.615463
3860.079927,-1302.362347,814.226536,9326.594869
3860.080242,-842.705048,-0.000000,9918.759623
3860.080557,0.000000,-0.000000,9844.739029
3860.080872,-536.266849,-0.000000,9622.677246
3860.081187,-383.047749,222.061783,9030.512492
3860.081502,-689.485948,-0.000000,9326.594869
3860.081817,76.609550,-0.000000,9696.697840
3860.082132,1072.533697,-296.082377,9992.780217
3860.082447,76.609550,-148.041188,9474.636058
3860.082762,0.000000,-0.000000,10066.800811
3860.083076,-306.438199,-0.000000,9918.759623
3860.083391,76.609550,-148.041188,10288.862594
3860.083706,306.438199,-74.020594,9696.697840
3860.084021,76.609550,-666.185348,9548.656652
3860.084336,-229.828649,-222.061783,9030.512492
3860.084651,-153.219100,-1184.329507,9918.759623
3860.084966,919.314598,-444.123565,9918.759623
3860.085281,1149.143247,-1036.288319,10140.821405
3860.085596,1378.971896,-740.205942,9474.636058
3860.085911,1072.533697,-148.041188,9474.636058
3860.086225,995.924147,1036.288319,10140.821405
3860.086540,1149.143247,444.123565,10584.944971
3860.086855,1378.971896,444.123565,10066.800811
3860.087170,1608.800546,-0.000000,10584.944971
3860.087485,459.657299,1036.288319,9918.759623
3860.087800,689.485948,1258.350101,9770.718434
3860.088115,1685.410096,444.123565,9770.718434
3860.088430,2374.896044,-444.123565,9474.636058
3860.088745,2068.457845,666.185348,8734.430116
3860.089060,1149.143247,814.226536,9104.533087
3860.089374,1072.533697,296.082377,9252.574275
3860.089689,995.924147,-296.082377,10140.821405
3860.090004,1685.410096,-518.144159,9696.697840
3860.090319,383.047749,-222.061783,9474.636058
3860.090634,76.609550,370.102971,8956.491898
3860.090949,76.609550,-148.041188,9844.739029
3860.091264,229.828649,666.185348,9844.739029
3860.091579,842.705048,370.102971,9326.594869
3860.091894,306.438199,666.185348,8586.388927
3860.092209,0.000000,1258.350101,8216.285956
3860.092523,766.095498,1036.288319,9400.615463
3860.092838,766.095498,-0.000000,9548.656652
3860.093153,153.219100,-444.123565,9178.553681
3860.093468,-766.095498,-296.082377,9918.759623
3860.093783,-1915.238745,-148.041188,10288.862594
3860.094098,-1838.629195,222.061783,10066.800811
3860.094413,-1608.800546,-740.205942,10584.944971
3860.094728,-1915.238745,-888.247130,10436.903782
3860.095043,-2068.457845,-666.185348,10140.821405
3860.095357,-2451.505594,-0.000000,9622.677246
3860.095672,-1915.238745,-148.041188,9918.759623
3860.095987,-536.266849,-370.102971,9844.739029
3860.096302,-306.438199,-0.000000,9622.677246
3860.096617,-306.438199,888.247130,7994.224174
3860.096932,-383.047749,962.267725,9030.512492
3860.097247,-306.438199,888.247130,9178.553681
3860.097562,306.438199,518.144159,9474.636058
3860.097877,-536.266849,1258.350101,9474.636058
3860.098192,-842.705048,1406.391290,9474.636058
3860.098506,-1608.800546,444.123565,10066.800811
3860.098821,-995.924147,-518.144159,10807.006753
3860.099136,0.000000,-222.061783,10436.903782
3860.099451,-995.924147,444.123565,9918.759623
3860.099766,-766.095498,740.205942,9326.594869
3860.100081,-306.438199,1258.350101,9326.594869
3860.100396,766.095498,222.061783,9622.677246
3860.100711,919.314598,518.144159,9030.512492
3860.101026,459.657299,370.102971,9326.594869
3860.101340,383.047749,888.247130,8660.409521
3860.101655,229.828649,518.144159,10066.800811
3860.101970,536.266849,222.061783,10510.924376
3860.102285,1608.800546,-148.041188,10436.903782
3860.102600,995.924147,296.082377,10362.883188
3860.102915,612.876398,592.164754,9474.636058
3860.103230,1225.752797,888.247130,9622.677246
3860.103545,1608.800546,-74.020594,9844.739029
3860.103860,1838.629195,222.061783,8808.450710
3860.104174,1455.581446,-592.164754,9474.636058
3860.104489,995.924147,-74.020594,9474.636058
3860.104804,1149.143247,-666.185348,9474.636058
3860.105119,1225.752797,-962.267725,9696.697840
3860.105434,842.705048,-1110.308913,10214.842000
3860.105749,1072.533697,-74.020594,9474.636058
3860.106064,612.876398,296.082377,9918.759623
3860.106379,1072.533697,-148.041188,10214.842000
3860.106694,1378.971896,-370.102971,9992.780217
3860.107009,1302.362347,-74.020594,9844.739029
3860.107323,995.924147,296.082377,8438.347739
3860.107638,536.266849,666.185348,8586.388927
3860.107953,1455.581446,-592.164754,9252.574275
3860.108268,1378.971896,-444.123565,8808.450710
3860.108583,612.876398,-1998.556043,9326.594869
3860.108898,0.000000,-814.226536,9326.594869
3860.109213,-919.314598,-666.185348,9474.636058
3860.109528,-1149.143247,-444.123565,10362.883188
3860.109843,-536.266849,-740.205942,10066.800811
3860.110157,-919.314598,-962.267725,10214.842000
3860.110472,-995.924147,-0.000000,10140.821405
3860.110787,-1149.143247,666.185348,9030.512492
3860.111102,-229.828649,1036.288319,9104.533087
3860.111417,689.485948,888.247130,9030.512492
3860.111732,766.095498,888.247130,7624.121203
3860.112047,383.047749,962.267725,7476.080014
3860.112362,76.609550,592.164754,8512.368333
3860.112677,0.000000,-74.020594,8808.450710
3860.112992,-459.657299,-962.267725,9696.697840
3860.113306,-1762.019645,-222.061783,9548.656652
3860.113621,-2145.067394,-0.000000,9178.553681
3860.113936,-1915.238745,-0.000000,9918.759623
3860.114251,-1838.629195,-148.041188,10214.842000
3860.114566,-1608.800546,-518.144159,10362.883188
3860.114881,-1455.581446,222.061783,9474.636058
3860.115196,-995.924147,1184.329507,9474.636058
3860.115511,-766.095498,592.164754,9548.656652
3860.115826,383.047749,592.164754,9844.739029
3860.116140,536.266849,962.267725,9548.656652
3860.116455,459.657299,1036.288319,9696.697840
3860.116770,-306.438199,1628.453072,9400.615463
3860.117085,0.000000,666.185348,10807.006753
3860.117400,383.047749,370.102971,11251.130318
3860.117715,0.000000,-222.061783,10362.883188
3860.118030,-306.438199,-222.061783,10362.883188
3860.118345,-612.876398,-0.000000,10510.924376
3860.118660,-383.047749,-148.041188,11177.109724
3860.118974,229.828649,-222.061783,10288.862594
3860.119289,842.705048,-0.000000,9844.739029
3860.119604,842.705048,592.164754,9104.533087
3860.119919,1225.752797,296.082377,8882.471304
3860.120234,1685.410096,296.082377,9474.636058
3860.120549,1608.800546,-0.000000,9178.553681
3860.120864,1455.581446,-222.061783,10214.842000
3860.121179,689.485948,518.144159,9474.636058
3860.121494,612.876398,888.247130,10214.842000
3860.121809,919.314598,370.102971,10881.027347
3860.122123,1072.533697,-148.041188,10658.965565
3860.122438,919.314598,-74.020594,9474.636058
3860.122753,1302.362347,518.144159,9400.615463
3860.123068,919.314598,666.185348,9548.656652
3860.123383,1532.190996,-0.000000,9104.533087
3860.123698,2298.286494,-148.041188,9178.553681
3860.124013,2145.067394,-518.144159,8956.491898
3860.124328,1455.581446,-0.000000,8216.285956
3860.124643,919.314598,-148.041188,8882.471304
3860.124957,1149.143247,-222.061783,9622.677246
3860.125272,842.705048,-0.000000,9326.594869
3860.125587,1302.362347,-148.041188,9252.574275
3860.125902,306.438199,592.164754,8364.327145
3860.126217,153.219100,222.061783,8068.244768
3860.126532,1149.143247,222.061783,8512.368333
3860.126847,766.095498,370.102971,7920.203579
3860.127162,0.000000,-0.000000,8438.347739
3860.127477,-612.876398,-74.020594,8808.450710
3860.127791,-459.657299,-0.000000,8438.347739
3860.128106,-459.657299,-370.102971,10214.842000
3860.128421,-766.095498,-0.000000,10362.883188
3860.128736,-1532.190996,-0.000000,10807.006753
3860.129051,-1915.238745,296.082377,11251.130318
3860.129366,-1608.800546,1036.288319,11695.253884
3860.129681,-1225.752797,740.205942,11029.068536
3860.129996,-612.876398,296.082377,9918.759623
3860.130311,-1072.533697,592.164754,9622.677246
3860.130626,-1149.143247,962.267725,9622.677246
3860.130940,-766.095498,74.020594,9548.656652
3860.131255,-536.266849,-74.020594,9622.677246
3860.131570,-995.924147,-740.205942,9770.718434
3860.131885,-919.314598,-296.082377,9548.656652
3860.132200,-1762.019645,-148.041188,9400.615463
3860.132515,-1838.629195,-444.123565,10732.986159
3860.132830,-842.705048,-592.164754,10288.862594
3860.133145,-1225.752797,-444.123565,10140.821405
3860.133460,-1149.143247,518.144159,10140.821405
3860.133774,-1608.800546,-74.020594,9696.697840
3860.134089,-536.266849,370.102971,9548.656652
3860.134404,76.609550,-148.041188,10066.800811
3860.134719,383.047749,-74.020594,9844.739029
3860.135034,153.219100,148.041188,9474.636058
3860.135349,-459.657299,444.123565,9474.636058
3860.135664,383.047749,444.123565,10288.862594
3860.135979,919.314598,-0.000000,10140.821405
3860.136294,383.047749,-592.164754,9918.759623
3860.136609,383.047749,-0.000000,9252.574275
3860.136923,229.828649,-0.000000,9474.636058
3860.137238,766.095498,-518.144159,9548.656652
3860.137553,1072.533697,-1110.308913,9474.636058
3860.137868,842.705048,-370.102971,9474.636058
3860.138183,1302.362347,148.041188,8438.347739
3860.138498,1455.581446,666.185348,8142.265362
3860.138813,2298.286494,222.061783,8660.409521
3860.139128,2911.162892,-592.164754,8586.388927
3860.139443,1991.848295,-222.061783,9104.533087
3860.139757,1378.971896,296.082377,8882.471304
3860.140072,766.095498,296.082377,9622.677246
3860.140387,1455.581446,-0.000000,10140.821405
3860.140702,1225.752797,-370.102971,10510.924376
3860.141017,1149.143247,-0.000000,10214.842000
3860.141332,459.657299,740.205942,9548.656652
3860.141647,0.000000,592.164754,10362.883188
3860.141962,1225.752797,666.185348,9178.553681
3860.142277,1455.581446,370.102971,8882.471304
3860.142591,1149.143247,1110.308913,7772.162391
3860.142906,919.314598,370.102971,8734.430116
3860.143221,689.485948,-296.082377,9252.574275
3860.143536,459.657299,-222.061783,9622.677246
3860.143851,-459.657299,-296.082377,9474.636058
3860.144166,-383.047749,-592.164754,9844.739029
3860.144481,-995.924147,444.123565,9474.636058
3860.144796,-1225.752797,148.041188,10658.965565
3860.145111,-459.657299,-0.000000,10658.965565
3860.145426,-842.705048,814.226536,9178.553681
3860.145740,0.000000,888.247130,9474.636058
3860.146055,0.000000,1258.350101,9770.718434
3860.146370,-689.485948,962.267725,9622.677246
3860.146685,383.047749,296.082377,9622.677246
3860.147000,0.000000,-222.061783,10214.842000
3860.147315,-919.314598,444.123565,9992.780217
3860.147630,-1072.533697,740.205942,10214.842000
3860.147945,-1072.533697,296.082377,10658.965565
3860.148260,-995.924147,370.102971,10510.924376
3860.148574,-995.924147,-0.000000,10436.903782
3860.148889,-842.705048,888.247130,9030.512492
3860.149204,-1072.533697,444.123565,9696.697840
3860.149519,-459.657299,444.123565,9474.636058
3860.149834,383.047749,296.082377,8882.471304
3860.150149,0.000000,444.123565,8956.491898
3860.150464,0.000000,444.123565,9252.574275
3860.150779,-1378.971896,592.164754,9548.656652
3860.151094,-689.485948,-0.000000,9992.780217
3860.151408,-766.095498,-74.020594,10584.944971
3860.151723,-1149.143247,296.082377,10881.027347
3860.152038,-1455.581446,666.185348,10881.027347
3860.152353,-1762.019645,296.082377,10881.027347
3860.152668,-689.485948,370.102971,10658.965565
3860.152983,0.000000,-74.020594,10140.821405
3860.153298,153.219100,222.061783,9252.574275
3860.153613,1378.971896,740.205942,9548.656652
3860.153928,1608.800546,888.247130,9030.512492
3860.154243,2068.457845,740.205942,8586.388927
3860.154557,2221.676944,592.164754,8142.265362
3860.154872,1455.581446,444.123565,8290.306550
3860.155187,766.095498,-0.000000,8438.347739
3860.155502,383.047749,-962.267725,9326.594869
3860.155817,459.657299,-1998.556043,9992.780217
3860.156132,536.266849,-2294.638420,9474.636058
3860.156447,153.219100,-1480.411884,9178.553681
3860.156762,383.047749,-1480.411884,9918.759623
3860.157077,306.438199,-74.020594,9770.718434
3860.157391,1532.190996,-296.082377,9252.574275
3860.157706,2068.457845,-148.041188,8586.388927
3860.158021,2451.505594,-0.000000,8586.388927
3860.158336,1532.190996,370.102971,8660.409521
3860.158651,2221.676944,-666.185348,9474.636058
3860.158966,2451.505594,-0.000000,9104.533087
3860.159281,1685.410096,-222.061783,9696.697840
3860.159596,1225.752797,148.041188,9178.553681
3860.159911,229.828649,-296.082377,9844.739029
3860.160226,306.438199,-74.020594,9992.780217
3860.160540,689.485948,-666.185348,9622.677246
3860.160855,306.438199,-74.020594,9252.574275
3860.161170,0.000000,-444.123565,8882.471304
3860.161485,383.047749,-0.000000,9474.636058
3860.161800,229.828649,-0.000000,8882.471304
3860.162115,536.266849,-666.185348,9474.636058
3860.162430,536.266849,-666.185348,9474.636058
3860.162745,306.438199,370.102971,9696.697840
3860.163060,-919.314598,518.144159,10362.883188
3860.163374,-1225.752797,296.082377,10955.047942
3860.163689,-842.705048,444.123565,10436.903782
3860.164004,-766.095498,296.082377,10288.862594
3860.164319,-1302.362347,814.226536,10066.800811
3860.164634,-1762.019645,444.123565,10510.924376
3860.164949,-1532.190996,370.102971,10066.800811
3860.165264,-1149.143247,-148.041188,9992.780217
3860.165579,-842.705048,-0.000000,9474.636058
3860.165894,-1225.752797,592.164754,9178.553681
3860.166208,-1302.362347,222.061783,9252.574275
3860.166523,-1378.971896,-740.205942,9992.780217
3860.166838,-1915.238745,-0.000000,9770.718434
3860.167153,-1915.238745,-74.020594,9992.780217
3860.167468,-1762.019645,814.226536,9696.697840
3860.167783,-1455.581446,444.123565,9844.739029
3860.168098,-766.095498,-0.000000,9400.615463
3860.168413,-306.438199,-148.041188,9326.594869
3860.168728,0.000000,814.226536,8734.430116
3860.169043,-919.314598,1332.370696,8586.388927
3860.169357,-153.219100,1332.370696,8438.347739
3860.169672,0.000000,370.102971,9474.636058
3860.169987,153.219100,-148.041188,9326.594869
3860.170302,-306.438199,-518.144159,9474.636058
3860.170617,-766.095498,222.061783,10362.883188
3860.170932,-536.266849,222.061783,10658.965565
3860.171247,-306.438199,296.082377,10436.903782
3860.171562,459.657299,-0.000000,9844.739029
3860.171877,306.438199,592.164754,10066.800811
3860.172191,919.314598,1258.350101,8956.491898
3860.172506,1455.581446,592.164754,9696.697840
3860.172821,1762.019645,370.102971,9326.594869
3860.173136,1991.848295,-0.000000,9178.553681
3860.173451,1455.581446,1332.370696,9104.533087
3860.173766,1532.190996,518.144159,9178.553681
3860.174081,2068.457845,-0.000000,10066.800811
3860.174396,1991.848295,-0.000000,9474.636058
3860.174711,1685.410096,444.123565,9474.636058
3860.175026,995.924147,518.144159,9992.780217
3860.175340,842.705048,518.144159,10732.986159
3860.175655,1072.533697,592.164754,10436.903782
3860.175970,1532.190996,-0.000000,9992.780217
3860.176285,919.314598,296.082377,9696.697840
3860.176600,842.705048,814.226536,9474.636058
3860.176915,919.314598,740.205942,9696.697840
3860.177230,1532.190996,-0.000000,9548.656652
3860.177545,1915.238745,148.041188,9474.636058
3860.177860,1685.410096,666.185348,9622.677246
3860.178174,612.876398,-222.061783,9622.677246
3860.178489,153.219100,-222.061783,9770.718434
3860.178804,306.438199,-222.061783,9992.780217
3860.179119,383.047749,-740.205942,9844.739029
3860.179434,-153.219100,-962.267725,9696.697840
3860.179749,-766.095498,-74.020594,9474.636058
3860.180064,-1225.752797,-222.061783,9104.533087
3860.180379,-229.828649,-444.123565,9178.553681
3860.180694,459.657299,-814.226536,9030.512492
3860.181008,0.000000,-148.041188,8512.368333
3860.181323,0.000000,-444.123565,9400.615463
3860.181638,-766.095498,-370.102971,8956.491898
3860.181953,-689.485948,-740.205942,9622.677246
3860.182268,-306.438199,-666.185348,9918.759623
3860.182583,-995.924147,-0.000000,9622.677246
3860.182898,-1302.362347,518.144159,9548.656652
3860.183213,-1302.362347,-222.061783,9548.656652
3860.183528,-919.314598,-74.020594,9474.636058
3860.183843,-459.657299,-222.061783,9474.636058
3860.184157,-1072.533697,-74.020594,9252.574275
3860.184472,-1608.800546,-148.041188,9474.636058
3860.184787,-766.095498,-0.000000,9104.533087
3860.185102,-383.047749,-296.082377,8512.368333
3860.185417,-459.657299,-0.000000,8438.347739
3860.185732,-1072.533697,296.082377,8438.347739
3860.186047,-1762.019645,-0.000000,9030.512492
3860.186362,-1915.238745,-370.102971,9622.677246
3860.186677,-1915.238745,-444.123565,9992.780217
3860.186991,-1991.848295,-814.226536,9548.656652
3860.187306,-2757.943793,-740.205942,10066.800811
3860.187621,-2757.943793,-962.267725,11103.089130
3860.187936,-2528.115143,-592.164754,10658.965565
3860.188251,-1608.800546,-222.061783,10288.862594
3860.188566,-1225.752797,-296.082377,9844.739029
3860.188881,-1072.533697,-0.000000,9474.636058
3860.189196,-383.047749,370.102971,9548.656652
3860.189510,-383.047749,-0.000000,9326.594869
3860.189825,0.000000,-740.205942,9474.636058
3860.190140,689.485948,-296.082377,9548.656652
3860.190455,-689.485948,-1036.288319,10214.842000
3860.190770,-1225.752797,-1036.288319,9918.759623
3860.191085,-766.095498,-814.226536,10362.883188
3860.191400,-536.266849,-962.267725,9178.553681
3860.191715,-536.266849,-1998.556043,9548.656652
3860.192029,-612.876398,-1480.411884,10288.862594
3860.192344,-1225.752797,-1776.494261,9844.739029
3860.192659,-1149.143247,-1776.494261,8808.450710
3860.192974,-459.657299,-1998.556043,9400.615463
3860.193289,0.000000,-1998.556043,9696.697840
3860.193604,-689.485948,-1480.411884,9696.697840
3860.193919,-842.705048,-1776.494261,9844.739029
3860.194233,-1072.533697,-1332.370696,9622.677246
3860.194548,-1072.533697,-1406.391290,9696.697840
3860.194863,-1225.752797,-1776.494261,10066.800811
3860.195178,-1225.752797,-2590.720797,10955.047942
3860.195493,-1608.800546,-1998.556043,11029.068536
3860.195808,-2145.067394,-1924.535449,10658.965565
3860.196123,-1685.410096,-2072.576638,9844.739029
3860.196438,-1225.752797,-2220.617826,10140.821405
3860.196752,-919.314598,-2072.576638,10140.821405
3860.197067,-1149.143247,-1702.473667,8660.409521
3860.197382,-919.314598,-2072.576638,8216.285956
3860.197697,-1302.362347,-1998.556043,8142.265362
3860.198012,-995.924147,-1776.494261,7624.121203
3860.198327,-919.314598,-2368.659014,8364.327145
3860.198642,-1378.971896,-2960.823768,8734.430116
3860.198956,-1838.629195,-3256.906145,8808.450710
3860.199271,-2451.505594,-2664.741391,9548.656652
3860.199586,-3217.601092,-2738.761985,9474.636058
3860.199901,-3140.991542,-2294.638420,9918.759623
3860.200216,-2451.505594,-2516.700203,10288.862594
3860.200531,-2911.162892,-2072.576638,9474.636058
3860.200846,-2681.334243,-1998.556043,9326.594869
3860.201160,-2757.943793,-2146.597232,9326.594869
3860.201475,-2834.553343,-1924.535449,8882.471304
3860.201790,-2374.896044,-2220.617826,8882.471304
3860.202105,-2068.457845,-1998.556043,8808.450710
3860.202420,-1838.629195,-2220.617826,9178.553681
3860.202735,-2374.896044,-2368.659014,10066.800811
3860.203050,-3064.381992,-2590.720797,10066.800811
3860.203365,-3524.039291,-2368.659014,9770.718434
3860.203679,-3370.820191,-2442.679609,9844.739029
3860.203994,-2451.505594,-2812.782580,10436.903782
3860.204309,-2604.724693,-2960.823768,10066.800811
3860.204624,-2604.724693,-3256.906145,9770.718434
3860.204939,-2834.553343,-2960.823768,8882.471304
3860.205254,-2681.334243,-2220.617826,8734.430116
3860.205569,-2221.676944,-1480.411884,8142.265362
3860.205883,-1532.190996,-1776.494261,8438.347739
3860.206198,-1455.581446,-1776.494261,8882.471304
3860.206513,-1991.848295,-2072.576638,8808.450710
3860.206828,-2834.553343,-2960.823768,10066.800811
3860.207143,-3524.039291,-3256.906145,10955.047942
3860.207458,-3294.210641,-2886.803174,11399.171507
3860.207773,-2834.553343,-1924.535449,10288.862594
3860.208088,-2298.286494,-1850.514855,10510.924376
3860.208402,-2451.505594,-1776.494261,10510.924376
3860.208717,-1838.629195,-1850.514855,10584.944971
3860.209032,-1915.238745,-1998.556043,10066.800811
3860.209347,-1302.362347,-1628.453072,9326.594869
3860.209662,-995.924147,-1036.288319,8734.430116
3860.209977,-459.657299,-518.144159,8512.368333
3860.210292,0.000000,-1554.432478,8364.327145
3860.210606,-612.876398,-2220.617826,8956.491898
3860.210921,-1302.362347,-3034.844362,9918.759623
3860.211236,-1685.410096,-2516.700203,10436.903782
3860.211551,-1225.752797,-2516.700203,10288.862594
3860.211866,-1685.410096,-1776.494261,10066.800811
3860.212181,-1685.410096,-1554.432478,9326.594869
3860.212496,-1302.362347,-1184.329507,9178.553681
3860.212810,-1072.533697,-2146.597232,9474.636058
3860.213125,-919.314598,-1998.556043,9030.512492
3860.213440,-229.828649,-1110.308913,9178.553681
3860.213755,0.000000,-1184.329507,8142.265362
3860.214070,-153.219100,-1184.329507,8660.409521
3860.214385,-689.485948,-1554.432478,9770.718434
3860.214700,-1608.800546,-1850.514855,9918.759623
3860.215015,-2221.676944,-1480.411884,10140.821405
3860.215329,-2834.553343,-1850.514855,10584.944971
3860.215644,-2528.115143,-2664.741391,10214.842000
3860.215959,-2068.457845,-2738.761985,10510.924376
3860.216274,-2987.772442,-2442.679609,10436.903782
3860.216589,-2987.772442,-2960.823768,10807.006753
3860.216904,-2451.505594,-2146.597232,10584.944971
3860.217219,-1915.238745,-1110.308913,9474.636058
3860.217533,-1762.019645,-518.144159,8956.491898
3860.217848,-1378.971896,-370.102971,8660.409521
3860.218163,-1072.533697,-888.247130,8364.327145
3860.218478,-1225.752797,-1480.411884,9178.553681
3860.218793,-1762.019645,-2368.659014,9770.718434
3860.219108,-2298.286494,-2146.597232,10140.821405
3860.219423,-2374.896044,-2072.576638,10807.006753
3860.219737,-2298.286494,-1776.494261,10807.006753
3860.220052,-2528.115143,-1110.308913,9844.739029
3860.220367,-2834.553343,-74.020594,9252.574275
3860.220682,-2604.724693,-296.082377,8512.368333
3860.220997,-2451.505594,-1332.370696,8142.265362
3860.221312,-2451.505594,-1628.453072,8438.347739
3860.221627,-2451.505594,-2664.741391,9252.574275
3860.221942,-2451.505594,-2960.823768,10214.842000
3860.222256,-2757.943793,-2812.782580,10436.903782
3860.222571,-3370.820191,-2294.638420,11399.171507
3860.222886,-3447.429741,-1776.494261,11843.295072
3860.223201,-3140.991542,-518.144159,10881.027347
3860.223516,-2145.067394,-444.123565,9992.780217
3860.223831,-1838.629195,-296.082377,8882.471304
3860.224146,-1838.629195,-888.247130,8512.368333
3860.224460,-1225.752797,-1628.453072,7846.182985
3860.224775,-1532.190996,-1924.535449,7846.182985
3860.225090,-1685.410096,-2368.659014,8882.471304
3860.225405,-1915.238745,-2664.741391,9770.718434
3860.225720,-2145.067394,-2738.761985,10214.842000
3860.226035,-2451.505594,-2664.741391,11103.089130
3860.226350,-2068.457845,-2516.700203,10658.965565
3860.226665,-1991.848295,-2812.782580,11399.171507
3860.226979,-1838.629195,-1702.473667,10436.903782
3860.227294,-2068.457845,-1258.350101,9326.594869
3860.227609,-1149.143247,-962.267725,8068.244768
3860.227924,-842.705048,-1036.288319,7328.038826
3860.228239,-306.438199,-666.185348,7105.977043
3860.228554,-459.657299,-1406.391290,7328.038826
3860.228869,-1532.190996,-1924.535449,8216.285956
3860.229183,-2145.067394,-3108.864956,9844.739029
3860.229498,-2834.553343,-4145.153275,11399.171507
3860.229813,-3217.601092,-3478.967927,12435.459826
3860.230128,-3600.648841,-3775.050304,13249.686362
3860.230443,-3370.820191,-3256.906145,12805.562797
3860.230758,-2757.943793,-2368.659014,11399.171507
3860.231073,-1685.410096,-1702.473667,9548.656652
3860.231387,-689.485948,-148.041188,7920.203579
3860.231702,383.047749,296.082377,6735.874072
3860.232017,995.924147,-0.000000,6143.709319
3860.232332,995.924147,-518.144159,6217.729913
3860.232647,689.485948,-2368.659014,7254.018232
3860.232962,-689.485948,-3034.844362,8438.347739
3860.233277,-2068.457845,-3923.091493,10288.862594
3860.233592,-2757.943793,-3701.029710,11843.295072
3860.233906,-3907.087040,-3923.091493,12361.439231
3860.234221,-4060.306139,-3552.988522,12287.418637
3860.234536,-3983.696590,-2812.782580,11843.295072
3860.234851,-3370.820191,-1998.556043,10288.862594
3860.235166,-2911.162892,-1110.308913,8808.450710
3860.235481,-1072.533697,-1036.288319,7846.182985
3860.235796,-153.219100,-592.164754,7624.121203
3860.236110,536.266849,-1036.288319,7846.182985
3860.236425,536.266849,-1036.288319,8216.285956
3860.236740,76.609550,-1480.411884,9178.553681
3860.237055,-536.266849,-1776.494261,10066.800811
3860.237370,-1072.533697,-1998.556043,9844.739029
3860.237685,-2221.676944,-2294.638420,10288.862594
3860.238000,-2911.162892,-2590.720797,9844.739029
3860.238315,-3600.648841,-2442.679609,9326.594869
3860.238629,-4290.134789,-3552.988522,7920.203579
3860.238944,-4366.744339,-3330.926739,8586.388927
3860.239259,-4290.134789,-3182.885551,8956.491898
3860.239574,-4213.525239,-3034.844362,9474.636058
3860.239889,-3677.258390,-2738.761985,10140.821405
3860.240204,-3217.601092,-2812.782580,11177.109724
3860.240519,-2221.676944,-2072.576638,11843.295072
3860.240833,-1455.581446,-1776.494261,11991.336260
3860.241148,-1149.143247,-666.185348,11547.212695
3860.241463,-766.095498,-0.000000,9770.718434
3860.241778,-689.485948,1036.288319,8290.306550
3860.242093,0.000000,1110.308913,7105.977043
3860.242408,-536.266849,370.102971,6809.894666
3860.242723,-1149.143247,-666.185348,6957.935855
3860.243037,-1838.629195,-2294.638420,7920.203579
3860.243352,-2834.553343,-3627.009116,9474.636058
3860.243667,-3677.258390,-4589.276840,10436.903782
3860.243982,-4136.915689,-4885.359217,11843.295072
3860.244297,-4136.915689,-4663.297435,13101.645173
3860.244612,-3753.867940,-3997.112087,12287.418637
3860.244927,-2757.943793,-2516.700203,11103.089130
3860.245242,-1225.752797,-1036.288319,10510.924376
3860.245556,-383.047749,666.185348,8882.471304
3860.245871,459.657299,1554.432478,7254.018232
3860.246186,1225.752797,1702.473667,6365.771101
3860.246501,1149.143247,962.267725,7031.956449
3860.246816,919.314598,-0.000000,8216.285956
3860.247131,153.219100,-1110.308913,8956.491898
3860.247446,-1149.143247,-2220.617826,10288.862594
3860.247760,-2298.286494,-3034.844362,11621.233289
3860.248075,-3294.210641,-3701.029710,12065.356855
3860.248390,-3447.429741,-4219.173869,11843.295072
3860.248705,-3370.820191,-3775.050304,11769.274478
3860.249020,-2987.772442,-2812.782580,10288.862594
3860.249335,-2451.505594,-1184.329507,9104.533087
3860.249650,-1302.362347,-444.123565,8216.285956
3860.249965,-229.828649,-0.000000,7476.080014
3860.250279,153.219100,-0.000000,7254.018232
3860.250594,459.657299,-518.144159,7920.203579
3860.250909,536.266849,-0.000000,8882.471304
3860.251224,766.095498,-666.185348,9696.697840
3860.251539,689.485948,-1332.370696,10955.047942
3860.251854,-459.657299,-1628.453072,11251.130318
3860.252169,-689.485948,-1628.453072,10658.965565
3860.252483,-1302.362347,-1110.308913,9992.780217
3860.252798,-1685.410096,-740.205942,9474.636058
3860.253113,-995.924147,-518.144159,8142.265362
3860.253428,-1378.971896,-740.205942,7772.162391
3860.253743,-1378.971896,-1184.329507,7550.100608
3860.254058,-1838.629195,-1850.514855,8438.347739
3860.254373,-2068.457845,-2220.617826,8734.430116
3860.254687,-2068.457845,-3034.844362,9252.574275
3860.255002,-2528.115143,-2738.761985,10807.006753
3860.255317,-2681.334243,-2368.659014,10881.027347
3860.255632,-2451.505594,-1998.556043,11103.089130
3860.255947,-2681.334243,-666.185348,10881.027347
3860.256262,-2068.457845,-222.061783,10732.986159
3860.256577,-2374.896044,370.102971,9844.739029
3860.256892,-2221.676944,592.164754,8956.491898
3860.257206,-2374.896044,444.123565,9474.636058
3860.257521,-2221.676944,-666.185348,9474.636058
3860.257836,-3064.381992,-1332.370696,9474.636058
3860.258151,-2987.772442,-2146.597232,9918.759623
3860.258466,-3753.867940,-2664.741391,10066.800811
3860.258781,-4213.525239,-2590.720797,10288.862594
3860.259096,-4519.963438,-2960.823768,10732.986159
3860.259410,-4366.744339,-3330.926739,10881.027347
3860.259725,-4060.306139,-3034.844362,10140.821405
3860.260040,-4366.744339,-2738.761985,10140.821405
3860.260355,-4060.306139,-2590.720797,9548.656652
3860.260670,-3294.210641,-2368.659014,9474.636058
3860.260985,-2987.772442,-2146.597232,9696.697840
3860.261300,-2757.943793,-1998.556043,9326.594869
3860.261615,-2528.115143,-1850.514855,9622.677246
3860.261929,-1915.238745,-2072.576638,9844.739029
3860.262244,-1608.800546,-2368.659014,10214.842000
3860.262559,-1685.410096,-2368.659014,10510.924376
3860.262874,-1685.410096,-2812.782580,10288.862594
3860.263189,-2145.067394,-3182.885551,9844.739029
3860.263504,-2298.286494,-4367.215058,9696.697840
3860.263819,-2298.286494,-3775.050304,9474.636058
3860.264133,-2451.505594,-3849.070898,9252.574275
3860.264448,-2451.505594,-3775.050304,9178.553681
3860.264763,-2451.505594,-3775.050304,9178.553681
3860.265078,-2604.724693,-3997.112087,8438.347739
3860.265393,-2145.067394,-4589.276840,8660.409521
3860.265708,-1838.629195,-4663.297435,9030.512492
3860.266023,-1532.190996,-3923.091493,8364.327145
3860.266337,-1072.533697,-3701.029710,8216.285956
3860.266652,-306.438199,-3256.906145,7624.121203
3860.266967,0.000000,-2516.700203,7994.224174
3860.267282,0.000000,-2146.597232,7772.162391
3860.267597,-306.438199,-2146.597232,7624.121203
3860.267912,-919.314598,-2220.617826,8512.368333
3860.268227,-919.314598,-2590.720797,9252.574275
3860.268542,-1378.971896,-3182.885551,9844.739029
3860.268856,-1991.848295,-3182.885551,10214.842000
3860.269171,-2298.286494,-3256.906145,10288.862594
3860.269486,-2068.457845,-3404.947333,10214.842000
3860.269801,-1225.752797,-3182.885551,9992.780217
3860.270116,-842.705048,-2368.659014,9030.512492
3860.270431,-536.266849,-1258.350101,7179.997637
3860.270746,0.000000,-1332.370696,7105.977043
3860.271060,306.438199,-1258.350101,6661.853478
3860.271375,153.219100,-1258.350101,6587.832884
3860.271690,-383.047749,-962.267725,7031.956449
3860.272005,-1762.019645,-1850.514855,8142.265362
3860.272320,-2451.505594,-2368.659014,9622.677246
3860.272635,-3140.991542,-2960.823768,10214.842000
3860.272950,-3600.648841,-2738.761985,11399.171507
3860.273264,-3677.258390,-2738.761985,12509.480420
3860.273579,-3524.039291,-2072.576638,11769.274478
3860.273894,-3064.381992,-1480.411884,11251.130318
3860.274209,-2451.505594,-518.144159,11029.068536
3860.274524,-2298.286494,518.144159,9548.656652
3860.274839,-1532.190996,1628.453072,8512.368333
3860.275154,-995.924147,1628.453072,8438.347739
3860.275469,-689.485948,740.205942,9252.574275
3860.275783,-1302.362347,-0.000000,9252.574275
3860.276098,-2757.943793,-962.267725,10510.924376
3860.276413,-3830.477490,-1702.473667,12287.418637
3860.276728,-4213.525239,-2220.617826,13101.645173
3860.277043,-4060.306139,-2294.638420,13693.809927
3860.277358,-3830.477490,-1554.432478,13027.624579
3860.277673,-3600.648841,-814.226536,12435.459826
3860.277987,-3140.991542,-0.000000,10510.924376
3860.278302,-2068.457845,1406.391290,8882.471304
3860.278617,-995.924147,1850.514855,7846.182985
3860.278932,-229.828649,1480.411884,7105.977043
3860.279247,0.000000,222.061783,7698.141797
3860.279562,-383.047749,-666.185348,8882.471304
3860.279877,-995.924147,-2072.576638,10066.800811
3860.280192,-2451.505594,-1998.556043,11843.295072
3860.280506,-2911.162892,-2146.597232,13249.686362
3860.280821,-3217.601092,-1924.535449,13767.830521
3860.281136,-3217.601092,-1110.308913,12731.542202
3860.281451,-2451.505594,-1036.288319,11029.068536
3860.281766,-1762.019645,-222.061783,9622.677246
3860.282081,-842.705048,-444.123565,8438.347739
3860.282396,-153.219100,-444.123565,6661.853478
3860.282710,0.000000,-666.185348,5403.503377
3860.283025,-612.876398,-1628.453072,5921.647536
3860.283340,76.609550,-3034.844362,7550.100608
3860.283655,-306.438199,-3256.906145,9178.553681
3860.283970,-1762.019645,-3478.967927,11399.171507
3860.284285,-2987.772442,-2886.803174,10881.027347
3860.284600,-3524.039291,-3034.844362,11769.274478
3860.284914,-2987.772442,-2738.761985,10658.965565
3860.285229,-2298.286494,-2516.700203,9548.656652
3860.285544,-2221.676944,-1850.514855,7994.224174
3860.285859,-1762.019645,-2146.597232,7179.997637
3860.286174,-153.219100,-2220.617826,7105.977043
3860.286489,0.000000,-2294.638420,7105.977043
3860.286804,-153.219100,-2294.638420,7698.141797
3860.287119,-766.095498,-2442.679609,8660.409521
3860.287433,-1225.752797,-3404.947333,9622.677246
3860.287748,-1915.238745,-3404.947333,10140.821405
3860.288063,-2068.457845,-3182.885551,11177.109724
3860.288378,-2834.553343,-3330.926739,11029.068536
3860.288693,-2604.724693,-4293.194464,10510.924376
3860.289008,-2374.896044,-3404.947333,10140.821405
3860.289323,-2298.286494,-2442.679609,9400.615463
3860.289637,-2298.286494,-1110.308913,7328.038826
3860.289952,-1532.190996,-1406.391290,6957.935855
3860.290267,-1378.971896,-1554.432478,7402.059420
3860.290582,-1225.752797,-1850.514855,7550.100608
3860.290897,-1838.629195,-3108.864956,8586.388927
3860.291212,-1762.019645,-4441.235652,10510.924376
3860.291527,-2604.724693,-4367.215058,11917.315666
3860.291841,-2987.772442,-3404.947333,11621.233289
3860.292156,-3677.258390,-2368.659014,10955.047942
3860.292471,-3753.867940,-2368.659014,10436.903782
3860.292786,-3447.429741,-1184.329507,9918.759623
3860.293101,-2987.772442,-1258.350101,8290.306550
3860.293416,-2911.162892,-2220.617826,8216.285956
3860.293730,-2681.334243,-2664.741391,9104.533087
3860.294045,-3064.381992,-2886.803174,8956.491898
3860.294360,-3140.991542,-3552.988522,9992.780217
3860.294675,-2604.724693,-2812.782580,11029.068536
3860.294990,-2757.943793,-2664.741391,11251.130318
3860.295305,-2374.896044,-2368.659014,11325.150913
3860.295619,-2221.676944,-2146.597232,11621.233289
3860.295934,-2451.505594,-1184.329507,10362.883188
3860.296249,-2451.505594,-1036.288319,9474.636058
3860.296564,-1455.581446,-1110.308913,8068.244768
3860.296879,-1378.971896,-1628.453072,8290.306550
3860.297194,-1608.800546,-1332.370696,7254.018232
3860.297509,-1455.581446,-2294.638420,7846.182985
3860.297823,-2068.457845,-2442.679609,8142.265362
3860.298138,-2528.115143,-2738.761985,9104.533087
3860.298453,-2451.505594,-2516.700203,10066.800811
3860.298768,-2451.505594,-3478.967927,11029.068536
3860.299083,-2451.505594,-2812.782580,11769.274478
3860.299398,-2298.286494,-2960.823768,12065.356855
3860.299712,-2068.457845,-1776.494261,11473.192101
3860.300027,-2145.067394,-0.000000,10362.883188
3860.300342,-1302.362347,740.205942,9178.553681
3860.300657,0.000000,1184.329507,7698.141797
3860.300972,766.095498,666.185348,7105.977043
3860.301287,842.705048,-0.000000,7402.059420
3860.301602,689.485948,-1406.391290,8438.347739
3860.301916,-459.657299,-1554.432478,8956.491898
3860.302231,-995.924147,-1998.556043,9622.677246
3860.302546,-1915.238745,-2442.679609,10214.842000
3860.302861,-2068.457845,-2664.741391,11029.068536
3860.303176,-1915.238745,-2960.823768,11251.130318
3860.303491,-2298.286494,-2220.617826,10955.047942
3860.303805,-2834.553343,-888.247130,10066.800811
3860.304120,-1915.238745,74.020594,8734.430116
3860.304435,-1378.971896,592.164754,7846.182985
3860.304750,-306.438199,740.205942,7254.018232
3860.305065,153.219100,-444.123565,8660.409521
3860.305380,-842.705048,-370.102971,9104.533087
3860.305695,-1685.410096,-1480.411884,9326.594869
3860.306009,-1378.971896,-1184.329507,9992.780217
3860.306324,-1532.190996,-1258.350101,10658.965565
3860.306639,-1685.410096,-1776.494261,11621.233289
3860.306954,-2604.724693,-1628.453072,12065.356855
3860.307269,-3907.087040,-1480.411884,11695.253884
3860.307584,-3524.039291,-1628.453072,11547.212695
3860.307898,-3217.601092,-962.267725,10140.821405
3860.308213,-2298.286494,-592.164754,9918.759623
3860.308528,-1915.238745,-444.123565,8882.471304
3860.308843,-995.924147,-962.267725,7994.224174
3860.309158,-612.876398,-962.267725,7846.182985
3860.309473,0.000000,-2072.576638,8956.491898
3860.309788,-229.828649,-1924.535449,9696.697840
3860.310102,-536.266849,-1628.453072,10584.944971
3860.310417,-689.485948,-518.144159,10510.924376
3860.310732,-1378.971896,-296.082377,9548.656652
3860.311047,-1225.752797,-814.226536,10584.944971
3860.311362,-995.924147,-222.061783,9992.780217
3860.311677,-1072.533697,-444.123565,9400.615463
3860.311991,-1455.581446,-814.226536,8882.471304
3860.312306,-1685.410096,-1036.288319,8660.409521
3860.312621,-1149.143247,-1406.391290,8290.306550
3860.312936,-766.095498,-1924.535449,9622.677246
3860.313251,-995.924147,-2590.720797,9918.759623
3860.313566,-536.266849,-2368.659014,10510.924376
3860.313881,-995.924147,-1332.370696,9770.718434
3860.314195,-842.705048,-962.267725,9918.759623
3860.314510,-689.485948,-962.267725,10436.903782
3860.314825,0.000000,-0.000000,9622.677246
3860.315140,-919.314598,-518.144159,9474.636058
3860.315455,-229.828649,-814.226536,9104.533087
3860.315770,306.438199,-0.000000,8734.430116
3860.316084,842.705048,-518.144159,9252.574275
3860.316399,919.314598,-592.164754,8808.450710
3860.316714,306.438199,-666.185348,8438.347739
3860.317029,229.828649,-518.144159,8882.471304
3860.317344,612.876398,-888.247130,9252.574275
3860.317659,1225.752797,-1036.288319,9844.739029
3860.317974,842.705048,-888.247130,9696.697840
3860.318288,153.219100,-0.000000,8882.471304
3860.318603,-383.047749,-370.102971,8660.409521
3860.318918,-306.438199,-148.041188,8882.471304
3860.319233,76.609550,-0.000000,9326.594869
3860.319548,766.095498,222.061783,8882.471304
3860.319863,306.438199,370.102971,8734.430116
3860.320177,153.219100,444.123565,8882.471304
3860.320492,536.266849,222.061783,9400.615463
3860.320807,536.266849,-0.000000,10214.842000
3860.321122,76.609550,-148.041188,10288.862594
3860.321437,-306.438199,222.061783,10214.842000
3860.321752,-229.828649,592.164754,9992.780217
3860.322067,0.000000,518.144159,10510.924376
3860.322381,229.828649,666.185348,10881.027347
3860.322696,-459.657299,1036.288319,9326.594869
3860.323011,-1608.800546,1554.432478,10140.821405
3860.323326,-1149.143247,1850.514855,9474.636058
3860.323641,76.609550,518.144159,10732.986159
3860.323956,0.000000,-0.000000,10140.821405
3860.324270,-306.438199,-740.205942,10066.800811
3860.324585,-383.047749,148.041188,10881.027347
3860.324900,-689.485948,1332.370696,9770.718434
3860.325215,153.219100,1110.308913,10955.047942
3860.325530,76.609550,1110.308913,10510.924376
3860.325845,766.095498,2146.597232,9178.553681
3860.326160,612.876398,1480.411884,8364.327145
3860.326474,383.047749,1776.494261,8956.491898
3860.326789,0.000000,1480.411884,9918.759623
3860.327104,153.219100,666.185348,9178.553681
3860.327419,-229.828649,740.205942,9474.636058
3860.327734,-229.828649,888.247130,9474.636058
3860.328049,0.000000,592.164754,9548.656652
3860.328363,1149.143247,-222.061783,9696.697840
3860.328678,1149.143247,222.061783,10436.903782
3860.328993,536.266849,1110.308913,9252.574275
3860.329308,153.219100,1332.370696,9400.615463
3860.329623,459.657299,1184.329507,9548.656652
3860.329938,612.876398,1628.453072,9326.594869
3860.330253,1532.190996,296.082377,9104.533087
3860.330567,1378.971896,1332.370696,9178.553681
3860.330882,383.047749,1702.473667,9252.574275
3860.331197,842.705048,814.226536,9400.615463
3860.331512,612.876398,222.061783,9400.615463
3860.331827,1302.362347,-148.041188,9474.636058
3860.332142,459.657299,-74.020594,9474.636058
3860.332456,-536.266849,-0.000000,9326.594869
3860.332771,229.828649,-0.000000,10288.862594
3860.333086,689.485948,-148.041188,10214.842000
3860.333401,536.266849,-74.020594,9548.656652
3860.333716,76.609550,370.102971,9474.636058
3860.334031,0.000000,1036.288319,9178.553681
3860.334346,306.438199,740.205942,10066.800811
3860.334660,612.876398,-74.020594,10066.800811
3860.334975,1225.752797,-74.020594,9696.697840
3860.335290,459.657299,370.102971,9696.697840
3860.335605,536.266849,740.205942,9474.636058
3860.335920,459.657299,222.061783,9622.677246
3860.336235,306.438199,-148.041188,9474.636058
3860.336549,383.047749,-518.144159,9474.636058
3860.336864,0.000000,-296.082377,9474.636058
3860.337179,-612.876398,-0.000000,9622.677246
3860.337494,-919.314598,-370.102971,10066.800811
3860.337809,-919.314598,-1406.391290,10140.821405
3860.338124,-1072.533697,-666.185348,9696.697840
3860.338439,-1838.629195,-222.061783,9326.594869
3860.338753,-1149.143247,-222.061783,9770.718434
3860.339068,0.000000,-888.247130,10584.944971
3860.339383,306.438199,-962.267725,10214.842000
3860.339698,0.000000,-222.061783,9548.656652
3860.340013,-842.705048,-370.102971,9474.636058
3860.340328,-995.924147,-0.000000,9178.553681
3860.340642,153.219100,-518.144159,9770.718434
3860.340957,459.657299,-444.123565,9474.636058
3860.341272,-153.219100,-0.000000,9030.512492
3860.341587,-766.095498,-222.061783,9400.615463
3860.341902,-1378.971896,-814.226536,9104.533087
3860.342217,-766.095498,-1554.432478,9918.759623
3860.342532,-459.657299,-1184.329507,9844.739029
3860.342846,-612.876398,-888.247130,9474.636058
3860.343161,-842.705048,-1184.329507,9252.574275
3860.343476,-536.266849,-888.247130,9474.636058
3860.343791,0.000000,-888.247130,9992.780217
3860.344106,229.828649,-222.061783,9252.574275
3860.344421,306.438199,888.247130,8142.265362
3860.344735,76.609550,740.205942,8438.347739
3860.345050,536.266849,296.082377,9178.553681
3860.345365,536.266849,-740.205942,9548.656652
3860.345680,842.705048,-592.164754,9326.594869
3860.345995,-229.828649,-0.000000,9696.697840
3860.346310,-536.266849,148.041188,9918.759623
3860.346625,0.000000,-74.020594,9992.780217
3860.346939,229.828649,-296.082377,9992.780217
3860.347254,919.314598,-222.061783,9622.677246
3860.347569,229.828649,-370.102971,9252.574275
3860.347884,306.438199,592.164754,8808.450710
3860.348199,689.485948,296.082377,9104.533087
3860.348514,1149.143247,-0.000000,9400.615463
3860.348828,1378.971896,814.226536,8586.388927
3860.349143,1072.533697,814.226536,8364.327145
3860.349458,766.095498,148.041188,9992.780217
3860.349773,1532.190996,1110.308913,9696.697840
3860.350088,1685.410096,592.164754,10436.903782
3860.350403,1532.190996,1406.391290,9548.656652
3860.350718,459.657299,1480.411884,9918.759623
3860.351032,689.485948,1850.514855,9918.759623
3860.351347,1149.143247,1036.288319,9844.739029
3860.351662,1149.143247,666.185348,10066.800811
3860.351977,842.705048,814.226536,9696.697840
3860.352292,0.000000,1628.453072,9400.615463
3860.352607,306.438199,1554.432478,9770.718434
3860.352921,0.000000,370.102971,10807.006753
3860.353236,383.047749,148.041188,9992.780217
3860.353551,0.000000,-0.000000,10658.965565
3860.353866,-995.924147,1480.411884,9696.697840
3860.354181,-689.485948,814.226536,10140.821405
3860.354496,0.000000,962.267725,10140.821405
3860.354811,612.876398,592.164754,9844.739029
3860.355125,0.000000,962.267725,9474.636058
3860.355440,-536.266849,814.226536,10066.800811
3860.355755,-919.314598,1554.432478,10214.842000
3860.356070,-153.219100,592.164754,10066.800811
3860.356385,-153.219100,370.102971,9844.739029
3860.356700,-995.924147,740.205942,9474.636058
3860.357014,-1378.971896,740.205942,9400.615463
3860.357329,-612.876398,-0.000000,10140.821405
3860.357644,-612.876398,-148.041188,10214.842000
3860.357959,-766.095498,-518.144159,9696.697840
3860.358274,-1532.190996,-148.041188,9622.677246
3860.358589,-1915.238745,296.082377,10288.862594
3860.358904,-612.876398,518.144159,9844.739029
3860.359218,0.000000,-518.144159,10288.862594
3860.359533,306.438199,444.123565,9400.615463
3860.359848,-306.438199,148.041188,8364.327145
3860.360163,0.000000,740.205942,8142.265362
3860.360478,842.705048,370.102971,8586.388927
3860.360793,459.657299,-222.061783,9178.553681
3860.361107,689.485948,-592.164754,8956.491898
3860.361422,-153.219100,-370.102971,8364.327145
3860.361737,-612.876398,-814.226536,9400.615463
3860.362052,0.000000,-1406.391290,10436.903782
3860.362367,383.047749,-1332.370696,9770.718434
3860.362682,0.000000,-962.267725,9252.574275
3860.362997,-536.266849,-814.226536,9178.553681
3860.363311,0.000000,-740.205942,9030.512492
3860.363626,383.047749,-1036.288319,9400.615463
3860.363941,1532.190996,-888.247130,9178.553681
3860.364256,1762.019645,-444.123565,8586.388927
3860.364571,1072.533697,-296.082377,8808.450710
3860.364886,1072.533697,-0.000000,9400.615463
3860.365200,1072.533697,-0.000000,9474.636058
3860.365515,1378.971896,-962.267725,9992.780217
3860.365830,1378.971896,-888.247130,9992.780217
3860.366145,459.657299,-148.041188,9474.636058
3860.366460,995.924147,-444.123565,9474.636058
3860.366775,536.266849,-370.102971,9918.759623
3860.367090,842.705048,-518.144159,9178.553681
3860.367404,536.266849,-740.205942,9252.574275
3860.367719,76.609550,-0.000000,9252.574275
3860.368034,229.828649,-296.082377,9178.553681
3860.368349,766.095498,-592.164754,9918.759623
3860.368664,995.924147,-740.205942,9918.759623
3860.368979,229.828649,-0.000000,9474.636058
3860.369293,-919.314598,-0.000000,10436.903782
3860.369608,-383.047749,444.123565,10807.006753
3860.369923,0.000000,222.061783,10214.842000
3860.370238,842.705048,370.102971,9548.656652
3860.370553,76.609550,-0.000000,9548.656652
3860.370868,-459.657299,1110.308913,9474.636058
3860.371183,229.828649,740.205942,9326.594869
3860.371497,0.000000,-0.000000,10066.800811
3860.371812,383.047749,814.226536,9548.656652
3860.372127,-153.219100,1184.329507,9474.636058
3860.372442,-842.705048,1702.473667,8808.450710
3860.372757,0.000000,814.226536,9326.594869
3860.373072,0.000000,370.102971,9844.739029
3860.373386,229.828649,-148.041188,9548.656652
3860.373701,-229.828649,518.144159,9252.574275
3860.374016,-383.047749,592.164754,9474.636058
3860.374331,-153.219100,592.164754,9178.553681
3860.374646,766.095498,-74.020594,9992.780217
3860.374961,306.438199,-0.000000,9326.594869
3860.375276,-1072.533697,1184.329507,8660.409521
3860.375590,-459.657299,1110.308913,9104.533087
3860.375905,-995.924147,-74.020594,9696.697840
3860.376220,-383.047749,666.185348,10584.944971
3860.376535,-612.876398,518.144159,9918.759623
3860.376850,-1532.190996,592.164754,10362.883188
3860.377165,-689.485948,888.247130,10955.047942
3860.377479,306.438199,1480.411884,10584.944971
3860.377794,76.609550,814.226536,10807.006753
3860.378109,536.266849,1110.308913,9548.656652
3860.378424,0.000000,1628.453072,9548.656652
3860.378739,-229.828649,2516.700203,8586.388927
3860.379054,306.438199,666.185348,9918.759623
3860.379369,919.314598,-0.000000,9252.574275
3860.379683,766.095498,-74.020594,9104.533087
3860.379998,0.000000,148.041188,8808.450710
3860.380313,0.000000,-0.000000,9474.636058
3860.380628,383.047749,-518.144159,9918.759623
3860.380943,766.095498,-592.164754,9770.718434
3860.381258,536.266849,370.102971,9622.677246
3860.381572,76.609550,740.205942,9474.636058
3860.381887,842.705048,1554.432478,9400.615463
3860.382202,1225.752797,740.205942,8956.491898
3860.382517,1838.629195,888.247130,9622.677246
3860.382832,842.705048,740.205942,9326.594869
3860.383147,459.657299,148.041188,9844.739029
3860.383462,689.485948,444.123565,10140.821405
3860.383776,612.876398,-370.102971,10510.924376
3860.384091,995.924147,-296.082377,10362.883188
3860.384406,0.000000,222.061783,10510.924376
3860.384721,-995.924147,-0.000000,10140.821405
3860.385036,0.000000,-592.164754,10436.903782
3860.385351,0.000000,-222.061783,10140.821405
3860.385665,306.438199,-814.226536,9474.636058
3860.385980,229.828649,-74.020594,9178.553681
3860.386295,0.000000,-0.000000,8364.327145
3860.386610,0.000000,-444.123565,9474.636058
3860.386925,766.095498,-1036.288319,9474.636058
3860.387240,612.876398,-592.164754,8956.491898
3860.387555,0.000000,-0.000000,9104.533087
3860.387869,-459.657299,666.185348,9400.615463
3860.388184,0.000000,-0.000000,9844.739029
3860.388499,0.000000,-444.123565,9548.656652
3860.388814,153.219100,-296.082377,9548.656652
3860.389129,-1762.019645,-148.041188,9622.677246
3860.389444,-1685.410096,-296.082377,9474.636058
3860.389758,-536.266849,-1110.308913,10140.821405
3860.390073,-766.095498,-1110.308913,10362.883188
3860.390388,-536.266849,-592.164754,9696.697840
3860.390703,-1072.533697,-444.123565,9178.553681
3860.391018,-536.266849,518.144159,9178.553681
3860.391333,229.828649,-296.082377,9548.656652
3860.391647,766.095498,-0.000000,8882.471304
3860.391962,612.876398,-74.020594,8290.306550
3860.392277,-153.219100,148.041188,8512.368333
3860.392592,-229.828649,148.041188,9326.594869
3860.392907,383.047749,-518.144159,9400.615463
3860.393221,766.095498,-814.226536,9178.553681
3860.393536,-306.438199,-222.061783,9622.677246
3860.393851,-1302.362347,-74.020594,9844.739029
3860.394166,-995.924147,-296.082377,9770.718434
3860.394481,-306.438199,-666.185348,10214.842000
3860.394795,919.314598,-666.185348,10066.800811
3860.395110,0.000000,370.102971,9548.656652
3860.395425,0.000000,592.164754,9548.656652
3860.395740,536.266849,444.123565,9622.677246
3860.396055,1225.752797,296.082377,10214.842000
3860.396370,1838.629195,814.226536,9252.574275
3860.396684,1149.143247,962.267725,9770.718434
3860.396999,459.657299,1406.391290,9104.533087
3860.397314,306.438199,1480.411884,9696.697840
3860.397629,1608.800546,740.205942,9474.636058
3860.397944,1225.752797,296.082377,9400.615463
3860.398258,306.438199,444.123565,9030.512492
3860.398573,0.000000,-0.000000,9548.656652
3860.398888,-229.828649,-0.000000,10066.800811
3860.399203,536.266849,-666.185348,10214.842000
3860.399518,229.828649,-0.000000,9844.739029
3860.399833,-383.047749,444.123565,10140.821405
3860.400147,-689.485948,444.123565,10288.862594
3860.400462,76.609550,592.164754,10362.883188
3860.400777,536.266849,1184.329507,10214.842000
3860.401092,995.924147,1036.288319,9696.697840
3860.401407,153.219100,1924.535449,8956.491898
3860.401721,306.438199,1036.288319,9548.656652
3860.402036,919.314598,592.164754,9622.677246
3860.402351,1532.190996,148.041188,10066.800811
3860.402666,766.095498,592.164754,8956.491898
3860.402981,76.609550,888.247130,8660.409521
3860.403295,-383.047749,814.226536,8882.471304
3860.403610,153.219100,-0.000000,9622.677246
3860.403925,0.000000,-666.185348,9918.759623
3860.404240,-995.924147,-592.164754,9918.759623
3860.404555,-1608.800546,-518.144159,10362.883188
3860.404870,-1532.190996,148.041188,10140.821405
