#time,accel_x,accel_y,accel_z
3637.800577,2451.505594,2516.700203,9104.533087
3637.800891,2374.896044,2516.700203,9104.533087
3637.801206,1532.190996,1702.473667,9178.553681
3637.801520,1225.752797,1258.350101,9400.615463
3637.801834,842.705048,814.226536,9770.718434
3637.802149,0.000000,-222.061783,9548.656652
3637.802463,-306.438199,-222.061783,9474.636058
3637.802778,-383.047749,-370.102971,9474.636058
3637.803092,-459.657299,-592.164754,9474.636058
3637.803407,-229.828649,-370.102971,9474.636058
3637.803721,-153.219100,-148.041188,9030.512492
3637.804036,0.000000,-370.102971,8586.388927
3637.804350,1072.533697,-74.020594,9030.512492
3637.804665,383.047749,-0.000000,9400.615463
3637.804979,306.438199,-0.000000,9474.636058
3637.805293,306.438199,-0.000000,9326.594869
3637.805608,0.000000,444.123565,9178.553681
3637.805922,0.000000,-222.061783,9178.553681
3637.806237,0.000000,-296.082377,9696.697840
3637.806551,-383.047749,-962.267725,9918.759623
3637.806866,-919.314598,-1110.308913,10140.821405
3637.807180,-1225.752797,-1110.308913,10140.821405
3637.807495,-1225.752797,-1036.288319,10214.842000
3637.807809,-1302.362347,-1258.350101,10140.821405
3637.808124,-995.924147,-1184.329507,10140.821405
3637.808438,-536.266849,-1184.329507,9992.780217
3637.808753,-229.828649,-1036.288319,9770.718434
3637.809067,0.000000,-962.267725,9622.677246
3637.809381,229.828649,-592.164754,9696.697840
3637.809696,459.657299,-518.144159,9400.615463
3637.810010,842.705048,-0.000000,9104.533087
3637.810325,1225.752797,-296.082377,9178.553681
3637.810639,1608.800546,-370.102971,9178.553681
3637.810954,1455.581446,-296.082377,8882.471304
3637.811268,1225.752797,-592.164754,8956.491898
3637.811583,689.485948,-888.247130,8956.491898
3637.811897,689.485948,-814.226536,9252.574275
3637.812212,919.314598,-888.247130,9104.533087
3637.812526,612.876398,-962.267725,9252.574275
3637.812840,383.047749,-666.185348,9326.594869
3637.813155,153.219100,-518.144159,8734.430116
3637.813469,612.876398,-148.041188,8660.409521
3637.813784,612.876398,-0.000000,9030.512492
3637.814098,306.438199,296.082377,8956.491898
3637.814413,612.876398,444.123565,8512.368333
3637.814727,76.609550,740.205942,9030.512492
3637.815042,383.047749,-0.000000,9030.512492
3637.815356,153.219100,666.185348,9474.636058
3637.815671,0.000000,740.205942,9844.739029
3637.815985,76.609550,666.185348,9918.759623
3637.816299,306.438199,1110.308913,9696.697840
3637.816614,0.000000,1110.308913,9622.677246
3637.816928,-153.219100,740.205942,9548.656652
3637.817243,-459.657299,962.267725,9844.739029
3637.817557,-536.266849,740.205942,9696.697840
3637.817872,-459.657299,1184.329507,9918.759623
3637.818186,229.828649,1258.350101,9992.780217
3637.818501,306.438199,888.247130,10140.821405
3637.818815,229.828649,740.205942,9918.759623
3637.819130,76.609550,1184.329507,9918.759623
3637.819444,612.876398,1184.329507,10066.800811
3637.819759,842.705048,1258.350101,10288.862594
3637.820073,612.876398,1332.370696,10436.903782
3637.820387,306.438199,1184.329507,10288.862594
3637.820702,536.266849,1258.350101,10288.862594
3637.821016,306.438199,962.267725,10436.903782
3637.821331,689.485948,666.185348,11029.068536
3637.821645,0.000000,814.226536,10436.903782
3637.821960,0.000000,592.164754,10510.924376
3637.822274,-383.047749,296.082377,10584.944971
3637.822589,0.000000,444.123565,10362.883188
3637.822903,-306.438199,296.082377,10214.842000
3637.823218,-536.266849,222.061783,10214.842000
3637.823532,-153.219100,-0.000000,9696.697840
3637.823846,-229.828649,296.082377,9992.780217
3637.824161,0.000000,370.102971,10066.800811
3637.824475,0.000000,296.082377,9844.739029
3637.824790,0.000000,518.144159,9548.656652
3637.825104,153.219100,-0.000000,9696.697840
3637.825419,153.219100,-0.000000,9474.636058
3637.825733,612.876398,-0.000000,9622.677246
3637.826048,383.047749,-74.020594,9474.636058
3637.826362,229.828649,-0.000000,9474.636058
3637.826677,612.876398,-74.020594,9104.533087
3637.826991,0.000000,-0.000000,8956.491898
3637.827306,306.438199,-148.041188,8956.491898
3637.827620,612.876398,-222.061783,8808.450710
3637.827934,383.047749,-222.061783,8660.409521
3637.828249,76.609550,-370.102971,8956.491898
3637.828563,229.828649,-296.082377,8956.491898
3637.828878,153.219100,-370.102971,8956.491898
3637.829192,306.438199,-148.041188,9252.574275
3637.829507,229.828649,-444.123565,9326.594869
3637.829821,0.000000,-74.020594,8956.491898
3637.830136,0.000000,-370.102971,8956.491898
3637.830450,-229.828649,-296.082377,9326.594869
3637.830765,-229.828649,-370.102971,9696.697840
3637.831079,0.000000,-592.164754,9474.636058
3637.831393,-229.828649,-666.185348,9400.615463
3637.831708,-383.047749,-814.226536,9178.553681
3637.832022,0.000000,-592.164754,9474.636058
3637.832337,-383.047749,-444.123565,9622.677246
3637.832651,-612.876398,-666.185348,9622.677246
3637.832966,-229.828649,-1036.288319,9400.615463
3637.833280,-383.047749,-592.164754,9696.697840
3637.833595,-76.609550,-666.185348,9622.677246
3637.833909,536.266849,-1036.288319,9326.594869
3637.834224,153.219100,-740.205942,9696.697840
3637.834538,153.219100,-444.123565,9918.759623
3637.834852,306.438199,-370.102971,9622.677246
3637.835167,76.609550,-444.123565,9474.636058
3637.835481,689.485948,-518.144159,9474.636058
3637.835796,76.609550,-592.164754,9918.759623
3637.836110,0.000000,-444.123565,9474.636058
3637.836425,76.609550,-0.000000,9622.677246
3637.836739,306.438199,-74.020594,9696.697840
3637.837054,76.609550,-0.000000,10362.883188
3637.837368,0.000000,-0.000000,9326.594869
3637.837683,0.000000,518.144159,9326.594869
3637.837997,0.000000,148.041188,9844.739029
3637.838312,689.485948,296.082377,9918.759623
3637.838626,76.609550,-0.000000,9474.636058
3637.838940,0.000000,888.247130,9474.636058
3637.839255,306.438199,814.226536,9474.636058
3637.839569,0.000000,740.205942,9474.636058
3637.839884,0.000000,740.205942,9474.636058
3637.840198,0.000000,666.185348,9326.594869
3637.840513,76.609550,740.205942,9474.636058
3637.840827,0.000000,962.267725,9474.636058
3637.841142,229.828649,962.267725,9400.615463
3637.841456,306.438199,888.247130,9104.533087
3637.841771,306.438199,1184.329507,10066.800811
3637.842085,0.000000,592.164754,9252.574275
3637.842399,306.438199,592.164754,9474.636058
3637.842714,229.828649,740.205942,9326.594869
3637.843028,383.047749,888.247130,9622.677246
3637.843343,229.828649,1110.308913,9696.697840
3637.843657,306.438199,666.185348,9474.636058
3637.843971,536.266849,592.164754,9622.677246
3637.844285,306.438199,518.144159,9622.677246
3637.844600,306.438199,666.185348,9770.718434
3637.844914,306.438199,444.123565,9770.718434
3637.845228,306.438199,370.102971,9918.759623
3637.845542,76.609550,296.082377,10214.842000
3637.845856,306.438199,370.102971,9770.718434
3637.846171,229.828649,-0.000000,9918.759623
3637.846485,0.000000,-74.020594,9770.718434
3637.846799,0.000000,-0.000000,9844.739029
3637.847113,0.000000,-74.020594,9918.759623
3637.847428,-229.828649,-0.000000,10066.800811
3637.847742,76.609550,-74.020594,9992.780217
3637.848056,0.000000,-0.000000,10066.800811
3637.848370,0.000000,148.041188,9770.718434
3637.848685,153.219100,-148.041188,9918.759623
3637.848999,76.609550,-148.041188,10066.800811
3637.849313,0.000000,-148.041188,9770.718434
3637.849627,0.000000,-0.000000,9400.615463
3637.849941,76.609550,-74.020594,9548.656652
3637.850256,153.219100,-74.020594,9474.636058
3637.850570,229.828649,-0.000000,9474.636058
3637.850884,0.000000,-370.102971,9474.636058
3637.851198,-229.828649,-0.000000,8956.491898
3637.851513,76.609550,-0.000000,9030.512492
3637.851827,76.609550,-0.000000,9178.553681
3637.852141,229.828649,-0.000000,9104.533087
3637.852455,0.000000,-0.000000,9252.574275
3637.852770,0.000000,-0.000000,8734.430116
3637.853084,0.000000,-222.061783,8882.471304
3637.853398,76.609550,-74.020594,8956.491898
3637.853712,306.438199,-0.000000,8956.491898
3637.854026,0.000000,-148.041188,9030.512492
3637.854341,0.000000,-296.082377,9104.533087
3637.854655,153.219100,-222.061783,9252.574275
3637.854969,153.219100,-148.041188,9326.594869
3637.855283,76.609550,-74.020594,9104.533087
3637.855598,76.609550,-74.020594,9178.553681
3637.855912,383.047749,-0.000000,9252.574275
3637.856226,306.438199,-148.041188,9474.636058
3637.856540,76.609550,-0.000000,9474.636058
3637.856855,229.828649,-518.144159,9474.636058
3637.857169,229.828649,-0.000000,9400.615463
3637.857483,306.438199,-0.000000,9696.697840
3637.857797,229.828649,-370.102971,9474.636058
3637.858111,0.000000,-0.000000,9992.780217
3637.858426,229.828649,-74.020594,10140.821405
3637.858740,153.219100,74.020594,10140.821405
3637.859054,0.000000,-0.000000,10362.883188
3637.859368,76.609550,296.082377,9992.780217
3637.859683,76.609550,-0.000000,9696.697840
3637.859997,536.266849,222.061783,10584.944971
3637.860311,0.000000,370.102971,10436.903782
3637.860625,-76.609550,444.123565,10140.821405
3637.860940,0.000000,592.164754,10066.800811
3637.861254,0.000000,370.102971,10066.800811
3637.861568,0.000000,444.123565,10140.821405
3637.861882,0.000000,814.226536,10066.800811
3637.862196,0.000000,740.205942,9992.780217
3637.862511,0.000000,592.164754,9918.759623
3637.862825,0.000000,740.205942,9770.718434
3637.863139,153.219100,962.267725,9770.718434
3637.863453,0.000000,740.205942,9696.697840
3637.863768,0.000000,592.164754,9696.697840
3637.864082,76.609550,740.205942,9474.636058
3637.864396,76.609550,666.185348,9474.636058
3637.864710,229.828649,888.247130,9548.656652
3637.865025,153.219100,814.226536,9474.636058
3637.865339,153.219100,518.144159,9252.574275
3637.865653,229.828649,666.185348,9474.636058
3637.865967,229.828649,666.185348,9548.656652
3637.866281,306.438199,592.164754,9474.636058
3637.866596,383.047749,370.102971,9400.615463
3637.866910,306.438199,592.164754,9252.574275
3637.867224,612.876398,592.164754,9400.615463
3637.867538,383.047749,-0.000000,9696.697840
3637.867853,306.438199,296.082377,9770.718434
3637.868167,229.828649,74.020594,9548.656652
3637.868481,0.000000,-0.000000,9474.636058
3637.868795,0.000000,-0.000000,9622.677246
3637.869110,153.219100,296.082377,9696.697840
3637.869424,76.609550,-0.000000,9622.677246
3637.869738,383.047749,-148.041188,10140.821405
3637.870052,306.438199,-74.020594,9622.677246
3637.870366,383.047749,-0.000000,9474.636058
3637.870681,306.438199,-0.000000,9622.677246
3637.870995,0.000000,-74.020594,9770.718434
3637.871309,229.828649,-222.061783,9770.718434
3637.871623,0.000000,-148.041188,9548.656652
3637.871938,229.828649,-148.041188,9844.739029
3637.872252,0.000000,-222.061783,9622.677246
3637.872566,0.000000,-148.041188,9622.677246
3637.872880,229.828649,-370.102971,9844.739029
3637.873195,0.000000,-444.123565,9770.718434
3637.873509,0.000000,-222.061783,9474.636058
3637.873823,0.000000,-148.041188,9474.636058
3637.874137,0.000000,-148.041188,9474.636058
3637.874451,0.000000,-444.123565,9400.615463
3637.874766,0.000000,-148.041188,9326.594869
3637.875080,0.000000,-296.082377,9474.636058
3637.875394,0.000000,-296.082377,9622.677246
3637.875708,0.000000,-148.041188,9178.553681
3637.876023,383.047749,-0.000000,9252.574275
3637.876337,0.000000,-74.020594,9252.574275
3637.876651,0.000000,-0.000000,9252.574275
3637.876965,0.000000,-0.000000,9252.574275
3637.877280,536.266849,-0.000000,9178.553681
3637.877594,76.609550,-74.020594,8882.471304
3637.877908,153.219100,296.082377,8956.491898
3637.878222,153.219100,-0.000000,9252.574275
3637.878536,0.000000,-222.061783,9548.656652
3637.878851,76.609550,-296.082377,9474.636058
3637.879165,383.047749,-0.000000,9326.594869
3637.879479,0.000000,-148.041188,9474.636058
3637.879793,153.219100,-74.020594,9696.697840
3637.880108,229.828649,-0.000000,9696.697840
3637.880422,536.266849,222.061783,9474.636058
3637.880736,306.438199,370.102971,9474.636058
3637.881050,383.047749,148.041188,9622.677246
3637.881365,536.266849,-0.000000,9770.718434
3637.881679,229.828649,518.144159,9992.780217
3637.881993,383.047749,-0.000000,9622.677246
3637.882307,306.438199,296.082377,9844.739029
3637.882621,306.438199,592.164754,9770.718434
3637.882936,0.000000,518.144159,9770.718434
3637.883250,0.000000,222.061783,10066.800811
3637.883564,0.000000,222.061783,10066.800811
3637.883878,0.000000,370.102971,9770.718434
3637.884193,76.609550,296.082377,10140.821405
3637.884507,0.000000,518.144159,9992.780217
3637.884821,0.000000,370.102971,9770.718434
3637.885135,0.000000,370.102971,10140.821405
3637.885450,-153.219100,74.020594,9844.739029
3637.885764,0.000000,-0.000000,9548.656652
3637.886078,0.000000,518.144159,9770.718434
3637.886392,0.000000,370.102971,9918.759623
3637.886706,-383.047749,370.102971,9474.636058
3637.887021,0.000000,518.144159,9622.677246
3637.887335,0.000000,222.061783,9548.656652
3637.887649,0.000000,148.041188,9548.656652
3637.887963,76.609550,518.144159,9474.636058
3637.888278,76.609550,444.123565,9326.594869
3637.888592,383.047749,666.185348,9770.718434
3637.888906,0.000000,222.061783,9252.574275
3637.889220,0.000000,-0.000000,9252.574275
3637.889534,229.828649,222.061783,9918.759623
3637.889849,153.219100,-0.000000,9400.615463
3637.890163,0.000000,-0.000000,9400.615463
3637.890477,383.047749,-0.000000,9474.636058
3637.890791,0.000000,-0.000000,9696.697840
3637.891106,76.609550,370.102971,9178.553681
3637.891420,153.219100,-0.000000,9178.553681
3637.891734,76.609550,222.061783,9622.677246
3637.892048,536.266849,148.041188,9474.636058
3637.892363,536.266849,-222.061783,9548.656652
3637.892677,0.000000,148.041188,9622.677246
3637.892991,383.047749,-148.041188,9474.636058
3637.893305,153.219100,-0.000000,9696.697840
3637.893619,76.609550,-148.041188,9696.697840
3637.893934,229.828649,-222.061783,9696.697840
3637.894248,0.000000,-222.061783,9326.594869
3637.894562,229.828649,-0.000000,9474.636058
3637.894876,0.000000,-148.041188,9548.656652
3637.895191,229.828649,-74.020594,9622.677246
3637.895505,76.609550,-222.061783,9474.636058
3637.895819,-383.047749,-444.123565,9474.636058
3637.896133,76.609550,-148.041188,9918.759623
3637.896448,0.000000,-74.020594,9474.636058
3637.896762,0.000000,-0.000000,9326.594869
3637.897076,766.095498,-0.000000,9992.780217
3637.897390,0.000000,-0.000000,9622.677246
3637.897704,0.000000,-0.000000,9548.656652
3637.898019,153.219100,-0.000000,9400.615463
3637.898333,0.000000,-0.000000,9400.615463
3637.898647,76.609550,-0.000000,9474.636058
3637.898961,153.219100,-0.000000,9252.574275
3637.899276,153.219100,-0.000000,9770.718434
3637.899590,153.219100,-0.000000,9474.636058
3637.899904,153.219100,-222.061783,9326.594869
3637.900218,0.000000,-0.000000,9400.615463
3637.900533,0.000000,-0.000000,9400.615463
3637.900847,0.000000,222.061783,9696.697840
3637.901161,229.828649,148.041188,9474.636058
3637.901475,229.828649,222.061783,9622.677246
3637.901789,76.609550,-0.000000,9474.636058
3637.902104,383.047749,592.164754,9252.574275
3637.902418,306.438199,296.082377,9548.656652
3637.902732,153.219100,518.144159,9622.677246
3637.903046,383.047749,222.061783,10066.800811
3637.903361,0.000000,370.102971,9474.636058
3637.903675,153.219100,370.102971,9696.697840
3637.903989,0.000000,518.144159,9622.677246
3637.904303,76.609550,444.123565,9844.739029
3637.904618,459.657299,592.164754,10066.800811
3637.904932,0.000000,592.164754,9918.759623
3637.905246,0.000000,592.164754,9918.759623
3637.905560,76.609550,370.102971,9844.739029
3637.905874,153.219100,370.102971,9844.739029
3637.906189,76.609550,370.102971,9770.718434
3637.906503,0.000000,444.123565,9548.656652
3637.906817,153.219100,222.061783,9622.677246
3637.907131,153.219100,370.102971,9622.677246
3637.907446,0.000000,740.205942,9696.697840
3637.907760,153.219100,370.102971,9548.656652
3637.908074,76.609550,-74.020594,9696.697840
3637.908388,0.000000,296.082377,10214.842000
3637.908703,153.219100,518.144159,9696.697840
3637.909017,229.828649,296.082377,9548.656652
3637.909331,459.657299,518.144159,9844.739029
3637.909645,76.609550,444.123565,9548.656652
3637.909959,229.828649,-0.000000,9252.574275
3637.910274,153.219100,370.102971,9622.677246
3637.910588,76.609550,-0.000000,9622.677246
3637.910902,229.828649,148.041188,9474.636058
3637.911216,0.000000,-0.000000,9548.656652
3637.911531,76.609550,148.041188,9770.718434
3637.911845,153.219100,370.102971,9622.677246
3637.912159,0.000000,222.061783,9696.697840
3637.912473,229.828649,148.041188,9548.656652
3637.912788,153.219100,-0.000000,9548.656652
3637.913102,229.828649,-0.000000,9400.615463
3637.913416,383.047749,-0.000000,9474.636058
3637.913730,229.828649,-0.000000,9918.759623
3637.914044,0.000000,-0.000000,9622.677246
3637.914359,153.219100,-0.000000,9474.636058
3637.914673,229.828649,-0.000000,9696.697840
3637.914987,153.219100,-0.000000,9696.697840
3637.915301,0.000000,-0.000000,9252.574275
3637.915616,0.000000,-0.000000,9474.636058
3637.915930,383.047749,-0.000000,9770.718434
3637.916244,0.000000,-0.000000,9252.574275
3637.916558,153.219100,148.041188,9696.697840
3637.916873,76.609550,-74.020594,9548.656652
3637.917187,0.000000,-148.041188,9548.656652
3637.917501,-306.438199,-0.000000,9474.636058
3637.917815,0.000000,-444.123565,9474.636058
3637.918129,76.609550,-0.000000,10066.800811
3637.918444,0.000000,-0.000000,9400.615463
3637.918758,0.000000,-0.000000,9252.574275
3637.919072,76.609550,-0.000000,9696.697840
3637.919386,76.609550,-0.000000,9474.636058
3637.919701,0.000000,-0.000000,9400.615463
3637.920015,153.219100,-0.000000,9400.615463
3637.920329,536.266849,-74.020594,9326.594869
3637.920643,76.609550,-0.000000,9178.553681
3637.920958,383.047749,222.061783,9400.615463
3637.921272,153.219100,-74.020594,9548.656652
3637.921586,229.828649,-148.041188,9474.636058
3637.921900,459.657299,-444.123565,9400.615463
3637.922214,153.219100,-0.000000,9622.677246
3637.922529,0.000000,148.041188,9548.656652
3637.922843,229.828649,148.041188,9548.656652
3637.923157,383.047749,-0.000000,9696.697840
3637.923471,0.000000,-0.000000,9696.697840
3637.923786,0.000000,296.082377,9696.697840
3637.924100,383.047749,-0.000000,9548.656652
3637.924414,229.828649,-0.000000,9992.780217
3637.924728,0.000000,444.123565,9918.759623
3637.925043,0.000000,444.123565,9770.718434
3637.925357,76.609550,222.061783,9548.656652
3637.925671,0.000000,148.041188,10140.821405
3637.925985,0.000000,-0.000000,9696.697840
3637.926299,459.657299,740.205942,9844.739029
3637.926614,766.095498,148.041188,10140.821405
3637.926928,0.000000,-0.000000,9770.718434
3637.927242,153.219100,296.082377,9844.739029
3637.927556,0.000000,296.082377,9770.718434
3637.927871,-383.047749,296.082377,9770.718434
3637.928185,0.000000,370.102971,9770.718434
3637.928499,153.219100,222.061783,9548.656652
3637.928813,0.000000,-0.000000,9844.739029
3637.929128,-76.609550,444.123565,9474.636058
3637.929442,76.609550,296.082377,9326.594869
3637.929756,0.000000,-0.000000,8956.491898
3637.930070,153.219100,444.123565,9474.636058
3637.930384,153.219100,444.123565,9474.636058
3637.930699,76.609550,-0.000000,9400.615463
3637.931013,689.485948,296.082377,9326.594869
3637.931327,306.438199,148.041188,9326.594869
3637.931641,153.219100,444.123565,9400.615463
3637.931956,306.438199,-0.000000,9474.636058
3637.932270,76.609550,-0.000000,9548.656652
3637.932584,0.000000,296.082377,9474.636058
3637.932898,0.000000,-222.061783,9400.615463
3637.933213,76.609550,-0.000000,9696.697840
3637.933527,306.438199,-0.000000,9696.697840
3637.933841,229.828649,-0.000000,9622.677246
3637.934155,612.876398,-74.020594,9696.697840
3637.934469,306.438199,-0.000000,9474.636058
3637.934784,383.047749,222.061783,9474.636058
3637.935098,229.828649,222.061783,9474.636058
3637.935412,153.219100,-0.000000,9844.739029
3637.935726,306.438199,-74.020594,9474.636058
3637.936041,76.609550,-148.041188,9696.697840
3637.936355,229.828649,-0.000000,9696.697840
3637.936669,76.609550,-0.000000,9548.656652
3637.936983,0.000000,222.061783,9696.697840
3637.937298,153.219100,-0.000000,9474.636058
3637.937612,0.000000,-74.020594,9622.677246
3637.937926,153.219100,222.061783,10066.800811
3637.938240,0.000000,-0.000000,9474.636058
3637.938554,306.438199,-0.000000,9918.759623
3637.938869,0.000000,222.061783,9696.697840
3637.939183,-229.828649,-148.041188,9770.718434
3637.939497,-76.609550,-148.041188,9474.636058
3637.939811,0.000000,-0.000000,9548.656652
3637.940126,0.000000,370.102971,9622.677246
3637.940440,-306.438199,-0.000000,9178.553681
3637.940754,0.000000,-0.000000,9474.636058
3637.941068,229.828649,-0.000000,9400.615463
3637.941383,0.000000,-0.000000,9400.615463
3637.941697,306.438199,370.102971,9474.636058
3637.942011,306.438199,296.082377,9622.677246
3637.942325,306.438199,74.020594,9548.656652
3637.942639,76.609550,-0.000000,9548.656652
3637.942954,153.219100,-0.000000,9548.656652
3637.943268,76.609550,-222.061783,9474.636058
3637.943582,0.000000,-0.000000,9474.636058
3637.943896,0.000000,222.061783,9548.656652
3637.944211,229.828649,296.082377,9770.718434
3637.944525,229.828649,296.082377,9474.636058
3637.944839,76.609550,-74.020594,9104.533087
3637.945153,306.438199,518.144159,9252.574275
3637.945468,383.047749,222.061783,9548.656652
3637.945782,383.047749,296.082377,9474.636058
3637.946096,229.828649,148.041188,9548.656652
3637.946410,0.000000,222.061783,9918.759623
3637.946724,0.000000,-0.000000,9474.636058
3637.947039,0.000000,222.061783,9622.677246
3637.947353,0.000000,296.082377,9844.739029
3637.947667,689.485948,-0.000000,10362.883188
3637.947982,76.609550,-0.000000,9474.636058
3637.948296,153.219100,-0.000000,9474.636058
3637.948610,383.047749,444.123565,9844.739029
3637.948924,0.000000,-0.000000,9770.718434
3637.949239,76.609550,148.041188,9844.739029
3637.949553,459.657299,-0.000000,9992.780217
3637.949867,689.485948,-0.000000,9992.780217
3637.950182,306.438199,296.082377,9844.739029
3637.950496,689.485948,296.082377,9992.780217
3637.950810,919.314598,518.144159,9918.759623
3637.951124,689.485948,740.205942,9400.615463
3637.951439,842.705048,814.226536,9030.512492
3637.951753,459.657299,962.267725,9104.533087
3637.952067,919.314598,666.185348,9104.533087
3637.952382,1225.752797,444.123565,9474.636058
3637.952696,919.314598,370.102971,9474.636058
3637.953010,689.485948,518.144159,9696.697840
3637.953324,842.705048,296.082377,9474.636058
3637.953639,689.485948,444.123565,9844.739029
3637.953953,919.314598,1036.288319,10436.903782
3637.954267,1072.533697,740.205942,9992.780217
3637.954582,1532.190996,1332.370696,10214.842000
3637.954896,2068.457845,1332.370696,9548.656652
3637.955210,2911.162892,1628.453072,9474.636058
3637.955524,2911.162892,2146.597232,8734.430116
3637.955839,3140.991542,2146.597232,8660.409521
3637.956153,3447.429741,2294.638420,8808.450710
3637.956467,3524.039291,2368.659014,8808.450710
3637.956782,3753.867940,2738.761985,8586.388927
3637.957096,3217.601092,2368.659014,8882.471304
3637.957410,3064.381992,2146.597232,9030.512492
3637.957724,2681.334243,2368.659014,9252.574275
3637.958039,2068.457845,2516.700203,9474.636058
3637.958353,2374.896044,1480.411884,9548.656652
3637.958667,1991.848295,2294.638420,9770.718434
3637.958982,2068.457845,2368.659014,9474.636058
3637.959296,2145.067394,2590.720797,9622.677246
3637.959610,1991.848295,2812.782580,9770.718434
3637.959924,2374.896044,3330.926739,9548.656652
3637.960239,2298.286494,3256.906145,9844.739029
3637.960553,2604.724693,3478.967927,9918.759623
3637.960867,2451.505594,3775.050304,10288.862594
3637.961182,2604.724693,3923.091493,10658.965565
3637.961496,2604.724693,3849.070898,10881.027347
3637.961810,2451.505594,3478.967927,10881.027347
3637.962125,2374.896044,3552.988522,10807.006753
3637.962439,2604.724693,3627.009116,10510.924376
3637.962753,2451.505594,3701.029710,10066.800811
3637.963067,2604.724693,3997.112087,9400.615463
3637.963382,2374.896044,3552.988522,8586.388927
3637.963696,2221.676944,2664.741391,8882.471304
3637.964010,1762.019645,2516.700203,9178.553681
3637.964325,1072.533697,2442.679609,9178.553681
3637.964639,1072.533697,1924.535449,10288.862594
3637.964953,229.828649,1406.391290,11103.089130
3637.965267,0.000000,1776.494261,11251.130318
3637.965582,76.609550,2146.597232,11547.212695
3637.965896,76.609550,2738.761985,11769.274478
3637.966210,229.828649,2960.823768,11103.089130
3637.966525,919.314598,3182.885551,10807.006753
3637.966839,1378.971896,3478.967927,9400.615463
3637.967153,2068.457845,3478.967927,8808.450710
3637.967467,2298.286494,3108.864956,8216.285956
3637.967782,1685.410096,2516.700203,8142.265362
3637.968096,1302.362347,2072.576638,8142.265362
3637.968410,383.047749,814.226536,8512.368333
3637.968725,-536.266849,-0.000000,9326.594869
3637.969039,-1532.190996,-814.226536,9844.739029
3637.969353,-2298.286494,-1258.350101,11251.130318
3637.969667,-2604.724693,-1628.453072,11103.089130
3637.969982,-2451.505594,-1110.308913,11177.109724
3637.970296,-2068.457845,-518.144159,11473.192101
3637.970610,-1378.971896,-0.000000,10584.944971
3637.970925,-306.438199,740.205942,9474.636058
3637.971239,1225.752797,1554.432478,8734.430116
3637.971553,2068.457845,1628.453072,8216.285956
3637.971867,2451.505594,1628.453072,7772.162391
3637.972182,2298.286494,962.267725,7772.162391
3637.972496,1762.019645,-0.000000,8512.368333
3637.972810,1225.752797,-814.226536,9474.636058
3637.973125,536.266849,-1258.350101,9992.780217
3637.973439,-153.219100,-2146.597232,10584.944971
3637.973753,-1072.533697,-2590.720797,10955.047942
3637.974067,-612.876398,-2368.659014,10584.944971
3637.974382,-459.657299,-1850.514855,9844.739029
3637.974696,153.219100,-1332.370696,9030.512492
3637.975010,306.438199,-888.247130,8068.244768
3637.975325,842.705048,-888.247130,7772.162391
3637.975639,2145.067394,-666.185348,7476.080014
3637.975953,2068.457845,-740.205942,7846.182985
3637.976267,2145.067394,-592.164754,8660.409521
3637.976582,1455.581446,-962.267725,9770.718434
3637.976896,919.314598,-1036.288319,10584.944971
3637.977210,0.000000,-1184.329507,11177.109724
3637.977525,0.000000,-1406.391290,11103.089130
3637.977839,0.000000,-740.205942,10510.924376
3637.978153,-229.828649,-814.226536,10288.862594
3637.978467,0.000000,-1036.288319,9400.615463
3637.978782,76.609550,-1110.308913,8290.306550
3637.979096,842.705048,-1480.411884,8142.265362
3637.979410,1302.362347,-1702.473667,8068.244768
3637.979725,1072.533697,-1480.411884,8808.450710
3637.980039,689.485948,-888.247130,9326.594869
3637.980353,459.657299,-1110.308913,9474.636058
3637.980667,76.609550,-1036.288319,9474.636058
3637.980982,0.000000,-444.123565,9696.697840
3637.981296,-306.438199,-74.020594,9622.677246
3637.981610,-842.705048,444.123565,9104.533087
3637.981925,-766.095498,-0.000000,8660.409521
3637.982239,-689.485948,-148.041188,8956.491898
3637.982553,-536.266849,-296.082377,9326.594869
3637.982867,-689.485948,-296.082377,9474.636058
3637.983182,-842.705048,-814.226536,9770.718434
3637.983496,-1455.581446,-148.041188,10288.862594
3637.983810,-1302.362347,296.082377,10510.924376
3637.984125,-919.314598,148.041188,10658.965565
3637.984439,-919.314598,444.123565,10584.944971
3637.984753,-766.095498,814.226536,10214.842000
3637.985067,-536.266849,1258.350101,9474.636058
3637.985382,-229.828649,1332.370696,9326.594869
3637.985696,229.828649,1480.411884,9548.656652
3637.986010,612.876398,1702.473667,9030.512492
3637.986325,689.485948,1628.453072,8290.306550
3637.986639,536.266849,1628.453072,8882.471304
3637.986953,383.047749,1332.370696,8734.430116
3637.987267,0.000000,1036.288319,9252.574275
3637.987582,0.000000,1036.288319,9548.656652
3637.987896,-842.705048,444.123565,10510.924376
3637.988210,-1149.143247,444.123565,10362.883188
3637.988525,-1149.143247,592.164754,10658.965565
3637.988839,-919.314598,814.226536,11177.109724
3637.989153,-689.485948,1258.350101,11325.150913
3637.989467,-229.828649,1702.473667,11103.089130
3637.989782,0.000000,1850.514855,10881.027347
3637.990096,459.657299,2368.659014,9992.780217
3637.990410,1149.143247,1776.494261,9992.780217
3637.990725,2068.457845,2220.617826,9992.780217
3637.991039,2221.676944,1332.370696,9622.677246
3637.991353,1762.019645,1332.370696,9326.594869
3637.991667,1762.019645,962.267725,9252.574275
3637.991982,1685.410096,666.185348,9696.697840
3637.992296,1149.143247,222.061783,9992.780217
3637.992610,536.266849,-0.000000,9770.718434
3637.992925,76.609550,-0.000000,9918.759623
3637.993239,229.828649,-148.041188,9474.636058
3637.993553,306.438199,296.082377,9622.677246
3637.993868,383.047749,444.123565,9252.574275
3637.994182,229.828649,222.061783,9030.512492
3637.994496,383.047749,592.164754,8882.471304
3637.994810,919.314598,444.123565,8956.491898
3637.995125,1072.533697,296.082377,9474.636058
3637.995439,919.314598,-0.000000,9918.759623
3637.995753,306.438199,222.061783,9696.697840
3637.996068,153.219100,296.082377,10288.862594
3637.996382,-459.657299,222.061783,10510.924376
3637.996696,-612.876398,222.061783,10881.027347
3637.997010,-383.047749,-0.000000,10436.903782
3637.997325,-842.705048,-0.000000,9918.759623
3637.997639,0.000000,-148.041188,9474.636058
3637.997953,0.000000,-222.061783,9178.553681
3637.998268,842.705048,-592.164754,8660.409521
3637.998582,995.924147,-1184.329507,8142.265362
3637.998896,995.924147,-1036.288319,8438.347739
3637.999210,612.876398,-666.185348,8734.430116
3637.999525,0.000000,-592.164754,8660.409521
3637.999839,153.219100,-666.185348,9104.533087
3638.000153,-459.657299,-666.185348,9104.533087
3638.000468,-689.485948,-370.102971,9104.533087
3638.000782,-919.314598,-444.123565,9326.594869
3638.001096,-1149.143247,-592.164754,9474.636058
3638.001410,-689.485948,-1036.288319,9844.739029
3638.001725,-459.657299,-1258.350101,9770.718434
3638.002039,-919.314598,-1332.370696,9918.759623
3638.002353,-1149.143247,-1036.288319,10584.944971
3638.002668,-1149.143247,-1036.288319,10584.944971
3638.002982,-995.924147,-518.144159,10362.883188
3638.003296,-689.485948,-444.123565,10288.862594
3638.003610,-612.876398,-296.082377,10140.821405
3638.003925,-459.657299,-74.020594,9474.636058
3638.004239,-229.828649,-74.020594,9252.574275
3638.004553,153.219100,-592.164754,8882.471304
3638.004868,153.219100,-1036.288319,8956.491898
3638.005182,612.876398,-814.226536,8808.450710
3638.005496,459.657299,-740.205942,8586.388927
3638.005810,-229.828649,-740.205942,9178.553681
3638.006125,0.000000,-814.226536,9252.574275
3638.006439,306.438199,-444.123565,9178.553681
3638.006753,-229.828649,-0.000000,9326.594869
3638.007068,-229.828649,-74.020594,9400.615463
3638.007382,-459.657299,-74.020594,9622.677246
3638.007696,-459.657299,-370.102971,9696.697840
3638.008010,0.000000,-0.000000,9622.677246
3638.008325,-153.219100,-0.000000,10140.821405
3638.008639,0.000000,592.164754,10732.986159
3638.008953,0.000000,666.185348,10807.006753
3638.009268,0.000000,1036.288319,9844.739029
3638.009582,229.828649,1406.391290,9696.697840
3638.009896,995.924147,1036.288319,10066.800811
3638.010210,1149.143247,1110.308913,9770.718434
3638.010525,1225.752797,1184.329507,9326.594869
3638.010839,1378.971896,740.205942,9104.533087
3638.011153,1225.752797,666.185348,8660.409521
3638.011468,1455.581446,814.226536,9104.533087
3638.011782,1302.362347,592.164754,9326.594869
3638.012096,842.705048,370.102971,9178.553681
3638.012410,766.095498,666.185348,9252.574275
3638.012725,459.657299,814.226536,9252.574275
3638.013039,689.485948,962.267725,9400.615463
3638.013353,383.047749,1258.350101,9696.697840
3638.013668,153.219100,962.267725,9622.677246
3638.013982,0.000000,962.267725,9474.636058
3638.014296,306.438199,1036.288319,9992.780217
3638.014610,229.828649,1036.288319,9844.739029
3638.014925,229.828649,1110.308913,10436.903782
3638.015239,0.000000,962.267725,11103.089130
3638.015553,-612.876398,1110.308913,10881.027347
3638.015868,-383.047749,1184.329507,10658.965565
3638.016182,0.000000,1332.370696,10436.903782
3638.016496,229.828649,1184.329507,10584.944971
3638.016810,306.438199,1184.329507,9918.759623
3638.017125,459.657299,1110.308913,9178.553681
3638.017439,1532.190996,370.102971,9178.553681
3638.017753,1608.800546,740.205942,9178.553681
3638.018068,1378.971896,444.123565,8586.388927
3638.018382,842.705048,592.164754,8956.491898
3638.018696,76.609550,444.123565,8882.471304
3638.019010,76.609550,444.123565,9252.574275
3638.019325,0.000000,666.185348,9474.636058
3638.019639,-306.438199,370.102971,9474.636058
3638.019953,-612.876398,814.226536,9696.697840
3638.020268,-689.485948,370.102971,9770.718434
3638.020582,-612.876398,-0.000000,9844.739029
3638.020896,-306.438199,-74.020594,10066.800811
3638.021210,0.000000,148.041188,10288.862594
3638.021525,153.219100,296.082377,9844.739029
3638.021839,-536.266849,444.123565,10214.842000
3638.022153,-689.485948,666.185348,9918.759623
3638.022468,-383.047749,444.123565,9992.780217
3638.022782,-229.828649,222.061783,9844.739029
3638.023096,0.000000,-0.000000,9696.697840
3638.023410,-383.047749,-74.020594,9400.615463
3638.023725,0.000000,-296.082377,9252.574275
3638.024039,76.609550,-740.205942,9104.533087
3638.024353,153.219100,-888.247130,9400.615463
3638.024668,306.438199,-666.185348,9030.512492
3638.024982,76.609550,-740.205942,8882.471304
3638.025296,229.828649,-740.205942,8808.450710
3638.025611,459.657299,-518.144159,9400.615463
3638.025925,153.219100,-444.123565,9030.512492
3638.026239,0.000000,-592.164754,9474.636058
3638.026553,-306.438199,-592.164754,9622.677246
3638.026868,0.000000,-740.205942,9474.636058
3638.027182,0.000000,-1036.288319,9696.697840
3638.027496,-229.828649,-1258.350101,9992.780217
3638.027811,0.000000,-888.247130,10732.986159
3638.028125,-153.219100,-962.267725,10732.986159
3638.028439,0.000000,-444.123565,10436.903782
3638.028753,0.000000,-222.061783,10214.842000
3638.029068,153.219100,-148.041188,9844.739029
3638.029382,459.657299,-148.041188,9548.656652
3638.029696,919.314598,-370.102971,9252.574275
3638.030011,689.485948,-222.061783,8956.491898
3638.030325,1455.581446,-592.164754,9030.512492
3638.030639,1302.362347,-740.205942,9030.512492
3638.030953,995.924147,-518.144159,9104.533087
3638.031268,689.485948,-814.226536,9252.574275
3638.031582,459.657299,-518.144159,9474.636058
3638.031896,612.876398,-444.123565,9474.636058
3638.032211,229.828649,-74.020594,9622.677246
3638.032525,0.000000,-74.020594,9474.636058
3638.032839,76.609550,-0.000000,9252.574275
3638.033153,0.000000,370.102971,9178.553681
3638.033468,0.000000,-0.000000,9474.636058
3638.033782,0.000000,-0.000000,9844.739029
3638.034096,-153.219100,-222.061783,9696.697840
3638.034411,-383.047749,-0.000000,10066.800811
3638.034725,-459.657299,518.144159,10362.883188
3638.035039,-612.876398,814.226536,10214.842000
3638.035353,-306.438199,296.082377,10214.842000
3638.035668,0.000000,666.185348,9844.739029
3638.035982,0.000000,592.164754,9844.739029
3638.036296,76.609550,740.205942,9696.697840
3638.036611,153.219100,592.164754,8586.388927
3638.036925,612.876398,518.144159,9104.533087
3638.037239,919.314598,370.102971,8586.388927
3638.037553,766.095498,370.102971,8882.471304
3638.037868,383.047749,592.164754,9252.574275
3638.038182,0.000000,518.144159,9326.594869
3638.038496,306.438199,666.185348,9474.636058
3638.038811,0.000000,666.185348,9474.636058
3638.039125,-383.047749,814.226536,9474.636058
3638.039439,-612.876398,888.247130,10436.903782
3638.039753,-766.095498,518.144159,9992.780217
3638.040068,-229.828649,-0.000000,9918.759623
3638.040382,-306.438199,592.164754,10140.821405
3638.040696,-229.828649,592.164754,10362.883188
3638.041011,0.000000,888.247130,10658.965565
3638.041325,0.000000,1184.329507,10510.924376
3638.041639,0.000000,888.247130,9992.780217
3638.041953,536.266849,888.247130,9622.677246
3638.042268,459.657299,1110.308913,9918.759623
3638.042582,536.266849,1184.329507,9622.677246
3638.042896,459.657299,962.267725,9474.636058
3638.043211,1072.533697,444.123565,9400.615463
3638.043525,842.705048,-0.000000,8882.471304
3638.043839,919.314598,518.144159,9178.553681
3638.044153,229.828649,370.102971,9252.574275
3638.044468,76.609550,370.102971,9474.636058
3638.044782,459.657299,222.061783,9030.512492
3638.045096,0.000000,666.185348,9548.656652
3638.045411,153.219100,814.226536,9474.636058
3638.045725,0.000000,740.205942,9326.594869
3638.046039,153.219100,1036.288319,9474.636058
3638.046353,0.000000,-0.000000,9474.636058
3638.046668,0.000000,-0.000000,9622.677246
3638.046982,76.609550,-370.102971,10288.862594
3638.047296,153.219100,-148.041188,10214.842000
3638.047610,-383.047749,-222.061783,9844.739029
3638.047925,-383.047749,-518.144159,9844.739029
3638.048239,-306.438199,-0.000000,10066.800811
3638.048553,383.047749,-74.020594,9770.718434
3638.048868,383.047749,-0.000000,9548.656652
3638.049182,766.095498,-222.061783,9178.553681
3638.049496,1149.143247,-370.102971,8734.430116
3638.049810,1225.752797,-370.102971,8734.430116
3638.050125,1302.362347,-296.082377,9252.574275
3638.050439,919.314598,-370.102971,9104.533087
3638.050753,689.485948,-444.123565,9030.512492
3638.051067,612.876398,-370.102971,9104.533087
3638.051382,153.219100,-222.061783,9326.594869
3638.051696,76.609550,-0.000000,9548.656652
3638.052010,-459.657299,-148.041188,9622.677246
3638.052325,-919.314598,-444.123565,9844.739029
3638.052639,-612.876398,-962.267725,9622.677246
3638.052953,-536.266849,-888.247130,10288.862594
3638.053267,-842.705048,-1036.288319,10214.842000
3638.053582,-766.095498,-740.205942,10584.944971
3638.053896,-689.485948,-518.144159,10881.027347
3638.054210,-689.485948,-296.082377,10658.965565
3638.054524,-306.438199,-0.000000,9918.759623
3638.054839,153.219100,-0.000000,9770.718434
3638.055153,306.438199,370.102971,9696.697840
3638.055467,229.828649,370.102971,9178.553681
3638.055782,229.828649,-0.000000,9400.615463
3638.056096,766.095498,-0.000000,9178.553681
3638.056410,383.047749,-222.061783,9030.512492
3638.056724,459.657299,-444.123565,8882.471304
3638.057039,153.219100,-444.123565,9252.574275
3638.057353,0.000000,-74.020594,9326.594869
3638.057667,153.219100,-370.102971,9474.636058
3638.057982,0.000000,-0.000000,9400.615463
3638.058296,-229.828649,444.123565,9252.574275
3638.058610,-536.266849,444.123565,8956.491898
3638.058924,-229.828649,444.123565,9474.636058
3638.059239,0.000000,-0.000000,9548.656652
3638.059553,-153.219100,370.102971,9770.718434
3638.059867,-229.828649,-0.000000,10066.800811
3638.060181,-306.438199,-0.000000,10288.862594
3638.060496,-459.657299,222.061783,10881.027347
3638.060810,-383.047749,666.185348,10436.903782
3638.061124,0.000000,592.164754,9918.759623
3638.061439,0.000000,814.226536,9696.697840
3638.061753,536.266849,740.205942,9474.636058
3638.062067,689.485948,814.226536,8956.491898
3638.062381,842.705048,592.164754,8956.491898
3638.062696,1225.752797,-0.000000,9104.533087
3638.063010,919.314598,148.041188,8956.491898
3638.063324,689.485948,222.061783,9326.594869
3638.063638,459.657299,370.102971,9622.677246
3638.063953,153.219100,222.061783,9770.718434
3638.064267,229.828649,296.082377,9918.759623
3638.064581,0.000000,740.205942,10066.800811
3638.064896,0.000000,592.164754,10362.883188
3638.065210,0.000000,888.247130,9844.739029
3638.065524,0.000000,740.205942,10066.800811
3638.065838,153.219100,444.123565,10436.903782
3638.066153,229.828649,296.082377,10066.800811
3638.066467,383.047749,666.185348,10288.862594
3638.066781,153.219100,518.144159,10436.903782
3638.067095,153.219100,1110.308913,10288.862594
3638.067410,153.219100,1110.308913,10066.800811
3638.067724,229.828649,888.247130,9770.718434
3638.068038,536.266849,444.123565,9770.718434
3638.068353,689.485948,370.102971,9326.594869
3638.068667,459.657299,592.164754,8956.491898
3638.068981,842.705048,296.082377,9178.553681
3638.069295,919.314598,-0.000000,8882.471304
3638.069610,766.095498,-0.000000,8586.388927
3638.069924,842.705048,222.061783,8438.347739
3638.070238,229.828649,-0.000000,9030.512492
3638.070552,153.219100,222.061783,8956.491898
3638.070867,229.828649,740.205942,9326.594869
3638.071181,306.438199,370.102971,9474.636058
3638.071495,-383.047749,666.185348,9474.636058
3638.071810,-383.047749,296.082377,9474.636058
3638.072124,-612.876398,-0.000000,9770.718434
3638.072438,-229.828649,-222.061783,10066.800811
3638.072752,-153.219100,-0.000000,10288.862594
3638.073067,-229.828649,-296.082377,10436.903782
3638.073381,-383.047749,296.082377,10510.924376
3638.073695,-306.438199,-0.000000,9992.780217
3638.074009,0.000000,148.041188,9770.718434
3638.074324,383.047749,-0.000000,9918.759623
3638.074638,612.876398,-0.000000,9400.615463
3638.074952,536.266849,518.144159,9030.512492
3638.075267,689.485948,-0.000000,8882.471304
3638.075581,842.705048,-0.000000,9326.594869
3638.075895,612.876398,-296.082377,9104.533087
3638.076209,306.438199,-444.123565,9252.574275
3638.076524,0.000000,-592.164754,9844.739029
3638.076838,0.000000,-444.123565,9696.697840
3638.077152,0.000000,-74.020594,9474.636058
3638.077466,-459.657299,-0.000000,9696.697840
3638.077781,-383.047749,-370.102971,9474.636058
3638.078095,-612.876398,-74.020594,9770.718434
3638.078409,-383.047749,-148.041188,9622.677246
3638.078724,-153.219100,-518.144159,9696.697840
3638.079038,-383.047749,-666.185348,9844.739029
3638.079352,-153.219100,-370.102971,10214.842000
3638.079666,-229.828649,-296.082377,10510.924376
3638.079981,-383.047749,-222.061783,9992.780217
3638.080295,0.000000,222.061783,9844.739029
3638.080609,229.828649,148.041188,9474.636058
3638.080924,306.438199,-0.000000,9622.677246
3638.081238,383.047749,148.041188,9178.553681
3638.081552,306.438199,-370.102971,8512.368333
3638.081866,919.314598,-296.082377,8808.450710
3638.082181,1302.362347,-444.123565,8956.491898
3638.082495,612.876398,-444.123565,8734.430116
3638.082809,76.609550,-222.061783,9474.636058
3638.083123,0.000000,-74.020594,9178.553681
3638.083438,0.000000,-74.020594,9400.615463
3638.083752,0.000000,444.123565,9400.615463
3638.084066,76.609550,222.061783,9548.656652
3638.084381,0.000000,592.164754,9252.574275
3638.084695,0.000000,-0.000000,9474.636058
3638.085009,0.000000,-0.000000,9474.636058
3638.085323,-153.219100,-0.000000,9770.718434
3638.085638,0.000000,222.061783,10362.883188
3638.085952,-76.609550,-0.000000,10362.883188
3638.086266,-383.047749,518.144159,10436.903782
3638.086580,-306.438199,740.205942,10214.842000
3638.086895,153.219100,592.164754,10288.862594
3638.087209,459.657299,666.185348,10288.862594
3638.087523,306.438199,444.123565,9696.697840
3638.087838,229.828649,518.144159,9326.594869
3638.088152,612.876398,370.102971,8956.491898
3638.088466,1378.971896,444.123565,9252.574275
3638.088780,766.095498,148.041188,9178.553681
3638.089095,459.657299,222.061783,9178.553681
3638.089409,0.000000,222.061783,9178.553681
3638.089723,0.000000,370.102971,9548.656652
3638.090037,-229.828649,222.061783,9622.677246
3638.090352,76.609550,444.123565,9548.656652
3638.090666,-536.266849,592.164754,9770.718434
3638.090980,-689.485948,370.102971,9770.718434
3638.091295,-459.657299,370.102971,9844.739029
3638.091609,-383.047749,370.102971,10362.883188
3638.091923,0.000000,444.123565,10140.821405
3638.092237,0.000000,296.082377,10436.903782
3638.092552,0.000000,444.123565,10436.903782
3638.092866,0.000000,962.267725,9992.780217
3638.093180,306.438199,962.267725,9844.739029
3638.093494,536.266849,592.164754,9474.636058
3638.093809,536.266849,592.164754,9474.636058
3638.094123,536.266849,814.226536,9178.553681
3638.094437,842.705048,444.123565,8734.430116
3638.094752,919.314598,222.061783,8882.471304
3638.095066,995.924147,148.041188,9400.615463
3638.095380,766.095498,148.041188,9474.636058
3638.095694,306.438199,-0.000000,9178.553681
3638.096009,76.609550,74.020594,9474.636058
3638.096323,536.266849,74.020594,10066.800811
3638.096637,0.000000,740.205942,9696.697840
3638.096951,0.000000,592.164754,9474.636058
3638.097266,0.000000,666.185348,9474.636058
3638.097580,0.000000,370.102971,9770.718434
3638.097894,76.609550,-148.041188,9474.636058
3638.098209,0.000000,-222.061783,9770.718434
3638.098523,-153.219100,-0.000000,10362.883188
3638.098837,-612.876398,-74.020594,10214.842000
3638.099151,-766.095498,-0.000000,10436.903782
3638.099466,-689.485948,-148.041188,10140.821405
3638.099780,0.000000,-148.041188,10362.883188
3638.100094,0.000000,-0.000000,9844.739029
3638.100409,229.828649,-0.000000,9474.636058
3638.100723,229.828649,-296.082377,9474.636058
3638.101037,766.095498,-148.041188,9030.512492
3638.101351,1072.533697,-444.123565,8734.430116
3638.101666,766.095498,-148.041188,9104.533087
3638.101980,689.485948,-0.000000,8808.450710
3638.102294,842.705048,-148.041188,8660.409521
3638.102608,229.828649,-296.082377,9178.553681
3638.102923,153.219100,-222.061783,9400.615463
3638.103237,-229.828649,-0.000000,9104.533087
3638.103551,-536.266849,-148.041188,9474.636058
3638.103866,-689.485948,-444.123565,9548.656652
3638.104180,-612.876398,-888.247130,9696.697840
3638.104494,-306.438199,-666.185348,10066.800811
3638.104808,-612.876398,-740.205942,9992.780217
3638.105123,-536.266849,-148.041188,10140.821405
3638.105437,-229.828649,222.061783,10362.883188
3638.105751,-306.438199,370.102971,9622.677246
3638.106065,612.876398,-0.000000,10288.862594
3638.106380,612.876398,666.185348,9474.636058
3638.106694,766.095498,814.226536,8808.450710
3638.107008,612.876398,888.247130,8956.491898
3638.107323,766.095498,444.123565,8956.491898
3638.107637,842.705048,-296.082377,8734.430116
3638.107951,766.095498,-222.061783,9104.533087
3638.108265,459.657299,-370.102971,9400.615463
3638.108580,-306.438199,-296.082377,9696.697840
3638.108894,-459.657299,-444.123565,9474.636058
3638.109208,-76.609550,-74.020594,10288.862594
3638.109522,0.000000,222.061783,9622.677246
3638.109837,0.000000,222.061783,9548.656652
3638.110151,0.000000,518.144159,9474.636058
3638.110465,0.000000,222.061783,9474.636058
3638.110780,153.219100,370.102971,9474.636058
3638.111094,229.828649,296.082377,9548.656652
3638.111408,76.609550,-0.000000,10066.800811
3638.111722,0.000000,296.082377,10362.883188
3638.112037,0.000000,666.185348,10140.821405
3638.112351,-612.876398,-0.000000,10510.924376
3638.112665,306.438199,370.102971,9992.780217
3638.112979,76.609550,444.123565,10066.800811
3638.113294,383.047749,666.185348,9474.636058
3638.113608,536.266849,370.102971,9104.533087
3638.113922,995.924147,370.102971,8956.491898
3638.114237,1302.362347,-0.000000,8882.471304
3638.114551,1149.143247,-0.000000,9326.594869
3638.114865,995.924147,222.061783,9326.594869
3638.115179,919.314598,296.082377,8882.471304
3638.115494,612.876398,370.102971,8956.491898
3638.115808,306.438199,370.102971,9548.656652
3638.116122,0.000000,444.123565,9992.780217
3638.116436,-306.438199,740.205942,9992.780217
3638.116751,-536.266849,370.102971,9770.718434
3638.117065,0.000000,222.061783,9992.780217
3638.117379,0.000000,592.164754,9844.739029
3638.117694,-306.438199,296.082377,10140.821405
3638.118008,-229.828649,370.102971,10436.903782
3638.118322,-306.438199,222.061783,10214.842000
3638.118636,0.000000,814.226536,9918.759623
3638.118951,0.000000,518.144159,9770.718434
3638.119265,0.000000,592.164754,10214.842000
3638.119579,306.438199,740.205942,9770.718434
3638.119893,76.609550,592.164754,9400.615463
3638.120208,459.657299,222.061783,9326.594869
3638.120522,612.876398,-0.000000,9252.574275
3638.120836,766.095498,222.061783,9252.574275
3638.121151,612.876398,-74.020594,9178.553681
3638.121465,229.828649,-0.000000,9326.594869
3638.121779,0.000000,-222.061783,9326.594869
3638.122093,383.047749,-0.000000,9252.574275
3638.122408,0.000000,370.102971,9326.594869
3638.122722,-306.438199,148.041188,9474.636058
3638.123036,0.000000,-0.000000,9400.615463
3638.123351,-229.828649,-74.020594,9696.697840
3638.123665,-383.047749,-370.102971,9770.718434
3638.123979,-689.485948,-370.102971,10140.821405
3638.124293,-229.828649,-222.061783,10362.883188
3638.124608,-459.657299,-74.020594,10510.924376
3638.124922,-612.876398,-0.000000,9844.739029
3638.125236,0.000000,-222.061783,9770.718434
3638.125550,0.000000,-296.082377,10436.903782
3638.125865,229.828649,-0.000000,9918.759623
3638.126179,766.095498,-0.000000,8882.471304
3638.126493,536.266849,-0.000000,8734.430116
3638.126808,1225.752797,-74.020594,9030.512492
3638.127122,1072.533697,-370.102971,8882.471304
3638.127436,842.705048,-444.123565,8586.388927
3638.127750,459.657299,-740.205942,8808.450710
3638.128065,229.828649,-370.102971,9918.759623
3638.128379,0.000000,-222.061783,9548.656652
3638.128693,-229.828649,-296.082377,9326.594869
3638.129007,-383.047749,-222.061783,9770.718434
3638.129322,-536.266849,-444.123565,9474.636058
3638.129636,-459.657299,-296.082377,9548.656652
3638.129950,0.000000,-370.102971,9844.739029
3638.130265,0.000000,-148.041188,10288.862594
3638.130579,76.609550,-148.041188,9696.697840
3638.130893,0.000000,-0.000000,10066.800811
3638.131207,383.047749,296.082377,10510.924376
3638.131522,0.000000,518.144159,9992.780217
3638.131836,229.828649,296.082377,9770.718434
3638.132150,306.438199,-0.000000,9696.697840
3638.132464,383.047749,-74.020594,9474.636058
3638.132779,383.047749,-0.000000,8808.450710
3638.133093,383.047749,-222.061783,9030.512492
3638.133407,459.657299,-518.144159,9104.533087
3638.133722,612.876398,-666.185348,9104.533087
3638.134036,383.047749,-740.205942,9326.594869
3638.134350,383.047749,-74.020594,8882.471304
3638.134664,76.609550,-0.000000,9178.553681
3638.134979,229.828649,148.041188,9326.594869
3638.135293,76.609550,370.102971,9474.636058
3638.135607,612.876398,370.102971,9696.697840
3638.135921,0.000000,592.164754,9252.574275
3638.136236,0.000000,148.041188,9474.636058
3638.136550,-153.219100,222.061783,10214.842000
3638.136864,-229.828649,-0.000000,10214.842000
3638.137179,-383.047749,-0.000000,10288.862594
3638.137493,-689.485948,-74.020594,10584.944971
3638.137807,-689.485948,222.061783,10584.944971
3638.138121,0.000000,370.102971,9918.759623
3638.138436,76.609550,666.185348,9622.677246
3638.138750,306.438199,962.267725,10214.842000
3638.139064,229.828649,962.267725,9474.636058
3638.139378,766.095498,888.247130,9104.533087
3638.139693,1072.533697,370.102971,9030.512492
3638.140007,1378.971896,-0.000000,8956.491898
3638.140321,1455.581446,296.082377,8956.491898
3638.140636,766.095498,592.164754,9400.615463
3638.140950,153.219100,740.205942,9548.656652
3638.141264,0.000000,518.144159,9696.697840
3638.141578,-229.828649,740.205942,9474.636058
3638.141893,-153.219100,666.185348,9992.780217
3638.142207,-536.266849,518.144159,10066.800811
3638.142521,-306.438199,444.123565,9844.739029
3638.142836,-459.657299,370.102971,9696.697840
3638.143150,0.000000,-0.000000,9844.739029
3638.143464,-229.828649,222.061783,10288.862594
3638.143778,0.000000,592.164754,10584.944971
3638.144093,-306.438199,592.164754,10288.862594
3638.144407,0.000000,740.205942,9696.697840
3638.144721,153.219100,296.082377,9474.636058
3638.145035,459.657299,740.205942,9474.636058
3638.145350,383.047749,666.185348,9770.718434
3638.145664,383.047749,370.102971,9178.553681
3638.145978,766.095498,370.102971,9104.533087
3638.146293,842.705048,-0.000000,9622.677246
3638.146607,842.705048,-222.061783,9548.656652
3638.146921,536.266849,-0.000000,9030.512492
3638.147235,383.047749,-74.020594,9400.615463
3638.147550,536.266849,-0.000000,9548.656652
3638.147864,919.314598,-148.041188,9400.615463
3638.148178,306.438199,592.164754,9400.615463
3638.148493,153.219100,296.082377,9474.636058
3638.148807,153.219100,444.123565,9326.594869
3638.149122,306.438199,222.061783,9178.553681
3638.149436,229.828649,296.082377,9252.574275
3638.149750,153.219100,-740.205942,10807.006753
3638.150065,-383.047749,-222.061783,10584.944971
3638.150379,-842.705048,-74.020594,10732.986159
3638.150694,-612.876398,-0.000000,10510.924376
3638.151008,-459.657299,-74.020594,10288.862594
3638.151323,229.828649,148.041188,10214.842000
3638.151637,383.047749,-0.000000,9696.697840
3638.151951,153.219100,592.164754,9030.512492
3638.152266,842.705048,148.041188,9030.512492
3638.152580,1225.752797,-0.000000,8956.491898
3638.152895,919.314598,-222.061783,9030.512492
3638.153209,766.095498,-222.061783,9178.553681
3638.153523,459.657299,-296.082377,9178.553681
3638.153838,766.095498,-222.061783,9178.553681
3638.154152,0.000000,-370.102971,9622.677246
3638.154467,-306.438199,-0.000000,9622.677246
3638.154781,-612.876398,-148.041188,9622.677246
3638.155096,-536.266849,-74.020594,9770.718434
3638.155410,-689.485948,-592.164754,9770.718434
3638.155724,-689.485948,-296.082377,9474.636058
3638.156039,-383.047749,-222.061783,9992.780217
3638.156353,-229.828649,-74.020594,9992.780217
3638.156668,-459.657299,-74.020594,10140.821405
3638.156982,-842.705048,-222.061783,10214.842000
3638.157297,-306.438199,370.102971,9770.718434
3638.157611,0.000000,296.082377,9844.739029
3638.157925,153.219100,444.123565,9474.636058
3638.158240,76.609550,148.041188,9178.553681
3638.158554,383.047749,-74.020594,9178.553681
3638.158869,689.485948,-370.102971,9030.512492
3638.159183,689.485948,-370.102971,9326.594869
3638.159497,536.266849,-518.144159,9030.512492
3638.159812,383.047749,-74.020594,9474.636058
3638.160126,0.000000,-0.000000,9474.636058
3638.160441,0.000000,-0.000000,9474.636058
3638.160755,76.609550,-0.000000,9622.677246
3638.161070,76.609550,444.123565,9622.677246
3638.161384,153.219100,-296.082377,9474.636058
3638.161698,-306.438199,296.082377,9622.677246
3638.162013,-229.828649,-0.000000,9622.677246
3638.162327,-229.828649,-0.000000,9918.759623
3638.162642,0.000000,222.061783,10214.842000
3638.162956,-306.438199,370.102971,10436.903782
3638.163271,-229.828649,592.164754,10436.903782
3638.163585,-306.438199,888.247130,10362.883188
3638.163899,0.000000,814.226536,9992.780217
3638.164214,0.000000,370.102971,9696.697840
3638.164528,766.095498,444.123565,9844.739029
3638.164843,383.047749,814.226536,9548.656652
3638.165157,842.705048,370.102971,9104.533087
3638.165471,919.314598,518.144159,8660.409521
3638.165786,995.924147,-0.000000,8586.388927
3638.166100,612.876398,-0.000000,9178.553681
3638.166415,306.438199,296.082377,8956.491898
3638.166729,306.438199,-0.000000,9326.594869
3638.167044,153.219100,222.061783,9548.656652
3638.167358,-153.219100,370.102971,9770.718434
3638.167672,-383.047749,222.061783,9770.718434
3638.167987,-306.438199,370.102971,9770.718434
3638.168301,-459.657299,-0.000000,10288.862594
3638.168616,-229.828649,296.082377,9918.759623
3638.168930,0.000000,370.102971,10288.862594
3638.169245,0.000000,-0.000000,10140.821405
3638.169559,0.000000,-0.000000,10140.821405
3638.169873,76.609550,592.164754,10066.800811
3638.170188,0.000000,518.144159,10140.821405
3638.170502,229.828649,370.102971,9992.780217
3638.170817,306.438199,666.185348,9622.677246
3638.171131,229.828649,666.185348,9326.594869
3638.171445,306.438199,-0.000000,9400.615463
3638.171760,459.657299,-0.000000,9474.636058
3638.172074,1072.533697,-444.123565,9548.656652
3638.172389,689.485948,-444.123565,9400.615463
3638.172703,306.438199,-74.020594,9326.594869
3638.173018,0.000000,148.041188,9474.636058
3638.173332,153.219100,222.061783,9548.656652
3638.173646,612.876398,518.144159,9474.636058
3638.173961,383.047749,-0.000000,9178.553681
3638.174275,306.438199,592.164754,9326.594869
3638.174590,-153.219100,666.185348,9252.574275
3638.174904,-229.828649,-0.000000,9622.677246
3638.175218,0.000000,-296.082377,9474.636058
3638.175533,-383.047749,-444.123565,10140.821405
3638.175847,-612.876398,-444.123565,10658.965565
3638.176162,-842.705048,-0.000000,10436.903782
3638.176476,-766.095498,-0.000000,9918.759623
3638.176791,-383.047749,444.123565,10140.821405
3638.177105,153.219100,222.061783,9696.697840
3638.177419,383.047749,370.102971,9400.615463
3638.177734,459.657299,518.144159,8734.430116
3638.178048,995.924147,222.061783,8586.388927
3638.178363,842.705048,-0.000000,8142.265362
3638.178677,1149.143247,-0.000000,8364.327145
3638.178992,842.705048,-148.041188,9400.615463
3638.179306,306.438199,-0.000000,9474.636058
3638.179620,-153.219100,-222.061783,9178.553681
3638.179935,76.609550,-518.144159,9474.636058
3638.180249,-306.438199,-0.000000,9770.718434
3638.180564,-459.657299,-370.102971,9844.739029
3638.180878,-383.047749,-222.061783,9918.759623
3638.181192,-229.828649,-296.082377,9844.739029
3638.181507,76.609550,-370.102971,9474.636058
3638.181821,76.609550,222.061783,9474.636058
3638.182136,153.219100,148.041188,9844.739029
3638.182450,76.609550,296.082377,10362.883188
3638.182765,76.609550,444.123565,10066.800811
3638.183079,-229.828649,518.144159,9918.759623
3638.183393,383.047749,370.102971,9918.759623
3638.183708,153.219100,370.102971,9918.759623
3638.184022,306.438199,444.123565,9696.697840
3638.184337,76.609550,148.041188,9474.636058
3638.184651,766.095498,-148.041188,9770.718434
3638.184966,689.485948,-370.102971,9252.574275
3638.185280,612.876398,-370.102971,9548.656652
3638.185594,536.266849,-74.020594,9696.697840
3638.185909,76.609550,148.041188,9400.615463
3638.186223,229.828649,296.082377,9474.636058
3638.186538,536.266849,296.082377,9400.615463
3638.186852,459.657299,370.102971,9474.636058
3638.187166,0.000000,370.102971,8956.491898
3638.187481,0.000000,222.061783,8808.450710
3638.187795,-383.047749,444.123565,9696.697840
3638.188110,76.609550,-0.000000,9474.636058
3638.188424,-306.438199,-0.000000,9918.759623
3638.188739,-612.876398,-0.000000,10214.842000
3638.189053,-842.705048,-0.000000,10362.883188
3638.189367,-536.266849,518.144159,10214.842000
3638.189682,0.000000,296.082377,10140.821405
3638.189996,229.828649,518.144159,10214.842000
3638.190311,536.266849,444.123565,9770.718434
3638.190625,459.657299,1036.288319,9030.512492
3638.190940,995.924147,592.164754,8586.388927
3638.191254,1762.019645,666.185348,8882.471304
3638.191568,995.924147,666.185348,8660.409521
3638.191883,919.314598,-0.000000,8734.430116
3638.192197,229.828649,370.102971,9178.553681
3638.192512,-383.047749,296.082377,9622.677246
3638.192826,-153.219100,-0.000000,9770.718434
3638.193140,-536.266849,-0.000000,10066.800811
3638.193455,-766.095498,-0.000000,9992.780217
3638.193769,-612.876398,-222.061783,9918.759623
3638.194084,-229.828649,-74.020594,10140.821405
3638.194398,0.000000,74.020594,9770.718434
3638.194713,-229.828649,-0.000000,9992.780217
3638.195027,-229.828649,370.102971,9918.759623
3638.195341,-306.438199,370.102971,10140.821405
3638.195656,0.000000,518.144159,10140.821405
3638.195970,0.000000,518.144159,10066.800811
3638.196285,76.609550,222.061783,10288.862594
3638.196599,0.000000,-0.000000,9918.759623
3638.196914,153.219100,296.082377,9400.615463
3638.197228,0.000000,-148.041188,9104.533087
3638.197542,689.485948,-222.061783,8882.471304
3638.197857,689.485948,-296.082377,9548.656652
3638.198171,459.657299,-444.123565,8882.471304
3638.198486,229.828649,-0.000000,8956.491898
3638.198800,153.219100,-74.020594,9252.574275
3638.199114,153.219100,-0.000000,9326.594869
3638.199429,229.828649,222.061783,9326.594869
3638.199743,0.000000,148.041188,9400.615463
3638.200058,0.000000,444.123565,9548.656652
3638.200372,0.000000,-0.000000,9844.739029
3638.200687,229.828649,-0.000000,9474.636058
3638.201001,0.000000,-0.000000,9770.718434
3638.201315,76.609550,-148.041188,9992.780217
3638.201630,-229.828649,-0.000000,10288.862594
3638.201944,76.609550,222.061783,10288.862594
3638.202259,0.000000,444.123565,10140.821405
3638.202573,153.219100,148.041188,9696.697840
3638.202888,689.485948,148.041188,9770.718434
3638.203202,536.266849,148.041188,9326.594869
3638.203516,995.924147,518.144159,9104.533087
3638.203831,919.314598,-0.000000,8956.491898
3638.204145,919.314598,-444.123565,9104.533087
3638.204460,612.876398,-148.041188,9252.574275
3638.204774,459.657299,-148.041188,9104.533087
3638.205088,76.609550,-74.020594,9918.759623
3638.205403,153.219100,-74.020594,10288.862594
3638.205717,0.000000,74.020594,9474.636058
3638.206032,0.000000,296.082377,9474.636058
3638.206346,0.000000,296.082377,9918.759623
3638.206661,-306.438199,666.185348,9918.759623
3638.206975,0.000000,296.082377,9918.759623
3638.207289,-536.266849,-74.020594,9770.718434
3638.207604,76.609550,-296.082377,9992.780217
3638.207918,0.000000,-148.041188,9918.759623
3638.208233,-383.047749,518.144159,9992.780217
3638.208547,-229.828649,444.123565,10362.883188
3638.208862,-153.219100,296.082377,10362.883188
3638.209176,76.609550,666.185348,9770.718434
3638.209490,0.000000,592.164754,9918.759623
3638.209805,459.657299,962.267725,9474.636058
3638.210119,536.266849,518.144159,8734.430116
3638.210434,766.095498,-0.000000,8956.491898
3638.210748,612.876398,-148.041188,9178.553681
3638.211062,612.876398,-74.020594,9178.553681
3638.211377,383.047749,222.061783,9178.553681
3638.211691,0.000000,222.061783,9474.636058
3638.212006,0.000000,296.082377,9548.656652
3638.212320,229.828649,666.185348,9696.697840
3638.212635,0.000000,518.144159,9622.677246
3638.212949,-459.657299,444.123565,9696.697840
3638.213263,-612.876398,296.082377,9696.697840
3638.213578,0.000000,-0.000000,9474.636058
3638.213892,-383.047749,148.041188,10066.800811
3638.214207,-306.438199,222.061783,10881.027347
3638.214521,-383.047749,296.082377,10732.986159
3638.214836,-306.438199,592.164754,10584.944971
3638.215150,-306.438199,814.226536,10140.821405
3638.215464,459.657299,370.102971,9696.697840
3638.215779,612.876398,444.123565,10066.800811
3638.216093,842.705048,518.144159,9622.677246
3638.216408,383.047749,518.144159,9104.533087
3638.216722,919.314598,518.144159,8660.409521
3638.217036,1149.143247,-0.000000,8512.368333
3638.217351,1149.143247,-0.000000,9252.574275
3638.217665,689.485948,-0.000000,9178.553681
3638.217980,76.609550,-148.041188,9252.574275
3638.218294,0.000000,-74.020594,9326.594869
3638.218609,0.000000,-296.082377,9400.615463
3638.218923,153.219100,370.102971,9548.656652
3638.219237,-153.219100,222.061783,9696.697840
3638.219552,-383.047749,-0.000000,9548.656652
3638.219866,-153.219100,-0.000000,9622.677246
3638.220181,-229.828649,-74.020594,9696.697840
3638.220495,-306.438199,-296.082377,10066.800811
3638.220810,0.000000,-74.020594,10214.842000
3638.221124,0.000000,-148.041188,9844.739029
3638.221438,0.000000,-0.000000,9696.697840
3638.221753,459.657299,444.123565,9622.677246
3638.222067,383.047749,370.102971,9696.697840
3638.222382,689.485948,222.061783,9474.636058
3638.222696,383.047749,148.041188,9030.512492
3638.223010,689.485948,222.061783,8882.471304
3638.223325,1455.581446,-148.041188,9178.553681
3638.223639,1072.533697,-148.041188,9104.533087
3638.223954,842.705048,-74.020594,9104.533087
3638.224268,383.047749,-222.061783,8956.491898
3638.224583,306.438199,-0.000000,9252.574275
3638.224897,459.657299,148.041188,9622.677246
3638.225211,0.000000,222.061783,9400.615463
3638.225526,0.000000,296.082377,9400.615463
3638.225840,-306.438199,296.082377,9696.697840
3638.226155,-536.266849,-0.000000,9622.677246
3638.226469,-229.828649,-0.000000,10066.800811
3638.226784,-536.266849,-444.123565,10140.821405
3638.227098,-689.485948,-222.061783,10362.883188
3638.227412,-766.095498,-0.000000,10584.944971
3638.227727,-689.485948,-0.000000,10140.821405
3638.228041,-995.924147,296.082377,10214.842000
3638.228356,0.000000,-0.000000,10288.862594
3638.228670,229.828649,-0.000000,9918.759623
3638.228984,76.609550,148.041188,9252.574275
3638.229299,0.000000,-0.000000,9104.533087
3638.229613,919.314598,-0.000000,9252.574275
3638.229928,919.314598,-296.082377,8734.430116
3638.230242,689.485948,-518.144159,8882.471304
3638.230557,612.876398,-370.102971,9030.512492
3638.230871,306.438199,-0.000000,9326.594869
3638.231185,0.000000,-0.000000,9548.656652
3638.231500,0.000000,-74.020594,9622.677246
3638.231814,0.000000,-74.020594,9548.656652
3638.232129,-459.657299,-74.020594,9696.697840
3638.232443,-459.657299,-0.000000,9400.615463
3638.232757,-306.438199,-0.000000,9844.739029
3638.233072,-306.438199,-222.061783,9696.697840
3638.233386,-229.828649,-0.000000,9770.718434
3638.233701,-229.828649,-0.000000,9992.780217
3638.234015,0.000000,222.061783,10066.800811
3638.234330,0.000000,740.205942,9992.780217
3638.234644,153.219100,814.226536,9844.739029
3638.234958,306.438199,592.164754,9548.656652
3638.235273,383.047749,370.102971,9474.636058
3638.235587,612.876398,296.082377,8956.491898
3638.235902,766.095498,296.082377,9474.636058
3638.236216,689.485948,-74.020594,9252.574275
3638.236531,919.314598,-0.000000,9474.636058
3638.236845,842.705048,-0.000000,8808.450710
3638.237159,306.438199,-0.000000,9252.574275
3638.237474,0.000000,-0.000000,9030.512492
3638.237788,0.000000,370.102971,9252.574275
3638.238103,76.609550,666.185348,9622.677246
3638.238417,0.000000,370.102971,9548.656652
3638.238731,0.000000,666.185348,9548.656652
3638.239046,-306.438199,370.102971,9696.697840
3638.239360,0.000000,-0.000000,9918.759623
3638.239675,0.000000,-74.020594,10362.883188
3638.239989,-612.876398,-0.000000,10288.862594
3638.240304,-612.876398,-0.000000,10584.944971
3638.240618,-306.438199,518.144159,10214.842000
3638.240932,-306.438199,518.144159,9918.759623
3638.241247,-306.438199,444.123565,10140.821405
3638.241561,153.219100,592.164754,9696.697840
3638.241876,153.219100,444.123565,9474.636058
3638.242190,689.485948,296.082377,8956.491898
3638.242505,919.314598,222.061783,9030.512492
3638.242819,1149.143247,-0.000000,8512.368333
3638.243133,1072.533697,296.082377,8882.471304
3638.243448,536.266849,-0.000000,9178.553681
3638.243762,76.609550,-0.000000,9178.553681
3638.244077,0.000000,-148.041188,9474.636058
3638.244391,-153.219100,74.020594,9548.656652
3638.244705,-689.485948,148.041188,9696.697840
3638.245020,-459.657299,444.123565,10140.821405
3638.245334,-536.266849,-0.000000,10288.862594
3638.245649,0.000000,-222.061783,10584.944971
3638.245963,-153.219100,-0.000000,10362.883188
3638.246278,-229.828649,-0.000000,9770.718434
3638.246592,-153.219100,222.061783,10214.842000
3638.246906,-306.438199,592.164754,10288.862594
3638.247221,0.000000,740.205942,9918.759623
3638.247535,153.219100,370.102971,9696.697840
3638.247850,0.000000,296.082377,9918.759623
3638.248164,229.828649,370.102971,9696.697840
3638.248479,383.047749,296.082377,9104.533087
3638.248793,689.485948,-592.164754,9104.533087
3638.249107,919.314598,-444.123565,9400.615463
3638.249422,612.876398,-666.185348,9474.636058
3638.249736,766.095498,-370.102971,9178.553681
3638.250050,459.657299,-0.000000,9326.594869
3638.250365,306.438199,-148.041188,9030.512492
3638.250679,306.438199,-0.000000,9178.553681
3638.250993,306.438199,296.082377,9178.553681
3638.251308,383.047749,222.061783,9400.615463
3638.251622,0.000000,-148.041188,9252.574275
3638.251936,-306.438199,-296.082377,9844.739029
3638.252251,0.000000,-74.020594,9992.780217
3638.252565,-306.438199,-592.164754,9844.739029
3638.252879,-383.047749,-592.164754,10362.883188
3638.253194,-229.828649,-444.123565,10288.862594
3638.253508,-383.047749,-0.000000,10066.800811
3638.253822,153.219100,-0.000000,9844.739029
3638.254137,612.876398,-74.020594,9696.697840
3638.254451,536.266849,-0.000000,9474.636058
3638.254766,459.657299,296.082377,8808.450710
3638.255080,1455.581446,370.102971,8956.491898
3638.255394,1072.533697,-0.000000,8660.409521
3638.255709,1302.362347,-148.041188,8438.347739
3638.256023,1149.143247,-222.061783,9104.533087
3638.256337,842.705048,-148.041188,9326.594869
3638.256652,0.000000,148.041188,9474.636058
3638.256966,459.657299,-0.000000,9474.636058
3638.257280,229.828649,-0.000000,9474.636058
3638.257595,-459.657299,296.082377,9918.759623
3638.257909,-766.095498,222.061783,9696.697840
3638.258223,-689.485948,-0.000000,9474.636058
3638.258538,-306.438199,-0.000000,9622.677246
3638.258852,-229.828649,296.082377,9992.780217
3638.259166,0.000000,296.082377,10214.842000
3638.259481,0.000000,74.020594,10140.821405
3638.259795,-153.219100,-0.000000,9992.780217
3638.260109,-306.438199,740.205942,9918.759623
3638.260424,0.000000,666.185348,10362.883188
3638.260738,229.828649,666.185348,10066.800811
3638.261053,76.609550,666.185348,9474.636058
3638.261367,76.609550,370.102971,8660.409521
3638.261681,536.266849,370.102971,8956.491898
3638.261996,536.266849,-0.000000,9030.512492
3638.262310,536.266849,-0.000000,9400.615463
3638.262624,0.000000,-74.020594,8956.491898
3638.262939,0.000000,148.041188,9474.636058
3638.263253,306.438199,296.082377,9400.615463
3638.263567,0.000000,296.082377,9326.594869
3638.263882,0.000000,666.185348,9696.697840
3638.264196,0.000000,666.185348,9622.677246
3638.264510,0.000000,518.144159,9400.615463
3638.264825,536.266849,148.041188,9992.780217
3638.265139,0.000000,-0.000000,10066.800811
3638.265453,-153.219100,-0.000000,10436.903782
3638.265768,229.828649,-0.000000,10066.800811
3638.266082,-229.828649,-0.000000,10288.862594
3638.266397,-229.828649,370.102971,10362.883188
3638.266711,229.828649,518.144159,9844.739029
3638.267025,459.657299,296.082377,9622.677246
3638.267340,612.876398,444.123565,9400.615463
3638.267654,919.314598,592.164754,9400.615463
3638.267968,612.876398,222.061783,8882.471304
3638.268283,919.314598,296.082377,9104.533087
3638.268597,1149.143247,-296.082377,8956.491898
3638.268911,689.485948,-370.102971,8956.491898
3638.269226,536.266849,-370.102971,9252.574275
3638.269540,153.219100,-0.000000,9622.677246
3638.269854,229.828649,-0.000000,9696.697840
3638.270169,153.219100,-0.000000,9548.656652
3638.270483,-76.609550,222.061783,9622.677246
3638.270797,153.219100,370.102971,9548.656652
3638.271112,0.000000,370.102971,9474.636058
3638.271426,229.828649,148.041188,9548.656652
3638.271740,0.000000,-74.020594,9474.636058
3638.272055,153.219100,-0.000000,9474.636058
3638.272369,0.000000,-0.000000,9992.780217
3638.272684,-306.438199,-0.000000,10362.883188
3638.272998,-229.828649,-0.000000,10066.800811
3638.273312,0.000000,-74.020594,9844.739029
3638.273627,0.000000,-148.041188,9548.656652
3638.273941,0.000000,-0.000000,9770.718434
3638.274255,459.657299,-0.000000,9030.512492
3638.274570,766.095498,-0.000000,9104.533087
3638.274884,995.924147,-0.000000,9030.512492
3638.275198,1915.238745,-0.000000,8734.430116
3638.275513,612.876398,592.164754,8808.450710
3638.275827,536.266849,-148.041188,8734.430116
3638.276141,459.657299,-0.000000,9474.636058
3638.276456,0.000000,-0.000000,9400.615463
3638.276770,-306.438199,-0.000000,9474.636058
3638.277084,-536.266849,-74.020594,9770.718434
3638.277399,-459.657299,-74.020594,9844.739029
3638.277713,-689.485948,-370.102971,9918.759623
3638.278027,-612.876398,-222.061783,9696.697840
3638.278342,-612.876398,-518.144159,10436.903782
3638.278656,-229.828649,-148.041188,10658.965565
3638.278971,-229.828649,222.061783,10584.944971
3638.279285,0.000000,814.226536,10066.800811
3638.279599,0.000000,518.144159,9696.697840
3638.279914,153.219100,592.164754,9548.656652
3638.280228,229.828649,444.123565,9770.718434
3638.280542,306.438199,666.185348,9400.615463
3638.280857,459.657299,148.041188,8882.471304
3638.281171,689.485948,-0.000000,9030.512492
3638.281485,689.485948,-0.000000,9178.553681
3638.281800,612.876398,-74.020594,9696.697840
3638.282114,0.000000,-74.020594,9548.656652
3638.282428,-306.438199,-0.000000,9548.656652
3638.282743,-76.609550,370.102971,9474.636058
3638.283057,-306.438199,444.123565,9474.636058
3638.283371,0.000000,592.164754,9696.697840
3638.283686,0.000000,518.144159,9548.656652
3638.284000,-229.828649,444.123565,9622.677246
3638.284314,0.000000,296.082377,9696.697840
3638.284629,383.047749,370.102971,9992.780217
3638.284943,76.609550,-0.000000,10140.821405
3638.285258,0.000000,148.041188,10214.842000
3638.285572,0.000000,518.144159,10288.862594
3638.285886,0.000000,296.082377,10140.821405
3638.286201,612.876398,666.185348,9622.677246
3638.286515,383.047749,296.082377,9622.677246
3638.286829,0.000000,148.041188,9326.594869
3638.287144,612.876398,296.082377,8882.471304
3638.287458,919.314598,-0.000000,8512.368333
3638.287772,1302.362347,-0.000000,9104.533087
3638.288087,1225.752797,-0.000000,9400.615463
3638.288401,689.485948,-0.000000,9178.553681
3638.288715,536.266849,370.102971,9104.533087
3638.289030,459.657299,222.061783,9326.594869
3638.289344,459.657299,-0.000000,9918.759623
3638.289658,383.047749,-0.000000,9918.759623
3638.289973,0.000000,-0.000000,9622.677246
3638.290287,-229.828649,296.082377,9844.739029
3638.290601,0.000000,-0.000000,9918.759623
3638.290916,0.000000,-0.000000,10066.800811
3638.291230,-306.438199,-296.082377,10288.862594
3638.291545,-459.657299,-148.041188,10288.862594
3638.291859,-383.047749,296.082377,10436.903782
3638.292173,-536.266849,-0.000000,10066.800811
3638.292488,0.000000,-0.000000,10510.924376
3638.292802,76.609550,296.082377,10140.821405
3638.293116,153.219100,444.123565,9548.656652
3638.293431,229.828649,222.061783,8956.491898
3638.293745,842.705048,370.102971,8956.491898
3638.294059,842.705048,-0.000000,8882.471304
3638.294374,995.924147,-296.082377,8956.491898
3638.294688,612.876398,-444.123565,8512.368333
3638.295002,76.609550,-148.041188,9178.553681
3638.295317,-306.438199,-148.041188,9474.636058
3638.295631,0.000000,-0.000000,9696.697840
3638.295945,-383.047749,-148.041188,9696.697840
3638.296260,-383.047749,-222.061783,9622.677246
3638.296574,-766.095498,-222.061783,9622.677246
3638.296888,-612.876398,-148.041188,9918.759623
3638.297203,-229.828649,-74.020594,9622.677246
3638.297517,0.000000,-370.102971,9696.697840
3638.297832,0.000000,-148.041188,10066.800811
3638.298146,-383.047749,-370.102971,9844.739029
3638.298460,-229.828649,296.082377,9918.759623
3638.298775,0.000000,296.082377,9622.677246
3638.299089,76.609550,-0.000000,9474.636058
3638.299403,459.657299,296.082377,9696.697840
3638.299718,306.438199,666.185348,8734.430116
3638.300032,689.485948,-148.041188,8956.491898
3638.300346,766.095498,-0.000000,9178.553681
3638.300661,536.266849,-296.082377,9252.574275
3638.300975,766.095498,-444.123565,9474.636058
3638.301289,0.000000,-518.144159,9770.718434
3638.301604,0.000000,-74.020594,9696.697840
3638.301918,-76.609550,148.041188,9474.636058
3638.302232,153.219100,148.041188,9400.615463
3638.302547,0.000000,370.102971,9696.697840
3638.302861,-306.438199,518.144159,9326.594869
3638.303175,0.000000,518.144159,9548.656652
3638.303490,0.000000,-0.000000,9770.718434
3638.303804,306.438199,-0.000000,9992.780217
3638.304119,0.000000,-74.020594,9918.759623
3638.304433,-383.047749,-74.020594,10214.842000
3638.304747,-229.828649,222.061783,10658.965565
3638.305062,-383.047749,444.123565,9918.759623
3638.305376,76.609550,-0.000000,10214.842000
3638.305690,0.000000,296.082377,9992.780217
3638.306005,229.828649,518.144159,9696.697840
3638.306319,383.047749,370.102971,9178.553681
3638.306633,689.485948,296.082377,9104.533087
3638.306948,1608.800546,-74.020594,9104.533087
3638.307262,1455.581446,-0.000000,8882.471304
3638.307576,1378.971896,222.061783,8882.471304
3638.307891,459.657299,222.061783,9548.656652
3638.308205,153.219100,296.082377,9400.615463
3638.308519,459.657299,740.205942,9474.636058
3638.308834,306.438199,518.144159,9474.636058
3638.309148,0.000000,740.205942,9696.697840
3638.309462,76.609550,444.123565,9696.697840
3638.309777,229.828649,-0.000000,9622.677246
3638.310091,459.657299,-0.000000,9622.677246
3638.310406,229.828649,-0.000000,9696.697840
3638.310720,0.000000,-0.000000,9992.780217
3638.311034,0.000000,222.061783,10288.862594
3638.311349,-383.047749,444.123565,9992.780217
3638.311663,-306.438199,518.144159,10066.800811
3638.311977,0.000000,296.082377,9918.759623
3638.312292,76.609550,444.123565,9844.739029
3638.312606,76.609550,740.205942,9400.615463
3638.312920,153.219100,666.185348,9474.636058
3638.313235,1072.533697,222.061783,8956.491898
3638.313549,842.705048,-74.020594,9030.512492
3638.313863,612.876398,370.102971,9400.615463
3638.314178,306.438199,370.102971,9326.594869
3638.314492,383.047749,-0.000000,9474.636058
3638.314806,0.000000,296.082377,9474.636058
3638.315121,0.000000,370.102971,9400.615463
3638.315435,0.000000,-0.000000,9622.677246
3638.315750,-383.047749,-0.000000,9548.656652
3638.316064,-383.047749,-0.000000,9474.636058
3638.316378,-153.219100,-0.000000,9992.780217
3638.316693,-536.266849,-0.000000,9548.656652
3638.317007,-459.657299,-148.041188,9992.780217
3638.317321,-689.485948,-0.000000,10288.862594
3638.317636,-229.828649,-0.000000,10584.944971
3638.317950,-153.219100,296.082377,9622.677246
3638.318264,76.609550,518.144159,9548.656652
3638.318579,383.047749,-0.000000,10214.842000
3638.318893,306.438199,444.123565,9696.697840
3638.319207,612.876398,148.041188,9178.553681
3638.319522,766.095498,370.102971,9030.512492
3638.319836,1378.971896,-0.000000,8734.430116
3638.320150,995.924147,-0.000000,9104.533087
3638.320465,842.705048,-74.020594,9104.533087
3638.320779,383.047749,-222.061783,9400.615463
3638.321093,153.219100,-74.020594,9030.512492
3638.321408,0.000000,-0.000000,9400.615463
3638.321722,76.609550,-74.020594,9770.718434
3638.322037,-306.438199,-148.041188,9770.718434
3638.322351,-995.924147,-148.041188,9696.697840
3638.322665,0.000000,-0.000000,9474.636058
3638.322980,229.828649,-0.000000,9622.677246
3638.323294,0.000000,-222.061783,9992.780217
3638.323608,-459.657299,-148.041188,10288.862594
3638.323923,-229.828649,-0.000000,10288.862594
3638.324237,-229.828649,296.082377,9844.739029
3638.324551,0.000000,222.061783,10066.800811
3638.324866,0.000000,444.123565,10214.842000
3638.325180,0.000000,-0.000000,9844.739029
3638.325494,0.000000,-0.000000,9326.594869
3638.325809,0.000000,-74.020594,9178.553681
3638.326123,612.876398,-296.082377,9252.574275
3638.326437,842.705048,-518.144159,9104.533087
3638.326752,766.095498,-148.041188,9252.574275
3638.327066,306.438199,-222.061783,8882.471304
3638.327380,0.000000,222.061783,9252.574275
3638.327695,229.828649,296.082377,9474.636058
3638.328009,0.000000,296.082377,9474.636058
3638.328324,0.000000,222.061783,9474.636058
3638.328638,0.000000,370.102971,9400.615463
3638.328952,0.000000,-0.000000,9178.553681
3638.329267,-229.828649,-222.061783,9918.759623
3638.329581,-306.438199,-296.082377,10066.800811
3638.329895,-383.047749,-148.041188,10288.862594
3638.330210,-383.047749,-148.041188,10584.944971
3638.330524,-689.485948,-0.000000,10214.842000
3638.330838,-306.438199,814.226536,10436.903782
3638.331153,153.219100,518.144159,9992.780217
3638.331467,612.876398,296.082377,9844.739029
3638.331781,383.047749,740.205942,9400.615463
3638.332096,536.266849,592.164754,8882.471304
3638.332410,919.314598,-0.000000,9104.533087
3638.332724,1072.533697,-148.041188,9252.574275
3638.333039,842.705048,-74.020594,9326.594869
3638.333353,306.438199,-0.000000,9178.553681
3638.333667,229.828649,148.041188,9474.636058
3638.333982,0.000000,222.061783,9548.656652
3638.334296,383.047749,-0.000000,9622.677246
3638.334611,76.609550,370.102971,9770.718434
3638.334925,-229.828649,296.082377,9918.759623
3638.335239,76.609550,518.144159,9622.677246
3638.335554,0.000000,370.102971,9622.677246
3638.335868,0.000000,-0.000000,9696.697840
3638.336182,0.000000,-0.000000,9696.697840
3638.336497,0.000000,296.082377,10288.862594
3638.336811,0.000000,222.061783,10214.842000
3638.337125,153.219100,814.226536,10214.842000
3638.337440,0.000000,592.164754,9918.759623
3638.337754,153.219100,740.205942,9622.677246
3638.338068,229.828649,814.226536,9770.718434
3638.338383,383.047749,740.205942,9178.553681
3638.338697,689.485948,296.082377,8956.491898
3638.339011,1072.533697,148.041188,8956.491898
3638.339326,919.314598,148.041188,9178.553681
3638.339640,919.314598,296.082377,9104.533087
3638.339954,383.047749,-0.000000,9104.533087
3638.340269,153.219100,222.061783,9548.656652
3638.340583,76.609550,-0.000000,9770.718434
3638.340898,0.000000,592.164754,9548.656652
3638.341212,-229.828649,444.123565,9770.718434
3638.341526,-306.438199,518.144159,10066.800811
3638.341841,0.000000,-0.000000,9992.780217
3638.342155,0.000000,222.061783,9844.739029
3638.342469,0.000000,222.061783,9770.718434
3638.342784,76.609550,-0.000000,10362.883188
3638.343098,0.000000,296.082377,10436.903782
3638.343412,-229.828649,296.082377,10362.883188
3638.343727,0.000000,444.123565,9918.759623
3638.344041,229.828649,518.144159,9770.718434
3638.344355,536.266849,666.185348,9770.718434
3638.344670,0.000000,592.164754,9474.636058
3638.344984,229.828649,-0.000000,9400.615463
3638.345298,536.266849,-0.000000,9252.574275
3638.345613,536.266849,-444.123565,9030.512492
3638.345927,459.657299,-296.082377,9548.656652
3638.346241,153.219100,-0.000000,9400.615463
3638.346556,76.609550,-0.000000,9548.656652
3638.346870,0.000000,-0.000000,9400.615463
3638.347185,0.000000,-0.000000,9326.594869
3638.347499,0.000000,-0.000000,9400.615463
3638.347813,0.000000,74.020594,9474.636058
3638.348128,-383.047749,-148.041188,9770.718434
3638.348442,-306.438199,-518.144159,9696.697840
3638.348756,-306.438199,-296.082377,9548.656652
3638.349071,-306.438199,-296.082377,10066.800811
3638.349385,0.000000,-740.205942,9844.739029
3638.349699,-306.438199,-0.000000,10362.883188
3638.350014,-229.828649,-0.000000,9844.739029
3638.350328,76.609550,148.041188,9622.677246
3638.350642,229.828649,-0.000000,9326.594869
3638.350957,153.219100,-0.000000,9252.574275
3638.351271,383.047749,-0.000000,8734.430116
3638.351585,459.657299,-296.082377,8660.409521
3638.351900,995.924147,-148.041188,8882.471304
3638.352214,842.705048,-296.082377,8734.430116
3638.352528,766.095498,-370.102971,8956.491898
3638.352843,306.438199,-74.020594,9400.615463
3638.353157,0.000000,-0.000000,9326.594869
3638.353471,153.219100,-0.000000,9696.697840
3638.353786,0.000000,222.061783,9696.697840
3638.354100,0.000000,518.144159,10140.821405
3638.354414,0.000000,222.061783,9474.636058
3638.354729,-383.047749,-0.000000,9178.553681
3638.355043,-153.219100,148.041188,9770.718434
3638.355357,0.000000,-0.000000,10140.821405
3638.355671,0.000000,-370.102971,10584.944971
3638.355986,-306.438199,-148.041188,10288.862594
3638.356300,-153.219100,444.123565,9918.759623
3638.356614,-229.828649,518.144159,10066.800811
3638.356929,0.000000,370.102971,9770.718434
3638.357243,383.047749,296.082377,9918.759623
3638.357557,0.000000,296.082377,9548.656652
3638.357872,0.000000,-148.041188,9030.512492
3638.358186,459.657299,-148.041188,8808.450710
3638.358500,842.705048,-0.000000,9178.553681
3638.358815,919.314598,-370.102971,9474.636058
3638.359129,229.828649,-0.000000,9474.636058
3638.359443,383.047749,444.123565,9326.594869
3638.359758,153.219100,518.144159,9400.615463
3638.360072,229.828649,518.144159,9474.636058
3638.360386,383.047749,370.102971,9474.636058
3638.360701,-76.609550,444.123565,9474.636058
3638.361015,0.000000,592.164754,9622.677246
3638.361329,-229.828649,518.144159,9918.759623
3638.361644,-383.047749,-74.020594,9992.780217
3638.361958,0.000000,-148.041188,10288.862594
3638.362272,-306.438199,-0.000000,10584.944971
3638.362587,-459.657299,370.102971,10436.903782
3638.362901,0.000000,814.226536,9918.759623
3638.363215,536.266849,740.205942,9770.718434
3638.363530,76.609550,592.164754,9548.656652
3638.363844,459.657299,666.185348,9400.615463
3638.364158,689.485948,888.247130,9326.594869
3638.364473,919.314598,592.164754,9030.512492
3638.364787,1225.752797,444.123565,9178.553681
3638.365101,1149.143247,-0.000000,9326.594869
3638.365416,842.705048,-74.020594,9252.574275
3638.365730,306.438199,-0.000000,9178.553681
3638.366044,153.219100,222.061783,9696.697840
3638.366359,-306.438199,222.061783,10066.800811
3638.366673,-153.219100,-0.000000,9696.697840
3638.366987,-383.047749,370.102971,9474.636058
3638.367302,-536.266849,296.082377,9474.636058
3638.367616,-306.438199,222.061783,9622.677246
3638.367930,153.219100,-0.000000,9770.718434
3638.368245,-229.828649,-148.041188,9770.718434
3638.368559,-383.047749,-0.000000,9992.780217
3638.368873,-536.266849,-0.000000,10214.842000
3638.369188,-306.438199,296.082377,10066.800811
3638.369502,-229.828649,222.061783,9844.739029
3638.369816,0.000000,-74.020594,9770.718434
3638.370131,153.219100,-0.000000,9622.677246
3638.370445,0.000000,296.082377,9474.636058
3638.370759,153.219100,-0.000000,8956.491898
3638.371073,995.924147,-148.041188,9104.533087
3638.371388,842.705048,-444.123565,9030.512492
3638.371702,689.485948,-296.082377,8956.491898
3638.372016,229.828649,-0.000000,9178.553681
3638.372331,153.219100,-148.041188,9548.656652
3638.372645,76.609550,-74.020594,9474.636058
3638.372959,383.047749,-0.000000,9548.656652
3638.373274,306.438199,-0.000000,9474.636058
3638.373588,0.000000,-74.020594,9474.636058
3638.373902,-306.438199,-74.020594,9622.677246
3638.374217,0.000000,-0.000000,9992.780217
3638.374531,0.000000,-222.061783,9918.759623
3638.374845,-229.828649,-148.041188,9992.780217
3638.375160,-306.438199,-74.020594,10362.883188
3638.375474,-383.047749,-0.000000,10510.924376
3638.375788,-229.828649,-0.000000,10066.800811
3638.376103,0.000000,-0.000000,10214.842000
3638.376417,383.047749,444.123565,9918.759623
3638.376731,459.657299,444.123565,9696.697840
3638.377046,383.047749,296.082377,9326.594869
3638.377360,1149.143247,222.061783,8882.471304
3638.377674,919.314598,148.041188,8956.491898
3638.377989,995.924147,222.061783,8586.388927
3638.378303,1149.143247,444.123565,8734.430116
3638.378617,306.438199,-0.000000,8882.471304
3638.378932,153.219100,-0.000000,9178.553681
3638.379246,76.609550,-444.123565,9326.594869
3638.379560,-229.828649,-0.000000,9326.594869
3638.379875,-383.047749,-0.000000,9696.697840
3638.380189,-612.876398,444.123565,9770.718434
3638.380503,-459.657299,296.082377,9622.677246
3638.380818,-153.219100,-0.000000,9696.697840
3638.381132,0.000000,222.061783,9844.739029
3638.381446,0.000000,-0.000000,9992.780217
3638.381761,-306.438199,296.082377,10436.903782
3638.382075,-536.266849,740.205942,10066.800811
3638.382389,0.000000,296.082377,10066.800811
3638.382704,229.828649,888.247130,10140.821405
3638.383018,689.485948,666.185348,9844.739029
3638.383332,383.047749,518.144159,9252.574275
3638.383647,459.657299,666.185348,9178.553681
3638.383961,1072.533697,370.102971,9104.533087
3638.384275,995.924147,222.061783,8956.491898
3638.384590,689.485948,370.102971,9474.636058
3638.384904,306.438199,-0.000000,9474.636058
3638.385218,153.219100,-74.020594,9474.636058
3638.385533,153.219100,444.123565,9696.697840
3638.385847,0.000000,518.144159,9548.656652
3638.386161,0.000000,518.144159,9918.759623
3638.386475,-842.705048,592.164754,9992.780217
3638.386790,-536.266849,370.102971,10066.800811
3638.387104,-383.047749,-0.000000,10288.862594
3638.387418,-383.047749,-0.000000,10214.842000
3638.387733,-229.828649,222.061783,10214.842000
3638.388047,-306.438199,296.082377,10584.944971
3638.388361,-306.438199,518.144159,10807.006753
3638.388676,-229.828649,1036.288319,9918.759623
3638.388990,76.609550,444.123565,10140.821405
3638.389304,306.438199,518.144159,9844.739029
3638.389619,306.438199,370.102971,9474.636058
3638.389933,459.657299,370.102971,9178.553681
3638.390247,1072.533697,-0.000000,9104.533087
3638.390562,1072.533697,-148.041188,8808.450710
3638.390876,1302.362347,-296.082377,9030.512492
3638.391190,766.095498,-222.061783,8882.471304
3638.391505,306.438199,-0.000000,9030.512492
3638.391819,536.266849,444.123565,9400.615463
3638.392133,383.047749,-0.000000,9252.574275
3638.392448,76.609550,-0.000000,9252.574275
3638.392762,0.000000,-0.000000,9400.615463
3638.393076,-459.657299,-0.000000,9326.594869
3638.393391,-306.438199,-148.041188,9770.718434
3638.393705,-306.438199,-222.061783,9992.780217
3638.394019,0.000000,-444.123565,10288.862594
3638.394334,-383.047749,-222.061783,10140.821405
3638.394648,0.000000,-0.000000,9918.759623
3638.394962,0.000000,148.041188,10066.800811
3638.395277,76.609550,222.061783,10066.800811
3638.395591,153.219100,592.164754,9844.739029
3638.395905,306.438199,-0.000000,9548.656652
3638.396220,76.609550,222.061783,8660.409521
3638.396534,459.657299,-0.000000,8808.450710
3638.396848,766.095498,-370.102971,9178.553681
3638.397163,689.485948,-444.123565,9104.533087
3638.397477,459.657299,-444.123565,9252.574275
3638.397791,76.609550,-74.020594,9400.615463
3638.398106,0.000000,-74.020594,9326.594869
3638.398420,0.000000,-0.000000,9474.636058
3638.398734,0.000000,296.082377,9326.594869
3638.399049,-229.828649,444.123565,9548.656652
3638.399363,0.000000,-148.041188,9474.636058
3638.399677,0.000000,-0.000000,9770.718434
3638.399992,-459.657299,-0.000000,10066.800811
3638.400306,-612.876398,-148.041188,9918.759623
3638.400620,-612.876398,-148.041188,10436.903782
3638.400935,-612.876398,-0.000000,10732.986159
3638.401249,0.000000,-0.000000,10214.842000
3638.401563,0.000000,370.102971,9992.780217
3638.401877,153.219100,-0.000000,9844.739029
3638.402192,153.219100,444.123565,9770.718434
3638.402506,229.828649,370.102971,9326.594869
3638.402820,612.876398,370.102971,8808.450710
3638.403135,1149.143247,518.144159,8882.471304
3638.403449,1302.362347,-0.000000,8734.430116
3638.403763,1762.019645,-296.082377,8808.450710
3638.404078,842.705048,370.102971,9400.615463
3638.404392,536.266849,296.082377,9326.594869
3638.404706,229.828649,370.102971,9326.594869
3638.405021,383.047749,444.123565,9622.677246
3638.405335,229.828649,296.082377,9770.718434
3638.405649,0.000000,222.061783,9474.636058
3638.405964,0.000000,518.144159,9918.759623
3638.406278,0.000000,370.102971,9844.739029
3638.406592,0.000000,222.061783,9918.759623
3638.406907,0.000000,-0.000000,9844.739029
3638.407221,0.000000,370.102971,10362.883188
3638.407535,0.000000,740.205942,10658.965565
3638.407850,0.000000,888.247130,10288.862594
3638.408164,0.000000,666.185348,9992.780217
3638.408478,0.000000,592.164754,9918.759623
3638.408793,383.047749,592.164754,9844.739029
3638.409107,306.438199,666.185348,9474.636058
3638.409421,536.266849,740.205942,9252.574275
3638.409736,919.314598,296.082377,9030.512492
3638.410050,1072.533697,-222.061783,9104.533087
3638.410364,842.705048,-0.000000,9104.533087
3638.410679,153.219100,222.061783,9622.677246
3638.410993,0.000000,-0.000000,9400.615463
3638.411307,0.000000,-0.000000,9548.656652
3638.411622,0.000000,-0.000000,9326.594869
3638.411936,-153.219100,-0.000000,9326.594869
3638.412250,-689.485948,-0.000000,9622.677246
3638.412565,-459.657299,-0.000000,9696.697840
3638.412879,-766.095498,-0.000000,9696.697840
3638.413193,-536.266849,-0.000000,9770.718434
3638.413508,-612.876398,-148.041188,9992.780217
3638.413822,-919.314598,-0.000000,10214.842000
3638.414136,-459.657299,444.123565,10066.800811
3638.414451,-306.438199,444.123565,9844.739029
3638.414765,0.000000,296.082377,9696.697840
3638.415079,0.000000,-0.000000,9474.636058
3638.415394,229.828649,592.164754,9474.636058
3638.415708,383.047749,222.061783,9104.533087
3638.416022,536.266849,222.061783,8734.430116
3638.416337,1072.533697,-222.061783,8956.491898
3638.416651,1225.752797,-74.020594,8956.491898
3638.416965,383.047749,-148.041188,9400.615463
3638.417279,383.047749,-148.041188,9178.553681
3638.417594,229.828649,-0.000000,9326.594869
3638.417908,76.609550,444.123565,9622.677246
3638.418222,76.609550,444.123565,9474.636058
3638.418537,153.219100,370.102971,9326.594869
3638.418851,-153.219100,222.061783,9696.697840
3638.419165,0.000000,-0.000000,9622.677246
3638.419480,153.219100,-148.041188,9548.656652
3638.419794,0.000000,-148.041188,10140.821405
3638.420108,-459.657299,-370.102971,10584.944971
3638.420423,-306.438199,-222.061783,10362.883188
3638.420737,-612.876398,296.082377,10214.842000
3638.421051,-306.438199,296.082377,10214.842000
3638.421366,0.000000,-0.000000,10140.821405
3638.421680,0.000000,-148.041188,10066.800811
3638.421994,229.828649,148.041188,9474.636058
3638.422309,689.485948,-0.000000,8882.471304
3638.422623,1072.533697,-0.000000,8956.491898
3638.422937,1072.533697,-74.020594,9326.594869
3638.423252,1072.533697,-148.041188,9252.574275
3638.423566,459.657299,-148.041188,9104.533087
3638.423880,0.000000,-0.000000,9030.512492
3638.424195,229.828649,-0.000000,9252.574275
3638.424509,153.219100,-0.000000,9326.594869
3638.424823,76.609550,-0.000000,9474.636058
3638.425138,0.000000,-148.041188,9474.636058
3638.425452,0.000000,-74.020594,9474.636058
3638.425766,-306.438199,-222.061783,9474.636058
3638.426081,-306.438199,-518.144159,10214.842000
3638.426395,-383.047749,-222.061783,10288.862594
3638.426709,-229.828649,-222.061783,10288.862594
3638.427024,229.828649,370.102971,10288.862594
3638.427338,0.000000,666.185348,10140.821405
3638.427652,306.438199,518.144159,9992.780217
3638.427967,229.828649,444.123565,9400.615463
3638.428281,459.657299,814.226536,8660.409521
3638.428595,536.266849,444.123565,9178.553681
3638.428910,842.705048,-0.000000,9104.533087
3638.429224,919.314598,-222.061783,9326.594869
3638.429538,766.095498,-222.061783,9178.553681
3638.429853,76.609550,-592.164754,9104.533087
3638.430167,0.000000,-0.000000,9474.636058
3638.430481,0.000000,222.061783,9622.677246
3638.430796,153.219100,370.102971,9770.718434
3638.431110,0.000000,666.185348,9400.615463
3638.431424,-153.219100,370.102971,9178.553681
3638.431739,153.219100,666.185348,9326.594869
3638.432053,0.000000,740.205942,9918.759623
3638.432367,0.000000,444.123565,9918.759623
3638.432681,-383.047749,296.082377,9992.780217
3638.432996,-153.219100,-148.041188,10140.821405
3638.433310,-536.266849,370.102971,10510.924376
3638.433624,-306.438199,370.102971,10214.842000
3638.433939,-536.266849,444.123565,10362.883188
3638.434253,-459.657299,-0.000000,9770.718434
3638.434567,0.000000,592.164754,9622.677246
3638.434882,0.000000,814.226536,9474.636058
3638.435196,689.485948,370.102971,8734.430116
3638.435510,995.924147,222.061783,8882.471304
3638.435825,1149.143247,-0.000000,8734.430116
3638.436139,766.095498,-0.000000,9252.574275
3638.436453,459.657299,-0.000000,9104.533087
3638.436768,459.657299,-0.000000,8956.491898
3638.437082,153.219100,148.041188,9622.677246
3638.437396,0.000000,74.020594,9548.656652
3638.437711,-306.438199,-0.000000,9844.739029
3638.438025,-612.876398,222.061783,9992.780217
3638.438339,-383.047749,-0.000000,10066.800811
3638.438654,-229.828649,-0.000000,9770.718434
3638.438968,0.000000,-0.000000,9844.739029
3638.439282,0.000000,-0.000000,10436.903782
3638.439597,0.000000,-0.000000,10436.903782
3638.439911,0.000000,592.164754,10214.842000
3638.440225,383.047749,666.185348,9548.656652
3638.440540,689.485948,592.164754,9326.594869
3638.440854,766.095498,518.144159,9400.615463
3638.441168,459.657299,444.123565,9252.574275
3638.441483,766.095498,-0.000000,9178.553681
3638.441797,689.485948,-74.020594,8956.491898
3638.442111,612.876398,-370.102971,9104.533087
3638.442426,459.657299,-222.061783,9400.615463
3638.442740,383.047749,-0.000000,9548.656652
3638.443054,153.219100,-0.000000,9474.636058
3638.443369,0.000000,-0.000000,9474.636058
3638.443683,153.219100,148.041188,9474.636058
3638.443997,0.000000,444.123565,9400.615463
3638.444312,0.000000,518.144159,9548.656652
3638.444626,0.000000,-0.000000,9622.677246
3638.444940,0.000000,-0.000000,9474.636058
3638.445255,76.609550,370.102971,9918.759623
3638.445569,-306.438199,-0.000000,10066.800811
3638.445883,-536.266849,-222.061783,10288.862594
3638.446198,-536.266849,296.082377,10140.821405
3638.446512,-459.657299,222.061783,10066.800811
3638.446826,-306.438199,222.061783,10288.862594
3638.447141,229.828649,222.061783,9622.677246
3638.447455,229.828649,-0.000000,9178.553681
3638.447769,0.000000,296.082377,8882.471304
3638.448083,153.219100,-0.000000,8734.430116
3638.448398,842.705048,-222.061783,8660.409521
3638.448712,612.876398,-296.082377,8808.450710
3638.449026,459.657299,-222.061783,8956.491898
3638.449341,229.828649,-74.020594,9400.615463
3638.449655,76.609550,296.082377,9474.636058
3638.449970,76.609550,-222.061783,9696.697840
3638.450284,-229.828649,-0.000000,9918.759623
3638.450598,-306.438199,222.061783,9918.759623
3638.450913,-229.828649,-0.000000,9770.718434
3638.451227,-612.876398,-0.000000,9696.697840
3638.451541,-306.438199,-222.061783,10066.800811
3638.451856,0.000000,-74.020594,10362.883188
3638.452170,-229.828649,-74.020594,10510.924376
3638.452485,-459.657299,-0.000000,10362.883188
3638.452799,-459.657299,740.205942,9992.780217
3638.453113,0.000000,222.061783,10066.800811
3638.453428,153.219100,-0.000000,9992.780217
3638.453742,229.828649,148.041188,10066.800811
3638.454057,0.000000,444.123565,9030.512492
3638.454371,689.485948,-0.000000,9252.574275
3638.454685,1072.533697,222.061783,9030.512492
3638.455000,919.314598,-0.000000,8808.450710
3638.455314,842.705048,-222.061783,9326.594869
3638.455628,306.438199,-74.020594,9326.594869
3638.455943,229.828649,518.144159,9548.656652
3638.456257,76.609550,296.082377,9252.574275
3638.456572,0.000000,296.082377,9104.533087
3638.456886,0.000000,444.123565,9326.594869
3638.457200,-306.438199,-0.000000,9326.594869
3638.457515,-766.095498,-0.000000,9474.636058
3638.457829,-459.657299,148.041188,9696.697840
3638.458144,-229.828649,296.082377,9992.780217
3638.458458,-459.657299,-74.020594,9696.697840
3638.458772,-383.047749,-74.020594,10140.821405
3638.459087,0.000000,296.082377,9992.780217
3638.459401,-306.438199,592.164754,9844.739029
3638.459716,229.828649,296.082377,10066.800811
3638.460030,383.047749,592.164754,9696.697840
3638.460344,689.485948,740.205942,9326.594869
3638.460659,766.095498,592.164754,8808.450710
3638.460973,766.095498,74.020594,8808.450710
3638.461287,766.095498,-74.020594,9252.574275
3638.461602,1225.752797,-74.020594,9104.533087
3638.461916,459.657299,-0.000000,9400.615463
3638.462231,76.609550,-0.000000,9474.636058
3638.462545,153.219100,222.061783,9474.636058
3638.462859,0.000000,222.061783,9770.718434
3638.463174,0.000000,370.102971,9844.739029
3638.463488,-306.438199,-222.061783,10140.821405
3638.463803,0.000000,296.082377,9844.739029
3638.464117,-229.828649,-0.000000,10066.800811
3638.464431,0.000000,-0.000000,10066.800811
3638.464746,-383.047749,-0.000000,10066.800811
3638.465060,0.000000,-0.000000,10288.862594
3638.465375,-229.828649,296.082377,10436.903782
3638.465689,0.000000,518.144159,9918.759623
3638.466003,383.047749,518.144159,9770.718434
3638.466318,306.438199,518.144159,9696.697840
3638.466632,536.266849,592.164754,9992.780217
3638.466946,153.219100,740.205942,9326.594869
3638.467261,689.485948,444.123565,8956.491898
3638.467575,995.924147,-74.020594,8956.491898
3638.467890,995.924147,-222.061783,9030.512492
3638.468204,919.314598,-370.102971,9178.553681
3638.468518,459.657299,-0.000000,9178.553681
3638.468833,0.000000,-74.020594,9548.656652
3638.469147,229.828649,296.082377,9474.636058
3638.469462,229.828649,444.123565,9252.574275
3638.469776,0.000000,222.061783,9474.636058
3638.470090,-229.828649,296.082377,9400.615463
3638.470405,0.000000,296.082377,9696.697840
3638.470719,0.000000,-0.000000,10066.800811
3638.471034,0.000000,-148.041188,10066.800811
3638.471348,76.609550,-222.061783,9770.718434
3638.471662,-229.828649,-74.020594,10362.883188
3638.471977,-536.266849,296.082377,10584.944971
3638.472291,-153.219100,518.144159,10436.903782
3638.472605,0.000000,-0.000000,9474.636058
3638.472920,153.219100,-0.000000,9770.718434
3638.473234,0.000000,-0.000000,9474.636058
3638.473549,383.047749,-0.000000,9252.574275
3638.473863,1072.533697,-148.041188,9178.553681
3638.474177,842.705048,-222.061783,9178.553681
3638.474492,689.485948,-370.102971,8956.491898
3638.474806,383.047749,-370.102971,9252.574275
3638.475121,0.000000,-0.000000,9622.677246
3638.475435,-306.438199,-0.000000,9178.553681
3638.475749,0.000000,-0.000000,9474.636058
3638.476064,-612.876398,-0.000000,9696.697840
3638.476378,-612.876398,222.061783,10214.842000
3638.476692,-766.095498,-148.041188,9474.636058
3638.477007,-612.876398,-296.082377,9770.718434
3638.477321,-383.047749,-74.020594,9918.759623
3638.477636,-306.438199,-0.000000,9992.780217
3638.477950,-306.438199,-74.020594,9992.780217
3638.478264,0.000000,222.061783,10214.842000
3638.478579,0.000000,518.144159,9696.697840
3638.478893,306.438199,592.164754,9326.594869
3638.479208,306.438199,592.164754,9400.615463
3638.479522,306.438199,444.123565,9622.677246
3638.479836,536.266849,222.061783,8808.450710
3638.480151,766.095498,-0.000000,8512.368333
3638.480465,919.314598,-222.061783,8808.450710
3638.480780,1072.533697,-222.061783,8882.471304
3638.481094,995.924147,-0.000000,9030.512492
3638.481408,459.657299,-0.000000,9326.594869
3638.481723,536.266849,-0.000000,9696.697840
3638.482037,229.828649,296.082377,9326.594869
3638.482351,153.219100,592.164754,9178.553681
3638.482666,0.000000,740.205942,9622.677246
3638.482980,0.000000,518.144159,9770.718434
3638.483295,76.609550,592.164754,9696.697840
3638.483609,0.000000,296.082377,9696.697840
3638.483923,0.000000,222.061783,10140.821405
3638.484238,0.000000,222.061783,10140.821405
3638.484552,76.609550,296.082377,10732.986159
3638.484867,-229.828649,592.164754,10510.924376
3638.485181,0.000000,666.185348,9844.739029
3638.485495,0.000000,370.102971,9992.780217
3638.485810,229.828649,370.102971,10066.800811
3638.486124,229.828649,222.061783,9622.677246
3638.486439,306.438199,592.164754,9104.533087
3638.486753,842.705048,222.061783,8882.471304
3638.487067,1072.533697,-222.061783,9400.615463
3638.487382,689.485948,-0.000000,9400.615463
3638.487696,459.657299,222.061783,9326.594869
3638.488010,0.000000,666.185348,9104.533087
3638.488325,229.828649,518.144159,9252.574275
3638.488639,76.609550,592.164754,9474.636058
3638.488954,0.000000,444.123565,9696.697840
3638.489268,383.047749,222.061783,10066.800811
3638.489582,-229.828649,444.123565,9770.718434
3638.489897,0.000000,-0.000000,9622.677246
3638.490211,-229.828649,-74.020594,10288.862594
3638.490526,-383.047749,-0.000000,10066.800811
3638.490840,-383.047749,-74.020594,9622.677246
3638.491154,-459.657299,222.061783,9918.759623
3638.491469,0.000000,370.102971,9622.677246
3638.491783,0.000000,370.102971,9770.718434
3638.492098,306.438199,370.102971,9770.718434
3638.492412,0.000000,148.041188,9548.656652
3638.492726,76.609550,148.041188,8882.471304
3638.493041,306.438199,-0.000000,8808.450710
3638.493355,919.314598,-296.082377,9030.512492
3638.493669,842.705048,-74.020594,9400.615463
3638.493984,0.000000,222.061783,9548.656652
3638.494298,0.000000,-0.000000,9252.574275
3638.494613,0.000000,296.082377,9548.656652
3638.494927,0.000000,-74.020594,9474.636058
3638.495241,306.438199,-0.000000,9400.615463
3638.495556,-153.219100,222.061783,10140.821405
3638.495870,0.000000,-0.000000,9622.677246
3638.496185,0.000000,-0.000000,9548.656652
3638.496499,0.000000,-222.061783,9696.697840
3638.496813,0.000000,-444.123565,9992.780217
3638.497128,-306.438199,-444.123565,10066.800811
3638.497442,-306.438199,-0.000000,10288.862594
3638.497757,-459.657299,-148.041188,10214.842000
3638.498071,0.000000,-0.000000,10362.883188
3638.498385,0.000000,-0.000000,9548.656652
3638.498700,383.047749,-0.000000,9326.594869
3638.499014,383.047749,370.102971,9252.574275
3638.499328,536.266849,-74.020594,9104.533087
3638.499643,995.924147,-0.000000,9030.512492
3638.499957,1302.362347,-222.061783,9030.512492
3638.500272,995.924147,-0.000000,9030.512492
3638.500586,919.314598,74.020594,9326.594869
3638.500900,459.657299,222.061783,9326.594869
3638.501215,0.000000,-0.000000,9548.656652
3638.501529,-306.438199,-74.020594,9548.656652
3638.501844,-153.219100,-0.000000,9474.636058
3638.502158,-383.047749,-74.020594,9844.739029
3638.502472,-229.828649,-0.000000,9844.739029
3638.502787,-306.438199,-74.020594,9992.780217
3638.503101,-383.047749,-296.082377,9992.780217
3638.503415,-229.828649,-74.020594,9844.739029
3638.503730,-306.438199,-0.000000,10214.842000
3638.504044,0.000000,296.082377,10066.800811
3638.504359,-153.219100,444.123565,10066.800811
3638.504673,153.219100,592.164754,9770.718434
3638.504987,306.438199,444.123565,9622.677246
3638.505302,153.219100,444.123565,9992.780217
3638.505616,0.000000,444.123565,9622.677246
3638.505931,229.828649,444.123565,9474.636058
3638.506245,612.876398,-0.000000,8956.491898
3638.506559,689.485948,-296.082377,9252.574275
3638.506874,459.657299,-74.020594,9548.656652
3638.507188,153.219100,148.041188,9696.697840
3638.507503,-229.828649,-222.061783,9696.697840
3638.507817,0.000000,-0.000000,9844.739029
3638.508131,76.609550,518.144159,9474.636058
3638.508446,-153.219100,370.102971,9252.574275
3638.508760,0.000000,888.247130,9474.636058
3638.509074,0.000000,370.102971,9696.697840
3638.509389,0.000000,-0.000000,9400.615463
3638.509703,-383.047749,-0.000000,9844.739029
3638.510018,-383.047749,-74.020594,10066.800811
3638.510332,-612.876398,-0.000000,10436.903782
3638.510646,-306.438199,370.102971,10214.842000
3638.510961,-229.828649,444.123565,10066.800811
3638.511275,153.219100,518.144159,9918.759623
3638.511590,459.657299,370.102971,9548.656652
3638.511904,612.876398,740.205942,9326.594869
3638.512218,536.266849,222.061783,9030.512492
3638.512533,1225.752797,296.082377,8808.450710
3638.512847,1302.362347,-0.000000,9030.512492
3638.513162,1072.533697,-0.000000,9104.533087
3638.513476,995.924147,-0.000000,9474.636058
3638.513790,306.438199,222.061783,9400.615463
3638.514105,0.000000,-0.000000,9474.636058
3638.514419,0.000000,148.041188,9548.656652
3638.514733,0.000000,370.102971,9400.615463
3638.515048,0.000000,222.061783,9918.759623
3638.515362,0.000000,-148.041188,9548.656652
3638.515677,0.000000,-0.000000,9548.656652
3638.515991,153.219100,-74.020594,9696.697840
3638.516305,76.609550,-0.000000,10066.800811
3638.516620,229.828649,444.123565,10584.944971
3638.516934,0.000000,444.123565,9918.759623
3638.517249,153.219100,518.144159,9474.636058
3638.517563,306.438199,592.164754,10140.821405
3638.517877,306.438199,444.123565,9918.759623
3638.518192,76.609550,296.082377,9474.636058
3638.518506,229.828649,-0.000000,9030.512492
3638.518821,383.047749,-0.000000,9252.574275
3638.519135,689.485948,-518.144159,9104.533087
3638.519449,766.095498,-370.102971,9400.615463
3638.519764,536.266849,-222.061783,9770.718434
3638.520078,0.000000,-0.000000,9326.594869
3638.520392,0.000000,-74.020594,9252.574275
3638.520707,76.609550,-0.000000,9474.636058
3638.521021,612.876398,148.041188,9548.656652
3638.521336,0.000000,222.061783,9474.636058
3638.521650,-612.876398,-0.000000,9400.615463
3638.521964,0.000000,-0.000000,9696.697840
3638.522279,-306.438199,-148.041188,9622.677246
3638.522593,-612.876398,-518.144159,10066.800811
3638.522908,-842.705048,-370.102971,10510.924376
3638.523222,-1072.533697,-74.020594,10362.883188
3638.523536,-842.705048,148.041188,10066.800811
3638.523851,-306.438199,-0.000000,9696.697840
3638.524165,229.828649,296.082377,9696.697840
3638.524479,536.266849,444.123565,9400.615463
3638.524794,306.438199,592.164754,8586.388927
3638.525108,689.485948,592.164754,8808.450710
3638.525423,1225.752797,148.041188,8808.450710
3638.525737,459.657299,-148.041188,9252.574275
3638.526051,536.266849,-74.020594,9326.594869
3638.526366,229.828649,-0.000000,9326.594869
3638.526680,0.000000,-0.000000,9252.574275
3638.526995,0.000000,-0.000000,9548.656652
3638.527309,-383.047749,-0.000000,9770.718434
3638.527623,-153.219100,444.123565,9770.718434
3638.527938,-306.438199,518.144159,9252.574275
3638.528252,-459.657299,296.082377,9696.697840
3638.528567,0.000000,148.041188,9770.718434
3638.528881,0.000000,-74.020594,10288.862594
3638.529195,-153.219100,-0.000000,9844.739029
3638.529510,0.000000,222.061783,10214.842000
3638.529824,0.000000,592.164754,10362.883188
3638.530138,0.000000,-0.000000,10140.821405
3638.530453,229.828649,444.123565,10436.903782
3638.530767,229.828649,518.144159,9622.677246
3638.531082,383.047749,592.164754,9622.677246
3638.531396,612.876398,370.102971,9252.574275
3638.531710,919.314598,-0.000000,9252.574275
3638.532025,1532.190996,-444.123565,9030.512492
3638.532339,1302.362347,-296.082377,9030.512492
3638.532654,919.314598,-0.000000,9326.594869
3638.532968,536.266849,-0.000000,9252.574275
3638.533282,612.876398,370.102971,9474.636058
3638.533597,76.609550,-0.000000,9400.615463
3638.533911,0.000000,370.102971,9548.656652
3638.534226,0.000000,148.041188,9696.697840
3638.534540,0.000000,296.082377,9696.697840
3638.534854,0.000000,-0.000000,9918.759623
3638.535169,76.609550,-74.020594,9252.574275
3638.535483,0.000000,370.102971,9548.656652
3638.535797,-229.828649,-0.000000,10288.862594
3638.536112,-153.219100,296.082377,10584.944971
3638.536426,-229.828649,814.226536,10510.924376
3638.536741,0.000000,296.082377,10066.800811
3638.537055,459.657299,814.226536,9918.759623
3638.537369,153.219100,888.247130,9696.697840
3638.537684,229.828649,592.164754,9400.615463
3638.537998,306.438199,-0.000000,9474.636058
3638.538313,306.438199,-0.000000,9030.512492
3638.538627,766.095498,-0.000000,8586.388927
3638.538941,919.314598,-0.000000,8956.491898
3638.539256,0.000000,148.041188,9252.574275
3638.539570,-229.828649,-0.000000,9178.553681
3638.539885,-689.485948,148.041188,9474.636058
3638.540199,-229.828649,-0.000000,9252.574275
3638.540513,-612.876398,-74.020594,9548.656652
3638.540828,-459.657299,-0.000000,9622.677246
3638.541142,-306.438199,-0.000000,9844.739029
3638.541456,-689.485948,-0.000000,10362.883188
3638.541771,-459.657299,-74.020594,9918.759623
3638.542085,-229.828649,-0.000000,9992.780217
3638.542400,-229.828649,-74.020594,10510.924376
3638.542714,-459.657299,222.061783,10288.862594
3638.543028,-306.438199,148.041188,9992.780217
3638.543343,459.657299,296.082377,9770.718434
3638.543657,383.047749,518.144159,9622.677246
3638.543972,306.438199,296.082377,9548.656652
3638.544286,306.438199,-0.000000,9104.533087
3638.544600,766.095498,-370.102971,8956.491898
3638.544915,995.924147,-296.082377,9030.512492
3638.545229,1072.533697,-148.041188,9030.512492
3638.545543,766.095498,-74.020594,9474.636058
3638.545858,153.219100,-0.000000,9474.636058
3638.546172,229.828649,222.061783,9400.615463
3638.546487,229.828649,370.102971,9696.697840
3638.546801,306.438199,296.082377,9622.677246
3638.547115,229.828649,370.102971,9918.759623
3638.547430,306.438199,222.061783,9844.739029
3638.547744,0.000000,-0.000000,9770.718434
3638.548059,0.000000,-0.000000,10066.800811
3638.548373,-153.219100,-296.082377,10288.862594
3638.548687,0.000000,-222.061783,10288.862594
3638.549002,0.000000,-0.000000,10732.986159
3638.549316,0.000000,814.226536,10436.903782
3638.549631,229.828649,592.164754,9696.697840
3638.549945,459.657299,370.102971,9696.697840
3638.550259,306.438199,370.102971,9622.677246
3638.550574,306.438199,-0.000000,8956.491898
3638.550888,919.314598,370.102971,8660.409521
3638.551202,1149.143247,-0.000000,8808.450710
3638.551517,1149.143247,-370.102971,8734.430116
3638.551831,919.314598,-0.000000,9030.512492
3638.552145,0.000000,-0.000000,9474.636058
3638.552460,153.219100,-74.020594,9474.636058
3638.552774,383.047749,444.123565,9474.636058
3638.553088,0.000000,-0.000000,9548.656652
3638.553403,-229.828649,-74.020594,9770.718434
3638.553717,-766.095498,-0.000000,9992.780217
3638.554031,-306.438199,-148.041188,9844.739029
3638.554346,0.000000,-0.000000,9918.759623
3638.554660,-306.438199,-0.000000,9770.718434
3638.554974,-306.438199,-0.000000,9992.780217
3638.555289,229.828649,-222.061783,10362.883188
3638.555603,-306.438199,518.144159,10510.924376
3638.555918,0.000000,444.123565,9770.718434
3638.556232,76.609550,444.123565,10214.842000
3638.556546,306.438199,666.185348,9992.780217
3638.556861,229.828649,518.144159,9474.636058
3638.557175,0.000000,370.102971,8734.430116
3638.557489,383.047749,-0.000000,8956.491898
3638.557804,459.657299,-148.041188,9548.656652
3638.558118,306.438199,-222.061783,9326.594869
3638.558432,0.000000,-74.020594,9326.594869
3638.558747,-306.438199,-74.020594,9326.594869
3638.559061,0.000000,370.102971,9474.636058
3638.559375,0.000000,370.102971,9622.677246
3638.559690,0.000000,666.185348,9474.636058
3638.560004,0.000000,222.061783,9474.636058
3638.560318,-229.828649,740.205942,9104.533087
3638.560633,0.000000,296.082377,9474.636058
3638.560947,76.609550,296.082377,9844.739029
3638.561261,-229.828649,-0.000000,9918.759623
3638.561576,-536.266849,-74.020594,10214.842000
3638.561890,-229.828649,222.061783,10214.842000
3638.562204,-229.828649,370.102971,10288.862594
3638.562519,0.000000,-0.000000,9992.780217
3638.562833,229.828649,222.061783,9622.677246
3638.563147,459.657299,-0.000000,9992.780217
3638.563462,383.047749,444.123565,9104.533087
3638.563776,919.314598,-0.000000,8956.491898
3638.564090,1225.752797,-74.020594,9104.533087
3638.564405,1149.143247,370.102971,8808.450710
3638.564719,995.924147,296.082377,8956.491898
3638.565033,995.924147,296.082377,9622.677246
3638.565348,536.266849,444.123565,9770.718434
3638.565662,229.828649,370.102971,9474.636058
3638.565977,153.219100,370.102971,9548.656652
3638.566291,-306.438199,222.061783,9770.718434
3638.566605,-306.438199,148.041188,9696.697840
3638.566920,-229.828649,-0.000000,10066.800811
3638.567234,-153.219100,-222.061783,10140.821405
3638.567548,-153.219100,-444.123565,10732.986159
3638.567863,0.000000,-148.041188,9992.780217
3638.568177,0.000000,-74.020594,10066.800811
3638.568491,0.000000,666.185348,10288.862594
3638.568806,76.609550,592.164754,10140.821405
3638.569120,153.219100,518.144159,9770.718434
3638.569434,612.876398,814.226536,9548.656652
3638.569749,459.657299,740.205942,9030.512492
3638.570063,612.876398,222.061783,8734.430116
3638.570377,842.705048,222.061783,8734.430116
3638.570692,919.314598,-296.082377,9400.615463
3638.571006,612.876398,-370.102971,9104.533087
3638.571320,0.000000,-148.041188,9400.615463
3638.571635,-536.266849,-296.082377,9622.677246
3638.571949,-383.047749,-296.082377,9622.677246
3638.572263,0.000000,-0.000000,9474.636058
3638.572578,-383.047749,-0.000000,9474.636058
3638.572892,-459.657299,-0.000000,9622.677246
3638.573206,-612.876398,-74.020594,9326.594869
3638.573521,-383.047749,-222.061783,9770.718434
3638.573835,0.000000,-444.123565,9474.636058
3638.574149,0.000000,-0.000000,9844.739029
3638.574464,-306.438199,-222.061783,10288.862594
3638.574778,-459.657299,-0.000000,10214.842000
3638.575092,0.000000,296.082377,10066.800811
3638.575407,0.000000,444.123565,9622.677246
3638.575721,306.438199,-0.000000,9326.594869
3638.576036,306.438199,-0.000000,10066.800811
3638.576350,459.657299,-0.000000,9030.512492
3638.576664,536.266849,-148.041188,8734.430116
3638.576979,995.924147,-370.102971,8956.491898
3638.577293,995.924147,-444.123565,9030.512492
3638.577607,995.924147,-74.020594,9104.533087
3638.577922,229.828649,-74.020594,9400.615463
3638.578236,153.219100,-0.000000,9844.739029
3638.578550,536.266849,148.041188,9696.697840
3638.578865,0.000000,296.082377,9326.594869
3638.579179,0.000000,518.144159,9770.718434
3638.579493,0.000000,222.061783,9992.780217
3638.579808,-459.657299,222.061783,9622.677246
3638.580122,229.828649,222.061783,9696.697840
3638.580436,0.000000,148.041188,10214.842000
3638.580751,0.000000,296.082377,10510.924376
3638.581065,-383.047749,296.082377,10140.821405
3638.581379,-306.438199,518.144159,10140.821405
3638.581694,0.000000,444.123565,9844.739029
3638.582008,229.828649,518.144159,9770.718434
3638.582322,153.219100,518.144159,9696.697840
3638.582637,76.609550,666.185348,9400.615463
3638.582951,459.657299,296.082377,9252.574275
3638.583265,612.876398,222.061783,9252.574275
3638.583580,1072.533697,-0.000000,8956.491898
3638.583894,919.314598,222.061783,9030.512492
3638.584208,383.047749,296.082377,9178.553681
3638.584523,0.000000,-0.000000,9474.636058
3638.584837,229.828649,296.082377,9474.636058
3638.585151,76.609550,370.102971,9252.574275
3638.585466,0.000000,222.061783,9400.615463
3638.585780,0.000000,444.123565,9696.697840
3638.586095,0.000000,-0.000000,9326.594869
3638.586409,0.000000,-0.000000,9548.656652
3638.586723,0.000000,-148.041188,10510.924376
3638.587038,-229.828649,-222.061783,10658.965565
3638.587352,-229.828649,-0.000000,10214.842000
3638.587666,0.000000,-148.041188,10214.842000
3638.587981,0.000000,370.102971,9918.759623
3638.588295,383.047749,666.185348,9918.759623
3638.588609,383.047749,666.185348,9770.718434
3638.588924,459.657299,222.061783,9326.594869
3638.589238,459.657299,518.144159,9400.615463
3638.589552,689.485948,666.185348,8882.471304
3638.589867,1149.143247,370.102971,8808.450710
3638.590181,459.657299,-0.000000,9474.636058
3638.590495,612.876398,-0.000000,9326.594869
3638.590810,-306.438199,-0.000000,9548.656652
3638.591124,0.000000,222.061783,9548.656652
3638.591438,-153.219100,296.082377,9548.656652
3638.591753,-536.266849,592.164754,9918.759623
3638.592067,-383.047749,148.041188,9622.677246
3638.592381,-306.438199,296.082377,9918.759623
3638.592696,-306.438199,518.144159,9622.677246
3638.593010,-153.219100,-0.000000,9622.677246
3638.593324,-229.828649,-0.000000,10066.800811
3638.593639,-383.047749,-222.061783,9918.759623
3638.593953,0.000000,-0.000000,9992.780217
3638.594267,-306.438199,296.082377,9844.739029
3638.594582,0.000000,592.164754,9844.739029
3638.594896,153.219100,370.102971,9474.636058
3638.595210,0.000000,222.061783,9326.594869
3638.595525,383.047749,444.123565,8808.450710
3638.595839,689.485948,-222.061783,8734.430116
3638.596154,766.095498,-296.082377,8660.409521
3638.596468,1149.143247,-0.000000,9252.574275
3638.596782,766.095498,-370.102971,8956.491898
3638.597097,612.876398,-74.020594,8808.450710
3638.597411,229.828649,-74.020594,9474.636058
3638.597725,153.219100,-222.061783,9918.759623
3638.598040,306.438199,-74.020594,10214.842000
3638.598354,0.000000,148.041188,9696.697840
3638.598668,0.000000,-0.000000,9474.636058
3638.598983,0.000000,-148.041188,9696.697840
3638.599297,76.609550,-148.041188,9696.697840
3638.599611,229.828649,-296.082377,10140.821405
3638.599926,0.000000,-148.041188,10288.862594
3638.600240,-306.438199,-0.000000,10584.944971
3638.600554,-306.438199,-0.000000,10140.821405
3638.600869,-383.047749,296.082377,10288.862594
3638.601183,229.828649,296.082377,10288.862594
3638.601497,76.609550,296.082377,9770.718434
3638.601812,306.438199,444.123565,9474.636058
3638.602126,306.438199,370.102971,9400.615463
3638.602440,306.438199,148.041188,9252.574275
3638.602755,1072.533697,-74.020594,9030.512492
3638.603069,689.485948,-0.000000,9030.512492
3638.603383,536.266849,222.061783,9252.574275
3638.603698,229.828649,518.144159,9104.533087
3638.604012,76.609550,296.082377,9474.636058
3638.604326,0.000000,222.061783,9252.574275
3638.604641,0.000000,296.082377,9252.574275
3638.604955,-229.828649,-0.000000,9178.553681
3638.605269,-383.047749,222.061783,9770.718434
3638.605584,-459.657299,296.082377,9844.739029
3638.605898,0.000000,296.082377,9622.677246
3638.606213,-383.047749,74.020594,9548.656652
3638.606527,0.000000,-0.000000,10066.800811
3638.606841,-153.219100,222.061783,10436.903782
3638.607156,0.000000,518.144159,9918.759623
3638.607470,153.219100,444.123565,9844.739029
3638.607784,459.657299,444.123565,9918.759623
3638.608099,229.828649,518.144159,9474.636058
3638.608413,306.438199,222.061783,9400.615463
3638.608727,612.876398,222.061783,9474.636058
3638.609042,766.095498,-0.000000,9104.533087
3638.609356,842.705048,-0.000000,9178.553681
3638.609670,766.095498,-0.000000,9474.636058
3638.609985,153.219100,-0.000000,9474.636058
3638.610299,76.609550,-74.020594,9400.615463
3638.610613,0.000000,-0.000000,9548.656652
3638.610928,0.000000,222.061783,9844.739029
3638.611242,0.000000,518.144159,9844.739029
3638.611556,-536.266849,518.144159,9918.759623
3638.611871,-306.438199,-0.000000,9696.697840
3638.612185,153.219100,-0.000000,9992.780217
3638.612499,0.000000,-0.000000,10140.821405
3638.612814,0.000000,296.082377,10362.883188
3638.613128,-383.047749,-0.000000,10584.944971
3638.613442,-459.657299,666.185348,10140.821405
3638.613757,-153.219100,370.102971,10362.883188
3638.614071,153.219100,444.123565,9992.780217
3638.614385,76.609550,444.123565,9844.739029
3638.614700,153.219100,666.185348,9252.574275
3638.615014,306.438199,370.102971,9030.512492
3638.615328,612.876398,296.082377,9400.615463
3638.615643,842.705048,-148.041188,8808.450710
3638.615957,919.314598,-74.020594,9326.594869
3638.616272,306.438199,-0.000000,9400.615463
3638.616586,76.609550,-0.000000,8956.491898
3638.616900,842.705048,296.082377,8882.471304
3638.617215,306.438199,-0.000000,9104.533087
3638.617529,0.000000,-0.000000,9474.636058
3638.617843,-153.219100,-0.000000,9474.636058
3638.618158,0.000000,-0.000000,9326.594869
3638.618472,0.000000,-296.082377,9992.780217
3638.618786,76.609550,-74.020594,9622.677246
3638.619101,0.000000,-296.082377,10140.821405
3638.619415,0.000000,-0.000000,10510.924376
3638.619729,76.609550,-0.000000,10066.800811
3638.620044,0.000000,296.082377,9918.759623
3638.620358,229.828649,-0.000000,9992.780217
3638.620672,306.438199,-0.000000,9770.718434
