#time,accel_x,accel_y,accel_z
4131.031697,153.219100,-0.000000,9400.615463
4131.032012,383.047749,518.144159,9770.718434
4131.032327,229.828649,296.082377,9474.636058
4131.032642,0.000000,-0.000000,9918.759623
4131.032958,153.219100,296.082377,9696.697840
4131.033273,229.828649,-0.000000,9474.636058
4131.033588,76.609550,-0.000000,9474.636058
4131.033903,76.609550,148.041188,9548.656652
4131.034219,153.219100,-74.020594,10066.800811
4131.034534,76.609550,370.102971,9622.677246
4131.034849,76.609550,222.061783,9474.636058
4131.035164,229.828649,296.082377,9548.656652
4131.035480,459.657299,370.102971,9548.656652
4131.035795,76.609550,-222.061783,9696.697840
4131.036110,-229.828649,-0.000000,9622.677246
4131.036425,0.000000,-0.000000,9474.636058
4131.036741,0.000000,-0.000000,9622.677246
4131.037056,0.000000,222.061783,9474.636058
4131.037371,229.828649,74.020594,9770.718434
4131.037686,0.000000,-0.000000,9326.594869
4131.038002,153.219100,-0.000000,9474.636058
4131.038317,76.609550,148.041188,9622.677246
4131.038632,0.000000,-0.000000,9548.656652
4131.038947,612.876398,370.102971,9770.718434
4131.039263,0.000000,-0.000000,9622.677246
4131.039578,306.438199,74.020594,9844.739029
4131.039893,76.609550,-0.000000,9548.656652
4131.040208,612.876398,222.061783,9548.656652
4131.040524,153.219100,-74.020594,9548.656652
4131.040839,0.000000,-0.000000,9622.677246
4131.041154,0.000000,-0.000000,9844.739029
4131.041469,229.828649,-0.000000,9918.759623
4131.041785,0.000000,148.041188,9770.718434
4131.042100,76.609550,-0.000000,9696.697840
4131.042415,153.219100,-0.000000,9474.636058
4131.042730,76.609550,370.102971,10066.800811
4131.043046,153.219100,296.082377,9770.718434
4131.043361,229.828649,222.061783,9918.759623
4131.043676,0.000000,-0.000000,9770.718434
4131.043991,0.000000,-0.000000,9622.677246
4131.044307,153.219100,296.082377,9400.615463
4131.044622,76.609550,222.061783,9622.677246
4131.044937,153.219100,-0.000000,9918.759623
4131.045252,0.000000,222.061783,9252.574275
4131.045568,383.047749,296.082377,9474.636058
4131.045883,0.000000,-0.000000,9622.677246
4131.046198,-229.828649,-0.000000,9696.697840
4131.046513,0.000000,-222.061783,9400.615463
4131.046829,0.000000,370.102971,9548.656652
4131.047144,0.000000,-0.000000,9474.636058
4131.047459,153.219100,-0.000000,9400.615463
4131.047774,153.219100,148.041188,9474.636058
4131.048090,229.828649,296.082377,9622.677246
4131.048405,153.219100,296.082377,9548.656652
4131.048720,229.828649,222.061783,9474.636058
4131.049035,76.609550,296.082377,9400.615463
4131.049351,0.000000,148.041188,9770.718434
4131.049666,0.000000,222.061783,9696.697840
4131.049981,76.609550,-0.000000,9400.615463
4131.050296,383.047749,-0.000000,9696.697840
4131.050612,76.609550,-0.000000,9326.594869
4131.050927,-229.828649,-0.000000,9474.636058
4131.051242,459.657299,-296.082377,9770.718434
4131.051557,76.609550,296.082377,9400.615463
4131.051873,536.266849,-0.000000,9474.636058
4131.052188,306.438199,-0.000000,9770.718434
4131.052503,153.219100,222.061783,9992.780217
4131.052818,306.438199,-0.000000,9474.636058
4131.053134,153.219100,370.102971,9474.636058
4131.053449,76.609550,518.144159,9770.718434
4131.053764,0.000000,370.102971,9326.594869
4131.054079,-383.047749,666.185348,9548.656652
4131.054395,-536.266849,222.061783,9918.759623
4131.054710,-766.095498,296.082377,9770.718434
4131.055025,-306.438199,666.185348,9474.636058
4131.055340,-612.876398,296.082377,9548.656652
4131.055656,-612.876398,444.123565,10066.800811
4131.055971,-689.485948,518.144159,9474.636058
4131.056286,-536.266849,666.185348,9474.636058
4131.056601,-383.047749,888.247130,9400.615463
4131.056917,-383.047749,1258.350101,9178.553681
4131.057232,-689.485948,1258.350101,9400.615463
4131.057547,-1225.752797,1332.370696,8956.491898
4131.057862,-1225.752797,1184.329507,8882.471304
4131.058178,-1455.581446,1110.308913,8586.388927
4131.058493,-2145.067394,1036.288319,9104.533087
4131.058808,-2528.115143,1332.370696,9474.636058
4131.059123,-2451.505594,740.205942,9696.697840
4131.059439,-2911.162892,1406.391290,9400.615463
4131.059754,-2834.553343,1628.453072,9474.636058
4131.060069,-2987.772442,1406.391290,9622.677246
4131.060384,-2987.772442,1924.535449,9844.739029
4131.060700,-2681.334243,2294.638420,9622.677246
4131.061015,-2911.162892,2294.638420,9400.615463
4131.061330,-2451.505594,2368.659014,9178.553681
4131.061645,-2374.896044,2516.700203,9030.512492
4131.061961,-2374.896044,2812.782580,9474.636058
4131.062276,-2451.505594,2516.700203,9252.574275
4131.062591,-2451.505594,2738.761985,9622.677246
4131.062906,-2374.896044,2664.741391,10288.862594
4131.063222,-2374.896044,2368.659014,10436.903782
4131.063537,-2604.724693,2146.597232,10140.821405
4131.063852,-2451.505594,1924.535449,9992.780217
4131.064167,-1455.581446,2368.659014,10288.862594
4131.064483,-1225.752797,2812.782580,9622.677246
4131.064798,-919.314598,3330.926739,9178.553681
4131.065113,-919.314598,3775.050304,8734.430116
4131.065428,-1072.533697,3701.029710,8586.388927
4131.065744,-919.314598,4145.153275,8586.388927
4131.066059,-1608.800546,3923.091493,9326.594869
4131.066374,-2221.676944,3330.926739,9844.739029
4131.066689,-2451.505594,2960.823768,10288.862594
4131.067005,-3064.381992,2368.659014,10807.006753
4131.067320,-2681.334243,2368.659014,11177.109724
4131.067635,-2987.772442,2590.720797,11769.274478
4131.067950,-2681.334243,3108.864956,11399.171507
4131.068266,-2374.896044,3775.050304,10436.903782
4131.068581,-1685.410096,4293.194464,9548.656652
4131.068896,-1532.190996,4811.338623,8734.430116
4131.069211,-1302.362347,4737.318029,8512.368333
4131.069527,-1532.190996,4737.318029,9178.553681
4131.069842,-1685.410096,3923.091493,8882.471304
4131.070157,-2374.896044,3256.906145,9326.594869
4131.070472,-1991.848295,2590.720797,9696.697840
4131.070788,-2374.896044,1776.494261,10510.924376
4131.071103,-2374.896044,1554.432478,10881.027347
4131.071418,-2834.553343,1702.473667,11695.253884
4131.071733,-1532.190996,1924.535449,11029.068536
4131.072049,-612.876398,1998.556043,9918.759623
4131.072364,-153.219100,2294.638420,9252.574275
4131.072679,153.219100,3182.885551,9252.574275
4131.072994,766.095498,3478.967927,8216.285956
4131.073310,306.438199,3552.988522,7846.182985
4131.073625,-306.438199,3701.029710,7994.224174
4131.073940,-1302.362347,2886.803174,8216.285956
4131.074255,-2068.457845,2516.700203,8808.450710
4131.074571,-3064.381992,1702.473667,8956.491898
4131.074886,-3753.867940,1110.308913,10436.903782
4131.075201,-4366.744339,148.041188,11695.253884
4131.075516,-4519.963438,222.061783,11399.171507
4131.075832,-3753.867940,370.102971,10955.047942
4131.076147,-3524.039291,666.185348,11177.109724
4131.076462,-2987.772442,814.226536,11029.068536
4131.076777,-1685.410096,1554.432478,10436.903782
4131.077093,-689.485948,2146.597232,9622.677246
4131.077408,153.219100,2960.823768,8882.471304
4131.077723,536.266849,3627.009116,8586.388927
4131.078038,459.657299,3330.926739,8512.368333
4131.078354,0.000000,2812.782580,7846.182985
4131.078669,-1072.533697,2220.617826,7476.080014
4131.078984,-2068.457845,1850.514855,7698.141797
4131.079299,-3370.820191,444.123565,8290.306550
4131.079615,-4366.744339,-370.102971,8808.450710
4131.079930,-5132.839837,-1110.308913,9770.718434
4131.080245,-5439.278036,-1110.308913,11399.171507
4131.080560,-5286.058936,-1406.391290,10140.821405
4131.080876,-4826.401637,-962.267725,11473.192101
4131.081191,-3524.039291,-518.144159,11695.253884
4131.081506,-2451.505594,-0.000000,11473.192101
4131.081821,306.438199,1332.370696,10214.842000
4131.082137,1685.410096,2812.782580,9252.574275
4131.082452,2451.505594,5329.482782,7698.141797
4131.082767,2528.115143,6365.771101,6365.771101
4131.083082,2374.896044,6069.688724,4959.379811
4131.083398,229.828649,5033.400406,5921.647536
4131.083713,-1762.019645,4367.215058,6661.853478
4131.084028,-3600.648841,1702.473667,8734.430116
4131.084343,-5822.325785,-1924.535449,11473.192101
4131.084659,-7048.078582,-3997.112087,13397.727550
4131.084974,-7431.126331,-4441.235652,13619.789333
4131.085289,-6818.249932,-3552.988522,14730.098246
4131.085604,-4290.134789,-2072.576638,13619.789333
4131.085920,-2604.724693,740.205942,10732.986159
4131.086235,306.438199,4293.194464,7698.141797
4131.086550,1991.848295,6957.935855,5699.585753
4131.086865,2757.943793,9400.615463,4367.215058
4131.087181,2681.334243,9918.759623,3923.091493
4131.087496,1225.752797,8586.388927,5181.441594
4131.087811,0.000000,6143.709319,8808.450710
4131.088126,-1915.238745,2812.782580,11251.130318
4131.088442,-3370.820191,-1258.350101,13989.892304
4131.088757,-4903.011187,-3256.906145,15544.324782
4131.089072,-4903.011187,-3182.885551,15988.448347
4131.089387,-4213.525239,-2442.679609,13767.830521
4131.089703,-3064.381992,-148.041188,10436.903782
4131.090018,-1915.238745,2664.741391,9696.697840
4131.090333,-459.657299,5625.565159,7031.956449
4131.090648,919.314598,7031.956449,4663.297435
4131.090964,1608.800546,7698.141797,4959.379811
4131.091279,689.485948,6883.915261,6291.750507
4131.091594,0.000000,4441.235652,8660.409521
4131.091909,-229.828649,1628.453072,10362.883188
4131.092225,-383.047749,-0.000000,12065.356855
4131.092540,76.609550,-888.247130,12953.603985
4131.092855,-229.828649,-296.082377,13175.665768
4131.093170,-689.485948,666.185348,12509.480420
4131.093486,-612.876398,1480.411884,10584.944971
4131.093801,-383.047749,2590.720797,9104.533087
4131.094116,-612.876398,3701.029710,7624.121203
4131.094431,-1455.581446,2960.823768,7402.059420
4131.094747,-1532.190996,1998.556043,7772.162391
4131.095062,-995.924147,1184.329507,8290.306550
4131.095377,-1149.143247,1258.350101,8808.450710
4131.095692,-1149.143247,962.267725,10807.006753
4131.096008,-1302.362347,148.041188,11843.295072
4131.096323,-1225.752797,-0.000000,12953.603985
4131.096638,-229.828649,-296.082377,12435.459826
4131.096953,153.219100,-740.205942,11991.336260
4131.097269,306.438199,-370.102971,10510.924376
4131.097584,1149.143247,370.102971,9030.512492
4131.097899,1532.190996,2146.597232,7328.038826
4131.098214,919.314598,3404.947333,6809.894666
4131.098530,306.438199,3404.947333,5847.626942
4131.098845,612.876398,2368.659014,7846.182985
4131.099160,-612.876398,1110.308913,8956.491898
4131.099475,-2298.286494,-1480.411884,11029.068536
4131.099791,-2374.896044,-3478.967927,12139.377449
4131.100106,-2145.067394,-4737.318029,12953.603985
4131.100421,-1149.143247,-4293.194464,12287.418637
4131.100736,-612.876398,-2664.741391,11473.192101
4131.101051,536.266849,-1258.350101,10140.821405
4131.101366,2145.067394,1036.288319,8660.409521
4131.101682,2604.724693,3182.885551,7846.182985
4131.101997,2068.457845,3701.029710,5773.606348
4131.102312,1072.533697,3182.885551,5921.647536
4131.102627,76.609550,1110.308913,6809.894666
4131.102942,306.438199,-1332.370696,7698.141797
4131.103258,76.609550,-2368.659014,9252.574275
4131.103573,-919.314598,-3256.906145,10881.027347
4131.103888,-1608.800546,-3108.864956,11843.295072
4131.104203,-1378.971896,-3256.906145,12213.398043
4131.104518,-1302.362347,-2738.761985,12139.377449
4131.104834,-1225.752797,-2738.761985,11843.295072
4131.105149,-612.876398,-1998.556043,10140.821405
4131.105464,459.657299,-1480.411884,9252.574275
4131.105779,1149.143247,-0.000000,7698.141797
4131.106094,1225.752797,1110.308913,6957.935855
4131.106410,1378.971896,1628.453072,6587.832884
4131.106725,995.924147,1554.432478,7254.018232
4131.107040,689.485948,666.185348,8216.285956
4131.107355,306.438199,-1332.370696,9548.656652
4131.107670,306.438199,-2442.679609,10584.944971
4131.107986,0.000000,-3627.009116,11917.315666
4131.108301,306.438199,-3182.885551,11547.212695
4131.108616,-612.876398,-2886.803174,11325.150913
4131.108931,-459.657299,-1628.453072,10658.965565
4131.109246,153.219100,-296.082377,9918.759623
4131.109562,0.000000,1110.308913,8438.347739
4131.109877,76.609550,1110.308913,7105.977043
4131.110192,153.219100,1110.308913,7105.977043
4131.110507,459.657299,370.102971,7328.038826
4131.110822,612.876398,-222.061783,8068.244768
4131.111137,-153.219100,-296.082377,9548.656652
4131.111453,383.047749,-518.144159,10214.842000
4131.111768,766.095498,-444.123565,11103.089130
4131.112083,1072.533697,-592.164754,11695.253884
4131.112398,383.047749,-0.000000,11103.089130
4131.112713,919.314598,-148.041188,10288.862594
4131.113029,842.705048,1258.350101,8290.306550
4131.113344,306.438199,2516.700203,7105.977043
4131.113659,306.438199,2220.617826,7328.038826
4131.113974,229.828649,2368.659014,7550.100608
4131.114289,76.609550,2146.597232,8660.409521
4131.114605,-229.828649,888.247130,9178.553681
4131.114920,-689.485948,-370.102971,10881.027347
4131.115235,-383.047749,-1332.370696,11843.295072
4131.115550,-383.047749,-1480.411884,12065.356855
4131.115865,0.000000,-74.020594,11547.212695
4131.116181,76.609550,888.247130,10881.027347
4131.116496,919.314598,1924.535449,9992.780217
4131.116811,1685.410096,3478.967927,8808.450710
4131.117126,1455.581446,3627.009116,8290.306550
4131.117441,842.705048,3256.906145,7624.121203
4131.117757,536.266849,2072.576638,8734.430116
4131.118072,306.438199,814.226536,8956.491898
4131.118387,-689.485948,444.123565,10140.821405
4131.118702,-1532.190996,-0.000000,11473.192101
4131.119017,-1378.971896,-518.144159,12139.377449
4131.119332,-1608.800546,-666.185348,12657.521608
4131.119648,-1532.190996,-296.082377,12731.542202
4131.119963,-1149.143247,-518.144159,11917.315666
4131.120278,-766.095498,-148.041188,10362.883188
4131.120593,383.047749,1184.329507,8882.471304
4131.120908,689.485948,2072.576638,8290.306550
4131.121224,536.266849,3256.906145,7254.018232
4131.121539,536.266849,3256.906145,7772.162391
4131.121854,689.485948,3034.844362,8660.409521
4131.122169,153.219100,1850.514855,9400.615463
4131.122484,-383.047749,740.205942,9918.759623
4131.122800,-1149.143247,-1258.350101,10955.047942
4131.123115,-1072.533697,-2294.638420,11843.295072
4131.123430,-2068.457845,-1850.514855,11769.274478
4131.123745,-2068.457845,-888.247130,11177.109724
4131.124060,-1225.752797,-148.041188,10362.883188
4131.124376,-459.657299,962.267725,8882.471304
4131.124691,459.657299,1332.370696,7920.203579
4131.125006,459.657299,1776.494261,7698.141797
4131.125321,919.314598,1036.288319,7698.141797
4131.125636,1378.971896,666.185348,7328.038826
4131.125952,995.924147,444.123565,7994.224174
4131.126267,612.876398,-0.000000,8734.430116
4131.126582,536.266849,-370.102971,9622.677246
4131.126897,153.219100,-888.247130,10732.986159
4131.127212,229.828649,-1258.350101,10584.944971
4131.127528,0.000000,-1480.411884,10510.924376
4131.127843,0.000000,-1924.535449,9992.780217
4131.128158,0.000000,-1332.370696,9474.636058
4131.128473,383.047749,-296.082377,8660.409521
4131.128788,612.876398,148.041188,7920.203579
4131.129103,1072.533697,296.082377,8290.306550
4131.129419,1072.533697,888.247130,8586.388927
4131.129734,612.876398,370.102971,8808.450710
4131.130049,229.828649,-444.123565,9474.636058
4131.130364,612.876398,-1110.308913,10362.883188
4131.130679,459.657299,-2072.576638,10881.027347
4131.130995,153.219100,-1998.556043,10510.924376
4131.131310,76.609550,-1036.288319,9992.780217
4131.131625,153.219100,-888.247130,10362.883188
4131.131940,919.314598,-0.000000,10066.800811
4131.132255,459.657299,296.082377,9474.636058
4131.132571,229.828649,370.102971,8956.491898
4131.132886,76.609550,-148.041188,8882.471304
4131.133201,306.438199,-444.123565,8512.368333
4131.133516,153.219100,-370.102971,8956.491898
4131.133831,-766.095498,-0.000000,10140.821405
4131.134147,-1072.533697,-222.061783,10881.027347
4131.134462,-459.657299,-444.123565,11177.109724
4131.134777,-306.438199,-814.226536,11251.130318
4131.135092,-459.657299,-962.267725,10881.027347
4131.135407,153.219100,-814.226536,10436.903782
4131.135723,689.485948,-296.082377,9400.615463
4131.136038,766.095498,666.185348,8660.409521
4131.136353,612.876398,1702.473667,7476.080014
4131.136668,919.314598,2072.576638,8216.285956
4131.136983,1072.533697,1850.514855,8364.327145
4131.137298,459.657299,1036.288319,8586.388927
4131.137614,-459.657299,-0.000000,9474.636058
4131.137929,-612.876398,-1036.288319,10288.862594
4131.138244,-459.657299,-1184.329507,10510.924376
4131.138559,-766.095498,-1036.288319,10510.924376
4131.138874,-919.314598,-518.144159,10214.842000
4131.139190,0.000000,-74.020594,10214.842000
4131.139505,612.876398,1110.308913,9400.615463
4131.139820,153.219100,1554.432478,9326.594869
4131.140135,689.485948,1776.494261,8734.430116
4131.140450,1149.143247,1924.535449,8364.327145
4131.140766,1302.362347,1258.350101,8216.285956
4131.141081,689.485948,962.267725,8512.368333
4131.141396,306.438199,962.267725,9696.697840
4131.141711,0.000000,666.185348,10288.862594
4131.142026,-383.047749,222.061783,10288.862594
4131.142342,-689.485948,-148.041188,11695.253884
4131.142657,-842.705048,-370.102971,11399.171507
4131.142972,-689.485948,-1184.329507,10881.027347
4131.143287,0.000000,-444.123565,10288.862594
4131.143602,0.000000,-0.000000,9474.636058
4131.143918,153.219100,962.267725,8660.409521
4131.144233,459.657299,2146.597232,8586.388927
4131.144548,459.657299,2220.617826,9104.533087
4131.144863,612.876398,1480.411884,9104.533087
4131.145178,0.000000,888.247130,9696.697840
4131.145494,-229.828649,-296.082377,10066.800811
4131.145809,0.000000,-1036.288319,10362.883188
4131.146124,0.000000,-814.226536,10140.821405
4131.146439,-766.095498,-0.000000,10510.924376
4131.146754,-306.438199,-74.020594,10214.842000
4131.147069,229.828649,148.041188,10140.821405
4131.147385,76.609550,1184.329507,8956.491898
4131.147700,0.000000,666.185348,8956.491898
4131.148015,0.000000,1036.288319,8882.471304
4131.148330,306.438199,518.144159,8364.327145
4131.148645,383.047749,740.205942,8068.244768
4131.148961,-229.828649,1036.288319,8882.471304
4131.149276,-306.438199,370.102971,9474.636058
4131.149591,-459.657299,-0.000000,10288.862594
4131.149906,-383.047749,-0.000000,10584.944971
4131.150221,0.000000,-444.123565,11029.068536
4131.150537,-306.438199,-592.164754,10584.944971
4131.150852,306.438199,-370.102971,9770.718434
4131.151167,306.438199,148.041188,8882.471304
4131.151482,76.609550,1110.308913,8586.388927
4131.151797,536.266849,1332.370696,8660.409521
4131.152113,612.876398,1480.411884,9030.512492
4131.152428,689.485948,888.247130,8882.471304
4131.152743,0.000000,-148.041188,9474.636058
4131.153058,0.000000,-814.226536,10140.821405
4131.153373,0.000000,-1110.308913,9770.718434
4131.153689,229.828649,-962.267725,10436.903782
4131.154004,-383.047749,-888.247130,10510.924376
4131.154319,383.047749,-962.267725,10362.883188
4131.154634,1149.143247,-148.041188,10140.821405
4131.154949,1072.533697,370.102971,9696.697840
4131.155265,919.314598,222.061783,9696.697840
4131.155580,842.705048,518.144159,8734.430116
4131.155895,1149.143247,296.082377,8290.306550
4131.156210,1149.143247,-148.041188,8438.347739
4131.156525,842.705048,-0.000000,8956.491898
4131.156840,995.924147,-370.102971,9474.636058
4131.157156,229.828649,-666.185348,10288.862594
4131.157471,-229.828649,-1110.308913,10881.027347
4131.157786,-689.485948,-1480.411884,11029.068536
4131.158101,-306.438199,-1998.556043,10881.027347
4131.158416,306.438199,-1628.453072,9992.780217
4131.158732,306.438199,-814.226536,9104.533087
4131.159047,153.219100,-0.000000,8734.430116
4131.159362,995.924147,1036.288319,8586.388927
4131.159677,1149.143247,1554.432478,8586.388927
4131.159992,842.705048,740.205942,8660.409521
4131.160308,229.828649,296.082377,9400.615463
4131.160623,0.000000,-592.164754,9770.718434
4131.160938,0.000000,-1258.350101,9696.697840
4131.161253,0.000000,-518.144159,10140.821405
4131.161568,-689.485948,-444.123565,10288.862594
4131.161884,-689.485948,-148.041188,9770.718434
4131.162199,0.000000,-0.000000,10066.800811
4131.162514,-153.219100,296.082377,9844.739029
4131.162829,-459.657299,-74.020594,9918.759623
4131.163144,-383.047749,518.144159,9178.553681
4131.163460,0.000000,518.144159,8512.368333
4131.163775,153.219100,962.267725,8216.285956
4131.164090,153.219100,1036.288319,8586.388927
4131.164405,0.000000,518.144159,9326.594869
4131.164720,0.000000,666.185348,9770.718434
4131.165035,-76.609550,740.205942,10066.800811
4131.165351,-842.705048,296.082377,9992.780217
4131.165666,-612.876398,-666.185348,10436.903782
4131.165981,-842.705048,-518.144159,9844.739029
4131.166296,-766.095498,-222.061783,9622.677246
4131.166611,-842.705048,518.144159,9474.636058
4131.166927,-306.438199,814.226536,9326.594869
4131.167242,229.828649,1258.350101,9474.636058
4131.167557,76.609550,1036.288319,9252.574275
4131.167872,-383.047749,1332.370696,9696.697840
4131.168187,0.000000,-0.000000,9770.718434
4131.168503,0.000000,-296.082377,9622.677246
4131.168818,-229.828649,-0.000000,9918.759623
4131.169133,-153.219100,-0.000000,10140.821405
4131.169448,0.000000,222.061783,9770.718434
4131.169763,612.876398,518.144159,10066.800811
4131.170079,459.657299,814.226536,9992.780217
4131.170394,536.266849,814.226536,9770.718434
4131.170709,0.000000,296.082377,9622.677246
4131.171024,153.219100,370.102971,9104.533087
4131.171339,229.828649,740.205942,9178.553681
4131.171655,0.000000,444.123565,9030.512492
4131.171970,0.000000,592.164754,9548.656652
4131.172285,0.000000,518.144159,10140.821405
4131.172600,76.609550,296.082377,9918.759623
4131.172915,0.000000,296.082377,10584.944971
4131.173231,0.000000,-592.164754,10510.924376
4131.173546,306.438199,-148.041188,10066.800811
4131.173861,766.095498,444.123565,8956.491898
4131.174176,995.924147,1110.308913,8956.491898
4131.174491,689.485948,1628.453072,8660.409521
4131.174806,1302.362347,1036.288319,9104.533087
4131.175122,1072.533697,1776.494261,9252.574275
4131.175437,76.609550,888.247130,9548.656652
4131.175752,153.219100,-0.000000,9548.656652
4131.176067,229.828649,-370.102971,9622.677246
4131.176382,76.609550,-814.226536,9918.759623
4131.176698,-536.266849,-518.144159,10362.883188
4131.177013,0.000000,-370.102971,10214.842000
4131.177328,229.828649,-0.000000,9770.718434
4131.177643,306.438199,518.144159,9696.697840
4131.177958,306.438199,518.144159,9548.656652
4131.178274,612.876398,-0.000000,9622.677246
4131.178589,919.314598,-0.000000,9030.512492
4131.178904,766.095498,148.041188,8808.450710
4131.179219,766.095498,296.082377,8956.491898
4131.179534,919.314598,666.185348,9474.636058
4131.179850,536.266849,518.144159,9844.739029
4131.180165,612.876398,-0.000000,10140.821405
4131.180480,229.828649,-444.123565,10288.862594
4131.180795,306.438199,-888.247130,10288.862594
4131.181110,76.609550,-1110.308913,10066.800811
4131.181426,153.219100,-740.205942,9696.697840
4131.181741,76.609550,-222.061783,9400.615463
4131.182056,153.219100,-296.082377,9326.594869
4131.182371,306.438199,-0.000000,9474.636058
4131.182686,229.828649,-0.000000,9474.636058
4131.183002,-306.438199,-222.061783,9474.636058
4131.183317,0.000000,-888.247130,9474.636058
4131.183632,-229.828649,-592.164754,9696.697840
4131.183947,0.000000,-666.185348,9252.574275
4131.184262,-306.438199,-148.041188,9548.656652
4131.184577,-153.219100,-592.164754,9844.739029
4131.184893,-229.828649,-0.000000,10214.842000
4131.185208,0.000000,-0.000000,10140.821405
4131.185523,-612.876398,-148.041188,9918.759623
4131.185838,-536.266849,-518.144159,9918.759623
4131.186153,-536.266849,-666.185348,9918.759623
4131.186469,-459.657299,-0.000000,9104.533087
4131.186784,-306.438199,-0.000000,8956.491898
4131.187099,76.609550,666.185348,8882.471304
4131.187414,0.000000,296.082377,9474.636058
4131.187729,-306.438199,-148.041188,9548.656652
4131.188045,-229.828649,-148.041188,9918.759623
4131.188360,-306.438199,-888.247130,9770.718434
4131.188675,153.219100,-1036.288319,9400.615463
4131.188990,306.438199,-370.102971,9030.512492
4131.189305,306.438199,370.102971,9252.574275
4131.189621,536.266849,888.247130,9622.677246
4131.189936,689.485948,1036.288319,8586.388927
4131.190251,842.705048,962.267725,9326.594869
4131.190566,153.219100,962.267725,8660.409521
4131.190881,0.000000,296.082377,9400.615463
4131.191197,536.266849,-0.000000,9030.512492
4131.191512,459.657299,-0.000000,9474.636058
4131.191827,153.219100,-0.000000,9844.739029
4131.192142,306.438199,370.102971,9622.677246
4131.192457,306.438199,962.267725,9548.656652
4131.192772,229.828649,740.205942,10288.862594
4131.193088,0.000000,296.082377,10214.842000
4131.193403,-153.219100,148.041188,10066.800811
4131.193718,0.000000,-74.020594,9474.636058
4131.194033,0.000000,-0.000000,9696.697840
4131.194348,-229.828649,888.247130,9474.636058
4131.194664,76.609550,962.267725,9918.759623
4131.194979,459.657299,1110.308913,10140.821405
4131.195294,306.438199,962.267725,10436.903782
4131.195609,0.000000,592.164754,10584.944971
4131.195924,0.000000,-0.000000,10214.842000
4131.196240,153.219100,-0.000000,10066.800811
4131.196555,459.657299,-74.020594,9696.697840
4131.196870,76.609550,814.226536,9326.594869
4131.197185,153.219100,592.164754,9326.594869
4131.197500,383.047749,592.164754,9474.636058
4131.197816,0.000000,888.247130,9696.697840
4131.198131,-536.266849,-0.000000,9844.739029
4131.198446,-689.485948,222.061783,9770.718434
4131.198761,-612.876398,-74.020594,9548.656652
4131.199076,-383.047749,-74.020594,9548.656652
4131.199392,-995.924147,296.082377,9326.594869
4131.199707,153.219100,148.041188,10214.842000
4131.200022,0.000000,592.164754,10288.862594
4131.200337,229.828649,1184.329507,10288.862594
4131.200652,0.000000,1184.329507,9622.677246
4131.200968,0.000000,518.144159,9178.553681
4131.201283,229.828649,-0.000000,9104.533087
4131.201598,459.657299,296.082377,8734.430116
4131.201914,153.219100,814.226536,8734.430116
4131.202229,76.609550,370.102971,8882.471304
4131.202544,459.657299,740.205942,9548.656652
4131.202859,-306.438199,666.185348,9622.677246
4131.203175,-459.657299,-148.041188,10066.800811
4131.203490,-383.047749,-1036.288319,9992.780217
4131.203805,-306.438199,-1406.391290,9622.677246
4131.204121,153.219100,-814.226536,9474.636058
4131.204436,229.828649,-370.102971,9696.697840
4131.204751,0.000000,370.102971,9474.636058
4131.205067,1302.362347,962.267725,9400.615463
4131.205382,1149.143247,1036.288319,9474.636058
4131.205697,842.705048,222.061783,9474.636058
4131.206013,459.657299,-0.000000,9696.697840
4131.206328,842.705048,-222.061783,9030.512492
4131.206643,536.266849,-444.123565,9326.594869
4131.206958,76.609550,-0.000000,9252.574275
4131.207274,76.609550,-444.123565,9474.636058
4131.207589,0.000000,-518.144159,9844.739029
4131.207904,-306.438199,-592.164754,10214.842000
4131.208220,-536.266849,-1110.308913,9918.759623
4131.208535,-306.438199,-1258.350101,9918.759623
4131.208850,-76.609550,-888.247130,9474.636058
4131.209166,76.609550,-888.247130,9252.574275
4131.209481,229.828649,-296.082377,9400.615463
4131.209796,766.095498,-0.000000,9400.615463
4131.210112,1302.362347,370.102971,9548.656652
4131.210427,1149.143247,370.102971,9400.615463
4131.210742,995.924147,-0.000000,9622.677246
4131.211057,612.876398,-296.082377,9696.697840
4131.211373,459.657299,-740.205942,9326.594869
4131.211688,306.438199,-962.267725,8956.491898
4131.212003,0.000000,-296.082377,9326.594869
4131.212319,-842.705048,-296.082377,9622.677246
4131.212634,-306.438199,-0.000000,9844.739029
4131.212949,-383.047749,518.144159,9992.780217
4131.213265,-459.657299,-74.020594,9696.697840
4131.213580,-766.095498,-814.226536,9844.739029
4131.213895,0.000000,-74.020594,9326.594869
4131.214211,0.000000,-148.041188,9400.615463
4131.214526,0.000000,444.123565,9474.636058
4131.214841,153.219100,1036.288319,9474.636058
4131.215156,306.438199,1332.370696,9844.739029
4131.215472,459.657299,1480.411884,9252.574275
4131.215787,153.219100,1110.308913,9696.697840
4131.216102,0.000000,-0.000000,9696.697840
4131.216418,-306.438199,148.041188,9474.636058
4131.216733,0.000000,-74.020594,9474.636058
4131.217048,-383.047749,370.102971,9548.656652
4131.217364,-383.047749,-74.020594,9844.739029
4131.217679,-536.266849,444.123565,9992.780217
4131.217994,-536.266849,518.144159,10140.821405
4131.218310,-919.314598,370.102971,10362.883188
4131.218625,-842.705048,-0.000000,10362.883188
4131.218940,0.000000,-0.000000,9474.636058
4131.219255,306.438199,296.082377,9474.636058
4131.219571,-76.609550,814.226536,9474.636058
4131.219886,0.000000,888.247130,9696.697840
4131.220201,229.828649,1036.288319,9770.718434
4131.220517,612.876398,1258.350101,9696.697840
4131.220832,0.000000,666.185348,9844.739029
4131.221147,-383.047749,-0.000000,9918.759623
4131.221463,-306.438199,-666.185348,9844.739029
4131.221778,-383.047749,-740.205942,10584.944971
4131.222093,-766.095498,-148.041188,9770.718434
4131.222409,-919.314598,-0.000000,9474.636058
4131.222724,-306.438199,370.102971,9918.759623
4131.223039,306.438199,888.247130,9696.697840
4131.223354,0.000000,370.102971,9770.718434
4131.223670,153.219100,518.144159,9474.636058
4131.223985,536.266849,592.164754,9474.636058
4131.224300,842.705048,888.247130,8734.430116
4131.224616,536.266849,962.267725,9178.553681
4131.224931,612.876398,666.185348,9474.636058
4131.225246,536.266849,1110.308913,9548.656652
4131.225562,383.047749,962.267725,9918.759623
4131.225877,76.609550,740.205942,9992.780217
4131.226192,306.438199,-0.000000,9992.780217
4131.226507,0.000000,-148.041188,9474.636058
4131.226823,306.438199,-0.000000,9474.636058
4131.227138,-229.828649,-0.000000,9326.594869
4131.227453,0.000000,296.082377,9474.636058
4131.227769,689.485948,444.123565,9400.615463
4131.228084,1072.533697,1036.288319,9326.594869
4131.228399,842.705048,592.164754,9474.636058
4131.228715,229.828649,-0.000000,9474.636058
4131.229030,536.266849,-444.123565,9252.574275
4131.229345,1302.362347,148.041188,9178.553681
4131.229661,383.047749,-0.000000,9030.512492
4131.229976,383.047749,-0.000000,9252.574275
4131.230291,536.266849,-148.041188,9918.759623
4131.230606,0.000000,-222.061783,9992.780217
4131.230922,0.000000,-0.000000,10436.903782
4131.231237,0.000000,-740.205942,9326.594869
4131.231552,766.095498,-1036.288319,9474.636058
4131.231868,766.095498,-666.185348,9474.636058
4131.232183,153.219100,-296.082377,9178.553681
4131.232498,306.438199,-370.102971,9622.677246
4131.232814,536.266849,-0.000000,9622.677246
4131.233129,229.828649,-0.000000,9474.636058
4131.233444,153.219100,-518.144159,9918.759623
4131.233760,0.000000,-814.226536,9474.636058
4131.234075,306.438199,-1406.391290,9844.739029
4131.234390,0.000000,-666.185348,9622.677246
4131.234705,-153.219100,-0.000000,9474.636058
4131.235021,0.000000,296.082377,9992.780217
4131.235336,0.000000,370.102971,9696.697840
4131.235651,0.000000,296.082377,9548.656652
4131.235967,-306.438199,-296.082377,9918.759623
4131.236282,-536.266849,-592.164754,9918.759623
4131.236597,-459.657299,-518.144159,9474.636058
4131.236913,536.266849,-444.123565,9178.553681
4131.237228,-459.657299,-148.041188,9178.553681
4131.237543,0.000000,296.082377,9622.677246
4131.237859,229.828649,518.144159,9622.677246
4131.238174,0.000000,814.226536,9400.615463
4131.238489,-383.047749,444.123565,9696.697840
4131.238804,0.000000,-0.000000,9918.759623
4131.239120,76.609550,-296.082377,9400.615463
4131.239435,0.000000,-148.041188,9030.512492
4131.239750,-306.438199,444.123565,9326.594869
4131.240066,76.609550,148.041188,9400.615463
4131.240381,536.266849,740.205942,9696.697840
4131.240696,536.266849,1332.370696,9622.677246
4131.241012,76.609550,296.082377,9696.697840
4131.241327,-153.219100,-148.041188,9844.739029
4131.241642,0.000000,-1036.288319,9770.718434
4131.241958,459.657299,-370.102971,9030.512492
4131.242273,0.000000,-0.000000,9326.594869
4131.242588,306.438199,740.205942,9400.615463
4131.242903,459.657299,592.164754,9770.718434
4131.243219,766.095498,740.205942,9622.677246
4131.243534,612.876398,518.144159,9918.759623
4131.243849,0.000000,-0.000000,9622.677246
4131.244165,76.609550,-222.061783,9918.759623
4131.244480,229.828649,-222.061783,9622.677246
4131.244795,229.828649,-222.061783,9918.759623
4131.245111,229.828649,-0.000000,9844.739029
4131.245426,536.266849,518.144159,10066.800811
4131.245741,383.047749,962.267725,9992.780217
4131.246057,0.000000,518.144159,9918.759623
4131.246372,76.609550,-0.000000,9474.636058
4131.246687,76.609550,-148.041188,9474.636058
4131.247002,383.047749,-0.000000,9252.574275
4131.247318,0.000000,518.144159,9474.636058
4131.247633,0.000000,814.226536,9474.636058
4131.247948,383.047749,-0.000000,10140.821405
4131.248264,229.828649,666.185348,10288.862594
4131.248579,0.000000,888.247130,10140.821405
4131.248894,-306.438199,814.226536,10140.821405
4131.249210,0.000000,-0.000000,9474.636058
4131.249525,-459.657299,-74.020594,9474.636058
4131.249840,-229.828649,518.144159,9474.636058
4131.250156,-76.609550,592.164754,9622.677246
4131.250471,153.219100,740.205942,9474.636058
4131.250786,536.266849,1258.350101,9696.697840
4131.251101,76.609550,740.205942,9474.636058
4131.251417,-229.828649,518.144159,9326.594869
4131.251732,0.000000,-0.000000,9326.594869
4131.252047,383.047749,-0.000000,9104.533087
4131.252363,0.000000,-0.000000,9770.718434
4131.252678,0.000000,444.123565,9474.636058
4131.252993,229.828649,444.123565,9474.636058
4131.253309,0.000000,444.123565,9548.656652
4131.253624,-153.219100,148.041188,9918.759623
4131.253939,-153.219100,-518.144159,9474.636058
4131.254255,153.219100,-666.185348,9474.636058
4131.254570,153.219100,-592.164754,9400.615463
4131.254885,-383.047749,-74.020594,9622.677246
4131.255200,-306.438199,370.102971,9400.615463
4131.255516,76.609550,222.061783,9918.759623
4131.255831,306.438199,-0.000000,10066.800811
4131.256146,459.657299,-222.061783,10288.862594
4131.256462,153.219100,-148.041188,10214.842000
4131.256777,229.828649,-74.020594,9622.677246
4131.257092,306.438199,-444.123565,9178.553681
4131.257408,153.219100,-222.061783,9252.574275
4131.257723,153.219100,222.061783,9770.718434
4131.258038,153.219100,370.102971,9474.636058
4131.258354,383.047749,-0.000000,9844.739029
4131.258669,0.000000,-296.082377,9548.656652
4131.258984,0.000000,-518.144159,9400.615463
4131.259299,0.000000,-518.144159,9474.636058
4131.259615,76.609550,-296.082377,9548.656652
4131.259930,0.000000,-296.082377,9474.636058
4131.260245,536.266849,-0.000000,9326.594869
4131.260561,612.876398,518.144159,9474.636058
4131.260876,612.876398,814.226536,9474.636058
4131.261191,153.219100,444.123565,9770.718434
4131.261507,0.000000,518.144159,9770.718434
4131.261822,306.438199,-222.061783,9400.615463
4131.262137,612.876398,-296.082377,9474.636058
4131.262453,459.657299,-222.061783,9104.533087
4131.262768,229.828649,-0.000000,9474.636058
4131.263083,229.828649,592.164754,9548.656652
4131.263398,689.485948,1036.288319,9474.636058
4131.263714,229.828649,370.102971,9696.697840
4131.264029,0.000000,-148.041188,9696.697840
4131.264344,612.876398,-1184.329507,9474.636058
4131.264660,383.047749,-1036.288319,9326.594869
4131.264975,229.828649,-370.102971,9474.636058
4131.265290,76.609550,-0.000000,9474.636058
4131.265606,459.657299,518.144159,9548.656652
4131.265921,612.876398,740.205942,9474.636058
4131.266236,229.828649,222.061783,9992.780217
4131.266551,612.876398,-74.020594,9474.636058
4131.266867,1149.143247,-666.185348,9474.636058
4131.267182,689.485948,-370.102971,9474.636058
4131.267497,0.000000,-444.123565,9474.636058
4131.267813,229.828649,-0.000000,9400.615463
4131.268128,459.657299,-222.061783,9770.718434
4131.268443,153.219100,-0.000000,10214.842000
4131.268759,0.000000,-518.144159,10807.006753
4131.269074,-536.266849,-1036.288319,10510.924376
4131.269389,-229.828649,-148.041188,9548.656652
4131.269705,0.000000,-0.000000,8956.491898
4131.270020,-536.266849,-296.082377,9178.553681
4131.270335,-76.609550,370.102971,9474.636058
4131.270650,76.609550,592.164754,10214.842000
4131.270966,-306.438199,1036.288319,9326.594869
4131.271281,0.000000,814.226536,9696.697840
4131.271596,-612.876398,518.144159,10066.800811
4131.271912,-153.219100,-148.041188,9474.636058
4131.272227,0.000000,-0.000000,9326.594869
4131.272542,-766.095498,-296.082377,9252.574275
4131.272858,-766.095498,-0.000000,9474.636058
4131.273173,-842.705048,740.205942,9326.594869
4131.273488,-842.705048,888.247130,9474.636058
4131.273804,-995.924147,888.247130,9992.780217
4131.274119,-1072.533697,296.082377,9696.697840
4131.274434,-536.266849,-74.020594,9474.636058
4131.274749,0.000000,-222.061783,9474.636058
4131.275065,-689.485948,148.041188,9326.594869
4131.275380,-383.047749,592.164754,9400.615463
4131.275695,306.438199,1110.308913,9104.533087
4131.276011,306.438199,1850.514855,9474.636058
4131.276326,306.438199,814.226536,9696.697840
4131.276641,153.219100,666.185348,9474.636058
4131.276957,229.828649,-0.000000,8882.471304
4131.277272,766.095498,-0.000000,9178.553681
4131.277587,229.828649,370.102971,9622.677246
4131.277903,229.828649,592.164754,9474.636058
4131.278218,153.219100,592.164754,9918.759623
4131.278533,536.266849,740.205942,9548.656652
4131.278848,306.438199,518.144159,10362.883188
4131.279164,0.000000,222.061783,10288.862594
4131.279479,0.000000,-444.123565,10066.800811
4131.279794,459.657299,-148.041188,10066.800811
4131.280110,536.266849,-74.020594,9548.656652
4131.280425,919.314598,518.144159,9696.697840
4131.280740,842.705048,518.144159,9992.780217
4131.281056,842.705048,962.267725,10140.821405
4131.281371,536.266849,962.267725,9918.759623
4131.281686,919.314598,592.164754,9474.636058
4131.282002,842.705048,-0.000000,9622.677246
4131.282317,689.485948,-0.000000,9474.636058
4131.282632,383.047749,-222.061783,9252.574275
4131.282947,0.000000,-0.000000,9400.615463
4131.283263,0.000000,-0.000000,9844.739029
4131.283578,76.609550,666.185348,10362.883188
4131.283893,76.609550,-0.000000,10066.800811
4131.284209,-612.876398,-148.041188,9474.636058
4131.284524,0.000000,-370.102971,9770.718434
4131.284839,229.828649,-444.123565,8956.491898
4131.285155,153.219100,-0.000000,9178.553681
4131.285470,0.000000,518.144159,9252.574275
4131.285785,536.266849,592.164754,9326.594869
4131.286101,536.266849,888.247130,9400.615463
4131.286416,459.657299,444.123565,9622.677246
4131.286731,0.000000,-0.000000,9770.718434
4131.287046,0.000000,-592.164754,9474.636058
4131.287362,0.000000,-222.061783,9178.553681
4131.287677,229.828649,-148.041188,8882.471304
4131.287992,76.609550,-518.144159,9178.553681
4131.288308,229.828649,-148.041188,9918.759623
4131.288623,-153.219100,444.123565,9770.718434
4131.288938,-612.876398,-222.061783,9844.739029
4131.289254,-995.924147,-518.144159,9474.636058
4131.289569,-536.266849,-740.205942,9474.636058
4131.289884,76.609550,-740.205942,9400.615463
4131.290200,0.000000,-592.164754,9622.677246
4131.290515,-229.828649,-0.000000,9696.697840
4131.290830,536.266849,-74.020594,10140.821405
4131.291145,689.485948,666.185348,9770.718434
4131.291461,0.000000,370.102971,9770.718434
4131.291776,459.657299,-0.000000,9992.780217
4131.292091,536.266849,-0.000000,9474.636058
4131.292407,1149.143247,-222.061783,9104.533087
4131.292722,536.266849,-0.000000,9252.574275
4131.293037,-153.219100,-0.000000,9030.512492
4131.293353,0.000000,-0.000000,9770.718434
4131.293668,0.000000,370.102971,9844.739029
4131.293983,0.000000,-370.102971,9770.718434
4131.294299,-536.266849,-740.205942,9622.677246
4131.294614,-306.438199,-1036.288319,9696.697840
4131.294929,0.000000,-592.164754,9400.615463
4131.295244,0.000000,-222.061783,9474.636058
4131.295560,0.000000,370.102971,9844.739029
4131.295875,919.314598,962.267725,9474.636058
4131.296190,612.876398,1184.329507,9326.594869
4131.296506,766.095498,1036.288319,9474.636058
4131.296821,536.266849,444.123565,9400.615463
4131.297136,536.266849,-0.000000,9252.574275
4131.297452,689.485948,222.061783,8882.471304
4131.297767,229.828649,444.123565,8512.368333
4131.298082,-459.657299,370.102971,9400.615463
4131.298398,-229.828649,518.144159,9400.615463
4131.298713,0.000000,296.082377,9622.677246
4131.299028,-383.047749,-0.000000,10288.862594
4131.299343,-612.876398,222.061783,9992.780217
4131.299659,-229.828649,-0.000000,10140.821405
4131.299974,0.000000,222.061783,9252.574275
4131.300289,383.047749,740.205942,8882.471304
4131.300605,612.876398,1110.308913,9474.636058
4131.300920,229.828649,1258.350101,9992.780217
4131.301235,536.266849,1628.453072,10584.944971
4131.301551,76.609550,1258.350101,10214.842000
4131.301866,383.047749,1036.288319,10066.800811
4131.302181,153.219100,444.123565,9548.656652
4131.302497,306.438199,444.123565,9474.636058
4131.302812,0.000000,518.144159,9918.759623
4131.303127,-229.828649,-0.000000,9696.697840
4131.303442,0.000000,-0.000000,9992.780217
4131.303758,-383.047749,-0.000000,10288.862594
4131.304073,-459.657299,-74.020594,10140.821405
4131.304388,-306.438199,-222.061783,10066.800811
4131.304704,76.609550,-518.144159,9918.759623
4131.305019,306.438199,-148.041188,9548.656652
4131.305334,459.657299,222.061783,8956.491898
4131.305650,459.657299,518.144159,9178.553681
4131.305965,842.705048,1036.288319,9770.718434
4131.306280,612.876398,1406.391290,9622.677246
4131.306596,612.876398,740.205942,10140.821405
4131.306911,153.219100,444.123565,9622.677246
4131.307227,229.828649,-222.061783,9844.739029
4131.307542,229.828649,-592.164754,9474.636058
4131.307857,0.000000,-148.041188,9918.759623
4131.308173,-229.828649,-370.102971,9400.615463
4131.308488,-306.438199,-370.102971,9696.697840
4131.308803,-383.047749,148.041188,9770.718434
4131.309119,-76.609550,-444.123565,9918.759623
4131.309434,153.219100,-296.082377,9178.553681
4131.309749,0.000000,-740.205942,9104.533087
4131.310065,153.219100,-370.102971,9104.533087
4131.310380,459.657299,-0.000000,8956.491898
4131.310695,383.047749,666.185348,8808.450710
4131.311011,766.095498,444.123565,8734.430116
4131.311326,766.095498,888.247130,9400.615463
4131.311641,229.828649,518.144159,9622.677246
4131.311957,-306.438199,-0.000000,9474.636058
4131.312272,-153.219100,-1036.288319,9474.636058
4131.312588,-229.828649,-666.185348,9474.636058
4131.312903,-153.219100,-592.164754,9400.615463
4131.313218,-536.266849,-74.020594,9326.594869
4131.313534,-306.438199,-0.000000,10140.821405
4131.313849,-536.266849,888.247130,10214.842000
4131.314164,-153.219100,-0.000000,9622.677246
4131.314480,0.000000,-0.000000,9696.697840
4131.314795,0.000000,-222.061783,9474.636058
4131.315110,689.485948,-222.061783,9178.553681
4131.315426,306.438199,-444.123565,9400.615463
4131.315741,153.219100,-0.000000,9178.553681
4131.316056,919.314598,222.061783,9400.615463
4131.316372,383.047749,814.226536,9844.739029
4131.316687,459.657299,444.123565,9918.759623
4131.317003,306.438199,222.061783,9770.718434
4131.317318,383.047749,-370.102971,9548.656652
4131.317633,689.485948,-518.144159,9400.615463
4131.317949,76.609550,-148.041188,9400.615463
4131.318264,0.000000,-148.041188,9696.697840
4131.318579,383.047749,-0.000000,10066.800811
4131.318895,229.828649,222.061783,10066.800811
4131.319210,0.000000,148.041188,10066.800811
4131.319525,0.000000,-0.000000,10140.821405
4131.319841,0.000000,-0.000000,9474.636058
4131.320156,612.876398,-0.000000,9400.615463
4131.320471,536.266849,518.144159,9252.574275
4131.320787,0.000000,814.226536,9548.656652
4131.321102,689.485948,222.061783,10288.862594
4131.321418,306.438199,1184.329507,9844.739029
4131.321733,0.000000,740.205942,9844.739029
4131.322048,-383.047749,222.061783,10066.800811
4131.322364,-383.047749,-370.102971,10140.821405
4131.322679,76.609550,-296.082377,9548.656652
4131.322994,-536.266849,-0.000000,9548.656652
4131.323310,-612.876398,518.144159,9326.594869
4131.323625,-229.828649,518.144159,9474.636058
4131.323940,0.000000,1184.329507,9104.533087
4131.324256,-459.657299,148.041188,10510.924376
4131.324571,-459.657299,296.082377,9622.677246
4131.324886,0.000000,-0.000000,9474.636058
4131.325202,612.876398,-0.000000,9326.594869
4131.325517,229.828649,222.061783,8882.471304
4131.325832,153.219100,518.144159,9548.656652
4131.326148,306.438199,370.102971,9252.574275
4131.326463,0.000000,296.082377,9696.697840
4131.326779,153.219100,518.144159,9696.697840
4131.327094,-536.266849,296.082377,9622.677246
4131.327409,-153.219100,-370.102971,9548.656652
4131.327725,0.000000,-222.061783,9178.553681
4131.328040,76.609550,-296.082377,9178.553681
4131.328355,0.000000,-0.000000,9252.574275
4131.328671,612.876398,222.061783,9474.636058
4131.328986,766.095498,962.267725,9622.677246
4131.329301,536.266849,814.226536,9474.636058
4131.329617,306.438199,666.185348,9696.697840
4131.329932,306.438199,-148.041188,9252.574275
4131.330247,536.266849,-74.020594,9178.553681
4131.330563,459.657299,-0.000000,9326.594869
4131.330878,76.609550,296.082377,9104.533087
4131.331194,459.657299,444.123565,9844.739029
4131.331509,459.657299,592.164754,9992.780217
4131.331824,229.828649,-370.102971,10807.006753
4131.332140,76.609550,-592.164754,10288.862594
4131.332455,153.219100,-740.205942,9696.697840
4131.332770,612.876398,-0.000000,9400.615463
4131.333086,459.657299,296.082377,9178.553681
4131.333401,459.657299,518.144159,9326.594869
4131.333716,306.438199,444.123565,9696.697840
4131.334032,612.876398,666.185348,9474.636058
4131.334347,76.609550,444.123565,9844.739029
4131.334662,-229.828649,370.102971,9918.759623
4131.334978,76.609550,-222.061783,9844.739029
4131.335293,0.000000,-592.164754,9696.697840
4131.335609,-612.876398,-518.144159,9548.656652
4131.335924,-459.657299,-444.123565,9918.759623
4131.336239,0.000000,296.082377,9770.718434
4131.336555,76.609550,740.205942,9918.759623
4131.336870,76.609550,518.144159,9622.677246
4131.337185,0.000000,-0.000000,9548.656652
4131.337501,229.828649,-74.020594,9400.615463
4131.337816,383.047749,-222.061783,9252.574275
4131.338131,76.609550,148.041188,9252.574275
4131.338447,0.000000,444.123565,8808.450710
4131.338762,153.219100,444.123565,9326.594869
4131.339077,76.609550,740.205942,9770.718434
4131.339393,0.000000,148.041188,9918.759623
4131.339708,0.000000,-296.082377,9400.615463
4131.340023,0.000000,-370.102971,9474.636058
4131.340339,76.609550,-592.164754,9474.636058
4131.340654,0.000000,-370.102971,9474.636058
4131.340970,0.000000,-0.000000,9252.574275
4131.341285,459.657299,-0.000000,9696.697840
4131.341600,459.657299,888.247130,9474.636058
4131.341916,383.047749,-0.000000,10140.821405
4131.342231,459.657299,370.102971,9622.677246
4131.342546,229.828649,-0.000000,9548.656652
4131.342862,536.266849,-74.020594,9326.594869
4131.343177,306.438199,-0.000000,9474.636058
4131.343492,0.000000,-296.082377,9400.615463
4131.343808,76.609550,-74.020594,9918.759623
4131.344123,0.000000,-0.000000,9992.780217
4131.344438,-306.438199,-0.000000,9992.780217
4131.344754,-306.438199,-0.000000,9992.780217
4131.345069,-612.876398,-0.000000,9918.759623
4131.345385,-459.657299,-370.102971,9696.697840
4131.345700,-612.876398,-518.144159,9474.636058
4131.346015,-383.047749,-74.020594,9622.677246
4131.346331,0.000000,-0.000000,9696.697840
4131.346646,153.219100,370.102971,9992.780217
4131.346961,0.000000,222.061783,9992.780217
4131.347277,-383.047749,-148.041188,9844.739029
4131.347592,-383.047749,-370.102971,9770.718434
4131.347907,153.219100,-296.082377,9030.512492
4131.348223,229.828649,-148.041188,8808.450710
4131.348538,76.609550,370.102971,8734.430116
4131.348853,229.828649,666.185348,9400.615463
4131.349169,153.219100,1036.288319,9400.615463
4131.349484,0.000000,740.205942,9474.636058
4131.349800,-229.828649,296.082377,9474.636058
4131.350115,-229.828649,148.041188,9548.656652
4131.350430,76.609550,-74.020594,8956.491898
4131.350746,153.219100,592.164754,9400.615463
4131.351061,-229.828649,370.102971,9696.697840
4131.351376,0.000000,592.164754,9992.780217
4131.351692,0.000000,962.267725,9696.697840
4131.352007,-153.219100,592.164754,9770.718434
4131.352322,-229.828649,296.082377,10214.842000
4131.352638,153.219100,444.123565,10140.821405
4131.352953,459.657299,222.061783,9326.594869
4131.353268,383.047749,444.123565,9326.594869
4131.353584,306.438199,740.205942,9030.512492
4131.353899,766.095498,518.144159,9400.615463
4131.354214,1302.362347,444.123565,9548.656652
4131.354530,459.657299,444.123565,10214.842000
4131.354845,229.828649,-0.000000,9474.636058
4131.355161,0.000000,-222.061783,9548.656652
4131.355476,383.047749,-296.082377,9548.656652
4131.355791,306.438199,-74.020594,9548.656652
4131.356107,0.000000,-0.000000,9696.697840
4131.356422,0.000000,-148.041188,10288.862594
4131.356737,0.000000,296.082377,10214.842000
4131.357053,0.000000,222.061783,10510.924376
4131.357368,459.657299,518.144159,10362.883188
4131.357683,229.828649,-0.000000,9918.759623
4131.357999,766.095498,-222.061783,9474.636058
4131.358314,383.047749,-0.000000,9474.636058
4131.358629,459.657299,148.041188,9474.636058
4131.358945,919.314598,518.144159,9696.697840
4131.359260,459.657299,888.247130,9696.697840
4131.359576,76.609550,592.164754,9992.780217
4131.359891,-229.828649,370.102971,9548.656652
4131.360206,-306.438199,-518.144159,9548.656652
4131.360522,-306.438199,-518.144159,9400.615463
4131.360837,0.000000,-518.144159,8956.491898
4131.361152,-383.047749,-0.000000,9326.594869
4131.361468,0.000000,-74.020594,9474.636058
4131.361783,0.000000,296.082377,9548.656652
4131.362098,0.000000,370.102971,9992.780217
4131.362414,-459.657299,444.123565,9696.697840
4131.362729,0.000000,-0.000000,9326.594869
4131.363044,919.314598,-0.000000,8734.430116
4131.363360,459.657299,-0.000000,8808.450710
4131.363675,229.828649,592.164754,8956.491898
4131.363991,689.485948,518.144159,9474.636058
4131.364306,536.266849,518.144159,9326.594869
4131.364621,229.828649,222.061783,9770.718434
4131.364937,-229.828649,-296.082377,9770.718434
4131.365252,-306.438199,-888.247130,9992.780217
4131.365567,0.000000,-1184.329507,9844.739029
4131.365883,-459.657299,-666.185348,9400.615463
4131.366198,-306.438199,-592.164754,9474.636058
4131.366513,153.219100,-74.020594,9474.636058
4131.366829,995.924147,518.144159,10214.842000
4131.367144,612.876398,-0.000000,9918.759623
4131.367459,459.657299,-0.000000,9770.718434
4131.367775,383.047749,296.082377,9474.636058
4131.368090,612.876398,-370.102971,9252.574275
4131.368405,306.438199,-74.020594,9474.636058
4131.368721,153.219100,-0.000000,9252.574275
4131.369036,76.609550,-148.041188,9696.697840
4131.369352,229.828649,-74.020594,9844.739029
4131.369667,-383.047749,-296.082377,10510.924376
4131.369982,-1149.143247,-0.000000,9992.780217
4131.370298,-689.485948,-444.123565,9696.697840
4131.370613,-229.828649,-518.144159,9326.594869
4131.370928,-536.266849,-592.164754,9400.615463
4131.371244,0.000000,-370.102971,9252.574275
4131.371559,0.000000,296.082377,9844.739029
4131.371874,-153.219100,962.267725,9548.656652
4131.372190,153.219100,888.247130,9474.636058
4131.372505,76.609550,666.185348,9252.574275
4131.372820,306.438199,-0.000000,9992.780217
4131.373136,459.657299,-0.000000,9252.574275
4131.373451,76.609550,-0.000000,8882.471304
4131.373767,0.000000,518.144159,9178.553681
4131.374082,306.438199,592.164754,9548.656652
4131.374397,229.828649,1036.288319,9474.636058
4131.374713,0.000000,296.082377,10066.800811
4131.375028,-229.828649,-0.000000,10066.800811
4131.375343,-383.047749,-296.082377,9770.718434
4131.375659,0.000000,222.061783,9474.636058
4131.375974,-229.828649,-0.000000,9474.636058
4131.376289,0.000000,962.267725,9622.677246
4131.376605,459.657299,1036.288319,9548.656652
4131.376920,689.485948,1480.411884,9400.615463
4131.377235,536.266849,1110.308913,9548.656652
4131.377551,76.609550,1184.329507,9696.697840
4131.377866,229.828649,592.164754,9474.636058
4131.378182,459.657299,370.102971,9326.594869
4131.378497,153.219100,222.061783,9474.636058
4131.378812,229.828649,518.144159,9992.780217
4131.379128,-153.219100,-0.000000,10584.944971
4131.379443,0.000000,666.185348,10066.800811
4131.379758,-306.438199,296.082377,10362.883188
4131.380074,-536.266849,-0.000000,10214.842000
4131.380389,-306.438199,-0.000000,10362.883188
4131.380704,153.219100,-0.000000,9844.739029
4131.381020,766.095498,-0.000000,9252.574275
4131.381335,689.485948,444.123565,9104.533087
4131.381650,842.705048,1036.288319,9252.574275
4131.381966,1225.752797,1628.453072,9474.636058
4131.382281,1225.752797,814.226536,9252.574275
4131.382596,383.047749,222.061783,9474.636058
4131.382912,536.266849,-74.020594,9548.656652
4131.383227,536.266849,-962.267725,9326.594869
4131.383543,0.000000,-740.205942,9918.759623
4131.383858,-459.657299,-148.041188,9918.759623
4131.384173,-766.095498,-0.000000,9696.697840
4131.384489,-306.438199,222.061783,10658.965565
4131.384804,153.219100,-0.000000,10288.862594
4131.385119,306.438199,-370.102971,10436.903782
4131.385435,76.609550,222.061783,9474.636058
4131.385750,76.609550,-148.041188,9030.512492
4131.386065,306.438199,592.164754,8882.471304
4131.386381,383.047749,518.144159,9104.533087
4131.386696,536.266849,962.267725,9474.636058
4131.387011,229.828649,740.205942,9252.574275
4131.387327,153.219100,518.144159,9326.594869
4131.387642,-306.438199,-0.000000,9548.656652
4131.387958,0.000000,-666.185348,9326.594869
4131.388273,-536.266849,-962.267725,9474.636058
4131.388588,-689.485948,-814.226536,9400.615463
4131.388904,-766.095498,-444.123565,9622.677246
4131.389219,-383.047749,-148.041188,9696.697840
4131.389534,459.657299,-0.000000,9696.697840
4131.389850,0.000000,296.082377,10066.800811
4131.390165,-306.438199,-0.000000,9844.739029
4131.390480,-153.219100,-296.082377,9548.656652
4131.390796,842.705048,-518.144159,8956.491898
4131.391111,612.876398,-74.020594,9622.677246
4131.391426,306.438199,296.082377,9326.594869
4131.391742,383.047749,-0.000000,9474.636058
4131.392057,842.705048,518.144159,9400.615463
4131.392373,612.876398,-0.000000,9474.636058
4131.392688,-229.828649,-148.041188,9844.739029
4131.393003,-383.047749,-444.123565,9622.677246
4131.393319,0.000000,-1184.329507,9474.636058
4131.393634,0.000000,-1406.391290,9918.759623
4131.393949,-536.266849,-1258.350101,9474.636058
4131.394265,0.000000,-962.267725,9992.780217
4131.394580,383.047749,-0.000000,10140.821405
4131.394895,612.876398,444.123565,9844.739029
4131.395211,689.485948,814.226536,9326.594869
4131.395526,842.705048,444.123565,9252.574275
4131.395841,1072.533697,370.102971,8956.491898
4131.396157,919.314598,222.061783,8882.471304
4131.396472,612.876398,740.205942,8660.409521
4131.396788,459.657299,518.144159,9696.697840
4131.397103,306.438199,666.185348,9918.759623
4131.397418,-306.438199,740.205942,10214.842000
4131.397734,-612.876398,-0.000000,10140.821405
4131.398049,-766.095498,-518.144159,9770.718434
4131.398364,-153.219100,-666.185348,9622.677246
4131.398680,0.000000,-444.123565,9622.677246
4131.398995,-383.047749,-0.000000,9474.636058
4131.399310,0.000000,592.164754,9326.594869
4131.399626,153.219100,1184.329507,9326.594869
4131.399941,306.438199,1406.391290,9770.718434
4131.400256,-153.219100,962.267725,9474.636058
4131.400572,76.609550,592.164754,9548.656652
4131.400887,0.000000,296.082377,9696.697840
4131.401202,0.000000,444.123565,9474.636058
4131.401518,-459.657299,592.164754,9474.636058
4131.401833,-459.657299,814.226536,10140.821405
4131.402149,-459.657299,1110.308913,10362.883188
4131.402464,0.000000,814.226536,10140.821405
4131.402779,-536.266849,888.247130,10066.800811
4131.403094,-306.438199,-74.020594,9918.759623
4131.403410,-306.438199,-222.061783,9474.636058
4131.403725,-306.438199,-0.000000,9622.677246
4131.404040,-306.438199,814.226536,9622.677246
4131.404356,76.609550,666.185348,9474.636058
4131.404671,842.705048,962.267725,9844.739029
4131.404986,842.705048,1036.288319,9696.697840
4131.405302,306.438199,962.267725,9548.656652
4131.405617,306.438199,296.082377,9622.677246
4131.405933,689.485948,-0.000000,9400.615463
4131.406248,766.095498,-74.020594,9030.512492
4131.406563,153.219100,370.102971,9252.574275
4131.406879,306.438199,-0.000000,10140.821405
4131.407194,229.828649,666.185348,9918.759623
4131.407509,306.438199,592.164754,10510.924376
4131.407825,0.000000,370.102971,9696.697840
4131.408140,0.000000,222.061783,10214.842000
4131.408455,536.266849,-222.061783,9178.553681
4131.408771,536.266849,-814.226536,9622.677246
4131.409086,0.000000,-0.000000,9548.656652
4131.409402,76.609550,296.082377,9622.677246
4131.409717,459.657299,814.226536,9696.697840
4131.410032,153.219100,814.226536,9474.636058
4131.410348,229.828649,-0.000000,9696.697840
4131.410663,306.438199,-370.102971,9474.636058
4131.410978,383.047749,-962.267725,9178.553681
4131.411294,0.000000,-740.205942,9548.656652
4131.411609,0.000000,-0.000000,9252.574275
4131.411925,0.000000,-0.000000,9252.574275
4131.412240,459.657299,-0.000000,9400.615463
4131.412555,153.219100,222.061783,9622.677246
4131.412871,0.000000,-148.041188,9770.718434
4131.413186,76.609550,-370.102971,9548.656652
4131.413501,229.828649,-592.164754,9178.553681
4131.413817,0.000000,-962.267725,8956.491898
4131.414132,0.000000,-518.144159,9030.512492
4131.414448,153.219100,-0.000000,9622.677246
4131.414763,689.485948,518.144159,9474.636058
4131.415078,229.828649,296.082377,9622.677246
4131.415394,76.609550,296.082377,9696.697840
4131.415709,229.828649,-222.061783,9326.594869
4131.416024,306.438199,-370.102971,9252.574275
4131.416340,153.219100,-592.164754,9252.574275
4131.416655,0.000000,-148.041188,9474.636058
4131.416970,153.219100,-74.020594,9992.780217
4131.417286,536.266849,-0.000000,10510.924376
4131.417601,306.438199,592.164754,10140.821405
4131.417917,306.438199,296.082377,9844.739029
4131.418232,383.047749,-222.061783,9474.636058
4131.418547,612.876398,-444.123565,9400.615463
4131.418863,536.266849,-370.102971,9030.512492
4131.419178,0.000000,-296.082377,9326.594869
4131.419493,0.000000,-0.000000,9548.656652
4131.419809,153.219100,-0.000000,10066.800811
4131.420124,153.219100,296.082377,9992.780217
4131.420440,-229.828649,-0.000000,10362.883188
4131.420755,-459.657299,-0.000000,9696.697840
4131.421070,-383.047749,-444.123565,9770.718434
4131.421386,-153.219100,-296.082377,9474.636058
4131.421701,-383.047749,-74.020594,9474.636058
4131.422016,0.000000,-296.082377,9770.718434
4131.422332,0.000000,518.144159,10362.883188
4131.422647,0.000000,740.205942,9770.718434
4131.422962,153.219100,296.082377,9770.718434
4131.423278,0.000000,592.164754,8956.491898
4131.423593,536.266849,-148.041188,9696.697840
4131.423909,0.000000,-74.020594,9104.533087
4131.424224,-383.047749,370.102971,9030.512492
4131.424539,-536.266849,370.102971,9400.615463
4131.424855,-153.219100,-0.000000,9696.697840
4131.425170,-229.828649,370.102971,9992.780217
4131.425485,-766.095498,-0.000000,9696.697840
4131.425801,-536.266849,-148.041188,9474.636058
4131.426116,76.609550,-296.082377,9178.553681
4131.426432,153.219100,-0.000000,9030.512492
4131.426747,-459.657299,370.102971,9252.574275
4131.427062,-153.219100,1036.288319,9252.574275
4131.427378,612.876398,1480.411884,9178.553681
4131.427693,306.438199,1628.453072,9400.615463
4131.428008,76.609550,1036.288319,9622.677246
4131.428324,76.609550,962.267725,9326.594869
4131.428639,229.828649,370.102971,9104.533087
4131.428954,153.219100,296.082377,9252.574275
4131.429270,-153.219100,740.205942,9252.574275
4131.429585,76.609550,-0.000000,10214.842000
4131.429901,229.828649,370.102971,9696.697840
4131.430216,306.438199,666.185348,9992.780217
4131.430531,-229.828649,444.123565,10288.862594
4131.430847,76.609550,592.164754,9474.636058
4131.431162,459.657299,222.061783,9770.718434
4131.431477,919.314598,-0.000000,9400.615463
4131.431793,306.438199,370.102971,9030.512492
4131.432108,1149.143247,740.205942,9548.656652
4131.432424,766.095498,740.205942,10140.821405
4131.432739,1149.143247,888.247130,10214.842000
4131.433054,766.095498,518.144159,10658.965565
4131.433370,1072.533697,-0.000000,9696.697840
4131.433685,919.314598,-370.102971,9474.636058
4131.434000,995.924147,-222.061783,9104.533087
4131.434316,153.219100,-74.020594,10140.821405
4131.434631,0.000000,-148.041188,10510.924376
4131.434947,306.438199,296.082377,10066.800811
4131.435262,229.828649,222.061783,10066.800811
4131.435577,0.000000,-0.000000,9918.759623
4131.435893,383.047749,-296.082377,9696.697840
4131.436208,612.876398,-666.185348,9400.615463
4131.436523,153.219100,-740.205942,9548.656652
4131.436839,-153.219100,-222.061783,9104.533087
4131.437154,-306.438199,-74.020594,9474.636058
4131.437469,0.000000,-0.000000,9918.759623
4131.437785,-306.438199,-0.000000,10214.842000
4131.438100,0.000000,-0.000000,9696.697840
4131.438416,0.000000,-370.102971,9548.656652
4131.438731,459.657299,-592.164754,9178.553681
4131.439046,0.000000,-518.144159,8956.491898
4131.439362,153.219100,-74.020594,8956.491898
4131.439677,-229.828649,-0.000000,8956.491898
4131.439992,0.000000,518.144159,9252.574275
4131.440308,229.828649,296.082377,9696.697840
4131.440623,-383.047749,-0.000000,9548.656652
4131.440939,-536.266849,-592.164754,9474.636058
4131.441254,-76.609550,-1036.288319,9326.594869
4131.441569,0.000000,-666.185348,9474.636058
4131.441885,-383.047749,-296.082377,9178.553681
4131.442200,-459.657299,148.041188,9622.677246
4131.442515,-153.219100,444.123565,9696.697840
4131.442831,76.609550,444.123565,9770.718434
4131.443146,383.047749,-0.000000,9400.615463
4131.443461,153.219100,-74.020594,9252.574275
4131.443777,153.219100,-444.123565,8956.491898
4131.444092,612.876398,-296.082377,8956.491898
4131.444408,76.609550,-0.000000,9104.533087
4131.444723,76.609550,-0.000000,9474.636058
4131.445038,0.000000,-148.041188,9844.739029
4131.445354,-612.876398,-222.061783,10362.883188
4131.445669,-306.438199,-222.061783,10066.800811
4131.445984,-459.657299,-296.082377,9548.656652
4131.446300,76.609550,-740.205942,9474.636058
4131.446615,0.000000,-444.123565,9474.636058
4131.446931,-229.828649,-0.000000,9474.636058
4131.447246,-153.219100,-370.102971,9918.759623
4131.447561,689.485948,518.144159,9992.780217
4131.447877,229.828649,1036.288319,9992.780217
4131.448192,0.000000,444.123565,9770.718434
4131.448507,229.828649,370.102971,9770.718434
4131.448823,459.657299,-0.000000,9622.677246
4131.449138,612.876398,-0.000000,9622.677246
4131.449453,306.438199,296.082377,9030.512492
4131.449769,76.609550,666.185348,9622.677246
4131.450084,76.609550,740.205942,9918.759623
4131.450400,-229.828649,592.164754,10140.821405
4131.450715,-459.657299,370.102971,10436.903782
4131.451030,-306.438199,-0.000000,9918.759623
4131.451346,-383.047749,-0.000000,9474.636058
4131.451661,0.000000,-0.000000,9548.656652
4131.451976,0.000000,666.185348,9252.574275
4131.452292,0.000000,888.247130,9548.656652
4131.452607,76.609550,1036.288319,9918.759623
4131.452923,0.000000,1776.494261,10288.862594
4131.453238,306.438199,1480.411884,9918.759623
4131.453553,306.438199,888.247130,9474.636058
4131.453869,459.657299,222.061783,9252.574275
4131.454184,536.266849,370.102971,9178.553681
4131.454499,0.000000,518.144159,9104.533087
4131.454815,306.438199,518.144159,9474.636058
4131.455130,919.314598,962.267725,9474.636058
4131.455446,0.000000,740.205942,9548.656652
4131.455761,-229.828649,222.061783,9696.697840
4131.456076,-306.438199,-370.102971,10066.800811
4131.456392,229.828649,-296.082377,9326.594869
4131.456707,459.657299,-222.061783,9252.574275
4131.457022,383.047749,222.061783,9178.553681
4131.457338,383.047749,518.144159,9622.677246
4131.457653,842.705048,814.226536,9844.739029
4131.457968,766.095498,888.247130,9622.677246
4131.458284,536.266849,518.144159,9770.718434
4131.458599,536.266849,296.082377,9474.636058
4131.458915,689.485948,-148.041188,9178.553681
4131.459230,459.657299,-296.082377,9030.512492
4131.459545,153.219100,-222.061783,9400.615463
4131.459861,153.219100,-370.102971,9696.697840
4131.460176,229.828649,-0.000000,9992.780217
4131.460491,-612.876398,-0.000000,10066.800811
4131.460807,-612.876398,-74.020594,10214.842000
4131.461122,-536.266849,-740.205942,9918.759623
4131.461438,-306.438199,-1258.350101,9474.636058
4131.461753,0.000000,-740.205942,9696.697840
4131.462068,-536.266849,-0.000000,9474.636058
4131.462384,76.609550,444.123565,9622.677246
4131.462699,306.438199,1184.329507,9770.718434
4131.463014,306.438199,740.205942,9918.759623
4131.463330,0.000000,370.102971,9770.718434
4131.463645,76.609550,518.144159,9622.677246
4131.463960,306.438199,-296.082377,9548.656652
4131.464276,306.438199,-592.164754,9104.533087
4131.464591,0.000000,-0.000000,8882.471304
4131.464907,-383.047749,-592.164754,9474.636058
4131.465222,-459.657299,-222.061783,9696.697840
4131.465537,-229.828649,-74.020594,9622.677246
4131.465853,0.000000,-888.247130,9622.677246
4131.466168,0.000000,-666.185348,9474.636058
4131.466483,0.000000,-740.205942,9104.533087
4131.466799,229.828649,-666.185348,9104.533087
4131.467114,306.438199,-0.000000,8956.491898
4131.467430,536.266849,444.123565,9178.553681
4131.467745,1532.190996,814.226536,9326.594869
4131.468060,919.314598,666.185348,9622.677246
4131.468376,459.657299,-0.000000,9918.759623
4131.468691,76.609550,-444.123565,9992.780217
4131.469006,383.047749,-666.185348,9548.656652
4131.469322,306.438199,-888.247130,9474.636058
4131.469637,0.000000,-666.185348,9548.656652
4131.469952,0.000000,-444.123565,9548.656652
4131.470268,229.828649,-0.000000,9918.759623
4131.470583,229.828649,-370.102971,9844.739029
4131.470899,76.609550,-74.020594,9770.718434
4131.471214,76.609550,-0.000000,9696.697840
4131.471529,536.266849,-0.000000,9178.553681
4131.471845,1302.362347,-74.020594,8808.450710
4131.472160,383.047749,296.082377,9104.533087
4131.472475,306.438199,-0.000000,9696.697840
4131.472791,229.828649,666.185348,9770.718434
4131.473106,0.000000,296.082377,10140.821405
4131.473422,-229.828649,296.082377,10436.903782
4131.473737,76.609550,444.123565,9918.759623
4131.474052,76.609550,-0.000000,9474.636058
4131.474368,76.609550,-148.041188,9400.615463
4131.474683,-306.438199,-0.000000,9844.739029
4131.474998,76.609550,518.144159,9326.594869
4131.475314,153.219100,1036.288319,9474.636058
4131.475629,0.000000,1554.432478,9252.574275
4131.475945,0.000000,518.144159,9474.636058
4131.476260,0.000000,370.102971,9104.533087
4131.476575,0.000000,-74.020594,8808.450710
4131.476891,0.000000,-370.102971,9104.533087
4131.477206,-536.266849,148.041188,9104.533087
4131.477521,-612.876398,592.164754,9696.697840
4131.477837,-383.047749,740.205942,9770.718434
4131.478152,153.219100,1110.308913,10362.883188
4131.478467,-229.828649,962.267725,10066.800811
4131.478783,-459.657299,888.247130,10140.821405
4131.479098,153.219100,444.123565,9918.759623
4131.479414,229.828649,666.185348,9474.636058
4131.479729,153.219100,962.267725,9548.656652
4131.480044,306.438199,1036.288319,9844.739029
4131.480360,766.095498,962.267725,9474.636058
4131.480675,459.657299,1480.411884,9918.759623
4131.480990,76.609550,888.247130,9400.615463
4131.481306,153.219100,666.185348,9474.636058
4131.481621,229.828649,-0.000000,9474.636058
4131.481937,229.828649,-0.000000,9918.759623
4131.482252,0.000000,-222.061783,10288.862594
4131.482567,229.828649,-74.020594,9992.780217
4131.482883,153.219100,-296.082377,9844.739029
4131.483198,229.828649,444.123565,10807.006753
4131.483513,0.000000,888.247130,10732.986159
4131.483829,153.219100,666.185348,10066.800811
4131.484144,842.705048,370.102971,9474.636058
4131.484459,1225.752797,-0.000000,9474.636058
4131.484775,842.705048,888.247130,9622.677246
4131.485090,612.876398,592.164754,9622.677246
4131.485406,383.047749,814.226536,9844.739029
4131.485721,306.438199,592.164754,9400.615463
4131.486036,612.876398,-296.082377,9844.739029
4131.486352,-766.095498,-518.144159,9770.718434
4131.486667,153.219100,-1258.350101,9474.636058
4131.486982,0.000000,-962.267725,9252.574275
4131.487298,-383.047749,-740.205942,9326.594869
4131.487613,0.000000,-296.082377,9474.636058
4131.487929,0.000000,-0.000000,9400.615463
4131.488244,153.219100,222.061783,9474.636058
4131.488559,153.219100,-370.102971,9622.677246
4131.488875,383.047749,-444.123565,9474.636058
4131.489190,842.705048,-740.205942,9252.574275
4131.489505,536.266849,-444.123565,9178.553681
4131.489821,459.657299,-0.000000,9326.594869
4131.490136,229.828649,-148.041188,8882.471304
4131.490451,1072.533697,222.061783,9030.512492
4131.490767,229.828649,-0.000000,9770.718434
4131.491082,-229.828649,-444.123565,9918.759623
4131.491398,-229.828649,-962.267725,9400.615463
4131.491713,-229.828649,-1702.473667,9326.594869
4131.492028,0.000000,-1406.391290,9030.512492
4131.492344,0.000000,-1036.288319,9400.615463
4131.492659,-76.609550,-518.144159,9622.677246
4131.492974,153.219100,-148.041188,10066.800811
4131.493290,459.657299,222.061783,9770.718434
4131.493605,153.219100,222.061783,9474.636058
4131.493921,689.485948,-0.000000,9696.697840
4131.494236,842.705048,-0.000000,9770.718434
4131.494551,995.924147,-296.082377,9178.553681
4131.494867,459.657299,-148.041188,9030.512492
4131.495182,536.266849,518.144159,9474.636058
4131.495497,689.485948,370.102971,9696.697840
4131.495813,0.000000,296.082377,10140.821405
4131.496128,-459.657299,-0.000000,10362.883188
4131.496444,-766.095498,-148.041188,9770.718434
4131.496759,-766.095498,-962.267725,9548.656652
4131.497074,-689.485948,-1110.308913,9622.677246
4131.497390,-1072.533697,-296.082377,9548.656652
4131.497705,-919.314598,-0.000000,9696.697840
4131.498020,-536.266849,-0.000000,10214.842000
4131.498336,0.000000,740.205942,10140.821405
4131.498651,-229.828649,444.123565,9622.677246
4131.498966,0.000000,1036.288319,9474.636058
4131.499282,0.000000,740.205942,9252.574275
4131.499597,229.828649,444.123565,9104.533087
4131.499913,0.000000,814.226536,9104.533087
4131.500228,-536.266849,518.144159,9474.636058
4131.500543,-153.219100,814.226536,9474.636058
4131.500859,-459.657299,740.205942,9770.718434
4131.501174,-766.095498,296.082377,10140.821405
4131.501489,-612.876398,-148.041188,10658.965565
4131.501805,-306.438199,-518.144159,9844.739029
4131.502120,-229.828649,-222.061783,9400.615463
4131.502436,0.000000,518.144159,9622.677246
4131.502751,229.828649,962.267725,9252.574275
4131.503066,842.705048,1850.514855,9918.759623
4131.503382,995.924147,1850.514855,9474.636058
4131.503697,1072.533697,1184.329507,9696.697840
4131.504012,689.485948,1258.350101,9252.574275
4131.504328,1149.143247,518.144159,9104.533087
4131.504643,1149.143247,518.144159,9252.574275
4131.504958,459.657299,814.226536,9474.636058
4131.505274,306.438199,962.267725,9770.718434
4131.505589,76.609550,962.267725,9548.656652
4131.505904,153.219100,1036.288319,9918.759623
4131.506220,0.000000,-0.000000,10288.862594
4131.506535,-459.657299,222.061783,10140.821405
4131.506851,-459.657299,-0.000000,9918.759623
4131.507166,0.000000,-0.000000,9622.677246
4131.507481,229.828649,592.164754,9918.759623
4131.507797,0.000000,814.226536,9696.697840
4131.508112,689.485948,1036.288319,9622.677246
4131.508427,536.266849,1480.411884,9548.656652
4131.508743,383.047749,814.226536,9918.759623
4131.509058,459.657299,592.164754,9770.718434
4131.509373,383.047749,222.061783,9326.594869
4131.509689,383.047749,-0.000000,8438.347739
4131.510004,0.000000,-0.000000,9178.553681
4131.510319,-612.876398,-0.000000,9474.636058
4131.510635,0.000000,-0.000000,9548.656652
4131.510950,-153.219100,-0.000000,9548.656652
4131.511266,-383.047749,-74.020594,9992.780217
4131.511581,-536.266849,-444.123565,9178.553681
4131.511896,-306.438199,-814.226536,9400.615463
4131.512212,76.609550,-370.102971,9474.636058
4131.512527,-306.438199,-444.123565,9622.677246
4131.512842,0.000000,-0.000000,9326.594869
4131.513158,153.219100,296.082377,9696.697840
4131.513473,612.876398,518.144159,9770.718434
4131.513788,76.609550,-74.020594,10288.862594
4131.514104,0.000000,-222.061783,10288.862594
4131.514419,229.828649,-370.102971,9622.677246
4131.514734,306.438199,-370.102971,9104.533087
4131.515050,153.219100,74.020594,9178.553681
4131.515365,-153.219100,-148.041188,9622.677246
4131.515681,229.828649,-0.000000,9918.759623
4131.515996,0.000000,-0.000000,9918.759623
4131.516311,0.000000,-444.123565,9992.780217
4131.516627,-306.438199,-962.267725,9844.739029
4131.516942,0.000000,-740.205942,9548.656652
4131.517257,229.828649,-666.185348,9696.697840
4131.517573,306.438199,-592.164754,9474.636058
4131.517888,306.438199,-222.061783,9548.656652
4131.518203,536.266849,370.102971,9474.636058
4131.518519,383.047749,444.123565,9474.636058
4131.518834,229.828649,222.061783,9844.739029
4131.519149,153.219100,296.082377,9696.697840
4131.519465,153.219100,-814.226536,8956.491898
4131.519780,612.876398,-1184.329507,9400.615463
4131.520095,0.000000,-814.226536,9400.615463
4131.520411,0.000000,-222.061783,9400.615463
4131.520726,0.000000,148.041188,9696.697840
4131.521042,76.609550,370.102971,9696.697840
4131.521357,76.609550,-222.061783,9696.697840
4131.521672,0.000000,-740.205942,9400.615463
4131.521988,76.609550,-592.164754,9326.594869
4131.522303,0.000000,-592.164754,8956.491898
4131.522618,383.047749,-444.123565,8956.491898
4131.522934,-383.047749,-0.000000,9326.594869
4131.523249,-153.219100,-0.000000,10066.800811
4131.523564,-306.438199,-0.000000,10140.821405
4131.523880,-153.219100,-0.000000,9770.718434
4131.524195,306.438199,-0.000000,9770.718434
4131.524510,383.047749,-148.041188,9622.677246
4131.524826,306.438199,-0.000000,9252.574275
4131.525141,0.000000,148.041188,9326.594869
4131.525457,0.000000,888.247130,9326.594869
4131.525772,459.657299,1036.288319,9400.615463
4131.526087,153.219100,1184.329507,9770.718434
4131.526403,-153.219100,814.226536,9992.780217
4131.526718,-383.047749,666.185348,10066.800811
4131.527033,-306.438199,-0.000000,9474.636058
4131.527349,229.828649,-0.000000,9548.656652
4131.527664,-689.485948,666.185348,9696.697840
4131.527979,-536.266849,962.267725,10436.903782
4131.528295,0.000000,1036.288319,10288.862594
4131.528610,229.828649,1480.411884,10214.842000
4131.528925,153.219100,1184.329507,10362.883188
4131.529241,229.828649,1184.329507,9844.739029
4131.529556,459.657299,592.164754,9696.697840
4131.529872,842.705048,518.144159,9696.697840
4131.530187,536.266849,888.247130,9400.615463
4131.530502,536.266849,1406.391290,9252.574275
4131.530818,842.705048,1480.411884,9844.739029
4131.531133,612.876398,1480.411884,9622.677246
4131.531448,153.219100,740.205942,9622.677246
4131.531764,0.000000,592.164754,9622.677246
4131.532079,383.047749,-0.000000,9622.677246
4131.532394,0.000000,370.102971,9326.594869
4131.532710,0.000000,-0.000000,9548.656652
4131.533025,459.657299,-0.000000,9770.718434
4131.533340,919.314598,592.164754,9252.574275
4131.533656,919.314598,1184.329507,9400.615463
4131.533971,459.657299,518.144159,9770.718434
4131.534287,306.438199,888.247130,9696.697840
4131.534602,459.657299,296.082377,8956.491898
4131.534917,459.657299,222.061783,9326.594869
4131.535233,306.438199,222.061783,9400.615463
4131.535548,76.609550,-74.020594,9696.697840
4131.535863,-229.828649,-0.000000,9992.780217
4131.536179,0.000000,-0.000000,10436.903782
4131.536494,0.000000,-148.041188,10881.027347
4131.536809,153.219100,-0.000000,9992.780217
4131.537125,306.438199,-296.082377,9770.718434
4131.537440,383.047749,-518.144159,9030.512492
4131.537755,229.828649,-74.020594,9104.533087
4131.538071,153.219100,-0.000000,9178.553681
4131.538386,306.438199,444.123565,9178.553681
4131.538701,76.609550,370.102971,9326.594869
4131.539017,0.000000,-296.082377,9992.780217
4131.539332,-612.876398,-148.041188,9918.759623
4131.539648,-306.438199,-1184.329507,9992.780217
4131.539963,-306.438199,-1184.329507,9326.594869
4131.540278,-842.705048,-962.267725,9844.739029
4131.540594,-612.876398,-296.082377,9696.697840
4131.540909,-689.485948,-74.020594,9548.656652
4131.541224,0.000000,-0.000000,9548.656652
4131.541540,0.000000,-0.000000,9844.739029
4131.541855,-536.266849,222.061783,9474.636058
4131.542170,76.609550,-222.061783,8808.450710
4131.542486,76.609550,-74.020594,9252.574275
4131.542801,306.438199,-296.082377,8956.491898
4131.543116,0.000000,-0.000000,9104.533087
4131.543432,0.000000,-222.061783,9400.615463
4131.543747,153.219100,-0.000000,9622.677246
4131.544063,76.609550,-666.185348,9918.759623
4131.544378,-306.438199,-666.185348,9474.636058
4131.544693,383.047749,-1480.411884,9400.615463
4131.545009,229.828649,-962.267725,9104.533087
4131.545324,0.000000,-592.164754,9252.574275
4131.545639,0.000000,-444.123565,9400.615463
4131.545955,842.705048,-0.000000,9918.759623
4131.546270,766.095498,-0.000000,9548.656652
4131.546585,383.047749,-0.000000,10288.862594
4131.546901,229.828649,-0.000000,9696.697840
4131.547216,459.657299,-296.082377,9622.677246
4131.547531,612.876398,-74.020594,9252.574275
4131.547847,383.047749,-0.000000,9400.615463
4131.548162,306.438199,-0.000000,9548.656652
4131.548478,919.314598,-0.000000,9844.739029
4131.548793,612.876398,518.144159,10066.800811
4131.549108,-229.828649,-0.000000,9992.780217
4131.549424,-459.657299,-0.000000,10510.924376
4131.549739,0.000000,-0.000000,9474.636058
4131.550054,459.657299,-148.041188,9400.615463
4131.550370,0.000000,-0.000000,9474.636058
4131.550685,-306.438199,518.144159,9548.656652
4131.551000,0.000000,222.061783,9844.739029
4131.551316,0.000000,962.267725,10140.821405
4131.551631,-383.047749,1036.288319,9770.718434
4131.551946,0.000000,1110.308913,9770.718434
4131.552262,536.266849,814.226536,9474.636058
4131.552577,459.657299,518.144159,9622.677246
4131.552893,612.876398,740.205942,9030.512492
4131.553208,229.828649,1110.308913,8956.491898
4131.553523,229.828649,1258.350101,9400.615463
4131.553839,306.438199,1184.329507,9474.636058
4131.554154,-229.828649,962.267725,9548.656652
4131.554469,-612.876398,-0.000000,9992.780217
4131.554785,-153.219100,-74.020594,9918.759623
4131.555100,0.000000,-148.041188,9104.533087
4131.555415,-229.828649,-74.020594,9474.636058
4131.555731,-383.047749,296.082377,10140.821405
4131.556046,0.000000,1184.329507,10436.903782
4131.556361,766.095498,1628.453072,9474.636058
4131.556677,153.219100,1184.329507,9622.677246
4131.556992,153.219100,888.247130,9548.656652
4131.557307,459.657299,814.226536,9252.574275
4131.557623,612.876398,518.144159,8956.491898
4131.557938,306.438199,740.205942,9326.594869
4131.558254,0.000000,666.185348,9474.636058
4131.558569,0.000000,518.144159,10288.862594
4131.558884,-459.657299,740.205942,10658.965565
4131.559200,-612.876398,-0.000000,10881.027347
4131.559515,-766.095498,-148.041188,9992.780217
4131.559830,0.000000,-0.000000,10140.821405
4131.560146,-153.219100,-222.061783,10140.821405
4131.560461,-153.219100,-0.000000,9400.615463
4131.560776,153.219100,370.102971,9400.615463
4131.561092,536.266849,592.164754,9696.697840
4131.561407,383.047749,962.267725,9622.677246
4131.561722,76.609550,518.144159,9770.718434
4131.562038,0.000000,814.226536,9770.718434
4131.562353,383.047749,-148.041188,9252.574275
4131.562669,229.828649,-74.020594,8882.471304
4131.562984,229.828649,-148.041188,8882.471304
4131.563299,-536.266849,-74.020594,10066.800811
4131.563615,-306.438199,-74.020594,10140.821405
4131.563930,-459.657299,-0.000000,10140.821405
4131.564245,-459.657299,-296.082377,10140.821405
4131.564561,-536.266849,-740.205942,9992.780217
4131.564876,0.000000,-222.061783,9474.636058
4131.565191,459.657299,-444.123565,9104.533087
4131.565507,919.314598,-74.020594,8882.471304
4131.565822,306.438199,370.102971,8586.388927
4131.566137,919.314598,370.102971,8808.450710
4131.566453,842.705048,1184.329507,8956.491898
4131.566768,306.438199,-0.000000,9548.656652
4131.567084,153.219100,-592.164754,9918.759623
4131.567399,76.609550,-962.267725,9474.636058
4131.567714,-306.438199,-1110.308913,9696.697840
4131.568030,-612.876398,-888.247130,9770.718434
4131.568345,-536.266849,-962.267725,9918.759623
4131.568660,0.000000,-740.205942,9992.780217
4131.568976,459.657299,518.144159,9844.739029
4131.569291,306.438199,-0.000000,10140.821405
4131.569606,153.219100,-148.041188,9992.780217
4131.569922,1532.190996,-370.102971,9326.594869
4131.570237,1149.143247,-666.185348,9104.533087
4131.570552,842.705048,-296.082377,9030.512492
4131.570868,383.047749,-74.020594,9770.718434
4131.571183,766.095498,-0.000000,9622.677246
4131.571499,919.314598,-74.020594,9622.677246
4131.571814,0.000000,-518.144159,10362.883188
4131.572129,0.000000,-444.123565,9918.759623
4131.572445,-306.438199,-888.247130,9622.677246
4131.572760,0.000000,-740.205942,9548.656652
4131.573075,-229.828649,-518.144159,9178.553681
4131.573391,-153.219100,-370.102971,9178.553681
4131.573706,0.000000,-370.102971,9548.656652
4131.574021,76.609550,-0.000000,10362.883188
4131.574337,-229.828649,370.102971,9844.739029
4131.574652,-383.047749,444.123565,9770.718434
4131.574967,0.000000,-0.000000,9696.697840
4131.575283,306.438199,222.061783,8512.368333
4131.575598,229.828649,518.144159,9104.533087
4131.575913,76.609550,518.144159,8882.471304
4131.576229,0.000000,-74.020594,9770.718434
4131.576544,0.000000,814.226536,8956.491898
4131.576860,-612.876398,592.164754,9770.718434
4131.577175,-1378.971896,148.041188,9474.636058
4131.577490,-1225.752797,-222.061783,9400.615463
4131.577806,-995.924147,-222.061783,9104.533087
4131.578121,-612.876398,-0.000000,8882.471304
4131.578436,-1072.533697,740.205942,9770.718434
4131.578752,-383.047749,888.247130,9696.697840
4131.579067,-229.828649,1554.432478,9696.697840
4131.579382,153.219100,1258.350101,10214.842000
4131.579698,0.000000,1184.329507,9992.780217
4131.580013,612.876398,962.267725,9548.656652
4131.580328,383.047749,888.247130,9622.677246
4131.580644,612.876398,1184.329507,9400.615463
4131.580959,459.657299,1258.350101,9474.636058
4131.581275,306.438199,1258.350101,9696.697840
4131.581590,153.219100,592.164754,10288.862594
4131.581905,0.000000,888.247130,10362.883188
4131.582221,-459.657299,296.082377,9622.677246
4131.582536,-383.047749,-222.061783,9696.697840
4131.582851,0.000000,-222.061783,9844.739029
4131.583167,153.219100,-74.020594,9770.718434
4131.583482,229.828649,518.144159,9992.780217
4131.583797,383.047749,518.144159,10214.842000
4131.584113,1072.533697,1332.370696,10214.842000
4131.584428,842.705048,962.267725,10066.800811
4131.584743,459.657299,1110.308913,9918.759623
4131.585059,766.095498,740.205942,9918.759623
4131.585374,612.876398,296.082377,9474.636058
4131.585690,919.314598,592.164754,9326.594869
4131.586005,459.657299,740.205942,9548.656652
4131.586320,306.438199,370.102971,10288.862594
4131.586636,-229.828649,222.061783,10288.862594
4131.586951,-612.876398,-370.102971,10584.944971
4131.587266,-689.485948,-518.144159,10288.862594
4131.587582,-76.609550,-1184.329507,9548.656652
4131.587897,0.000000,-1332.370696,9622.677246
4131.588212,76.609550,-666.185348,9474.636058
4131.588528,459.657299,-0.000000,9104.533087
4131.588843,1149.143247,444.123565,9400.615463
4131.589158,919.314598,814.226536,9474.636058
4131.589474,1072.533697,592.164754,9104.533087
4131.589789,995.924147,444.123565,8734.430116
4131.590105,1225.752797,-888.247130,9326.594869
4131.590420,689.485948,-1036.288319,9104.533087
4131.590735,76.609550,-592.164754,9548.656652
4131.591051,-229.828649,-148.041188,9474.636058
4131.591366,-612.876398,-296.082377,9770.718434
4131.591681,-459.657299,-74.020594,10066.800811
4131.591997,-612.876398,-962.267725,9992.780217
4131.592312,-689.485948,-962.267725,10214.842000
4131.592627,-459.657299,-1184.329507,9622.677246
4131.592943,-306.438199,-1110.308913,9104.533087
4131.593258,0.000000,-370.102971,8734.430116
4131.593573,-383.047749,148.041188,8660.409521
4131.593889,459.657299,444.123565,9252.574275
4131.594204,536.266849,222.061783,9400.615463
4131.594519,229.828649,-0.000000,9548.656652
4131.594835,76.609550,-74.020594,9178.553681
4131.595150,0.000000,-444.123565,9252.574275
4131.595466,0.000000,-962.267725,9474.636058
4131.595781,-383.047749,-888.247130,9400.615463
4131.596096,-306.438199,-518.144159,9474.636058
4131.596412,-459.657299,-222.061783,9844.739029
4131.596727,0.000000,-0.000000,10140.821405
4131.597042,-229.828649,-0.000000,10214.842000
4131.597358,-536.266849,370.102971,9696.697840
4131.597673,-536.266849,-0.000000,9474.636058
4131.597988,383.047749,-444.123565,9178.553681
4131.598304,229.828649,-0.000000,9104.533087
4131.598619,0.000000,370.102971,9474.636058
4131.598934,-306.438199,814.226536,9770.718434
4131.599250,0.000000,740.205942,9696.697840
4131.599565,229.828649,888.247130,9918.759623
4131.599881,-153.219100,666.185348,10214.842000
4131.600196,-383.047749,-0.000000,9992.780217
4131.600511,0.000000,-0.000000,9548.656652
4131.600827,-306.438199,222.061783,9696.697840
4131.601142,-383.047749,592.164754,9844.739029
4131.601457,153.219100,962.267725,9918.759623
4131.601773,153.219100,1258.350101,9622.677246
4131.602088,76.609550,1036.288319,10362.883188
4131.602403,-153.219100,740.205942,9844.739029
4131.602719,153.219100,518.144159,9696.697840
4131.603034,383.047749,592.164754,9696.697840
4131.603349,229.828649,814.226536,9548.656652
4131.603665,153.219100,1480.411884,9918.759623
4131.603980,383.047749,1184.329507,9770.718434
4131.604296,383.047749,1406.391290,10214.842000
4131.604611,153.219100,1110.308913,9844.739029
4131.604926,0.000000,962.267725,10066.800811
4131.605241,76.609550,444.123565,9622.677246
4131.605557,459.657299,222.061783,9548.656652
4131.605872,689.485948,370.102971,9474.636058
4131.606187,306.438199,592.164754,9326.594869
4131.606502,306.438199,222.061783,9844.739029
4131.606818,459.657299,666.185348,9918.759623
4131.607133,766.095498,666.185348,9622.677246
4131.607448,383.047749,740.205942,9474.636058
4131.607763,689.485948,-148.041188,9326.594869
4131.608079,766.095498,-74.020594,9104.533087
4131.608394,612.876398,-148.041188,8734.430116
4131.608709,766.095498,518.144159,9178.553681
4131.609025,919.314598,370.102971,9400.615463
4131.609340,1302.362347,666.185348,9622.677246
4131.609655,1072.533697,370.102971,10214.842000
4131.609970,459.657299,-370.102971,9474.636058
4131.610286,536.266849,-740.205942,9400.615463
4131.610601,612.876398,-666.185348,9104.533087
4131.610916,306.438199,-222.061783,9030.512492
4131.611231,0.000000,-0.000000,9030.512492
4131.611547,536.266849,-296.082377,9178.553681
4131.611862,0.000000,-592.164754,9400.615463
4131.612177,0.000000,-370.102971,9770.718434
4131.612492,-842.705048,-296.082377,9474.636058
4131.612808,-689.485948,-740.205942,9548.656652
4131.613123,0.000000,-740.205942,9252.574275
4131.613438,-459.657299,-296.082377,9104.533087
4131.613753,-919.314598,-0.000000,9252.574275
4131.614069,-689.485948,296.082377,10066.800811
4131.614384,-766.095498,814.226536,10584.944971
4131.614699,-306.438199,518.144159,9696.697840
4131.615015,-383.047749,-74.020594,9474.636058
4131.615330,-459.657299,-814.226536,9474.636058
4131.615645,-306.438199,-666.185348,9252.574275
4131.615960,-612.876398,-740.205942,9104.533087
4131.616276,-842.705048,-444.123565,9474.636058
4131.616591,-612.876398,-444.123565,9474.636058
4131.616906,0.000000,-0.000000,9474.636058
4131.617221,0.000000,-74.020594,9474.636058
4131.617537,-766.095498,-666.185348,9992.780217
4131.617852,-229.828649,-740.205942,9474.636058
4131.618167,0.000000,-740.205942,9104.533087
4131.618482,0.000000,-518.144159,9622.677246
4131.618798,0.000000,-74.020594,9918.759623
4131.619113,153.219100,-296.082377,9992.780217
4131.619428,766.095498,444.123565,9844.739029
4131.619744,383.047749,592.164754,9770.718434
4131.620059,0.000000,592.164754,9548.656652
4131.620374,306.438199,-0.000000,9474.636058
4131.620689,536.266849,-444.123565,8882.471304
4131.621005,689.485948,-222.061783,9400.615463
4131.621320,612.876398,-0.000000,9326.594869
4131.621635,536.266849,296.082377,9844.739029
4131.621950,153.219100,518.144159,10214.842000
4131.622266,536.266849,-74.020594,9696.697840
4131.622581,153.219100,-148.041188,9474.636058
4131.622896,229.828649,-370.102971,9844.739029
4131.623211,306.438199,-222.061783,9400.615463
4131.623527,306.438199,-296.082377,9548.656652
4131.623842,76.609550,296.082377,9622.677246
4131.624157,536.266849,444.123565,9770.718434
4131.624472,459.657299,1036.288319,9844.739029
4131.624788,612.876398,740.205942,9770.718434
4131.625103,0.000000,888.247130,9696.697840
4131.625418,612.876398,-148.041188,9622.677246
4131.625734,919.314598,-0.000000,9474.636058
4131.626049,689.485948,592.164754,8956.491898
4131.626364,76.609550,592.164754,9178.553681
4131.626679,153.219100,666.185348,9474.636058
4131.626995,459.657299,666.185348,9326.594869
4131.627310,0.000000,666.185348,9770.718434
4131.627625,-306.438199,148.041188,9770.718434
4131.627940,-229.828649,-0.000000,9474.636058
4131.628256,76.609550,-0.000000,9474.636058
4131.628571,383.047749,148.041188,9178.553681
4131.628886,306.438199,962.267725,9474.636058
4131.629201,0.000000,370.102971,9992.780217
4131.629517,76.609550,1480.411884,9474.636058
4131.629832,76.609550,1332.370696,9844.739029
4131.630147,-153.219100,962.267725,9918.759623
4131.630463,-153.219100,370.102971,9844.739029
4131.630778,0.000000,148.041188,9326.594869
4131.631093,-306.438199,296.082377,9400.615463
4131.631408,-766.095498,740.205942,9622.677246
4131.631724,0.000000,74.020594,9548.656652
4131.632039,0.000000,518.144159,9992.780217
4131.632354,0.000000,444.123565,10214.842000
4131.632669,-536.266849,814.226536,9918.759623
4131.632985,-459.657299,222.061783,9400.615463
4131.633300,306.438199,-0.000000,9178.553681
4131.633615,76.609550,-0.000000,9770.718434
4131.633930,-459.657299,592.164754,10066.800811
4131.634246,0.000000,740.205942,9844.739029
4131.634561,76.609550,888.247130,10140.821405
4131.634876,76.609550,666.185348,10140.821405
4131.635191,-229.828649,148.041188,9696.697840
4131.635507,0.000000,-148.041188,9696.697840
4131.635822,76.609550,-370.102971,9622.677246
4131.636137,383.047749,-370.102971,9696.697840
4131.636453,-383.047749,-148.041188,9696.697840
4131.636768,-229.828649,-0.000000,9770.718434
4131.637083,0.000000,444.123565,9844.739029
4131.637398,76.609550,296.082377,9696.697840
4131.637714,229.828649,-444.123565,9326.594869
4131.638029,459.657299,-444.123565,9474.636058
4131.638344,919.314598,-518.144159,8586.388927
4131.638659,459.657299,-370.102971,9030.512492
4131.638975,153.219100,-222.061783,8956.491898
4131.639290,689.485948,-296.082377,9178.553681
4131.639605,536.266849,-222.061783,9770.718434
4131.639920,383.047749,-296.082377,9918.759623
4131.640236,229.828649,-444.123565,9622.677246
4131.640551,76.609550,-814.226536,8882.471304
4131.640866,919.314598,-740.205942,9104.533087
4131.641182,612.876398,-592.164754,9178.553681
4131.641497,383.047749,-370.102971,8808.450710
4131.641812,459.657299,-0.000000,9326.594869
4131.642127,459.657299,370.102971,9696.697840
4131.642443,306.438199,-0.000000,9770.718434
4131.642758,153.219100,296.082377,9696.697840
4131.643073,306.438199,-74.020594,9696.697840
4131.643388,612.876398,-444.123565,9992.780217
4131.643704,383.047749,-0.000000,8956.491898
4131.644019,459.657299,-222.061783,9326.594869
4131.644334,919.314598,-222.061783,10362.883188
4131.644649,153.219100,1036.288319,9400.615463
4131.644965,536.266849,296.082377,9548.656652
4131.645280,536.266849,148.041188,9622.677246
4131.645595,76.609550,-0.000000,9326.594869
4131.645910,612.876398,-1036.288319,9252.574275
4131.646226,153.219100,-518.144159,9696.697840
4131.646541,0.000000,-0.000000,9474.636058
4131.646856,306.438199,-370.102971,9696.697840
4131.647172,306.438199,592.164754,10140.821405
4131.647487,0.000000,296.082377,10436.903782
4131.647802,229.828649,-0.000000,9770.718434
4131.648117,0.000000,296.082377,9548.656652
4131.648433,-306.438199,-74.020594,8734.430116
4131.648748,153.219100,-148.041188,9474.636058
4131.649063,0.000000,148.041188,9178.553681
4131.649378,-229.828649,370.102971,9918.759623
4131.649694,153.219100,666.185348,9992.780217
4131.650009,-536.266849,592.164754,10214.842000
4131.650324,-689.485948,444.123565,10140.821405
4131.650639,-842.705048,-148.041188,9770.718434
4131.650955,-842.705048,-148.041188,9622.677246
4131.651270,-612.876398,-0.000000,9548.656652
4131.651585,-383.047749,592.164754,9030.512492
4131.651901,-306.438199,370.102971,10214.842000
4131.652216,-536.266849,1184.329507,9844.739029
4131.652531,-536.266849,1036.288319,9622.677246
4131.652846,-919.314598,1110.308913,9548.656652
4131.653162,-306.438199,814.226536,9326.594869
4131.653477,76.609550,370.102971,9252.574275
4131.653792,-306.438199,1036.288319,9548.656652
4131.654107,-229.828649,962.267725,9548.656652
4131.654423,-229.828649,962.267725,9844.739029
4131.654738,153.219100,1554.432478,9696.697840
4131.655053,0.000000,814.226536,9918.759623
4131.655368,-306.438199,814.226536,10066.800811
4131.655684,0.000000,592.164754,9474.636058
4131.655999,306.438199,222.061783,9104.533087
4131.656314,383.047749,444.123565,9030.512492
4131.656629,0.000000,740.205942,9104.533087
4131.656945,229.828649,296.082377,9622.677246
4131.657260,536.266849,962.267725,9770.718434
4131.657575,459.657299,592.164754,9844.739029
4131.657891,459.657299,740.205942,9622.677246
4131.658206,689.485948,296.082377,9770.718434
4131.658521,766.095498,74.020594,9474.636058
4131.658836,689.485948,-0.000000,9844.739029
4131.659152,766.095498,296.082377,9918.759623
4131.659467,1072.533697,-74.020594,9918.759623
4131.659782,1149.143247,296.082377,10362.883188
4131.660097,383.047749,518.144159,10140.821405
4131.660413,689.485948,518.144159,9918.759623
4131.660728,612.876398,-0.000000,9474.636058
4131.661043,1149.143247,-814.226536,9326.594869
4131.661358,1302.362347,-888.247130,9178.553681
4131.661674,995.924147,-148.041188,9178.553681
4131.661989,766.095498,-296.082377,9474.636058
4131.662304,689.485948,222.061783,9252.574275
4131.662620,536.266849,-0.000000,10066.800811
4131.662935,306.438199,-518.144159,9844.739029
4131.663250,229.828649,-740.205942,9104.533087
4131.663565,766.095498,-1110.308913,8956.491898
4131.663881,689.485948,-666.185348,9104.533087
4131.664196,383.047749,-0.000000,9548.656652
4131.664511,383.047749,-0.000000,9696.697840
4131.664826,153.219100,222.061783,9844.739029
4131.665142,0.000000,-0.000000,9696.697840
4131.665457,-306.438199,-0.000000,9696.697840
4131.665772,153.219100,-740.205942,9474.636058
4131.666087,0.000000,-740.205942,9622.677246
4131.666403,-306.438199,-222.061783,9030.512492
4131.666718,-612.876398,-0.000000,8882.471304
4131.667033,0.000000,-0.000000,9178.553681
4131.667348,0.000000,370.102971,9474.636058
4131.667664,-383.047749,-0.000000,9548.656652
4131.667979,-689.485948,-148.041188,9474.636058
4131.668294,-842.705048,-740.205942,9474.636058
4131.668610,-153.219100,-888.247130,9178.553681
4131.668925,-766.095498,-222.061783,9178.553681
4131.669240,-1072.533697,-222.061783,9326.594869
4131.669555,-612.876398,-222.061783,9474.636058
4131.669871,-383.047749,-0.000000,9548.656652
4131.670186,-383.047749,-0.000000,9918.759623
4131.670501,-842.705048,222.061783,9622.677246
4131.670816,-383.047749,-148.041188,9400.615463
4131.671132,0.000000,-518.144159,9326.594869
4131.671447,76.609550,-296.082377,9326.594869
4131.671762,-229.828649,-296.082377,9178.553681
4131.672077,0.000000,592.164754,9548.656652
4131.672393,0.000000,592.164754,9474.636058
4131.672708,-306.438199,370.102971,9918.759623
4131.673023,-383.047749,370.102971,9178.553681
4131.673339,-383.047749,-444.123565,9696.697840
4131.673654,76.609550,-1036.288319,9844.739029
4131.673969,0.000000,-370.102971,9622.677246
4131.674284,-229.828649,-0.000000,9474.636058
4131.674600,76.609550,-0.000000,9844.739029
4131.674915,0.000000,814.226536,10658.965565
4131.675230,229.828649,888.247130,10732.986159
4131.675545,229.828649,888.247130,10066.800811
4131.675861,229.828649,592.164754,9326.594869
4131.676176,995.924147,518.144159,9030.512492
4131.676491,1072.533697,666.185348,9326.594869
4131.676806,1302.362347,1110.308913,9622.677246
4131.677122,306.438199,740.205942,9844.739029
4131.677437,612.876398,1036.288319,10066.800811
4131.677752,76.609550,1258.350101,10362.883188
4131.678067,-153.219100,1036.288319,10140.821405
4131.678383,0.000000,-0.000000,10362.883188
4131.678698,306.438199,-0.000000,9548.656652
4131.679013,0.000000,296.082377,8956.491898
4131.679329,459.657299,1036.288319,9474.636058
4131.679644,229.828649,1036.288319,9918.759623
4131.679959,842.705048,1332.370696,9622.677246
4131.680274,689.485948,1332.370696,9696.697840
4131.680590,306.438199,1406.391290,9474.636058
4131.680905,383.047749,444.123565,9474.636058
4131.681220,459.657299,-0.000000,9400.615463
4131.681535,229.828649,-148.041188,9178.553681
4131.681851,0.000000,-0.000000,9400.615463
4131.682166,0.000000,222.061783,9622.677246
4131.682481,76.609550,592.164754,9770.718434
4131.682796,-612.876398,296.082377,10288.862594
4131.683112,-459.657299,370.102971,9696.697840
4131.683427,-153.219100,-0.000000,9326.594869
4131.683742,459.657299,-0.000000,9104.533087
4131.684058,536.266849,-370.102971,9400.615463
4131.684373,153.219100,-0.000000,9622.677246
4131.684688,383.047749,-0.000000,9474.636058
4131.685003,536.266849,962.267725,9770.718434
4131.685319,766.095498,592.164754,9622.677246
4131.685634,612.876398,296.082377,9696.697840
4131.685949,842.705048,-444.123565,9548.656652
4131.686264,383.047749,-814.226536,9030.512492
4131.686580,229.828649,-444.123565,9252.574275
4131.686895,-153.219100,-296.082377,9326.594869
4131.687210,0.000000,-148.041188,9770.718434
4131.687525,0.000000,222.061783,9770.718434
4131.687841,-459.657299,-0.000000,9844.739029
4131.688156,-689.485948,-74.020594,9622.677246
4131.688471,-536.266849,-592.164754,9844.739029
4131.688786,-383.047749,-518.144159,9770.718434
4131.689102,0.000000,-74.020594,9844.739029
4131.689417,-459.657299,370.102971,9326.594869
4131.689732,0.000000,296.082377,9474.636058
4131.690048,612.876398,518.144159,9844.739029
4131.690363,229.828649,370.102971,10288.862594
4131.690678,0.000000,518.144159,9622.677246
4131.690993,-306.438199,-148.041188,9548.656652
4131.691309,0.000000,-370.102971,9030.512492
4131.691624,153.219100,-666.185348,8882.471304
4131.691939,0.000000,-518.144159,9474.636058
4131.692254,0.000000,-296.082377,9548.656652
4131.692570,0.000000,-222.061783,9844.739029
4131.692885,0.000000,296.082377,9770.718434
4131.693200,-229.828649,-0.000000,9622.677246
4131.693515,0.000000,-148.041188,9474.636058
4131.693831,383.047749,-740.205942,9178.553681
4131.694146,536.266849,-592.164754,9474.636058
4131.694461,383.047749,-370.102971,9548.656652
4131.694777,689.485948,-148.041188,9770.718434
4131.695092,689.485948,370.102971,9844.739029
4131.695407,536.266849,814.226536,9918.759623
4131.695722,536.266849,-0.000000,9548.656652
4131.696038,766.095498,-222.061783,9548.656652
4131.696353,842.705048,-592.164754,9104.533087
4131.696668,612.876398,-666.185348,9326.594869
4131.696983,76.609550,-148.041188,9030.512492
4131.697299,153.219100,-0.000000,9696.697840
4131.697614,229.828649,-0.000000,9474.636058
4131.697929,-153.219100,-0.000000,10066.800811
4131.698244,0.000000,148.041188,9918.759623
4131.698560,229.828649,-74.020594,9474.636058
4131.698875,459.657299,-148.041188,9474.636058
4131.699190,536.266849,-0.000000,9548.656652
4131.699505,0.000000,1036.288319,9104.533087
4131.699821,0.000000,740.205942,9844.739029
4131.700136,383.047749,666.185348,10066.800811
4131.700451,0.000000,814.226536,9844.739029
4131.700767,0.000000,444.123565,10362.883188
4131.701082,0.000000,296.082377,9474.636058
4131.701397,229.828649,-0.000000,9252.574275
4131.701712,0.000000,-0.000000,8882.471304
4131.702028,-689.485948,-74.020594,9030.512492
4131.702343,-153.219100,-0.000000,9326.594869
4131.702658,-229.828649,592.164754,9770.718434
4131.702973,-612.876398,666.185348,10214.842000
4131.703289,-842.705048,740.205942,9770.718434
4131.703604,-842.705048,740.205942,9474.636058
4131.703919,0.000000,-0.000000,8956.491898
4131.704234,0.000000,148.041188,9474.636058
4131.704550,229.828649,962.267725,9622.677246
4131.704865,153.219100,1184.329507,9400.615463
4131.705180,229.828649,1480.411884,9622.677246
4131.705495,306.438199,1406.391290,9992.780217
4131.705811,0.000000,888.247130,9844.739029
4131.706126,-459.657299,148.041188,9770.718434
4131.706441,0.000000,-0.000000,9474.636058
4131.706756,459.657299,-0.000000,9400.615463
4131.707072,0.000000,222.061783,9178.553681
4131.707387,0.000000,296.082377,9992.780217
4131.707702,0.000000,444.123565,9992.780217
4131.708017,0.000000,370.102971,9918.759623
4131.708332,0.000000,444.123565,9770.718434
4131.708648,383.047749,-0.000000,9548.656652
4131.708963,536.266849,-148.041188,9696.697840
4131.709278,306.438199,74.020594,9696.697840
4131.709593,0.000000,370.102971,9622.677246
4131.709908,689.485948,370.102971,10066.800811
4131.710224,919.314598,888.247130,10288.862594
4131.710539,842.705048,888.247130,10881.027347
4131.710854,306.438199,888.247130,9918.759623
4131.711169,766.095498,370.102971,9770.718434
4131.711484,919.314598,-74.020594,9474.636058
4131.711800,689.485948,-74.020594,8808.450710
4131.712115,0.000000,148.041188,9400.615463
4131.712430,229.828649,-222.061783,9548.656652
4131.712745,536.266849,-74.020594,9844.739029
4131.713060,229.828649,-0.000000,9548.656652
4131.713376,-306.438199,-370.102971,9696.697840
4131.713691,-153.219100,-592.164754,10214.842000
4131.714006,383.047749,-444.123565,9326.594869
4131.714321,766.095498,-148.041188,8734.430116
4131.714637,306.438199,-0.000000,8882.471304
4131.714952,612.876398,-148.041188,9548.656652
4131.715267,919.314598,1036.288319,9326.594869
4131.715582,919.314598,518.144159,9474.636058
4131.715897,459.657299,518.144159,9622.677246
4131.716213,229.828649,-666.185348,9474.636058
4131.716528,76.609550,-962.267725,8882.471304
4131.716843,-383.047749,-740.205942,9178.553681
4131.717158,-459.657299,-814.226536,9252.574275
4131.717473,-229.828649,-1258.350101,9696.697840
4131.717789,-229.828649,-222.061783,9474.636058
4131.718104,-612.876398,-222.061783,9992.780217
4131.718419,-842.705048,-296.082377,9918.759623
4131.718734,-536.266849,-666.185348,9696.697840
4131.719049,76.609550,-444.123565,9252.574275
4131.719365,459.657299,-222.061783,9400.615463
4131.719680,229.828649,-222.061783,9326.594869
4131.719995,-229.828649,-0.000000,9326.594869
4131.720310,153.219100,740.205942,9548.656652
4131.720626,76.609550,740.205942,9992.780217
4131.720941,-383.047749,666.185348,9474.636058
4131.721256,-842.705048,-222.061783,10288.862594
4131.721571,0.000000,-666.185348,9992.780217
4131.721886,0.000000,-592.164754,9474.636058
4131.722202,-689.485948,-74.020594,9548.656652
4131.722517,-842.705048,-222.061783,9918.759623
4131.722832,383.047749,370.102971,10288.862594
4131.723147,383.047749,518.144159,9992.780217
4131.723462,0.000000,370.102971,9326.594869
4131.723778,0.000000,370.102971,9104.533087
4131.724093,842.705048,296.082377,8586.388927
4131.724408,1072.533697,370.102971,9400.615463
4131.724723,536.266849,1036.288319,9104.533087
4131.725038,153.219100,740.205942,9474.636058
4131.725354,229.828649,888.247130,9474.636058
4131.725669,76.609550,222.061783,10288.862594
4131.725984,-306.438199,-0.000000,10584.944971
4131.726299,-536.266849,-296.082377,10288.862594
4131.726614,-612.876398,-444.123565,10288.862594
4131.726930,-306.438199,-592.164754,9844.739029
4131.727245,-306.438199,222.061783,9474.636058
4131.727560,0.000000,222.061783,9918.759623
4131.727875,153.219100,888.247130,9918.759623
4131.728191,229.828649,1036.288319,9696.697840
4131.728506,383.047749,1110.308913,9696.697840
4131.728821,0.000000,814.226536,9770.718434
4131.729136,0.000000,444.123565,9474.636058
4131.729451,612.876398,370.102971,9104.533087
4131.729767,0.000000,888.247130,9474.636058
4131.730082,0.000000,444.123565,10214.842000
4131.730397,0.000000,814.226536,10066.800811
4131.730712,-459.657299,740.205942,10510.924376
4131.731027,-306.438199,444.123565,10140.821405
4131.731343,0.000000,444.123565,9770.718434
4131.731658,229.828649,-0.000000,9474.636058
4131.731973,76.609550,-0.000000,9696.697840
4131.732288,229.828649,444.123565,9474.636058
4131.732603,306.438199,962.267725,9326.594869
4131.732919,766.095498,1258.350101,9474.636058
4131.733234,536.266849,1184.329507,9622.677246
4131.733549,153.219100,888.247130,9918.759623
4131.733864,459.657299,-0.000000,9252.574275
4131.734180,612.876398,-444.123565,9104.533087
4131.734495,459.657299,-74.020594,9178.553681
4131.734810,153.219100,-74.020594,9252.574275
4131.735125,0.000000,-0.000000,9918.759623
4131.735440,-153.219100,444.123565,9918.759623
4131.735756,-306.438199,444.123565,10066.800811
4131.736071,-459.657299,-296.082377,10584.944971
4131.736386,0.000000,-296.082377,9992.780217
4131.736701,383.047749,-222.061783,9474.636058
4131.737016,766.095498,-740.205942,8808.450710
4131.737332,612.876398,-0.000000,9474.636058
4131.737647,689.485948,-0.000000,9104.533087
4131.737962,689.485948,666.185348,9474.636058
4131.738277,306.438199,814.226536,9696.697840
4131.738592,0.000000,740.205942,9474.636058
4131.738908,0.000000,-0.000000,9474.636058
4131.739223,612.876398,-962.267725,9178.553681
4131.739538,76.609550,-888.247130,9326.594869
4131.739853,-383.047749,-666.185348,9696.697840
4131.740168,-153.219100,-814.226536,9844.739029
4131.740484,-383.047749,-0.000000,9770.718434
4131.740799,0.000000,-0.000000,10362.883188
4131.741114,153.219100,-222.061783,10362.883188
4131.741429,76.609550,-444.123565,9622.677246
4131.741745,459.657299,-370.102971,8882.471304
4131.742060,536.266849,-148.041188,9104.533087
4131.742375,612.876398,444.123565,9178.553681
4131.742690,306.438199,370.102971,9178.553681
4131.743005,689.485948,888.247130,9326.594869
4131.743321,0.000000,592.164754,9844.739029
4131.743636,-153.219100,370.102971,9474.636058
4131.743951,-383.047749,-370.102971,9548.656652
4131.744266,-459.657299,-962.267725,9474.636058
4131.744581,-306.438199,-592.164754,9474.636058
4131.744897,-459.657299,-518.144159,9474.636058
4131.745212,-536.266849,-666.185348,9770.718434
4131.745527,0.000000,74.020594,10288.862594
4131.745842,-459.657299,-0.000000,10066.800811
4131.746157,-229.828649,666.185348,9844.739029
4131.746473,0.000000,-0.000000,9844.739029
4131.746788,459.657299,-0.000000,9178.553681
4131.747103,919.314598,-0.000000,9030.512492
4131.747418,689.485948,444.123565,9104.533087
4131.747734,536.266849,296.082377,9474.636058
4131.748049,612.876398,518.144159,9474.636058
4131.748364,459.657299,370.102971,9844.739029
4131.748679,-306.438199,-222.061783,10288.862594
4131.748994,-383.047749,-222.061783,9770.718434
4131.749310,-766.095498,-962.267725,9622.677246
4131.749625,-306.438199,-1036.288319,9770.718434
4131.749940,-383.047749,-444.123565,9622.677246
4131.750255,-153.219100,-444.123565,9992.780217
4131.750570,229.828649,444.123565,10066.800811
4131.750886,0.000000,888.247130,9992.780217
4131.751201,0.000000,666.185348,9474.636058
4131.751516,919.314598,740.205942,9104.533087
4131.751831,1072.533697,-0.000000,9474.636058
4131.752146,689.485948,444.123565,8734.430116
4131.752462,612.876398,592.164754,8956.491898
4131.752777,76.609550,666.185348,9474.636058
4131.753092,0.000000,518.144159,9992.780217
4131.753407,-459.657299,370.102971,9992.780217
4131.753722,-766.095498,222.061783,10140.821405
4131.754038,-842.705048,-296.082377,10066.800811
4131.754353,-1225.752797,-518.144159,9400.615463
4131.754668,-306.438199,-0.000000,9696.697840
4131.754983,-689.485948,666.185348,9178.553681
4131.755299,-459.657299,962.267725,9474.636058
4131.755614,229.828649,1332.370696,9622.677246
4131.755929,766.095498,888.247130,10066.800811
4131.756244,459.657299,1184.329507,9474.636058
4131.756559,153.219100,962.267725,9178.553681
4131.756875,306.438199,518.144159,9030.512492
4131.757190,612.876398,370.102971,9326.594869
4131.757505,229.828649,666.185348,9252.574275
4131.757820,153.219100,666.185348,9548.656652
4131.758135,0.000000,370.102971,9844.739029
4131.758451,-229.828649,592.164754,10066.800811
4131.758766,-383.047749,222.061783,9992.780217
4131.759081,-229.828649,-148.041188,9918.759623
4131.759396,306.438199,-444.123565,9696.697840
4131.759711,229.828649,-222.061783,9622.677246
4131.760027,306.438199,222.061783,9474.636058
4131.760342,612.876398,666.185348,9696.697840
4131.760657,536.266849,666.185348,9770.718434
4131.760972,1685.410096,1036.288319,10066.800811
4131.761288,766.095498,962.267725,9474.636058
4131.761603,766.095498,444.123565,9696.697840
4131.761918,919.314598,-222.061783,9548.656652
4131.762233,612.876398,-444.123565,9252.574275
4131.762548,153.219100,-74.020594,9992.780217
4131.762864,0.000000,-0.000000,10140.821405
4131.763179,0.000000,-0.000000,10658.965565
4131.763494,0.000000,518.144159,10510.924376
4131.763809,-306.438199,-296.082377,9844.739029
4131.764124,-459.657299,-296.082377,9918.759623
4131.764440,-153.219100,-666.185348,9844.739029
4131.764755,0.000000,-0.000000,9474.636058
4131.765070,76.609550,444.123565,9252.574275
4131.765385,0.000000,666.185348,9326.594869
4131.765700,612.876398,740.205942,9474.636058
4131.766016,536.266849,666.185348,9548.656652
4131.766331,229.828649,-0.000000,9770.718434
4131.766646,0.000000,-0.000000,9474.636058
4131.766961,459.657299,-592.164754,8956.491898
4131.767276,689.485948,-296.082377,8882.471304
4131.767592,-459.657299,-148.041188,9252.574275
4131.767907,-689.485948,-222.061783,9474.636058
4131.768222,0.000000,-74.020594,9548.656652
4131.768537,-76.609550,-0.000000,9770.718434
4131.768853,-229.828649,-0.000000,10214.842000
4131.769168,76.609550,296.082377,9252.574275
4131.769483,689.485948,-666.185348,8660.409521
4131.769798,1302.362347,-74.020594,8882.471304
4131.770113,459.657299,-0.000000,9252.574275
4131.770429,612.876398,-148.041188,8734.430116
4131.770744,842.705048,74.020594,9474.636058
4131.771059,689.485948,222.061783,9326.594869
4131.771374,76.609550,-0.000000,9770.718434
4131.771689,0.000000,-0.000000,9474.636058
4131.772005,0.000000,-592.164754,9696.697840
4131.772320,0.000000,-666.185348,9992.780217
4131.772635,0.000000,-1110.308913,9770.718434
4131.772950,229.828649,-814.226536,9474.636058
4131.773265,612.876398,-222.061783,9992.780217
4131.773581,306.438199,-0.000000,10362.883188
4131.773896,0.000000,74.020594,9918.759623
4131.774211,306.438199,222.061783,10214.842000
4131.774526,689.485948,-0.000000,9474.636058
4131.774842,612.876398,-222.061783,9326.594869
4131.775157,459.657299,222.061783,9918.759623
4131.775472,-459.657299,370.102971,9178.553681
4131.775787,-306.438199,-296.082377,9696.697840
4131.776102,0.000000,-148.041188,9992.780217
4131.776418,-383.047749,148.041188,9696.697840
4131.776733,-612.876398,-370.102971,9474.636058
4131.777048,0.000000,-592.164754,9326.594869
4131.777363,-153.219100,-370.102971,9178.553681
4131.777678,-766.095498,-0.000000,9326.594869
4131.777994,-459.657299,666.185348,9326.594869
4131.778309,-383.047749,592.164754,9770.718434
4131.778624,76.609550,814.226536,10140.821405
4131.778939,-383.047749,1332.370696,10066.800811
4131.779254,-536.266849,1184.329507,9770.718434
4131.779570,-306.438199,518.144159,9770.718434
4131.779885,153.219100,1110.308913,9622.677246
4131.780200,-459.657299,888.247130,9178.553681
4131.780515,0.000000,888.247130,9326.594869
4131.780830,0.000000,444.123565,10288.862594
4131.781146,-229.828649,962.267725,9992.780217
4131.781461,-612.876398,592.164754,9770.718434
4131.781776,0.000000,-0.000000,9474.636058
4131.782091,306.438199,-148.041188,9400.615463
4131.782407,459.657299,-296.082377,8808.450710
4131.782722,229.828649,296.082377,9326.594869
4131.783037,153.219100,370.102971,9474.636058
4131.783352,612.876398,740.205942,9696.697840
4131.783667,459.657299,814.226536,9252.574275
4131.783983,76.609550,444.123565,10214.842000
4131.784298,76.609550,222.061783,9770.718434
4131.784613,76.609550,-370.102971,9770.718434
4131.784928,306.438199,-296.082377,9696.697840
4131.785243,306.438199,-0.000000,9548.656652
4131.785559,229.828649,740.205942,10066.800811
4131.785874,766.095498,888.247130,10214.842000
4131.786189,229.828649,1036.288319,9770.718434
4131.786504,306.438199,296.082377,10436.903782
4131.786819,229.828649,-0.000000,9474.636058
4131.787135,766.095498,-148.041188,9400.615463
4131.787450,766.095498,-148.041188,8882.471304
4131.787765,306.438199,-370.102971,9474.636058
4131.788080,153.219100,-148.041188,9252.574275
4131.788396,306.438199,-0.000000,9844.739029
4131.788711,153.219100,222.061783,9548.656652
4131.789026,-383.047749,-296.082377,10066.800811
4131.789341,-383.047749,-370.102971,9992.780217
4131.789656,306.438199,-518.144159,9474.636058
4131.789972,76.609550,-592.164754,9030.512492
4131.790287,153.219100,-222.061783,9400.615463
4131.790602,229.828649,-370.102971,9178.553681
4131.790917,536.266849,666.185348,9326.594869
4131.791232,995.924147,666.185348,9326.594869
4131.791548,612.876398,296.082377,10066.800811
4131.791863,153.219100,-0.000000,9474.636058
4131.792178,459.657299,-666.185348,9104.533087
4131.792493,306.438199,-592.164754,8882.471304
4131.792808,0.000000,-592.164754,9104.533087
4131.793124,0.000000,-666.185348,9400.615463
4131.793439,0.000000,-0.000000,9696.697840
4131.793754,-383.047749,-296.082377,10436.903782
4131.794069,-612.876398,-0.000000,9918.759623
4131.794384,-536.266849,-74.020594,9474.636058
4131.794700,0.000000,-444.123565,9474.636058
4131.795015,153.219100,-296.082377,9474.636058
4131.795330,0.000000,-0.000000,9474.636058
4131.795645,306.438199,-518.144159,9400.615463
4131.795961,76.609550,222.061783,9474.636058
4131.796276,76.609550,592.164754,9548.656652
4131.796591,0.000000,666.185348,10140.821405
4131.796906,-612.876398,518.144159,9474.636058
4131.797221,76.609550,-888.247130,9548.656652
4131.797537,0.000000,-1036.288319,9474.636058
4131.797852,-229.828649,-740.205942,9474.636058
4131.798167,-306.438199,-222.061783,9548.656652
4131.798482,-383.047749,-370.102971,9844.739029
4131.798797,0.000000,370.102971,9770.718434
4131.799113,0.000000,-0.000000,10140.821405
4131.799428,0.000000,148.041188,9252.574275
4131.799743,76.609550,-0.000000,9178.553681
4131.800058,612.876398,-0.000000,8882.471304
4131.800373,306.438199,666.185348,9030.512492
4131.800689,76.609550,592.164754,9252.574275
4131.801004,229.828649,370.102971,9622.677246
4131.801319,612.876398,888.247130,9696.697840
4131.801634,76.609550,148.041188,9474.636058
4131.801950,0.000000,962.267725,9400.615463
4131.802265,0.000000,518.144159,9178.553681
4131.802580,0.000000,-0.000000,9474.636058
4131.802895,-459.657299,444.123565,9474.636058
4131.803210,-612.876398,518.144159,9252.574275
4131.803526,0.000000,296.082377,9992.780217
4131.803841,0.000000,962.267725,10214.842000
4131.804156,-306.438199,1110.308913,9992.780217
4131.804471,0.000000,888.247130,10140.821405
4131.804786,153.219100,740.205942,9030.512492
4131.805102,919.314598,1406.391290,9030.512492
4131.805417,383.047749,1036.288319,9104.533087
4131.805732,459.657299,1110.308913,9844.739029
4131.806047,1225.752797,1258.350101,9992.780217
4131.806363,383.047749,962.267725,10140.821405
4131.806678,0.000000,1258.350101,10066.800811
4131.806993,0.000000,740.205942,9844.739029
4131.807308,0.000000,74.020594,9992.780217
4131.807624,76.609550,-222.061783,9622.677246
4131.807939,0.000000,-0.000000,9622.677246
4131.808254,153.219100,-0.000000,9770.718434
4131.808570,383.047749,518.144159,9844.739029
4131.808885,306.438199,1036.288319,10436.903782
4131.809200,0.000000,740.205942,9992.780217
4131.809515,229.828649,222.061783,9622.677246
4131.809831,689.485948,-74.020594,9696.697840
4131.810146,1072.533697,-148.041188,9252.574275
4131.810461,459.657299,370.102971,9622.677246
4131.810777,459.657299,518.144159,9178.553681
4131.811092,306.438199,666.185348,9770.718434
4131.811407,383.047749,592.164754,9770.718434
4131.811722,229.828649,148.041188,10066.800811
4131.812038,0.000000,-0.000000,9548.656652
4131.812353,306.438199,-962.267725,9696.697840
4131.812668,153.219100,-1036.288319,9252.574275
4131.812984,0.000000,-888.247130,9400.615463
4131.813299,-229.828649,-666.185348,9548.656652
4131.813614,0.000000,444.123565,10288.862594
4131.813930,0.000000,222.061783,9770.718434
4131.814245,0.000000,222.061783,9622.677246
4131.814560,0.000000,-0.000000,9326.594869
4131.814875,76.609550,-740.205942,8734.430116
4131.815191,383.047749,-222.061783,8808.450710
4131.815506,153.219100,-444.123565,8808.450710
4131.815821,-229.828649,-148.041188,9178.553681
4131.816137,0.000000,-0.000000,9770.718434
4131.816452,0.000000,-0.000000,9918.759623
4131.816767,-766.095498,-444.123565,10140.821405
4131.817082,-612.876398,-370.102971,9548.656652
4131.817398,-229.828649,-1110.308913,9474.636058
4131.817713,76.609550,-222.061783,9030.512492
4131.818028,0.000000,-592.164754,8956.491898
4131.818344,0.000000,-370.102971,9252.574275
4131.818659,0.000000,-148.041188,9178.553681
4131.818974,229.828649,-0.000000,9400.615463
4131.819290,-383.047749,148.041188,9844.739029
4131.819605,-766.095498,-0.000000,9696.697840
4131.819920,0.000000,-370.102971,9474.636058
4131.820235,76.609550,-296.082377,9326.594869
4131.820551,0.000000,-666.185348,9104.533087
4131.820866,153.219100,-222.061783,9622.677246
4131.821181,-153.219100,148.041188,10658.965565
4131.821497,0.000000,370.102971,9918.759623
4131.821812,229.828649,444.123565,10140.821405
4131.822127,383.047749,222.061783,9474.636058
4131.822442,306.438199,-296.082377,9474.636058
4131.822758,536.266849,-370.102971,9326.594869
4131.823073,766.095498,-0.000000,9178.553681
4131.823388,536.266849,222.061783,9696.697840
4131.823704,536.266849,-0.000000,9326.594869
4131.824019,536.266849,-0.000000,10436.903782
4131.824334,76.609550,-0.000000,10140.821405
4131.824649,0.000000,-0.000000,9622.677246
4131.824965,459.657299,-444.123565,9992.780217
4131.825280,995.924147,-296.082377,9326.594869
4131.825595,229.828649,-0.000000,9326.594869
4131.825911,0.000000,370.102971,9474.636058
4131.826226,76.609550,888.247130,9770.718434
4131.826541,306.438199,1110.308913,9622.677246
4131.826857,229.828649,888.247130,9992.780217
4131.827172,-306.438199,814.226536,10214.842000
4131.827487,153.219100,370.102971,9770.718434
4131.827802,459.657299,-0.000000,9326.594869
4131.828118,153.219100,518.144159,9326.594869
4131.828433,0.000000,962.267725,9326.594869
4131.828748,0.000000,888.247130,9770.718434
4131.829064,0.000000,1258.350101,9474.636058
4131.829379,0.000000,1036.288319,9770.718434
4131.829694,-612.876398,1036.288319,9474.636058
4131.830009,-536.266849,148.041188,9252.574275
4131.830325,0.000000,296.082377,9770.718434
4131.830640,-383.047749,-0.000000,9548.656652
4131.830955,-306.438199,592.164754,9474.636058
4131.831271,-306.438199,592.164754,9696.697840
4131.831586,-76.609550,1110.308913,10140.821405
4131.831901,-459.657299,666.185348,10732.986159
4131.832216,-766.095498,888.247130,9770.718434
4131.832532,0.000000,-0.000000,9326.594869
4131.832847,612.876398,-148.041188,9326.594869
4131.833162,689.485948,-0.000000,9030.512492
4131.833478,153.219100,518.144159,9104.533087
4131.833793,306.438199,592.164754,9252.574275
4131.834108,459.657299,962.267725,9622.677246
4131.834424,306.438199,444.123565,9548.656652
4131.834739,0.000000,370.102971,9474.636058
4131.835054,459.657299,-74.020594,9474.636058
4131.835369,919.314598,-518.144159,9474.636058
4131.835685,229.828649,222.061783,9178.553681
4131.836000,0.000000,-0.000000,9622.677246
4131.836315,612.876398,222.061783,10362.883188
4131.836631,306.438199,1480.411884,10288.862594
4131.836946,306.438199,740.205942,10140.821405
4131.837261,306.438199,444.123565,9992.780217
4131.837576,842.705048,148.041188,9474.636058
4131.837892,1378.971896,-296.082377,9696.697840
4131.838207,536.266849,444.123565,8882.471304
4131.838522,383.047749,-0.000000,9474.636058
4131.838838,689.485948,-0.000000,9844.739029
4131.839153,383.047749,-148.041188,10066.800811
4131.839468,536.266849,-0.000000,9696.697840
4131.839784,-689.485948,-74.020594,9696.697840
4131.840099,0.000000,-740.205942,9326.594869
4131.840414,76.609550,-1258.350101,9622.677246
4131.840729,0.000000,-814.226536,9474.636058
4131.841045,0.000000,-814.226536,9844.739029
4131.841360,-612.876398,222.061783,10288.862594
4131.841675,-153.219100,740.205942,9992.780217
4131.841991,-306.438199,370.102971,9474.636058
4131.842306,76.609550,444.123565,9548.656652
4131.842621,306.438199,-296.082377,9622.677246
4131.842936,383.047749,-740.205942,9400.615463
4131.843252,536.266849,-0.000000,8808.450710
4131.843567,0.000000,-148.041188,8956.491898
4131.843882,229.828649,-0.000000,8882.471304
4131.844198,0.000000,222.061783,9474.636058
4131.844513,-612.876398,-0.000000,9474.636058
4131.844828,-612.876398,-740.205942,9474.636058
4131.845143,-383.047749,-1480.411884,9178.553681
4131.845459,-76.609550,-962.267725,9252.574275
4131.845774,0.000000,-814.226536,9326.594869
4131.846089,-612.876398,-666.185348,9696.697840
4131.846405,0.000000,-518.144159,9992.780217
4131.846720,229.828649,370.102971,9918.759623
4131.847035,0.000000,-0.000000,10066.800811
