#time,accel_x,accel_y,accel_z
4090.926433,-1762.019645,-518.144159,9918.759623
4090.926748,-1685.410096,-888.247130,9474.636058
4090.927063,-1838.629195,-592.164754,9178.553681
4090.927379,-1378.971896,-444.123565,8734.430116
4090.927694,-995.924147,-444.123565,8734.430116
4090.928010,-612.876398,-370.102971,8512.368333
4090.928325,-612.876398,-518.144159,8438.347739
4090.928640,-306.438199,-444.123565,9178.553681
4090.928956,-229.828649,-370.102971,9030.512492
4090.929271,-153.219100,-592.164754,9252.574275
4090.929586,-153.219100,-296.082377,8956.491898
4090.929902,0.000000,-592.164754,9178.553681
4090.930217,-229.828649,-518.144159,9400.615463
4090.930533,-306.438199,-888.247130,9326.594869
4090.930848,-229.828649,-740.205942,9178.553681
4090.931163,-612.876398,-814.226536,8882.471304
4090.931479,-842.705048,-740.205942,9030.512492
4090.931794,-842.705048,-1184.329507,9252.574275
4090.932109,-459.657299,-1184.329507,9030.512492
4090.932425,-383.047749,-1332.370696,8734.430116
4090.932740,-612.876398,-1628.453072,8956.491898
4090.933056,-995.924147,-1406.391290,9252.574275
4090.933371,-612.876398,-962.267725,8956.491898
4090.933686,-383.047749,-740.205942,8956.491898
4090.934002,0.000000,-888.247130,9252.574275
4090.934317,76.609550,-814.226536,9326.594869
4090.934633,-459.657299,-148.041188,9326.594869
4090.934948,-536.266849,-592.164754,9696.697840
4090.935263,-229.828649,-444.123565,9622.677246
4090.935579,76.609550,-592.164754,9992.780217
4090.935894,306.438199,-1036.288319,10066.800811
4090.936209,76.609550,-592.164754,9918.759623
4090.936525,229.828649,-296.082377,9696.697840
4090.936840,229.828649,-370.102971,9474.636058
4090.937156,536.266849,-74.020594,9326.594869
4090.937471,383.047749,-296.082377,9030.512492
4090.937786,306.438199,-74.020594,9178.553681
4090.938102,306.438199,148.041188,9104.533087
4090.938417,536.266849,444.123565,9400.615463
4090.938732,766.095498,-0.000000,9474.636058
4090.939048,306.438199,444.123565,9770.718434
4090.939363,383.047749,814.226536,9548.656652
4090.939679,536.266849,444.123565,9104.533087
4090.939994,766.095498,1036.288319,9252.574275
4090.940309,1225.752797,1258.350101,9474.636058
4090.940625,306.438199,1554.432478,9252.574275
4090.940940,306.438199,1702.473667,9474.636058
4090.941256,0.000000,1998.556043,9474.636058
4090.941571,0.000000,1184.329507,9770.718434
4090.941886,-306.438199,1850.514855,10288.862594
4090.942202,-995.924147,1406.391290,10288.862594
4090.942517,-612.876398,1406.391290,11029.068536
4090.942832,-842.705048,1332.370696,10214.842000
4090.943148,-383.047749,1480.411884,10066.800811
4090.943463,0.000000,1332.370696,10140.821405
4090.943779,0.000000,1702.473667,9918.759623
4090.944094,0.000000,1480.411884,9844.739029
4090.944409,459.657299,1480.411884,9696.697840
4090.944725,459.657299,1258.350101,9844.739029
4090.945040,1302.362347,1332.370696,9770.718434
4090.945355,459.657299,1258.350101,9844.739029
4090.945671,842.705048,1036.288319,10214.842000
4090.945986,766.095498,1036.288319,9844.739029
4090.946302,689.485948,814.226536,10140.821405
4090.946617,383.047749,518.144159,10140.821405
4090.946932,383.047749,444.123565,9918.759623
4090.947248,919.314598,296.082377,9844.739029
4090.947563,919.314598,370.102971,9622.677246
4090.947878,842.705048,-0.000000,9770.718434
4090.948194,1149.143247,-74.020594,9548.656652
4090.948509,536.266849,-74.020594,9844.739029
4090.948825,383.047749,-444.123565,9770.718434
4090.949140,306.438199,-0.000000,9696.697840
4090.949455,229.828649,-370.102971,10066.800811
4090.949771,0.000000,-296.082377,10140.821405
4090.950086,0.000000,-370.102971,9622.677246
4090.950402,0.000000,-296.082377,9474.636058
4090.950717,306.438199,-148.041188,9326.594869
4090.951032,612.876398,-518.144159,9622.677246
4090.951348,153.219100,-444.123565,9622.677246
4090.951663,229.828649,-370.102971,9474.636058
4090.951978,0.000000,-592.164754,9548.656652
4090.952294,306.438199,-740.205942,9548.656652
4090.952609,0.000000,-814.226536,9326.594869
4090.952925,-229.828649,-518.144159,9326.594869
4090.953240,0.000000,-518.144159,9474.636058
4090.953555,-459.657299,-1036.288319,8956.491898
4090.953871,0.000000,-814.226536,8882.471304
4090.954186,-229.828649,-888.247130,8882.471304
4090.954501,0.000000,-814.226536,8586.388927
4090.954817,0.000000,-740.205942,9030.512492
4090.955132,0.000000,-740.205942,9104.533087
4090.955448,0.000000,-962.267725,8956.491898
4090.955763,0.000000,-962.267725,9030.512492
4090.956078,-306.438199,-814.226536,9178.553681
4090.956394,-229.828649,-666.185348,9474.636058
4090.956709,0.000000,-444.123565,9252.574275
4090.957025,0.000000,-592.164754,9326.594869
4090.957340,-229.828649,-814.226536,9326.594869
4090.957655,-383.047749,-518.144159,9474.636058
4090.957971,-383.047749,-592.164754,9548.656652
4090.958286,0.000000,-592.164754,9696.697840
4090.958601,0.000000,-888.247130,9622.677246
4090.958917,0.000000,-1036.288319,9696.697840
4090.959232,0.000000,-740.205942,9696.697840
4090.959548,229.828649,-148.041188,9844.739029
4090.959863,306.438199,-0.000000,9474.636058
4090.960178,459.657299,296.082377,9548.656652
4090.960494,689.485948,-0.000000,9844.739029
4090.960809,383.047749,592.164754,10066.800811
4090.961124,383.047749,370.102971,9548.656652
4090.961440,612.876398,222.061783,9400.615463
4090.961755,612.876398,518.144159,9918.759623
4090.962071,306.438199,592.164754,10066.800811
4090.962386,383.047749,444.123565,9918.759623
4090.962701,153.219100,962.267725,10066.800811
4090.963017,229.828649,666.185348,10140.821405
4090.963332,0.000000,740.205942,9844.739029
4090.963647,-383.047749,888.247130,9992.780217
4090.963963,-153.219100,1184.329507,10362.883188
4090.964278,-306.438199,1184.329507,9770.718434
4090.964594,-229.828649,962.267725,9844.739029
4090.964909,-306.438199,814.226536,9992.780217
4090.965224,-229.828649,888.247130,9918.759623
4090.965540,0.000000,1184.329507,9992.780217
4090.965855,0.000000,1184.329507,9844.739029
4090.966171,153.219100,1258.350101,9992.780217
4090.966486,383.047749,1184.329507,9622.677246
4090.966801,383.047749,1036.288319,9844.739029
4090.967117,76.609550,1258.350101,9622.677246
4090.967432,76.609550,1036.288319,9622.677246
4090.967747,76.609550,1110.308913,9770.718434
4090.968063,76.609550,962.267725,9622.677246
4090.968378,0.000000,740.205942,9844.739029
4090.968693,153.219100,666.185348,9474.636058
4090.969009,306.438199,592.164754,9696.697840
4090.969324,153.219100,296.082377,9622.677246
4090.969639,0.000000,296.082377,9474.636058
4090.969955,383.047749,518.144159,9622.677246
4090.970270,76.609550,222.061783,9474.636058
4090.970585,76.609550,-0.000000,9400.615463
4090.970900,306.438199,296.082377,9918.759623
4090.971216,459.657299,-0.000000,9696.697840
4090.971531,306.438199,-0.000000,9770.718434
4090.971846,0.000000,-0.000000,9326.594869
4090.972161,459.657299,148.041188,9400.615463
4090.972477,383.047749,-0.000000,9770.718434
4090.972792,229.828649,-148.041188,9696.697840
4090.973107,76.609550,-222.061783,9770.718434
4090.973423,76.609550,-296.082377,9770.718434
4090.973738,0.000000,-222.061783,9474.636058
4090.974053,153.219100,-444.123565,9548.656652
4090.974368,383.047749,-296.082377,9252.574275
4090.974684,76.609550,-222.061783,9548.656652
4090.974999,76.609550,-148.041188,9252.574275
4090.975314,229.828649,-518.144159,9030.512492
4090.975630,459.657299,-74.020594,9252.574275
4090.975945,76.609550,-222.061783,9474.636058
4090.976260,306.438199,-222.061783,9030.512492
4090.976575,0.000000,-518.144159,9178.553681
4090.976891,76.609550,-518.144159,9104.533087
4090.977206,0.000000,-370.102971,9178.553681
4090.977521,76.609550,-740.205942,9104.533087
4090.977837,0.000000,-444.123565,9104.533087
4090.978152,0.000000,-370.102971,9030.512492
4090.978467,0.000000,-518.144159,9030.512492
4090.978782,-306.438199,-666.185348,9104.533087
4090.979098,0.000000,-222.061783,9178.553681
4090.979413,0.000000,-222.061783,9252.574275
4090.979728,153.219100,-148.041188,9178.553681
4090.980044,0.000000,-0.000000,9696.697840
4090.980359,0.000000,-370.102971,9252.574275
4090.980674,0.000000,-222.061783,9400.615463
4090.980989,0.000000,-148.041188,9622.677246
4090.981305,0.000000,-74.020594,9548.656652
4090.981620,229.828649,-0.000000,9622.677246
4090.981935,229.828649,-0.000000,9918.759623
4090.982251,0.000000,296.082377,10066.800811
4090.982566,306.438199,370.102971,9474.636058
4090.982881,0.000000,370.102971,9326.594869
4090.983196,306.438199,370.102971,9992.780217
4090.983512,383.047749,666.185348,9548.656652
4090.983827,459.657299,370.102971,9918.759623
4090.984142,306.438199,518.144159,9992.780217
4090.984457,153.219100,444.123565,9844.739029
4090.984773,306.438199,666.185348,9918.759623
4090.985088,0.000000,666.185348,9992.780217
4090.985403,76.609550,592.164754,10288.862594
4090.985719,153.219100,370.102971,9770.718434
4090.986034,383.047749,888.247130,9918.759623
4090.986349,0.000000,814.226536,9696.697840
4090.986664,76.609550,814.226536,10140.821405
4090.986980,306.438199,962.267725,9992.780217
4090.987295,383.047749,740.205942,10066.800811
4090.987610,383.047749,888.247130,10066.800811
4090.987926,536.266849,-0.000000,10362.883188
4090.988241,-306.438199,888.247130,9770.718434
4090.988556,0.000000,888.247130,10362.883188
4090.988871,229.828649,1036.288319,10066.800811
4090.989187,306.438199,888.247130,9844.739029
4090.989502,-229.828649,592.164754,10140.821405
4090.989817,0.000000,592.164754,9992.780217
4090.990133,153.219100,444.123565,9474.636058
4090.990448,229.828649,592.164754,9770.718434
4090.990763,153.219100,740.205942,9844.739029
4090.991078,76.609550,518.144159,9400.615463
4090.991394,0.000000,740.205942,9844.739029
4090.991709,536.266849,518.144159,9474.636058
4090.992024,0.000000,-0.000000,9622.677246
4090.992340,536.266849,666.185348,9844.739029
4090.992655,229.828649,370.102971,9474.636058
4090.992970,153.219100,296.082377,9844.739029
4090.993285,229.828649,370.102971,9474.636058
4090.993601,76.609550,-0.000000,9104.533087
4090.993916,153.219100,-0.000000,9770.718434
4090.994231,0.000000,-0.000000,9770.718434
4090.994547,0.000000,-0.000000,9548.656652
4090.994862,153.219100,-74.020594,9548.656652
4090.995177,229.828649,-222.061783,9622.677246
4090.995492,383.047749,-296.082377,9400.615463
4090.995808,-76.609550,-148.041188,9474.636058
4090.996123,0.000000,-148.041188,9770.718434
4090.996438,0.000000,-222.061783,9326.594869
4090.996753,76.609550,-74.020594,9400.615463
4090.997069,0.000000,-370.102971,9252.574275
4090.997384,0.000000,-296.082377,9474.636058
4090.997699,0.000000,-296.082377,9326.594869
4090.998015,76.609550,-592.164754,9400.615463
4090.998330,76.609550,-592.164754,9474.636058
4090.998645,-229.828649,-592.164754,9030.512492
4090.998960,0.000000,-296.082377,9400.615463
4090.999276,76.609550,-370.102971,9474.636058
4090.999591,76.609550,-296.082377,9178.553681
4090.999906,76.609550,-592.164754,8956.491898
4091.000222,76.609550,-296.082377,9326.594869
4091.000537,229.828649,-370.102971,9474.636058
4091.000852,153.219100,-370.102971,9252.574275
4091.001167,0.000000,-518.144159,9104.533087
4091.001483,459.657299,-296.082377,9474.636058
4091.001798,0.000000,-296.082377,9178.553681
4091.002113,0.000000,-296.082377,9400.615463
4091.002429,229.828649,-296.082377,9474.636058
4091.002744,306.438199,-148.041188,9474.636058
4091.003059,383.047749,-0.000000,10140.821405
4091.003374,0.000000,-0.000000,9474.636058
4091.003690,0.000000,148.041188,9770.718434
4091.004005,0.000000,-0.000000,9400.615463
4091.004320,153.219100,-0.000000,9326.594869
4091.004636,612.876398,-0.000000,10214.842000
4091.004951,306.438199,-0.000000,9770.718434
4091.005266,0.000000,-0.000000,9696.697840
4091.005581,0.000000,296.082377,9622.677246
4091.005897,0.000000,222.061783,9696.697840
4091.006212,-153.219100,-0.000000,10066.800811
4091.006527,0.000000,444.123565,9548.656652
4091.006843,383.047749,444.123565,9770.718434
4091.007158,76.609550,444.123565,9622.677246
4091.007473,306.438199,518.144159,9622.677246
4091.007788,0.000000,518.144159,9844.739029
4091.008104,153.219100,592.164754,9918.759623
4091.008419,76.609550,592.164754,9918.759623
4091.008734,0.000000,444.123565,9696.697840
4091.009049,306.438199,370.102971,9770.718434
4091.009365,0.000000,296.082377,9770.718434
4091.009680,0.000000,518.144159,9770.718434
4091.009995,153.219100,518.144159,9770.718434
4091.010311,0.000000,518.144159,9844.739029
4091.010626,153.219100,444.123565,9548.656652
4091.010941,0.000000,518.144159,9918.759623
4091.011256,-306.438199,518.144159,9992.780217
4091.011572,0.000000,518.144159,9770.718434
4091.011887,459.657299,444.123565,9696.697840
4091.012202,229.828649,740.205942,9622.677246
4091.012518,0.000000,444.123565,9622.677246
4091.012833,76.609550,370.102971,9400.615463
4091.013148,229.828649,-0.000000,9696.697840
4091.013463,153.219100,370.102971,9770.718434
4091.013779,0.000000,296.082377,9918.759623
4091.014094,76.609550,370.102971,9844.739029
4091.014409,383.047749,74.020594,9770.718434
4091.014725,459.657299,296.082377,9474.636058
4091.015040,0.000000,518.144159,9474.636058
4091.015355,229.828649,148.041188,9770.718434
4091.015670,383.047749,296.082377,9696.697840
4091.015986,0.000000,370.102971,9844.739029
4091.016301,0.000000,222.061783,9622.677246
4091.016616,153.219100,-0.000000,9696.697840
4091.016932,153.219100,222.061783,9696.697840
4091.017247,0.000000,-0.000000,9770.718434
4091.017562,0.000000,296.082377,9474.636058
4091.017877,0.000000,-0.000000,9474.636058
4091.018193,0.000000,-0.000000,9474.636058
4091.018508,0.000000,-0.000000,9474.636058
4091.018823,-306.438199,-148.041188,9474.636058
4091.019139,76.609550,-0.000000,9252.574275
4091.019454,153.219100,-0.000000,9400.615463
4091.019769,76.609550,-222.061783,9548.656652
4091.020084,0.000000,-148.041188,9178.553681
4091.020400,0.000000,-370.102971,9474.636058
4091.020715,0.000000,-0.000000,9548.656652
4091.021030,153.219100,-0.000000,9030.512492
4091.021345,0.000000,-222.061783,9474.636058
4091.021661,0.000000,-74.020594,9400.615463
4091.021976,383.047749,-296.082377,9178.553681
4091.022291,0.000000,-370.102971,9474.636058
4091.022607,229.828649,-74.020594,9400.615463
4091.022922,229.828649,-0.000000,9474.636058
4091.023237,0.000000,-296.082377,9104.533087
4091.023552,0.000000,-0.000000,9400.615463
4091.023868,383.047749,-74.020594,9844.739029
4091.024183,76.609550,-222.061783,9548.656652
4091.024498,306.438199,-0.000000,9474.636058
4091.024814,153.219100,-0.000000,9548.656652
4091.025129,842.705048,370.102971,9844.739029
4091.025444,153.219100,-0.000000,9548.656652
4091.025759,0.000000,-0.000000,9474.636058
4091.026075,306.438199,-0.000000,9844.739029
4091.026390,0.000000,296.082377,9844.739029
4091.026705,383.047749,148.041188,10140.821405
4091.027021,459.657299,-0.000000,9474.636058
4091.027336,-153.219100,-0.000000,9696.697840
4091.027651,153.219100,222.061783,9548.656652
4091.027966,76.609550,222.061783,9622.677246
4091.028282,0.000000,370.102971,9770.718434
4091.028597,229.828649,222.061783,9622.677246
4091.028912,229.828649,518.144159,9474.636058
4091.029228,0.000000,444.123565,9696.697840
4091.029543,0.000000,592.164754,9844.739029
4091.029858,76.609550,962.267725,9992.780217
4091.030173,76.609550,666.185348,9326.594869
4091.030489,0.000000,370.102971,9548.656652
4091.030804,0.000000,444.123565,9474.636058
4091.031119,0.000000,370.102971,9548.656652
4091.031435,229.828649,444.123565,9992.780217
4091.031750,76.609550,666.185348,9548.656652
4091.032065,76.609550,444.123565,9918.759623
4091.032380,76.609550,518.144159,9548.656652
4091.032696,229.828649,592.164754,9548.656652
4091.033011,459.657299,370.102971,9548.656652
4091.033326,459.657299,740.205942,9474.636058
4091.033641,306.438199,740.205942,9622.677246
4091.033957,0.000000,296.082377,9474.636058
4091.034272,76.609550,518.144159,9622.677246
4091.034587,0.000000,-0.000000,9770.718434
4091.034903,383.047749,518.144159,9844.739029
4091.035218,153.219100,444.123565,9918.759623
4091.035533,0.000000,518.144159,9770.718434
4091.035848,0.000000,296.082377,9696.697840
4091.036164,995.924147,-222.061783,9400.615463
4091.036479,383.047749,-0.000000,9696.697840
4091.036794,153.219100,296.082377,9992.780217
4091.037110,0.000000,296.082377,9770.718434
4091.037425,0.000000,-0.000000,9548.656652
4091.037740,383.047749,-0.000000,10066.800811
4091.038055,0.000000,-148.041188,9770.718434
4091.038371,153.219100,-0.000000,9844.739029
4091.038686,0.000000,-0.000000,9844.739029
4091.039001,76.609550,-0.000000,9918.759623
4091.039317,536.266849,-0.000000,9474.636058
4091.039632,0.000000,148.041188,9622.677246
4091.039947,76.609550,148.041188,9622.677246
4091.040262,0.000000,-0.000000,9770.718434
4091.040578,0.000000,-222.061783,9548.656652
4091.040893,0.000000,-0.000000,9548.656652
4091.041208,229.828649,-0.000000,9474.636058
4091.041524,76.609550,-0.000000,9548.656652
4091.041839,76.609550,-222.061783,9474.636058
4091.042154,76.609550,-0.000000,9918.759623
4091.042469,0.000000,-296.082377,9104.533087
4091.042785,153.219100,-0.000000,9474.636058
4091.043100,0.000000,-222.061783,9548.656652
4091.043415,0.000000,-444.123565,9548.656652
4091.043731,229.828649,-296.082377,9474.636058
4091.044046,229.828649,-0.000000,9400.615463
4091.044361,0.000000,-222.061783,9178.553681
4091.044676,0.000000,-148.041188,9252.574275
4091.044992,229.828649,-222.061783,9252.574275
4091.045307,383.047749,-444.123565,9326.594869
4091.045622,76.609550,-74.020594,9400.615463
4091.045937,0.000000,-370.102971,9548.656652
4091.046253,0.000000,-0.000000,9548.656652
4091.046568,0.000000,-296.082377,9696.697840
4091.046883,153.219100,-74.020594,9474.636058
4091.047199,229.828649,-0.000000,9474.636058
4091.047514,153.219100,-74.020594,9992.780217
4091.047829,229.828649,222.061783,9622.677246
4091.048144,153.219100,-0.000000,9474.636058
4091.048460,383.047749,-0.000000,9474.636058
4091.048775,153.219100,-0.000000,9770.718434
4091.049090,0.000000,-74.020594,9696.697840
4091.049406,0.000000,222.061783,9770.718434
4091.049721,0.000000,222.061783,9696.697840
4091.050036,153.219100,222.061783,9252.574275
4091.050351,536.266849,-0.000000,9696.697840
4091.050667,0.000000,-0.000000,9548.656652
4091.050982,-306.438199,-0.000000,9770.718434
4091.051297,0.000000,222.061783,9548.656652
4091.051613,229.828649,222.061783,9696.697840
4091.051928,153.219100,148.041188,9770.718434
4091.052243,76.609550,222.061783,9696.697840
4091.052558,0.000000,-0.000000,9844.739029
4091.052874,76.609550,518.144159,9622.677246
4091.053189,0.000000,296.082377,9474.636058
4091.053504,459.657299,370.102971,9622.677246
4091.053820,153.219100,370.102971,9770.718434
4091.054135,76.609550,370.102971,9548.656652
4091.054450,383.047749,444.123565,9326.594869
4091.054765,153.219100,518.144159,9252.574275
4091.055081,383.047749,-0.000000,10066.800811
4091.055396,459.657299,296.082377,9400.615463
4091.055711,383.047749,518.144159,9548.656652
4091.056027,229.828649,370.102971,9474.636058
4091.056342,306.438199,222.061783,9326.594869
4091.056657,459.657299,296.082377,9918.759623
4091.056972,153.219100,444.123565,9474.636058
4091.057288,76.609550,518.144159,9548.656652
4091.057603,76.609550,296.082377,9548.656652
4091.057918,0.000000,444.123565,9548.656652
4091.058233,76.609550,296.082377,9844.739029
4091.058549,0.000000,222.061783,9696.697840
4091.058864,0.000000,296.082377,9770.718434
4091.059179,76.609550,296.082377,9252.574275
4091.059495,0.000000,-0.000000,9696.697840
4091.059810,153.219100,-148.041188,10288.862594
4091.060125,-229.828649,-0.000000,9696.697840
4091.060440,76.609550,296.082377,9770.718434
4091.060756,0.000000,222.061783,9326.594869
4091.061071,306.438199,370.102971,9474.636058
4091.061386,-612.876398,-0.000000,9474.636058
4091.061702,0.000000,74.020594,9474.636058
4091.062017,0.000000,-0.000000,9474.636058
4091.062332,0.000000,-0.000000,9474.636058
4091.062647,306.438199,-0.000000,9696.697840
4091.062963,76.609550,-0.000000,9474.636058
4091.063278,0.000000,-74.020594,9474.636058
4091.063593,76.609550,-74.020594,9474.636058
4091.063909,76.609550,-0.000000,9400.615463
4091.064224,536.266849,-0.000000,9474.636058
4091.064539,76.609550,-74.020594,9474.636058
4091.064854,76.609550,296.082377,9474.636058
4091.065170,76.609550,-0.000000,9400.615463
4091.065485,76.609550,-0.000000,9030.512492
4091.065800,306.438199,-74.020594,9326.594869
4091.066116,153.219100,-74.020594,9400.615463
4091.066431,0.000000,-0.000000,9400.615463
4091.066746,0.000000,-0.000000,9326.594869
4091.067061,76.609550,-222.061783,9326.594869
4091.067377,0.000000,-222.061783,9548.656652
4091.067692,0.000000,-0.000000,9474.636058
4091.068007,0.000000,-74.020594,9252.574275
4091.068323,0.000000,-0.000000,9474.636058
4091.068638,0.000000,-0.000000,9474.636058
4091.068953,306.438199,-74.020594,10140.821405
4091.069269,0.000000,-0.000000,9622.677246
4091.069584,0.000000,148.041188,9474.636058
4091.069899,0.000000,-0.000000,9474.636058
4091.070215,0.000000,-0.000000,9474.636058
4091.070530,-459.657299,-0.000000,9844.739029
4091.070846,0.000000,-0.000000,9474.636058
4091.071161,-76.609550,222.061783,9474.636058
4091.071476,0.000000,148.041188,9474.636058
4091.071792,153.219100,370.102971,9844.739029
4091.072107,306.438199,-74.020594,9400.615463
4091.072423,-229.828649,148.041188,9548.656652
4091.072738,0.000000,148.041188,9474.636058
4091.073054,0.000000,296.082377,9696.697840
4091.073369,383.047749,-0.000000,9918.759623
4091.073684,0.000000,-0.000000,9770.718434
4091.074000,0.000000,222.061783,9622.677246
4091.074315,0.000000,444.123565,9696.697840
4091.074631,0.000000,148.041188,9844.739029
4091.074946,0.000000,222.061783,9696.697840
4091.075262,0.000000,296.082377,10066.800811
4091.075577,0.000000,296.082377,9474.636058
4091.075892,0.000000,592.164754,9474.636058
4091.076208,-153.219100,666.185348,9548.656652
4091.076523,-842.705048,592.164754,9622.677246
4091.076839,-536.266849,518.144159,9770.718434
4091.077154,0.000000,518.144159,9474.636058
4091.077469,-229.828649,296.082377,9770.718434
4091.077785,-459.657299,444.123565,9622.677246
4091.078100,-153.219100,814.226536,9770.718434
4091.078416,-536.266849,1110.308913,9992.780217
4091.078731,-153.219100,962.267725,9622.677246
4091.079047,0.000000,1110.308913,9400.615463
4091.079362,-383.047749,1110.308913,9252.574275
4091.079677,-383.047749,1184.329507,8882.471304
4091.079993,-919.314598,1702.473667,9326.594869
4091.080308,-1149.143247,1480.411884,9104.533087
4091.080624,-2145.067394,1258.350101,9400.615463
4091.080939,-2068.457845,1184.329507,10066.800811
4091.081255,-2834.553343,518.144159,10066.800811
4091.081570,-2451.505594,1036.288319,10362.883188
4091.081885,-2528.115143,1406.391290,9992.780217
4091.082201,-2451.505594,1554.432478,9474.636058
4091.082516,-2451.505594,2146.597232,9622.677246
4091.082832,-2145.067394,2072.576638,9474.636058
4091.083147,-2681.334243,2590.720797,9252.574275
4091.083462,-2374.896044,2886.803174,8882.471304
4091.083778,-2528.115143,2886.803174,8586.388927
4091.084093,-2604.724693,2812.782580,9030.512492
4091.084409,-3064.381992,2368.659014,9030.512492
4091.084724,-3294.210641,2220.617826,9474.636058
4091.085040,-3294.210641,2516.700203,9696.697840
4091.085355,-3600.648841,2442.679609,9844.739029
4091.085670,-3140.991542,2294.638420,10066.800811
4091.085986,-3217.601092,2664.741391,10140.821405
4091.086301,-3217.601092,3034.844362,9992.780217
4091.086617,-2681.334243,2960.823768,9770.718434
4091.086932,-2298.286494,3404.947333,10066.800811
4091.087248,-1762.019645,3552.988522,9918.759623
4091.087563,-1608.800546,3627.009116,9918.759623
4091.087878,-1225.752797,4071.132681,9770.718434
4091.088194,-842.705048,3849.070898,9696.697840
4091.088509,0.000000,3627.009116,9474.636058
4091.088825,-383.047749,3923.091493,9326.594869
4091.089140,-842.705048,3849.070898,9104.533087
4091.089455,-919.314598,3552.988522,9474.636058
4091.089771,-1225.752797,3256.906145,9474.636058
4091.090086,-1378.971896,2368.659014,9622.677246
4091.090402,-1991.848295,2738.761985,10140.821405
4091.090717,-2221.676944,2590.720797,10140.821405
4091.091033,-1991.848295,2516.700203,10066.800811
4091.091348,-2298.286494,3034.844362,10140.821405
4091.091663,-2145.067394,3108.864956,10288.862594
4091.091979,-2451.505594,3478.967927,9918.759623
4091.092294,-2298.286494,3923.091493,10436.903782
4091.092610,-2221.676944,4145.153275,10140.821405
4091.092925,-2221.676944,3849.070898,9844.739029
4091.093241,-2221.676944,3404.947333,10436.903782
4091.093556,-2374.896044,3256.906145,10510.924376
4091.093871,-2298.286494,3108.864956,10881.027347
4091.094187,-2221.676944,2294.638420,10881.027347
4091.094502,-2068.457845,1924.535449,10881.027347
4091.094818,-1608.800546,1406.391290,10584.944971
4091.095133,-919.314598,1258.350101,10362.883188
4091.095448,-689.485948,1184.329507,9770.718434
4091.095764,-536.266849,1628.453072,9104.533087
4091.096079,-536.266849,1924.535449,8364.327145
4091.096395,76.609550,2368.659014,8142.265362
4091.096710,-229.828649,2072.576638,7624.121203
4091.097026,-1072.533697,2442.679609,7328.038826
4091.097341,-1915.238745,2146.597232,7698.141797
4091.097656,-2528.115143,1628.453072,7920.203579
4091.097972,-3447.429741,1332.370696,8956.491898
4091.098287,-3753.867940,370.102971,10510.924376
4091.098603,-4060.306139,740.205942,9622.677246
4091.098918,-4136.915689,-0.000000,10584.944971
4091.099234,-4213.525239,-0.000000,10807.006753
4091.099549,-3447.429741,-222.061783,11399.171507
4091.099864,-2374.896044,814.226536,10584.944971
4091.100180,-1225.752797,1480.411884,10288.862594
4091.100495,0.000000,2442.679609,9548.656652
4091.100811,612.876398,3108.864956,9326.594869
4091.101126,536.266849,3775.050304,8216.285956
4091.101441,0.000000,3849.070898,7550.100608
4091.101757,-842.705048,3404.947333,7328.038826
4091.102072,-1532.190996,2812.782580,7254.018232
4091.102388,-2604.724693,962.267725,7772.162391
4091.102703,-3907.087040,-370.102971,9030.512492
4091.103019,-4979.620737,-962.267725,10140.821405
4091.103334,-5515.887586,-1998.556043,12065.356855
4091.103649,-5286.058936,-1776.494261,11843.295072
4091.103965,-4826.401637,-1406.391290,13027.624579
4091.104280,-2374.896044,-888.247130,12509.480420
4091.104596,-383.047749,-148.041188,11473.192101
4091.104911,1532.190996,2146.597232,9770.718434
4091.105227,2987.772442,3775.050304,7994.224174
4091.105542,3753.867940,5625.565159,6883.915261
4091.105857,3753.867940,6069.688724,5773.606348
4091.106173,3294.210641,6217.729913,5107.421000
4091.106488,1608.800546,5181.441594,5699.585753
4091.106804,-1072.533697,3330.926739,7550.100608
4091.107119,-3447.429741,-74.020594,10066.800811
4091.107434,-4903.011187,-3404.947333,12731.542202
4091.107750,-5822.325785,-5477.523971,15100.201217
4091.108065,-5515.887586,-6069.688724,15840.407159
4091.108381,-3524.039291,-5477.523971,15248.242405
4091.108696,-1149.143247,-3256.906145,12583.501014
4091.109012,306.438199,1332.370696,10140.821405
4091.109327,2298.286494,4959.379811,7476.080014
4091.109642,4213.525239,7550.100608,4145.153275
4091.109958,5132.839837,9104.533087,2812.782580
4091.110273,4979.620737,9104.533087,3034.844362
4091.110589,1915.238745,6365.771101,5329.482782
4091.110904,153.219100,2368.659014,9030.512492
4091.111220,-2145.067394,-1850.514855,11917.315666
4091.111535,-3677.258390,-4737.318029,15174.221811
4091.111850,-3370.820191,-6069.688724,17394.839637
4091.112166,-3217.601092,-6883.915261,16802.674883
4091.112481,-2451.505594,-5033.400406,13619.789333
4091.112797,-1455.581446,-1702.473667,11103.089130
4091.113112,229.828649,2146.597232,9326.594869
4091.113427,2528.115143,4959.379811,5033.400406
4091.113743,4136.915689,7328.038826,2812.782580
4091.114058,3600.648841,8290.306550,2146.597232
4091.114374,1608.800546,5551.544565,4441.235652
4091.114689,459.657299,1628.453072,8882.471304
4091.115005,-689.485948,-1554.432478,10955.047942
4091.115320,-1991.848295,-4145.153275,13323.706956
4091.115635,-1838.629195,-4589.276840,15322.262999
4091.115951,-995.924147,-5551.544565,14730.098246
4091.116266,-612.876398,-4293.194464,12879.583391
4091.116582,0.000000,-962.267725,9770.718434
4091.116897,229.828649,1702.473667,7846.182985
4091.117213,1302.362347,4515.256246,5403.503377
4091.117528,689.485948,6217.729913,3552.988522
4091.117843,919.314598,4663.297435,4885.359217
4091.118159,-306.438199,1776.494261,7179.997637
4091.118474,-2068.457845,-1110.308913,9474.636058
4091.118790,-2451.505594,-3923.091493,11621.233289
4091.119105,-2374.896044,-4737.318029,14434.015869
4091.119420,-919.314598,-4145.153275,14730.098246
4091.119736,383.047749,-3849.070898,12657.521608
4091.120051,1532.190996,-1998.556043,11177.109724
4091.120367,2374.896044,370.102971,10510.924376
4091.120682,2298.286494,3034.844362,7624.121203
4091.120998,2374.896044,4811.338623,5403.503377
4091.121313,2145.067394,4737.318029,4293.194464
4091.121628,766.095498,3478.967927,5477.523971
4091.121944,-995.924147,1036.288319,7698.141797
4091.122259,-2221.676944,-2886.803174,10288.862594
4091.122575,-2834.553343,-4663.297435,11843.295072
4091.122890,-2451.505594,-5107.421000,13619.789333
4091.123206,-536.266849,-4293.194464,13545.768739
4091.123521,459.657299,-3256.906145,12361.439231
4091.123836,1225.752797,-814.226536,11843.295072
4091.124152,2145.067394,1110.308913,10214.842000
4091.124467,2834.553343,3256.906145,7698.141797
4091.124783,3294.210641,4145.153275,5625.565159
4091.125098,3064.381992,4367.215058,5773.606348
4091.125413,1225.752797,3034.844362,5995.668130
4091.125729,0.000000,814.226536,7179.997637
4091.126044,-459.657299,-888.247130,9030.512492
4091.126360,-1225.752797,-2664.741391,10510.924376
4091.126675,-383.047749,-3182.885551,12435.459826
4091.126991,0.000000,-3775.050304,13027.624579
4091.127306,-995.924147,-3256.906145,12657.521608
4091.127621,-229.828649,-2220.617826,12065.356855
4091.127937,153.219100,-444.123565,11325.150913
4091.128252,612.876398,666.185348,9548.656652
4091.128568,1532.190996,1406.391290,8364.327145
4091.128883,1685.410096,2368.659014,6809.894666
4091.129199,1762.019645,3034.844362,5921.647536
4091.129514,1762.019645,2368.659014,6365.771101
4091.129829,919.314598,1332.370696,7846.182985
4091.130145,1149.143247,592.164754,9252.574275
4091.130460,306.438199,-444.123565,10510.924376
4091.130776,-689.485948,-1850.514855,11843.295072
4091.131091,-919.314598,-2886.803174,13545.768739
4091.131406,-1302.362347,-3256.906145,13693.809927
4091.131722,-1149.143247,-3108.864956,12805.562797
4091.132037,-612.876398,-1332.370696,11103.089130
4091.132353,76.609550,370.102971,9400.615463
4091.132668,1378.971896,3182.885551,6513.812290
4091.132984,1915.238745,3997.112087,5477.523971
4091.133299,2374.896044,3997.112087,5403.503377
4091.133614,1762.019645,2738.761985,5773.606348
4091.133930,995.924147,1924.535449,7698.141797
4091.134245,153.219100,-0.000000,9844.739029
4091.134561,-1225.752797,-1998.556043,11917.315666
4091.134876,-1838.629195,-3330.926739,13619.789333
4091.135192,-1915.238745,-3701.029710,14359.995275
4091.135507,-1378.971896,-2664.741391,13323.706956
4091.135822,-689.485948,-1036.288319,11103.089130
4091.136138,612.876398,1184.329507,8660.409521
4091.136453,842.705048,3701.029710,6217.729913
4091.136769,1762.019645,5033.400406,4663.297435
4091.137084,842.705048,4811.338623,4737.318029
4091.137400,153.219100,3108.864956,6069.688724
4091.137715,0.000000,518.144159,8438.347739
4091.138030,-1685.410096,-1110.308913,11251.130318
4091.138346,-2528.115143,-3034.844362,13619.789333
4091.138661,-2604.724693,-3923.091493,14285.974681
4091.138977,-2298.286494,-3330.926739,14063.912898
4091.139292,-919.314598,-1850.514855,12139.377449
4091.139607,306.438199,666.185348,9844.739029
4091.139923,1378.971896,3404.947333,7105.977043
4091.140238,1762.019645,5181.441594,5181.441594
4091.140554,842.705048,5625.565159,4737.318029
4091.140869,842.705048,4293.194464,5403.503377
4091.141185,-229.828649,2072.576638,7550.100608
4091.141500,-1072.533697,-592.164754,10436.903782
4091.141815,-2068.457845,-2368.659014,12731.542202
4091.142131,-2068.457845,-3478.967927,14359.995275
4091.142446,-1455.581446,-2812.782580,14359.995275
4091.142762,-536.266849,-1998.556043,13175.665768
4091.143077,459.657299,-370.102971,11177.109724
4091.143393,1455.581446,1554.432478,8882.471304
4091.143708,1991.848295,3701.029710,7031.956449
4091.144023,1991.848295,4811.338623,5403.503377
4091.144339,2068.457845,4219.173869,5403.503377
4091.144654,1302.362347,2664.741391,7105.977043
4091.144970,76.609550,518.144159,9252.574275
4091.145285,0.000000,-1406.391290,11029.068536
4091.145600,-612.876398,-2294.638420,12213.398043
4091.145916,-459.657299,-2220.617826,12583.501014
4091.146231,-229.828649,-1924.535449,12731.542202
4091.146547,153.219100,-1628.453072,11843.295072
4091.146862,76.609550,-0.000000,10436.903782
4091.147178,459.657299,1332.370696,9178.553681
4091.147493,842.705048,2072.576638,7476.080014
4091.147808,842.705048,2368.659014,7179.997637
4091.148124,536.266849,1184.329507,7624.121203
4091.148439,0.000000,296.082377,8290.306550
4091.148755,153.219100,-444.123565,9400.615463
4091.149070,306.438199,-1258.350101,10214.842000
4091.149386,459.657299,-1184.329507,10807.006753
4091.149701,536.266849,-1036.288319,10362.883188
4091.150016,459.657299,-888.247130,10140.821405
4091.150332,0.000000,-296.082377,9696.697840
4091.150647,0.000000,-370.102971,10066.800811
4091.150963,-229.828649,-444.123565,9770.718434
4091.151278,0.000000,-222.061783,9400.615463
4091.151593,-229.828649,-370.102971,8734.430116
4091.151909,-459.657299,-518.144159,8808.450710
4091.152224,0.000000,-222.061783,8808.450710
4091.152540,229.828649,-370.102971,8808.450710
4091.152855,766.095498,-0.000000,9104.533087
4091.153171,842.705048,370.102971,9326.594869
4091.153486,766.095498,444.123565,9030.512492
4091.153801,0.000000,444.123565,9474.636058
4091.154117,-842.705048,-370.102971,9844.739029
4091.154432,-1302.362347,-1258.350101,10510.924376
4091.154748,-1455.581446,-1924.535449,11399.171507
4091.155063,-1378.971896,-1702.473667,10955.047942
4091.155379,-766.095498,-962.267725,10214.842000
4091.155694,-153.219100,-0.000000,9178.553681
4091.156009,383.047749,814.226536,7698.141797
4091.156325,995.924147,1776.494261,7772.162391
4091.156640,995.924147,2072.576638,7476.080014
4091.156956,0.000000,1850.514855,8290.306550
4091.157271,-459.657299,666.185348,9252.574275
4091.157586,-1072.533697,-666.185348,10362.883188
4091.157902,-1762.019645,-1998.556043,11473.192101
4091.158217,-1762.019645,-2664.741391,12361.439231
4091.158533,-1302.362347,-2146.597232,11991.336260
4091.158848,-383.047749,-1332.370696,11251.130318
4091.159164,612.876398,222.061783,9474.636058
4091.159479,1685.410096,1998.556043,8290.306550
4091.159794,1838.629195,2738.761985,6957.935855
4091.160110,1685.410096,3182.885551,6439.791695
4091.160425,919.314598,2960.823768,6809.894666
4091.160741,153.219100,1332.370696,8290.306550
4091.161056,-459.657299,-370.102971,10066.800811
4091.161372,-1072.533697,-2146.597232,12065.356855
4091.161687,-1378.971896,-3034.844362,12953.603985
4091.162002,-1225.752797,-2664.741391,13027.624579
4091.162318,-229.828649,-1332.370696,11769.274478
4091.162633,995.924147,222.061783,10732.986159
4091.162949,2145.067394,1998.556043,8808.450710
4091.163264,2681.334243,3404.947333,7179.997637
4091.163579,2298.286494,3923.091493,6587.832884
4091.163895,1991.848295,3330.926739,6735.874072
4091.164210,1455.581446,1850.514855,8290.306550
4091.164526,383.047749,-0.000000,10066.800811
4091.164841,0.000000,-1480.411884,11103.089130
4091.165157,-612.876398,-2368.659014,12361.439231
4091.165472,-689.485948,-1924.535449,13027.624579
4091.165787,306.438199,-1184.329507,12065.356855
4091.166103,1072.533697,-222.061783,10807.006753
4091.166418,1302.362347,1110.308913,9400.615463
4091.166734,1608.800546,2368.659014,8216.285956
4091.167049,1608.800546,3256.906145,7476.080014
4091.167365,1762.019645,3478.967927,7105.977043
4091.167680,919.314598,2146.597232,8216.285956
4091.167995,0.000000,444.123565,9474.636058
4091.168311,-153.219100,-740.205942,10732.986159
4091.168626,-459.657299,-1480.411884,11251.130318
4091.168942,-689.485948,-1702.473667,11399.171507
4091.169257,0.000000,-666.185348,10881.027347
4091.169572,0.000000,-370.102971,10436.903782
4091.169888,306.438199,518.144159,9400.615463
4091.170203,-229.828649,962.267725,8660.409521
4091.170519,-153.219100,1406.391290,7994.224174
4091.170834,306.438199,1332.370696,8438.347739
4091.171150,-536.266849,296.082377,9178.553681
4091.171465,-842.705048,-0.000000,9992.780217
4091.171780,-995.924147,-740.205942,10066.800811
4091.172096,-536.266849,-962.267725,10362.883188
4091.172411,-153.219100,-666.185348,10288.862594
4091.172727,0.000000,-0.000000,9918.759623
4091.173042,459.657299,592.164754,8956.491898
4091.173357,-229.828649,962.267725,8660.409521
4091.173673,-459.657299,740.205942,8882.471304
4091.173988,-459.657299,296.082377,9178.553681
4091.174304,-766.095498,-888.247130,9474.636058
4091.174619,-1149.143247,-888.247130,9844.739029
4091.174935,-1225.752797,-1184.329507,10066.800811
4091.175250,-1072.533697,-1184.329507,10066.800811
4091.175565,-229.828649,-518.144159,9918.759623
4091.175881,459.657299,666.185348,9326.594869
4091.176196,919.314598,740.205942,8956.491898
4091.176512,612.876398,1258.350101,8290.306550
4091.176827,459.657299,1184.329507,8734.430116
4091.177142,0.000000,-0.000000,9030.512492
4091.177458,0.000000,-222.061783,10362.883188
4091.177773,-612.876398,-1480.411884,11029.068536
4091.178089,-689.485948,-1850.514855,11399.171507
4091.178404,-383.047749,-1258.350101,10807.006753
4091.178719,383.047749,-962.267725,9918.759623
4091.179035,1072.533697,-0.000000,9474.636058
4091.179350,1455.581446,962.267725,8512.368333
4091.179666,1685.410096,1554.432478,7624.121203
4091.179981,1225.752797,1554.432478,7698.141797
4091.180297,766.095498,518.144159,8068.244768
4091.180612,306.438199,-74.020594,9104.533087
4091.180927,-306.438199,-1702.473667,10658.965565
4091.181243,-1072.533697,-2664.741391,11621.233289
4091.181558,-383.047749,-2664.741391,11843.295072
4091.181874,-153.219100,-1628.453072,11251.130318
4091.182189,995.924147,-666.185348,9992.780217
4091.182504,1532.190996,888.247130,8882.471304
4091.182820,1915.238745,2146.597232,7772.162391
4091.183135,1838.629195,1924.535449,7698.141797
4091.183451,995.924147,1998.556043,7402.059420
4091.183766,459.657299,1110.308913,7994.224174
4091.184081,-383.047749,-222.061783,9474.636058
4091.184397,-536.266849,-1850.514855,10955.047942
4091.184712,-919.314598,-2442.679609,11843.295072
4091.185028,-1072.533697,-2368.659014,11843.295072
4091.185343,-383.047749,-1554.432478,11399.171507
4091.185659,229.828649,-0.000000,10214.842000
4091.185974,766.095498,1258.350101,8586.388927
4091.186289,1302.362347,2146.597232,7624.121203
4091.186605,842.705048,2590.720797,6735.874072
4091.186920,306.438199,2220.617826,7031.956449
4091.187236,-229.828649,1480.411884,8364.327145
4091.187551,-919.314598,-74.020594,9918.759623
4091.187866,-1225.752797,-1184.329507,11177.109724
4091.188182,-2068.457845,-1924.535449,11621.233289
4091.188497,-1608.800546,-1702.473667,11843.295072
4091.188813,-842.705048,-444.123565,10732.986159
4091.189128,-459.657299,1036.288319,10288.862594
4091.189444,229.828649,1628.453072,9178.553681
4091.189759,0.000000,2664.741391,7920.203579
4091.190074,0.000000,2590.720797,8142.265362
4091.190390,-383.047749,2368.659014,7994.224174
4091.190705,-612.876398,1554.432478,8882.471304
4091.191021,-536.266849,-0.000000,10436.903782
4091.191336,-919.314598,-888.247130,10881.027347
4091.191651,-995.924147,-1110.308913,11325.150913
4091.191967,-383.047749,-666.185348,11325.150913
4091.192282,153.219100,296.082377,10436.903782
4091.192598,766.095498,962.267725,9252.574275
4091.192913,842.705048,1776.494261,8512.368333
4091.193228,919.314598,2146.597232,8142.265362
4091.193544,459.657299,2294.638420,8068.244768
4091.193859,689.485948,1332.370696,9326.594869
4091.194175,-306.438199,148.041188,9992.780217
4091.194490,-536.266849,-666.185348,10510.924376
4091.194806,-459.657299,-1332.370696,11325.150913
4091.195121,-459.657299,-1036.288319,10955.047942
4091.195436,1072.533697,-518.144159,11103.089130
4091.195752,1532.190996,444.123565,9918.759623
4091.196067,1532.190996,1036.288319,9178.553681
4091.196383,1149.143247,2072.576638,8882.471304
4091.196698,842.705048,1702.473667,8364.327145
4091.197013,766.095498,518.144159,8956.491898
4091.197329,459.657299,-0.000000,9622.677246
4091.197644,0.000000,-962.267725,10288.862594
4091.197960,-459.657299,-1406.391290,10881.027347
4091.198275,76.609550,-1184.329507,10955.047942
4091.198590,536.266849,-962.267725,10584.944971
4091.198906,919.314598,-0.000000,9696.697840
4091.199221,1915.238745,740.205942,9104.533087
4091.199537,1378.971896,1258.350101,8142.265362
4091.199852,1072.533697,1184.329507,8142.265362
4091.200168,383.047749,1110.308913,8438.347739
4091.200483,0.000000,-0.000000,9474.636058
4091.200798,-689.485948,-814.226536,10066.800811
4091.201114,-842.705048,-1628.453072,10658.965565
4091.201429,-383.047749,-1628.453072,10807.006753
4091.201745,76.609550,-1184.329507,10214.842000
4091.202060,919.314598,-0.000000,9252.574275
4091.202375,1072.533697,592.164754,8660.409521
4091.202691,995.924147,1036.288319,7846.182985
4091.203006,383.047749,1184.329507,7698.141797
4091.203322,0.000000,888.247130,7994.224174
4091.203637,-153.219100,-518.144159,8586.388927
4091.203953,-766.095498,-1184.329507,10066.800811
4091.204268,-1378.971896,-1998.556043,10510.924376
4091.204583,-1149.143247,-2220.617826,11103.089130
4091.204899,-842.705048,-1850.514855,10732.986159
4091.205214,0.000000,-814.226536,10214.842000
4091.205530,689.485948,-0.000000,9400.615463
4091.205845,1149.143247,1406.391290,7920.203579
4091.206160,689.485948,1332.370696,7476.080014
4091.206476,612.876398,1702.473667,7550.100608
4091.206791,0.000000,1184.329507,8290.306550
4091.207107,-612.876398,-0.000000,9474.636058
4091.207422,-995.924147,-1184.329507,10584.944971
4091.207737,-1608.800546,-2072.576638,11325.150913
4091.208053,-1302.362347,-2294.638420,11325.150913
4091.208368,-459.657299,-1406.391290,11325.150913
4091.208684,229.828649,-370.102971,10510.924376
4091.208999,689.485948,666.185348,9178.553681
4091.209315,766.095498,1480.411884,7476.080014
4091.209630,842.705048,2294.638420,8438.347739
4091.209945,153.219100,2146.597232,8364.327145
4091.210261,383.047749,1332.370696,8660.409521
4091.210576,-76.609550,296.082377,9918.759623
4091.210892,-842.705048,-666.185348,11029.068536
4091.211207,-766.095498,-1406.391290,11399.171507
4091.211522,-459.657299,-1406.391290,11473.192101
4091.211838,76.609550,-222.061783,11177.109724
4091.212153,1072.533697,-0.000000,9770.718434
4091.212469,1762.019645,1554.432478,8438.347739
4091.212784,1455.581446,2220.617826,7476.080014
4091.213099,689.485948,2368.659014,7698.141797
4091.213415,229.828649,1998.556043,8660.409521
4091.213730,-995.924147,740.205942,9474.636058
4091.214046,-766.095498,-666.185348,10436.903782
4091.214361,-919.314598,-1628.453072,11547.212695
4091.214677,-842.705048,-1554.432478,11473.192101
4091.214992,-153.219100,-740.205942,11621.233289
4091.215307,459.657299,296.082377,10732.986159
4091.215623,1378.971896,1258.350101,9326.594869
4091.215938,1762.019645,2220.617826,8068.244768
4091.216254,1072.533697,2146.597232,7994.224174
4091.216569,1149.143247,2294.638420,8068.244768
4091.216884,383.047749,888.247130,8956.491898
4091.217200,0.000000,-0.000000,9548.656652
4091.217515,-612.876398,-888.247130,11029.068536
4091.217831,-1149.143247,-1406.391290,11251.130318
4091.218146,-612.876398,-1184.329507,10881.027347
4091.218462,306.438199,-370.102971,10955.047942
4091.218777,536.266849,148.041188,9474.636058
4091.219092,995.924147,1036.288319,9104.533087
4091.219408,612.876398,1776.494261,8216.285956
4091.219723,689.485948,1924.535449,7920.203579
4091.220039,459.657299,1628.453072,8586.388927
4091.220354,-306.438199,-0.000000,9400.615463
4091.220669,-459.657299,-666.185348,10510.924376
4091.220985,-842.705048,-1036.288319,10955.047942
4091.221300,-766.095498,-888.247130,10732.986159
4091.221616,306.438199,-444.123565,10362.883188
4091.221931,536.266849,592.164754,9548.656652
4091.222246,459.657299,1258.350101,8808.450710
4091.222562,306.438199,1702.473667,8364.327145
4091.222877,76.609550,1628.453072,8290.306550
4091.223193,0.000000,1332.370696,8364.327145
4091.223508,-383.047749,518.144159,8882.471304
4091.223824,-1225.752797,-888.247130,10658.965565
4091.224139,-1302.362347,-1628.453072,11177.109724
4091.224454,-1225.752797,-1628.453072,10881.027347
4091.224770,0.000000,-1554.432478,10807.006753
4091.225085,612.876398,-296.082377,9474.636058
4091.225401,1302.362347,296.082377,8882.471304
4091.225716,1608.800546,1184.329507,7624.121203
4091.226031,1225.752797,1628.453072,7476.080014
4091.226347,995.924147,1850.514855,7476.080014
4091.226662,689.485948,962.267725,8586.388927
4091.226978,-229.828649,-370.102971,10066.800811
4091.227293,-383.047749,-1628.453072,11103.089130
4091.227608,-995.924147,-2146.597232,11399.171507
4091.227924,-689.485948,-1924.535449,11251.130318
4091.228239,229.828649,-1036.288319,11325.150913
4091.228555,995.924147,370.102971,10066.800811
4091.228870,1378.971896,1110.308913,8808.450710
4091.229186,1455.581446,1850.514855,8438.347739
4091.229501,842.705048,1776.494261,8142.265362
4091.229816,689.485948,1184.329507,8512.368333
4091.230132,229.828649,-0.000000,9770.718434
4091.230447,-153.219100,-1406.391290,10732.986159
4091.230763,-842.705048,-1998.556043,11251.130318
4091.231078,-306.438199,-2146.597232,11695.253884
4091.231393,0.000000,-1554.432478,11621.233289
4091.231709,689.485948,-518.144159,10510.924376
4091.232024,1225.752797,666.185348,8808.450710
4091.232340,1302.362347,1258.350101,8068.244768
4091.232655,612.876398,1702.473667,7772.162391
4091.232971,459.657299,1184.329507,7550.100608
4091.233286,0.000000,-0.000000,8808.450710
4091.233601,-612.876398,-518.144159,9622.677246
4091.233917,-919.314598,-1480.411884,10658.965565
4091.234232,-995.924147,-1850.514855,10955.047942
4091.234548,-919.314598,-1776.494261,11325.150913
4091.234863,0.000000,-1036.288319,11029.068536
4091.235178,76.609550,370.102971,9474.636058
4091.235494,612.876398,1184.329507,8660.409521
4091.235809,459.657299,1998.556043,7698.141797
4091.236125,76.609550,1702.473667,7476.080014
4091.236440,153.219100,1036.288319,7994.224174
4091.236755,-536.266849,-0.000000,9252.574275
4091.237071,-995.924147,-888.247130,9770.718434
4091.237386,-1302.362347,-1628.453072,10658.965565
4091.237702,-995.924147,-1332.370696,10807.006753
4091.238017,-459.657299,-444.123565,10658.965565
4091.238333,306.438199,518.144159,9696.697840
4091.238648,766.095498,666.185348,8586.388927
4091.238963,1225.752797,1924.535449,7772.162391
4091.239279,536.266849,2294.638420,7105.977043
4091.239594,76.609550,1850.514855,7772.162391
4091.239910,-536.266849,1184.329507,8808.450710
4091.240225,-995.924147,-518.144159,10066.800811
4091.240540,-1072.533697,-1184.329507,11103.089130
4091.240856,-995.924147,-1406.391290,11917.315666
4091.241171,-766.095498,-518.144159,10955.047942
4091.241487,76.609550,74.020594,10510.924376
4091.241802,689.485948,1110.308913,9252.574275
4091.242118,1225.752797,1850.514855,9178.553681
4091.242433,1225.752797,2368.659014,8290.306550
4091.242748,612.876398,2516.700203,7994.224174
4091.243064,995.924147,2294.638420,8586.388927
4091.243379,153.219100,814.226536,9548.656652
4091.243695,-383.047749,-888.247130,10807.006753
4091.244010,-995.924147,-1554.432478,11991.336260
4091.244325,-612.876398,-1332.370696,11917.315666
4091.244641,0.000000,-1184.329507,11399.171507
4091.244956,842.705048,-0.000000,10658.965565
4091.245272,1149.143247,962.267725,9770.718434
4091.245587,919.314598,1776.494261,8364.327145
4091.245902,1149.143247,2368.659014,8586.388927
4091.246218,919.314598,2072.576638,8364.327145
4091.246533,842.705048,1036.288319,9104.533087
4091.246849,229.828649,-0.000000,9918.759623
4091.247164,0.000000,-1184.329507,10881.027347
4091.247480,0.000000,-1258.350101,11547.212695
4091.247795,536.266849,-1554.432478,11473.192101
4091.248110,842.705048,-222.061783,10510.924376
4091.248426,1302.362347,444.123565,9548.656652
4091.248741,1991.848295,1184.329507,8660.409521
4091.249057,1378.971896,1776.494261,7550.100608
4091.249372,1072.533697,1258.350101,7920.203579
4091.249687,689.485948,666.185348,8586.388927
4091.250003,0.000000,-592.164754,9252.574275
4091.250318,-995.924147,-1406.391290,10214.842000
4091.250634,-383.047749,-1776.494261,11177.109724
4091.250949,-153.219100,-2072.576638,11103.089130
4091.251264,153.219100,-1184.329507,10584.944971
4091.251580,536.266849,-222.061783,9844.739029
4091.251895,766.095498,814.226536,8586.388927
4091.252211,536.266849,1480.411884,8142.265362
4091.252526,0.000000,1628.453072,7550.100608
4091.252842,0.000000,1036.288319,8290.306550
4091.253157,-995.924147,-0.000000,9326.594869
4091.253472,-1455.581446,-1036.288319,9844.739029
4091.253788,-1685.410096,-2072.576638,10807.006753
4091.254103,-1685.410096,-1776.494261,10732.986159
4091.254419,-1225.752797,-1184.329507,10510.924376
4091.254734,-383.047749,-666.185348,10066.800811
4091.255049,153.219100,148.041188,8734.430116
4091.255365,459.657299,1184.329507,8142.265362
4091.255680,0.000000,1258.350101,7624.121203
4091.255996,-306.438199,1406.391290,7994.224174
4091.256311,-919.314598,370.102971,9030.512492
4091.256627,-1455.581446,-592.164754,9992.780217
4091.256942,-1455.581446,-1332.370696,10584.944971
4091.257257,-1532.190996,-2220.617826,11103.089130
4091.257573,-766.095498,-1480.411884,10955.047942
4091.257888,0.000000,-740.205942,10362.883188
4091.258204,612.876398,296.082377,9252.574275
4091.258519,1072.533697,1480.411884,8512.368333
4091.258834,919.314598,1776.494261,8142.265362
4091.259150,153.219100,1110.308913,8512.368333
4091.259465,0.000000,962.267725,8512.368333
4091.259781,-383.047749,-296.082377,9548.656652
4091.260096,-383.047749,-1184.329507,10881.027347
4091.260411,-536.266849,-1776.494261,11473.192101
4091.260727,-536.266849,-1702.473667,11325.150913
4091.261042,306.438199,-666.185348,10732.986159
4091.261358,1149.143247,148.041188,10362.883188
4091.261673,1838.629195,1332.370696,9622.677246
4091.261989,1838.629195,2146.597232,8290.306550
4091.262304,1455.581446,2294.638420,8142.265362
4091.262619,1149.143247,1998.556043,8364.327145
4091.262935,689.485948,962.267725,9400.615463
4091.263250,0.000000,-296.082377,10436.903782
4091.263566,-229.828649,-1110.308913,11991.336260
4091.263881,-612.876398,-1110.308913,11547.212695
4091.264196,0.000000,-666.185348,10955.047942
4091.264512,612.876398,-148.041188,10658.965565
4091.264827,1378.971896,814.226536,9770.718434
4091.265143,1608.800546,1258.350101,8882.471304
4091.265458,1302.362347,2294.638420,7846.182985
4091.265773,1455.581446,2294.638420,8068.244768
4091.266089,842.705048,1554.432478,8142.265362
4091.266404,0.000000,296.082377,9548.656652
4091.266720,-383.047749,-1036.288319,10955.047942
4091.267035,-766.095498,-1110.308913,11029.068536
4091.267351,-612.876398,-888.247130,11103.089130
4091.267666,306.438199,-370.102971,10584.944971
4091.267981,536.266849,518.144159,9474.636058
4091.268297,919.314598,1110.308913,8586.388927
4091.268612,689.485948,1924.535449,8068.244768
4091.268927,459.657299,1998.556043,7846.182985
4091.269242,229.828649,1776.494261,8142.265362
4091.269558,0.000000,592.164754,9030.512492
4091.269873,-1072.533697,-592.164754,9992.780217
4091.270188,-1225.752797,-1702.473667,11103.089130
4091.270504,-995.924147,-1924.535449,11251.130318
4091.270819,-536.266849,-962.267725,10510.924376
4091.271134,536.266849,148.041188,9844.739029
4091.271450,766.095498,1184.329507,8438.347739
4091.271765,1225.752797,1554.432478,7624.121203
4091.272080,766.095498,1998.556043,7994.224174
4091.272396,0.000000,1776.494261,7846.182985
4091.272711,306.438199,666.185348,8808.450710
4091.273026,-995.924147,-74.020594,9696.697840
4091.273341,-1762.019645,-1776.494261,10807.006753
4091.273657,-1915.238745,-2220.617826,11695.253884
4091.273972,-1532.190996,-2072.576638,11547.212695
4091.274287,-689.485948,-1184.329507,11399.171507
4091.274603,306.438199,-0.000000,9918.759623
4091.274918,459.657299,1332.370696,8586.388927
4091.275233,689.485948,2294.638420,7994.224174
4091.275549,536.266849,2368.659014,7698.141797
4091.275864,536.266849,1776.494261,8364.327145
4091.276179,-76.609550,222.061783,9030.512492
4091.276494,-842.705048,-740.205942,10140.821405
4091.276810,-995.924147,-1850.514855,11029.068536
4091.277125,-919.314598,-2146.597232,11547.212695
4091.277440,-459.657299,-1776.494261,11695.253884
4091.277756,0.000000,-666.185348,10362.883188
4091.278071,689.485948,370.102971,9474.636058
4091.278386,919.314598,1036.288319,8216.285956
4091.278702,919.314598,1406.391290,7624.121203
4091.279017,919.314598,1628.453072,7920.203579
4091.279332,306.438199,666.185348,8438.347739
4091.279647,76.609550,-444.123565,9918.759623
4091.279963,0.000000,-1036.288319,10140.821405
4091.280278,-459.657299,-1776.494261,10288.862594
4091.280593,459.657299,-1110.308913,11621.233289
4091.280909,612.876398,-444.123565,10362.883188
4091.281224,1225.752797,370.102971,9178.553681
4091.281539,1225.752797,740.205942,8734.430116
4091.281855,842.705048,1406.391290,8290.306550
4091.282170,919.314598,1110.308913,7698.141797
4091.282485,459.657299,1110.308913,8290.306550
4091.282801,0.000000,-0.000000,9696.697840
4091.283116,-689.485948,-1036.288319,10807.006753
4091.283431,-995.924147,-1628.453072,11251.130318
4091.283746,-689.485948,-1702.473667,11547.212695
4091.284062,0.000000,-1184.329507,10955.047942
4091.284377,766.095498,222.061783,9770.718434
4091.284692,1608.800546,888.247130,8660.409521
4091.285008,1455.581446,1628.453072,8438.347739
4091.285323,1072.533697,1998.556043,8364.327145
4091.285638,459.657299,2146.597232,7772.162391
4091.285954,306.438199,962.267725,9030.512492
4091.286269,-536.266849,-296.082377,10214.842000
4091.286584,-689.485948,-1480.411884,10436.903782
4091.286899,-919.314598,-1776.494261,11103.089130
4091.287215,-459.657299,-1406.391290,10881.027347
4091.287530,76.609550,-518.144159,9992.780217
4091.287845,612.876398,444.123565,9326.594869
4091.288161,1072.533697,1184.329507,8586.388927
4091.288476,229.828649,2072.576638,7846.182985
4091.288791,0.000000,2146.597232,7846.182985
4091.289107,76.609550,1702.473667,8512.368333
4091.289422,-842.705048,666.185348,9696.697840
4091.289737,-1225.752797,-592.164754,10658.965565
4091.290052,-1762.019645,-1628.453072,11177.109724
4091.290368,-1378.971896,-1258.350101,11695.253884
4091.290683,-306.438199,-666.185348,10881.027347
4091.290998,919.314598,592.164754,9844.739029
4091.291314,612.876398,1850.514855,9104.533087
4091.291629,689.485948,2664.741391,7846.182985
4091.291944,766.095498,2664.741391,7402.059420
4091.292260,153.219100,1998.556043,8142.265362
4091.292575,459.657299,666.185348,9548.656652
4091.292890,-919.314598,-740.205942,10436.903782
4091.293206,-1149.143247,-1554.432478,10955.047942
4091.293521,-919.314598,-1406.391290,11843.295072
4091.293836,-459.657299,-1036.288319,11621.233289
4091.294151,76.609550,-0.000000,10584.944971
4091.294467,766.095498,666.185348,9400.615463
4091.294782,1072.533697,1480.411884,8734.430116
4091.295097,1072.533697,2294.638420,7772.162391
4091.295413,612.876398,2220.617826,7772.162391
4091.295728,383.047749,1110.308913,9104.533087
4091.296043,-153.219100,370.102971,9992.780217
4091.296359,-766.095498,-814.226536,10732.986159
4091.296674,-919.314598,-2072.576638,11843.295072
4091.296989,-536.266849,-2294.638420,11769.274478
4091.297304,0.000000,-1036.288319,11473.192101
4091.297620,536.266849,-0.000000,10066.800811
4091.297935,995.924147,1036.288319,9178.553681
4091.298250,1072.533697,1554.432478,7624.121203
4091.298566,689.485948,1776.494261,7550.100608
4091.298881,689.485948,1036.288319,7994.224174
4091.299196,306.438199,222.061783,9326.594869
4091.299512,-536.266849,-814.226536,9918.759623
4091.299827,-1072.533697,-1850.514855,10510.924376
4091.300142,-612.876398,-2294.638420,11547.212695
4091.300457,-306.438199,-1776.494261,11029.068536
4091.300773,306.438199,-592.164754,10362.883188
4091.301088,995.924147,444.123565,9770.718434
4091.301403,1149.143247,1406.391290,7772.162391
4091.301719,842.705048,1776.494261,7105.977043
4091.302034,383.047749,1480.411884,7772.162391
4091.302349,229.828649,740.205942,8216.285956
4091.302665,-153.219100,-222.061783,9474.636058
4091.302980,-383.047749,-1406.391290,10584.944971
4091.303295,-612.876398,-1776.494261,10807.006753
4091.303611,-306.438199,-1258.350101,10807.006753
4091.303926,612.876398,-666.185348,9918.759623
4091.304241,1225.752797,518.144159,9622.677246
4091.304556,1608.800546,1184.329507,8438.347739
4091.304872,1225.752797,1628.453072,7698.141797
4091.305187,766.095498,1776.494261,7476.080014
4091.305502,383.047749,1406.391290,8290.306550
4091.305818,-459.657299,370.102971,9326.594869
4091.306133,-766.095498,-666.185348,10732.986159
4091.306448,-995.924147,-1998.556043,11621.233289
4091.306764,-919.314598,-1998.556043,11547.212695
4091.307079,-383.047749,-1258.350101,11029.068536
4091.307394,612.876398,-0.000000,10362.883188
4091.307709,1455.581446,1184.329507,9326.594869
4091.308025,1685.410096,1850.514855,8290.306550
4091.308340,1072.533697,1998.556043,7920.203579
4091.308655,612.876398,1702.473667,8068.244768
4091.308971,995.924147,1110.308913,9326.594869
4091.309286,-76.609550,-0.000000,10362.883188
4091.309601,-536.266849,-1184.329507,11251.130318
4091.309917,-919.314598,-1702.473667,11547.212695
4091.310232,-536.266849,-1702.473667,11769.274478
4091.310547,0.000000,-888.247130,11251.130318
4091.310862,919.314598,-0.000000,9992.780217
4091.311178,1072.533697,962.267725,8660.409521
4091.311493,919.314598,2072.576638,8364.327145
4091.311808,689.485948,1998.556043,8068.244768
4091.312124,689.485948,962.267725,8142.265362
4091.312439,306.438199,222.061783,9252.574275
4091.312754,-306.438199,-518.144159,10510.924376
4091.313070,-995.924147,-1480.411884,11029.068536
4091.313385,-612.876398,-1406.391290,11177.109724
4091.313700,-153.219100,-888.247130,10955.047942
4091.314016,306.438199,-74.020594,9918.759623
4091.314331,536.266849,814.226536,8956.491898
4091.314646,459.657299,1184.329507,7920.203579
4091.314961,0.000000,1850.514855,7846.182985
4091.315277,-229.828649,1850.514855,7846.182985
4091.315592,-842.705048,592.164754,8882.471304
4091.315907,-1302.362347,-296.082377,10140.821405
4091.316223,-1915.238745,-1406.391290,11029.068536
4091.316538,-1762.019645,-1628.453072,11177.109724
4091.316853,-536.266849,-962.267725,11029.068536
4091.317169,0.000000,-0.000000,10362.883188
4091.317484,229.828649,740.205942,9326.594869
4091.317799,919.314598,1850.514855,8068.244768
4091.318114,383.047749,1998.556043,7920.203579
4091.318430,229.828649,2368.659014,7550.100608
4091.318745,76.609550,1924.535449,7994.224174
4091.319060,-689.485948,518.144159,9104.533087
4091.319376,-1072.533697,-1406.391290,10584.944971
4091.319691,-1378.971896,-1924.535449,11251.130318
4091.320006,-1225.752797,-1554.432478,11325.150913
4091.320322,0.000000,-1184.329507,11177.109724
4091.320637,612.876398,370.102971,9844.739029
4091.320952,995.924147,1554.432478,8808.450710
4091.321267,1915.238745,2368.659014,7624.121203
4091.321583,919.314598,1998.556043,7772.162391
4091.321898,689.485948,2220.617826,7920.203579
4091.322213,536.266849,1184.329507,8808.450710
4091.322529,153.219100,-0.000000,10288.862594
4091.322844,0.000000,-1332.370696,11029.068536
4091.323159,229.828649,-1628.453072,11251.130318
4091.323475,459.657299,-1480.411884,11473.192101
4091.323790,536.266849,-370.102971,10658.965565
4091.324105,1455.581446,962.267725,9400.615463
4091.324421,1838.629195,1850.514855,8438.347739
4091.324736,1302.362347,2368.659014,7698.141797
4091.325051,842.705048,2072.576638,7994.224174
4091.325366,689.485948,1184.329507,8734.430116
4091.325682,76.609550,-148.041188,10066.800811
4091.325997,0.000000,-1258.350101,11325.150913
4091.326312,-153.219100,-1850.514855,11917.315666
4091.326628,-306.438199,-1850.514855,11843.295072
4091.326943,536.266849,-1110.308913,11325.150913
4091.327258,1532.190996,-0.000000,10288.862594
4091.327574,1762.019645,1406.391290,9178.553681
4091.327889,1149.143247,1702.473667,8216.285956
4091.328204,689.485948,2220.617826,7994.224174
4091.328519,536.266849,1776.494261,8068.244768
4091.328835,153.219100,222.061783,9326.594869
4091.329150,-536.266849,-1184.329507,10584.944971
4091.329465,-1072.533697,-2368.659014,11399.171507
4091.329781,-1378.971896,-2368.659014,11029.068536
4091.330096,-383.047749,-1702.473667,11399.171507
4091.330411,-153.219100,-1036.288319,9918.759623
4091.330727,919.314598,222.061783,9178.553681
4091.331042,612.876398,888.247130,8512.368333
4091.331357,76.609550,1406.391290,7698.141797
4091.331672,-153.219100,1406.391290,7920.203579
4091.331988,0.000000,444.123565,8068.244768
4091.332303,-612.876398,-592.164754,9548.656652
4091.332618,-1149.143247,-1332.370696,10214.842000
4091.332934,-1302.362347,-2072.576638,10881.027347
4091.333249,-612.876398,-1776.494261,11177.109724
4091.333564,-153.219100,-518.144159,9770.718434
4091.333880,0.000000,-0.000000,9252.574275
4091.334195,0.000000,1036.288319,8512.368333
4091.334510,0.000000,1110.308913,7920.203579
4091.334825,0.000000,666.185348,7846.182985
4091.335141,-842.705048,-0.000000,8364.327145
4091.335456,-1072.533697,-444.123565,9474.636058
4091.335771,-1149.143247,-962.267725,9992.780217
4091.336087,-1532.190996,-1998.556043,10510.924376
4091.336402,-612.876398,-1406.391290,11029.068536
4091.336717,0.000000,-962.267725,10510.924376
4091.337033,1072.533697,370.102971,9548.656652
4091.337348,1378.971896,888.247130,8882.471304
4091.337663,1608.800546,1332.370696,8068.244768
4091.337979,919.314598,1998.556043,7698.141797
4091.338294,306.438199,1554.432478,8216.285956
4091.338609,229.828649,740.205942,9104.533087
4091.338924,0.000000,-518.144159,9770.718434
4091.339240,-1302.362347,-1258.350101,10807.006753
4091.339555,-536.266849,-1628.453072,11547.212695
4091.339870,0.000000,-1110.308913,11473.192101
4091.340186,689.485948,-222.061783,11029.068536
4091.340501,995.924147,1184.329507,9696.697840
4091.340816,1608.800546,1924.535449,8586.388927
4091.341132,1762.019645,2664.741391,7772.162391
4091.341447,1608.800546,2368.659014,7624.121203
4091.341762,1378.971896,1850.514855,8956.491898
4091.342077,766.095498,814.226536,9844.739029
4091.342393,0.000000,-518.144159,10807.006753
4091.342708,-306.438199,-740.205942,11621.233289
4091.343023,0.000000,-1036.288319,11695.253884
4091.343339,612.876398,-296.082377,11325.150913
4091.343654,1378.971896,370.102971,10362.883188
4091.343969,1608.800546,1332.370696,9918.759623
4091.344285,1302.362347,2072.576638,8290.306550
4091.344600,459.657299,2294.638420,8068.244768
4091.344915,229.828649,1998.556043,8808.450710
4091.345230,0.000000,814.226536,9400.615463
4091.345546,-612.876398,-592.164754,10881.027347
4091.345861,-459.657299,-1406.391290,11621.233289
4091.346176,-536.266849,-1406.391290,11843.295072
4091.346492,-229.828649,-1110.308913,11251.130318
4091.346807,306.438199,-0.000000,10288.862594
4091.347122,766.095498,1258.350101,9326.594869
4091.347438,919.314598,1554.432478,8068.244768
4091.347753,536.266849,1924.535449,7846.182985
4091.348068,0.000000,1628.453072,7698.141797
4091.348384,-689.485948,888.247130,8290.306550
4091.348699,-1378.971896,-222.061783,10140.821405
4091.349014,-1532.190996,-1258.350101,11029.068536
4091.349329,-1762.019645,-1924.535449,11251.130318
4091.349645,-1685.410096,-2072.576638,11029.068536
4091.349960,-689.485948,-1036.288319,10732.986159
4091.350275,76.609550,-0.000000,9474.636058
4091.350591,383.047749,1110.308913,8364.327145
4091.350906,306.438199,1776.494261,7698.141797
4091.351221,0.000000,1924.535449,7179.997637
4091.351537,0.000000,1554.432478,7476.080014
4091.351852,-306.438199,148.041188,8438.347739
4091.352167,-1378.971896,-1110.308913,9548.656652
4091.352482,-1302.362347,-1998.556043,11325.150913
4091.352798,-1302.362347,-1924.535449,11103.089130
4091.353113,-842.705048,-1480.411884,10510.924376
4091.353428,0.000000,-518.144159,9918.759623
4091.353744,383.047749,222.061783,9104.533087
4091.354059,766.095498,1258.350101,8142.265362
4091.354374,459.657299,1702.473667,7994.224174
4091.354690,536.266849,1332.370696,7624.121203
4091.355005,612.876398,962.267725,8364.327145
4091.355320,-383.047749,-0.000000,9622.677246
4091.355635,-612.876398,-1332.370696,10362.883188
4091.355951,-229.828649,-1776.494261,11103.089130
4091.356266,306.438199,-1480.411884,11251.130318
4091.356581,766.095498,-518.144159,10288.862594
4091.356897,1838.629195,444.123565,9474.636058
4091.357212,1838.629195,1184.329507,8586.388927
4091.357527,1455.581446,1776.494261,7994.224174
4091.357843,1225.752797,1850.514855,7994.224174
4091.358158,919.314598,1332.370696,8660.409521
4091.358473,153.219100,370.102971,9844.739029
4091.358789,0.000000,-814.226536,11029.068536
4091.359104,-459.657299,-1850.514855,11695.253884
4091.359419,-612.876398,-1924.535449,11399.171507
4091.359734,536.266849,-1258.350101,11325.150913
4091.360050,1225.752797,-222.061783,10140.821405
4091.360365,1608.800546,1110.308913,9178.553681
4091.360680,1455.581446,1776.494261,7994.224174
4091.360996,1455.581446,2072.576638,8216.285956
4091.361311,1072.533697,1702.473667,8216.285956
4091.361626,306.438199,592.164754,9252.574275
4091.361942,-229.828649,-222.061783,10510.924376
4091.362257,-536.266849,-1628.453072,11029.068536
4091.362572,-612.876398,-1924.535449,11325.150913
4091.362887,-229.828649,-1184.329507,11621.233289
4091.363203,459.657299,-370.102971,11177.109724
4091.363518,459.657299,518.144159,9622.677246
4091.363833,919.314598,1184.329507,8734.430116
4091.364149,612.876398,1702.473667,8216.285956
4091.364464,0.000000,1628.453072,7920.203579
4091.364779,0.000000,1110.308913,8808.450710
4091.365095,-842.705048,-0.000000,9548.656652
4091.365410,-1149.143247,-1110.308913,9992.780217
4091.365725,-1072.533697,-1998.556043,10955.047942
4091.366040,-1225.752797,-1776.494261,11103.089130
4091.366356,-612.876398,-962.267725,10807.006753
4091.366671,76.609550,370.102971,9844.739029
4091.366986,766.095498,962.267725,8808.450710
4091.367302,306.438199,1850.514855,7846.182985
4091.367617,153.219100,2072.576638,7772.162391
4091.367932,-153.219100,1998.556043,7846.182985
4091.368248,-536.266849,962.267725,8882.471304
4091.368563,-1685.410096,-370.102971,9770.718434
4091.368885,-1378.971896,-1628.453072,10658.965565
4091.369200,-1302.362347,-1554.432478,11695.253884
4091.369515,-995.924147,-1110.308913,11251.130318
4091.369830,-459.657299,-592.164754,9918.759623
4091.370145,459.657299,814.226536,9178.553681
4091.370461,842.705048,1406.391290,8068.244768
4091.370776,229.828649,1850.514855,7994.224174
4091.371091,76.609550,2146.597232,7772.162391
4091.371406,0.000000,1258.350101,8142.265362
4091.371721,-383.047749,-0.000000,9770.718434
4091.372036,-689.485948,-592.164754,10510.924376
4091.372352,-842.705048,-1554.432478,11325.150913
4091.372667,-689.485948,-1258.350101,11325.150913
4091.372982,229.828649,-814.226536,10955.047942
4091.373297,1378.971896,370.102971,9474.636058
4091.373612,1225.752797,1036.288319,8438.347739
4091.373927,766.095498,2072.576638,8512.368333
4091.374242,536.266849,1924.535449,7920.203579
4091.374558,919.314598,1554.432478,8216.285956
4091.374873,229.828649,592.164754,9400.615463
4091.375188,-229.828649,-740.205942,10214.842000
4091.375503,-383.047749,-1258.350101,11547.212695
4091.375818,0.000000,-1702.473667,11843.295072
4091.376133,919.314598,-1702.473667,11325.150913
4091.376449,1532.190996,-888.247130,10732.986159
4091.376764,1532.190996,592.164754,9400.615463
4091.377079,1915.238745,1628.453072,8364.327145
4091.377394,1685.410096,2072.576638,7624.121203
4091.377709,1532.190996,1554.432478,7772.162391
4091.378024,1072.533697,1110.308913,8438.347739
4091.378339,76.609550,-222.061783,9548.656652
4091.378655,-536.266849,-1480.411884,10732.986159
4091.378970,-689.485948,-2590.720797,11177.109724
4091.379285,-995.924147,-2220.617826,11695.253884
4091.379600,306.438199,-1258.350101,11251.130318
4091.379915,766.095498,-0.000000,10288.862594
4091.380230,1072.533697,1036.288319,9178.553681
4091.380546,1149.143247,1628.453072,8068.244768
4091.380861,612.876398,2368.659014,7698.141797
4091.381176,229.828649,1998.556043,8290.306550
4091.381491,-153.219100,518.144159,9474.636058
4091.381806,-995.924147,-1036.288319,9918.759623
4091.382121,-1455.581446,-1998.556043,10510.924376
4091.382437,-1378.971896,-1998.556043,11325.150913
4091.382752,-995.924147,-1406.391290,10658.965565
4091.383067,0.000000,-518.144159,10066.800811
4091.383382,383.047749,222.061783,8438.347739
4091.383697,612.876398,962.267725,7772.162391
4091.384012,306.438199,1480.411884,7254.018232
4091.384327,0.000000,1332.370696,7179.997637
4091.384643,-766.095498,592.164754,8882.471304
4091.384958,-1302.362347,-370.102971,9770.718434
4091.385273,-1532.190996,-1406.391290,10288.862594
4091.385588,-1455.581446,-1924.535449,11325.150913
4091.385903,-995.924147,-1258.350101,10881.027347
4091.386218,0.000000,-518.144159,10732.986159
4091.386534,536.266849,592.164754,9474.636058
4091.386849,612.876398,1258.350101,8364.327145
4091.387164,536.266849,1998.556043,7994.224174
4091.387479,0.000000,1924.535449,7624.121203
4091.387794,0.000000,1406.391290,8364.327145
4091.388109,-612.876398,-74.020594,9400.615463
4091.388424,-1149.143247,-1036.288319,10732.986159
4091.388740,-1149.143247,-1628.453072,11251.130318
4091.389055,-842.705048,-1332.370696,11029.068536
4091.389370,-383.047749,-740.205942,10807.006753
4091.389685,919.314598,518.144159,10214.842000
4091.390000,1072.533697,1332.370696,9326.594869
4091.390315,1762.019645,2146.597232,7846.182985
4091.390631,1072.533697,2368.659014,7846.182985
4091.390946,1072.533697,2368.659014,8290.306550
4091.391261,919.314598,888.247130,9474.636058
4091.391576,0.000000,-148.041188,10584.944971
4091.391891,-536.266849,-1110.308913,11325.150913
4091.392206,-459.657299,-1332.370696,11917.315666
4091.392521,153.219100,-814.226536,11473.192101
4091.392837,536.266849,148.041188,10288.862594
4091.393152,1532.190996,1036.288319,9474.636058
4091.393467,1685.410096,1702.473667,8512.368333
4091.393782,1149.143247,1924.535449,8290.306550
4091.394097,689.485948,2220.617826,8216.285956
4091.394412,1149.143247,1258.350101,8586.388927
4091.394728,76.609550,148.041188,9474.636058
4091.395043,0.000000,-740.205942,10658.965565
4091.395358,-229.828649,-1554.432478,11399.171507
4091.395673,76.609550,-1554.432478,11103.089130
4091.395988,842.705048,-592.164754,10955.047942
4091.396303,1608.800546,444.123565,9844.739029
4091.396619,2221.676944,1184.329507,8512.368333
4091.396934,1532.190996,1924.535449,7920.203579
4091.397249,995.924147,2368.659014,7698.141797
4091.397564,995.924147,1406.391290,8142.265362
4091.397879,229.828649,370.102971,8882.471304
4091.398194,-306.438199,-814.226536,9770.718434
4091.398509,-919.314598,-1628.453072,10807.006753
4091.398825,-919.314598,-1998.556043,11029.068536
4091.399140,-306.438199,-1850.514855,11103.089130
4091.399455,536.266849,-592.164754,10362.883188
4091.399770,919.314598,370.102971,9178.553681
4091.400085,995.924147,1184.329507,7994.224174
4091.400400,536.266849,1776.494261,7624.121203
4091.400716,153.219100,1702.473667,7994.224174
4091.401031,-383.047749,814.226536,8512.368333
4091.401346,-459.657299,-0.000000,9622.677246
4091.401661,-1455.581446,-1258.350101,10584.944971
4091.401976,-1302.362347,-2072.576638,11177.109724
4091.402291,-766.095498,-1776.494261,11103.089130
4091.402606,-229.828649,-888.247130,10510.924376
4091.402922,0.000000,-148.041188,9844.739029
4091.403237,153.219100,888.247130,8734.430116
4091.403552,0.000000,1554.432478,7698.141797
4091.403867,-459.657299,1998.556043,7994.224174
4091.404182,-459.657299,1406.391290,8068.244768
4091.404497,-1072.533697,370.102971,9252.574275
4091.404813,-1532.190996,-888.247130,10288.862594
4091.405128,-1685.410096,-2146.597232,10955.047942
4091.405443,-919.314598,-1850.514855,11473.192101
4091.405758,-306.438199,-1036.288319,10881.027347
4091.406073,689.485948,-0.000000,10140.821405
4091.406388,995.924147,814.226536,9104.533087
4091.406704,1225.752797,1850.514855,8068.244768
4091.407019,689.485948,1998.556043,7550.100608
4091.407334,612.876398,1924.535449,7698.141797
4091.407649,153.219100,1036.288319,8956.491898
4091.407964,-536.266849,-444.123565,10066.800811
4091.408279,-689.485948,-1702.473667,11029.068536
4091.408594,-842.705048,-2442.679609,11695.253884
4091.408910,0.000000,-1850.514855,11547.212695
4091.409225,536.266849,-814.226536,11325.150913
4091.409540,919.314598,592.164754,9844.739029
4091.409855,1455.581446,1110.308913,9030.512492
4091.410170,1685.410096,2220.617826,7994.224174
4091.410485,1378.971896,2072.576638,7994.224174
4091.410801,1149.143247,1702.473667,8142.265362
4091.411116,383.047749,888.247130,9326.594869
4091.411431,0.000000,-1036.288319,10436.903782
4091.411746,-459.657299,-1850.514855,11547.212695
4091.412061,-306.438199,-1850.514855,11991.336260
4091.412376,76.609550,-1258.350101,11547.212695
4091.412691,766.095498,-0.000000,10066.800811
4091.413007,1225.752797,962.267725,8956.491898
4091.413322,1072.533697,1628.453072,8068.244768
4091.413637,995.924147,1406.391290,8216.285956
4091.413952,459.657299,1628.453072,8068.244768
4091.414267,76.609550,814.226536,8586.388927
4091.414582,-612.876398,-0.000000,10288.862594
4091.414898,-919.314598,-1110.308913,10732.986159
4091.415213,-995.924147,-1480.411884,11103.089130
4091.415528,-153.219100,-1184.329507,10881.027347
4091.415843,459.657299,-148.041188,10510.924376
4091.416158,1072.533697,888.247130,9030.512492
4091.416473,1149.143247,1332.370696,7846.182985
4091.416788,459.657299,2220.617826,7846.182985
4091.417104,153.219100,1924.535449,7476.080014
4091.417419,-536.266849,1258.350101,7698.141797
4091.417734,-919.314598,-0.000000,9252.574275
4091.418049,-1225.752797,-1258.350101,10436.903782
4091.418364,-1762.019645,-1702.473667,11177.109724
4091.418679,-1149.143247,-1110.308913,11177.109724
4091.418995,-383.047749,-1110.308913,10881.027347
4091.419310,153.219100,444.123565,9474.636058
4091.419625,689.485948,1554.432478,8586.388927
4091.419940,766.095498,2220.617826,7846.182985
4091.420255,229.828649,2368.659014,7772.162391
4091.420570,0.000000,1776.494261,8142.265362
4091.420886,-229.828649,740.205942,8882.471304
4091.421201,-766.095498,-518.144159,10362.883188
4091.421516,-1225.752797,-1480.411884,11103.089130
4091.421831,-1225.752797,-1628.453072,11473.192101
4091.422146,-536.266849,-1406.391290,11917.315666
4091.422461,153.219100,-148.041188,10658.965565
4091.422776,842.705048,888.247130,9474.636058
4091.423092,1072.533697,1554.432478,8586.388927
4091.423407,1149.143247,1776.494261,7994.224174
4091.423722,689.485948,1924.535449,8142.265362
4091.424037,76.609550,888.247130,9030.512492
4091.424352,-383.047749,148.041188,10362.883188
4091.424667,-766.095498,-814.226536,11029.068536
4091.424983,-536.266849,-1628.453072,11769.274478
4091.425298,229.828649,-1554.432478,11843.295072
4091.425613,383.047749,-592.164754,10881.027347
4091.425928,1225.752797,666.185348,9918.759623
4091.426243,1302.362347,1036.288319,8882.471304
4091.426558,1378.971896,1406.391290,7920.203579
4091.426873,919.314598,1480.411884,7846.182985
4091.427189,766.095498,1110.308913,8216.285956
4091.427504,-229.828649,222.061783,9474.636058
4091.427819,-459.657299,-1036.288319,10288.862594
4091.428134,-612.876398,-1850.514855,11029.068536
4091.428449,0.000000,-2072.576638,11103.089130
4091.428764,306.438199,-1332.370696,11029.068536
4091.429080,1149.143247,-296.082377,9844.739029
4091.429395,1608.800546,592.164754,8734.430116
4091.429710,1838.629195,1184.329507,8216.285956
4091.430025,1378.971896,1998.556043,6957.935855
4091.430340,306.438199,1332.370696,7105.977043
4091.430655,0.000000,592.164754,8956.491898
4091.430970,-612.876398,-592.164754,9696.697840
4091.431286,-842.705048,-1702.473667,10510.924376
4091.431601,-1302.362347,-2220.617826,11399.171507
4091.431916,-612.876398,-2072.576638,11399.171507
4091.432231,76.609550,-888.247130,10510.924376
4091.432546,459.657299,-148.041188,9474.636058
4091.432861,1149.143247,1036.288319,8808.450710
4091.433177,612.876398,1850.514855,7476.080014
4091.433492,306.438199,2072.576638,7476.080014
4091.433807,76.609550,1924.535449,7846.182985
4091.434122,-536.266849,296.082377,8956.491898
4091.434437,-1149.143247,-888.247130,9844.739029
4091.434752,-1378.971896,-2146.597232,11251.130318
4091.435068,-1149.143247,-1924.535449,11473.192101
4091.435383,-306.438199,-1554.432478,11103.089130
4091.435698,0.000000,-222.061783,9992.780217
4091.436013,383.047749,592.164754,9252.574275
4091.436328,459.657299,1776.494261,8290.306550
4091.436643,306.438199,2220.617826,7698.141797
4091.436958,-536.266849,1776.494261,7846.182985
4091.437274,-153.219100,814.226536,8734.430116
4091.437589,-459.657299,-0.000000,9918.759623
4091.437904,-995.924147,-1258.350101,11177.109724
4091.438219,-919.314598,-1406.391290,11695.253884
4091.438534,-383.047749,-1258.350101,11695.253884
4091.438849,383.047749,-0.000000,10510.924376
4091.439165,842.705048,962.267725,9400.615463
4091.439480,1225.752797,1480.411884,8512.368333
4091.439795,919.314598,1924.535449,7698.141797
4091.440110,995.924147,2442.679609,7476.080014
4091.440425,76.609550,1406.391290,8956.491898
4091.440740,-306.438199,370.102971,9474.636058
4091.441055,-919.314598,-1184.329507,11103.089130
4091.441371,-1072.533697,-2072.576638,11917.315666
4091.441686,-459.657299,-1628.453072,12213.398043
4091.442001,612.876398,-592.164754,11473.192101
4091.442316,1149.143247,296.082377,10362.883188
4091.442631,1838.629195,1702.473667,9030.512492
4091.442946,2068.457845,2590.720797,8512.368333
4091.443262,2068.457845,3404.947333,7328.038826
4091.443577,1378.971896,2368.659014,7920.203579
4091.443892,919.314598,1406.391290,8882.471304
4091.444207,0.000000,-148.041188,10288.862594
4091.444522,-383.047749,-1480.411884,11473.192101
4091.444837,-842.705048,-1850.514855,11843.295072
4091.445153,-689.485948,-1554.432478,11843.295072
4091.445468,306.438199,-740.205942,10955.047942
4091.445783,383.047749,-0.000000,9918.759623
4091.446098,766.095498,962.267725,8660.409521
4091.446413,383.047749,1924.535449,8216.285956
4091.446728,459.657299,2220.617826,7920.203579
4091.447043,306.438199,1480.411884,7994.224174
4091.447359,-153.219100,444.123565,9178.553681
4091.447674,-842.705048,-666.185348,9992.780217
4091.447989,-766.095498,-1554.432478,10881.027347
4091.448304,-383.047749,-1554.432478,11177.109724
4091.448619,0.000000,-888.247130,10807.006753
4091.448934,383.047749,-222.061783,9770.718434
4091.449250,689.485948,592.164754,8586.388927
4091.449565,229.828649,1406.391290,7772.162391
4091.449880,-306.438199,1480.411884,7402.059420
4091.450195,-306.438199,962.267725,8068.244768
4091.450510,-1302.362347,296.082377,8808.450710
4091.450825,-1762.019645,-1110.308913,9400.615463
4091.451140,-1225.752797,-1776.494261,11103.089130
4091.451456,-1225.752797,-1628.453072,10510.924376
4091.451771,-919.314598,-1184.329507,10436.903782
4091.452086,0.000000,-0.000000,10066.800811
4091.452401,689.485948,962.267725,9178.553681
4091.452716,842.705048,1776.494261,8216.285956
4091.453031,383.047749,2294.638420,7920.203579
4091.453347,0.000000,1702.473667,8142.265362
4091.453662,-383.047749,888.247130,8882.471304
4091.453977,-1378.971896,-296.082377,9844.739029
4091.454292,-1915.238745,-1628.453072,11251.130318
4091.454607,-1532.190996,-1702.473667,11769.274478
4091.454922,-766.095498,-1554.432478,11177.109724
4091.455237,0.000000,-814.226536,10732.986159
4091.455553,919.314598,962.267725,9622.677246
4091.455868,1532.190996,1554.432478,8808.450710
4091.456183,1608.800546,2368.659014,7772.162391
4091.456498,1072.533697,2294.638420,7772.162391
4091.456813,1532.190996,1850.514855,8438.347739
4091.457128,229.828649,592.164754,9622.677246
4091.457444,-153.219100,-592.164754,10732.986159
4091.457759,-383.047749,-1776.494261,11843.295072
4091.458074,-689.485948,-1554.432478,11843.295072
4091.458389,0.000000,-1628.453072,11695.253884
4091.458704,766.095498,-296.082377,10955.047942
4091.459019,1608.800546,592.164754,9474.636058
4091.459335,1532.190996,1480.411884,8512.368333
4091.459650,1302.362347,1850.514855,8290.306550
4091.459965,995.924147,1850.514855,8290.306550
4091.460280,612.876398,1332.370696,8882.471304
4091.460595,612.876398,-0.000000,9992.780217
4091.460910,306.438199,-1184.329507,10955.047942
4091.461225,306.438199,-1776.494261,11325.150913
4091.461541,612.876398,-1406.391290,11251.130318
4091.461856,1302.362347,-740.205942,10584.944971
4091.462171,1455.581446,74.020594,9474.636058
4091.462486,1455.581446,1332.370696,7846.182985
4091.462801,1072.533697,1776.494261,7772.162391
4091.463116,612.876398,1480.411884,7402.059420
4091.463432,306.438199,1184.329507,8290.306550
4091.463747,-459.657299,-148.041188,9696.697840
4091.464062,-1302.362347,-1406.391290,10732.986159
4091.464377,-1072.533697,-2146.597232,11769.274478
4091.464692,-536.266849,-1776.494261,11103.089130
4091.465007,0.000000,-1184.329507,10955.047942
4091.465322,766.095498,666.185348,9918.759623
4091.465638,1072.533697,1332.370696,8734.430116
4091.465953,995.924147,2294.638420,7550.100608
4091.466268,766.095498,2442.679609,7550.100608
4091.466583,306.438199,2072.576638,7550.100608
4091.466898,-383.047749,666.185348,8882.471304
4091.467213,-1378.971896,-814.226536,10066.800811
4091.467529,-1762.019645,-1998.556043,11251.130318
4091.467844,-2068.457845,-2294.638420,11325.150913
4091.468159,-1378.971896,-1924.535449,11177.109724
4091.468474,-536.266849,-666.185348,10584.944971
4091.468789,153.219100,740.205942,9474.636058
4091.469104,766.095498,1036.288319,8882.471304
4091.469419,229.828649,1628.453072,7624.121203
4091.469735,76.609550,2146.597232,7402.059420
4091.470050,0.000000,1776.494261,8142.265362
4091.470365,-153.219100,666.185348,9696.697840
4091.470680,-459.657299,-296.082377,10881.027347
4091.470995,-1302.362347,-1332.370696,11177.109724
4091.471310,-919.314598,-1406.391290,11473.192101
4091.471625,229.828649,-740.205942,11103.089130
4091.471940,689.485948,518.144159,9770.718434
4091.472255,766.095498,888.247130,8438.347739
4091.472571,766.095498,1702.473667,8512.368333
4091.472886,306.438199,1850.514855,7920.203579
4091.473201,536.266849,1110.308913,7772.162391
4091.473516,306.438199,-0.000000,9474.636058
4091.473831,-76.609550,-444.123565,10510.924376
4091.474146,-459.657299,-1702.473667,11029.068536
4091.474461,-229.828649,-1628.453072,11547.212695
4091.474776,689.485948,-1258.350101,11251.130318
4091.475091,1455.581446,-370.102971,10288.862594
4091.475407,1838.629195,962.267725,9474.636058
4091.475722,1762.019645,1850.514855,8512.368333
4091.476037,1608.800546,2220.617826,7994.224174
4091.476352,842.705048,2294.638420,7846.182985
4091.476667,306.438199,1110.308913,8956.491898
4091.476982,-229.828649,-444.123565,10584.944971
4091.477297,-766.095498,-1480.411884,11325.150913
4091.477612,-842.705048,-2072.576638,11843.295072
4091.477927,-383.047749,-1924.535449,11547.212695
4091.478243,0.000000,-1184.329507,10881.027347
4091.478558,612.876398,-0.000000,9844.739029
4091.478873,1072.533697,518.144159,8512.368333
4091.479188,842.705048,1702.473667,8068.244768
4091.479503,995.924147,1776.494261,7550.100608
4091.479818,229.828649,1258.350101,7698.141797
4091.480133,0.000000,222.061783,9178.553681
4091.480448,-766.095498,-888.247130,10066.800811
4091.480763,-995.924147,-2072.576638,10584.944971
4091.481079,-612.876398,-1776.494261,11917.315666
4091.481394,-612.876398,-1480.411884,11177.109724
4091.481709,0.000000,-518.144159,9844.739029
4091.482024,536.266849,518.144159,8734.430116
4091.482339,229.828649,1036.288319,7624.121203
4091.482654,76.609550,1628.453072,7550.100608
4091.482969,-383.047749,1702.473667,7772.162391
4091.483284,-536.266849,666.185348,8956.491898
4091.483599,-1302.362347,-296.082377,9474.636058
4091.483915,-1455.581446,-1628.453072,10584.944971
4091.484230,-1532.190996,-1850.514855,10955.047942
4091.484545,-766.095498,-1776.494261,10881.027347
4091.484860,153.219100,-296.082377,9992.780217
4091.485175,919.314598,592.164754,8882.471304
4091.485490,1378.971896,1554.432478,8438.347739
4091.485805,842.705048,2442.679609,7550.100608
4091.486120,0.000000,2072.576638,7179.997637
4091.486435,153.219100,1332.370696,8142.265362
4091.486751,-689.485948,-74.020594,9548.656652
4091.487066,-995.924147,-1258.350101,10881.027347
4091.487381,-1072.533697,-2442.679609,11695.253884
4091.487696,-919.314598,-1628.453072,11695.253884
4091.488011,-306.438199,-962.267725,11399.171507
4091.488326,689.485948,518.144159,10214.842000
4091.488641,1378.971896,1332.370696,9326.594869
4091.488956,1302.362347,2368.659014,7920.203579
4091.489271,919.314598,2886.803174,7328.038826
4091.489587,842.705048,2368.659014,7772.162391
4091.489902,383.047749,888.247130,9474.636058
4091.490217,-995.924147,-518.144159,10510.924376
4091.490532,-995.924147,-1258.350101,11843.295072
4091.490847,-1149.143247,-1332.370696,12139.377449
4091.491162,-459.657299,-1184.329507,11621.233289
4091.491477,536.266849,-74.020594,11177.109724
4091.491792,1225.752797,1258.350101,9770.718434
4091.492107,1378.971896,1480.411884,8956.491898
4091.492423,842.705048,2516.700203,7772.162391
4091.492738,842.705048,2516.700203,8216.285956
4091.493053,995.924147,1924.535449,8290.306550
4091.493368,536.266849,666.185348,9622.677246
4091.493683,76.609550,-592.164754,11177.109724
4091.493998,0.000000,-1332.370696,11843.295072
4091.494313,459.657299,-1406.391290,11103.089130
4091.494628,919.314598,-1184.329507,10658.965565
4091.494943,1149.143247,444.123565,9918.759623
4091.495259,1378.971896,1110.308913,8586.388927
4091.495574,1149.143247,1406.391290,7772.162391
4091.495889,1149.143247,1702.473667,7402.059420
4091.496204,612.876398,1184.329507,7994.224174
4091.496519,-306.438199,444.123565,8882.471304
4091.496834,-766.095498,-814.226536,10140.821405
4091.497149,-1149.143247,-2072.576638,11103.089130
4091.497464,-689.485948,-2220.617826,11325.150913
4091.497779,-459.657299,-1702.473667,11177.109724
4091.498095,0.000000,-666.185348,10362.883188
4091.498410,689.485948,296.082377,9252.574275
4091.498725,766.095498,1332.370696,8068.244768
4091.499040,612.876398,1628.453072,7698.141797
4091.499355,0.000000,1554.432478,7994.224174
4091.499670,-306.438199,1036.288319,8882.471304
4091.499985,-766.095498,-222.061783,9474.636058
4091.500300,-1532.190996,-1702.473667,10288.862594
4091.500615,-1302.362347,-2220.617826,11177.109724
4091.500931,-1302.362347,-2368.659014,11103.089130
4091.501246,-383.047749,-1480.411884,10807.006753
4091.501561,76.609550,-370.102971,9918.759623
4091.501876,612.876398,888.247130,8438.347739
4091.502191,689.485948,1332.370696,7550.100608
4091.502506,76.609550,1258.350101,7772.162391
4091.502821,-76.609550,1184.329507,8290.306550
4091.503136,-536.266849,296.082377,8956.491898
4091.503451,-995.924147,-814.226536,9918.759623
4091.503767,-919.314598,-1628.453072,10807.006753
4091.504082,-689.485948,-1480.411884,11103.089130
4091.504397,-153.219100,-1110.308913,10881.027347
4091.504712,536.266849,-222.061783,10140.821405
4091.505027,919.314598,592.164754,9178.553681
4091.505342,1072.533697,1184.329507,8290.306550
4091.505657,612.876398,1998.556043,7698.141797
4091.505972,383.047749,1702.473667,7920.203579
4091.506287,0.000000,962.267725,9030.512492
4091.506603,-383.047749,-222.061783,9770.718434
4091.506918,-766.095498,-1480.411884,10955.047942
4091.507233,-536.266849,-1776.494261,11547.212695
4091.507548,76.609550,-1406.391290,11177.109724
4091.507863,689.485948,-296.082377,10510.924376
4091.508178,1378.971896,296.082377,9548.656652
4091.508493,1455.581446,1258.350101,8882.471304
4091.508808,1455.581446,1776.494261,7994.224174
4091.509123,842.705048,2072.576638,7920.203579
4091.509439,612.876398,1406.391290,8882.471304
4091.509754,0.000000,370.102971,9548.656652
4091.510069,-766.095498,-1258.350101,11103.089130
4091.510384,-842.705048,-1554.432478,11843.295072
4091.510699,-459.657299,-1702.473667,11695.253884
4091.511014,306.438199,-1258.350101,11399.171507
4091.511329,842.705048,-0.000000,9918.759623
4091.511644,1532.190996,1184.329507,9326.594869
4091.511959,1225.752797,1998.556043,7994.224174
4091.512275,766.095498,2072.576638,7624.121203
4091.512590,842.705048,1776.494261,7624.121203
4091.512905,383.047749,888.247130,8438.347739
4091.513220,0.000000,-148.041188,9992.780217
4091.513535,-766.095498,-1554.432478,11177.109724
4091.513850,-842.705048,-1850.514855,11399.171507
4091.514165,-612.876398,-1628.453072,11251.130318
4091.514480,766.095498,-518.144159,10584.944971
4091.514795,689.485948,444.123565,9400.615463
4091.515111,689.485948,1332.370696,8216.285956
4091.515426,766.095498,2220.617826,7624.121203
4091.515741,229.828649,2220.617826,7402.059420
4091.516056,0.000000,1332.370696,8290.306550
4091.516371,-842.705048,-0.000000,9474.636058
4091.516686,-1608.800546,-740.205942,10584.944971
4091.517001,-1532.190996,-1480.411884,11177.109724
4091.517316,-1225.752797,-1924.535449,10955.047942
4091.517631,-612.876398,-740.205942,10807.006753
4091.517947,0.000000,666.185348,9770.718434
4091.518262,459.657299,1184.329507,8586.388927
4091.518577,306.438199,2220.617826,7698.141797
4091.518892,-153.219100,2294.638420,7624.121203
4091.519207,-229.828649,2146.597232,8068.244768
4091.519522,-842.705048,1036.288319,9252.574275
4091.519837,-1072.533697,-592.164754,10214.842000
4091.520152,-1302.362347,-1628.453072,11399.171507
4091.520467,-842.705048,-1554.432478,11621.233289
4091.520783,-306.438199,-1332.370696,11547.212695
4091.521098,76.609550,222.061783,10732.986159
4091.521413,842.705048,1110.308913,9252.574275
4091.521728,1378.971896,1924.535449,8290.306550
4091.522043,1378.971896,2590.720797,7550.100608
4091.522358,612.876398,2220.617826,7772.162391
4091.522673,0.000000,1258.350101,8808.450710
4091.522988,-459.657299,-222.061783,10066.800811
4091.523303,-459.657299,-1776.494261,11473.192101
4091.523619,-842.705048,-2294.638420,11621.233289
4091.523934,-842.705048,-2072.576638,12065.356855
4091.524249,153.219100,-1554.432478,11843.295072
4091.524564,995.924147,370.102971,10066.800811
4091.524879,1225.752797,1332.370696,9400.615463
4091.525194,1225.752797,2146.597232,7846.182985
4091.525509,1302.362347,2368.659014,7772.162391
4091.525824,919.314598,1554.432478,7920.203579
4091.526139,536.266849,444.123565,9178.553681
4091.526455,153.219100,-1184.329507,10288.862594
4091.526770,-229.828649,-2146.597232,11695.253884
4091.527085,-383.047749,-2220.617826,11843.295072
4091.527400,0.000000,-1850.514855,11621.233289
4091.527715,383.047749,-814.226536,10436.903782
4091.528030,2145.067394,-0.000000,9326.594869
4091.528345,1608.800546,1184.329507,8216.285956
4091.528660,1149.143247,1702.473667,7772.162391
4091.528975,842.705048,1184.329507,7550.100608
4091.529291,459.657299,592.164754,7772.162391
4091.529606,383.047749,-592.164754,9252.574275
4091.529921,-229.828649,-1554.432478,10362.883188
4091.530236,-612.876398,-1998.556043,10807.006753
4091.530551,0.000000,-1702.473667,10658.965565
4091.530866,229.828649,-1036.288319,10066.800811
4091.531181,766.095498,-0.000000,9030.512492
4091.531496,995.924147,740.205942,8586.388927
4091.531811,459.657299,1554.432478,7994.224174
4091.532127,0.000000,1406.391290,7550.100608
4091.532442,-306.438199,814.226536,7994.224174
4091.532757,-383.047749,-296.082377,9252.574275
4091.533072,-1072.533697,-1332.370696,10288.862594
4091.533387,-1378.971896,-1998.556043,11325.150913
4091.533702,-1072.533697,-1554.432478,11103.089130
4091.534017,-766.095498,-1036.288319,10510.924376
4091.534332,229.828649,-0.000000,9844.739029
4091.534647,995.924147,888.247130,8734.430116
4091.534963,459.657299,1332.370696,7994.224174
4091.535278,306.438199,1776.494261,7846.182985
4091.535593,0.000000,1480.411884,8142.265362
4091.535908,-766.095498,740.205942,8882.471304
4091.536223,-1302.362347,-222.061783,10066.800811
4091.536538,-1455.581446,-1776.494261,10955.047942
4091.536853,-995.924147,-2072.576638,11695.253884
4091.537168,-1072.533697,-1628.453072,11177.109724
4091.537483,383.047749,-0.000000,10584.944971
4091.537799,612.876398,1258.350101,9474.636058
4091.538114,919.314598,2220.617826,8364.327145
4091.538429,612.876398,2220.617826,7772.162391
4091.538744,306.438199,2368.659014,7994.224174
4091.539059,383.047749,1554.432478,9030.512492
4091.539374,-383.047749,666.185348,9770.718434
4091.539689,-689.485948,-0.000000,11103.089130
4091.540004,-383.047749,-888.247130,11547.212695
4091.540319,0.000000,-1184.329507,11695.253884
4091.540635,229.828649,-444.123565,11399.171507
4091.540950,842.705048,370.102971,10140.821405
4091.541265,1378.971896,1554.432478,8660.409521
4091.541580,1072.533697,2220.617826,8290.306550
4091.541895,766.095498,2664.741391,7772.162391
4091.542210,306.438199,1998.556043,8216.285956
4091.542525,0.000000,888.247130,9474.636058
4091.542840,-383.047749,-296.082377,10584.944971
4091.543155,-689.485948,-1036.288319,11547.212695
4091.543471,-842.705048,-1406.391290,11843.295072
4091.543786,-536.266849,-1184.329507,11473.192101
4091.544101,76.609550,-148.041188,10955.047942
4091.544416,919.314598,1036.288319,9474.636058
4091.544731,1455.581446,1702.473667,8364.327145
4091.545046,1455.581446,2442.679609,7772.162391
4091.545361,1149.143247,2368.659014,7772.162391
4091.545676,383.047749,1480.411884,8438.347739
4091.545991,153.219100,-0.000000,9622.677246
4091.546307,0.000000,-1184.329507,10732.986159
4091.546622,-383.047749,-2146.597232,11399.171507
4091.546937,383.047749,-1924.535449,11399.171507
4091.547252,689.485948,-962.267725,10584.944971
4091.547567,842.705048,-0.000000,9326.594869
4091.547882,1149.143247,518.144159,8438.347739
4091.548197,1149.143247,1406.391290,7402.059420
4091.548512,306.438199,1258.350101,7402.059420
4091.548827,0.000000,1036.288319,7772.162391
4091.549143,0.000000,-74.020594,9030.512492
4091.549458,-689.485948,-962.267725,10066.800811
4091.549773,-995.924147,-1998.556043,10807.006753
4091.550088,-689.485948,-1702.473667,11473.192101
4091.550403,-306.438199,-1406.391290,11177.109724
4091.550718,229.828649,-0.000000,10066.800811
4091.551033,766.095498,740.205942,9252.574275
4091.551348,612.876398,1258.350101,8364.327145
4091.551663,0.000000,1850.514855,7698.141797
4091.551979,-459.657299,1628.453072,8586.388927
4091.552294,-995.924147,592.164754,8882.471304
4091.552609,-1378.971896,-740.205942,10140.821405
4091.552924,-1532.190996,-1998.556043,10881.027347
4091.553239,-1762.019645,-2368.659014,11473.192101
4091.553554,-1302.362347,-1998.556043,11103.089130
4091.553869,0.000000,-962.267725,9992.780217
4091.554184,536.266849,222.061783,9326.594869
4091.554499,995.924147,962.267725,8586.388927
4091.554815,612.876398,1776.494261,7772.162391
4091.555130,766.095498,2146.597232,7550.100608
4091.555445,306.438199,1110.308913,8438.347739
4091.555760,0.000000,444.123565,9622.677246
4091.556075,-689.485948,-962.267725,10510.924376
4091.556390,-1225.752797,-1850.514855,11769.274478
4091.556705,-919.314598,-1480.411884,12065.356855
4091.557020,0.000000,-1554.432478,11325.150913
4091.557335,612.876398,-74.020594,10362.883188
4091.557651,1225.752797,888.247130,9326.594869
4091.557966,995.924147,1850.514855,8512.368333
4091.558281,689.485948,1628.453072,7698.141797
4091.558596,689.485948,1850.514855,7772.162391
4091.558911,153.219100,518.144159,9104.533087
4091.559226,0.000000,-222.061783,9992.780217
4091.559541,-229.828649,-1776.494261,10510.924376
4091.559856,-153.219100,-1924.535449,11917.315666
4091.560171,153.219100,-1258.350101,11325.150913
4091.560487,1455.581446,-666.185348,10658.965565
4091.560802,1762.019645,518.144159,9696.697840
4091.561117,1762.019645,1480.411884,8734.430116
4091.561432,1225.752797,2072.576638,7698.141797
4091.561747,1149.143247,1924.535449,7328.038826
4091.562062,919.314598,1258.350101,8660.409521
4091.562377,76.609550,370.102971,9548.656652
4091.562692,-306.438199,-1036.288319,10732.986159
4091.563007,-766.095498,-1776.494261,11695.253884
4091.563323,-459.657299,-1480.411884,11177.109724
4091.563638,536.266849,-888.247130,10584.944971
4091.563953,689.485948,370.102971,9474.636058
4091.564268,1455.581446,1480.411884,8956.491898
4091.564583,766.095498,1998.556043,7328.038826
4091.564898,612.876398,2590.720797,7179.997637
4091.565213,536.266849,2072.576638,7846.182985
4091.565528,-229.828649,962.267725,8586.388927
4091.565843,-1072.533697,-444.123565,10214.842000
4091.566159,-766.095498,-1776.494261,11325.150913
4091.566474,-1072.533697,-1702.473667,11399.171507
4091.566789,-536.266849,-1184.329507,11103.089130
4091.567104,0.000000,-148.041188,10362.883188
4091.567419,995.924147,740.205942,9104.533087
4091.567734,1302.362347,1998.556043,7624.121203
4091.568049,842.705048,2368.659014,7402.059420
4091.568364,76.609550,2368.659014,7550.100608
4091.568679,-383.047749,1406.391290,8364.327145
4091.568995,-612.876398,-0.000000,9918.759623
4091.569310,-919.314598,-814.226536,10881.027347
4091.569625,-1455.581446,-1850.514855,11473.192101
4091.569940,-995.924147,-1776.494261,11695.253884
4091.570255,-459.657299,-666.185348,11251.130318
4091.570570,76.609550,444.123565,9770.718434
4091.570885,459.657299,1258.350101,8882.471304
4091.571200,689.485948,2368.659014,8068.244768
4091.571515,153.219100,2294.638420,7920.203579
4091.571831,229.828649,1406.391290,8438.347739
4091.572146,0.000000,444.123565,9622.677246
4091.572461,-153.219100,-296.082377,10658.965565
4091.572776,-919.314598,-1258.350101,11547.212695
4091.573091,-842.705048,-1554.432478,11843.295072
4091.573406,0.000000,-1258.350101,11843.295072
4091.573721,842.705048,-666.185348,10436.903782
4091.574037,1532.190996,518.144159,9178.553681
4091.574352,1378.971896,1258.350101,8364.327145
4091.574667,1072.533697,1998.556043,7772.162391
4091.574982,995.924147,1702.473667,8216.285956
4091.575297,76.609550,740.205942,8882.471304
4091.575612,0.000000,-74.020594,9770.718434
4091.575927,-689.485948,-1628.453072,10732.986159
4091.576242,-842.705048,-2368.659014,11473.192101
4091.576558,-229.828649,-2220.617826,11547.212695
4091.576873,0.000000,-1332.370696,10807.006753
4091.577188,1149.143247,-74.020594,9474.636058
4091.577503,1302.362347,666.185348,8734.430116
4091.577818,1072.533697,1480.411884,7550.100608
4091.578133,689.485948,1702.473667,7698.141797
4091.578448,995.924147,814.226536,8438.347739
4091.578763,383.047749,-74.020594,8882.471304
4091.579079,-383.047749,-1110.308913,9844.739029
4091.579394,-612.876398,-2294.638420,10732.986159
4091.579709,-536.266849,-2220.617826,10955.047942
4091.580024,-229.828649,-1702.473667,10881.027347
4091.580339,383.047749,-444.123565,9918.759623
4091.580654,919.314598,222.061783,8660.409521
4091.580969,1072.533697,1554.432478,7920.203579
4091.581284,536.266849,1628.453072,7402.059420
4091.581600,306.438199,1332.370696,7846.182985
4091.581915,0.000000,592.164754,8734.430116
4091.582230,-536.266849,-222.061783,9918.759623
4091.582545,-842.705048,-1332.370696,10807.006753
4091.582860,-1072.533697,-1998.556043,11325.150913
4091.583175,-229.828649,-1258.350101,10807.006753
4091.583490,383.047749,-222.061783,10584.944971
4091.583805,995.924147,888.247130,9400.615463
4091.584121,1149.143247,1702.473667,8216.285956
4091.584436,1149.143247,1924.535449,7624.121203
4091.584751,536.266849,1924.535449,7920.203579
4091.585066,-306.438199,1110.308913,8364.327145
4091.585381,-766.095498,370.102971,9548.656652
4091.585696,-1225.752797,-888.247130,10658.965565
4091.586011,-1455.581446,-1628.453072,11251.130318
4091.586326,-1378.971896,-1554.432478,11621.233289
4091.586642,-766.095498,-888.247130,10955.047942
4091.586957,0.000000,222.061783,10436.903782
4091.587272,919.314598,1332.370696,9474.636058
4091.587587,612.876398,2220.617826,8364.327145
4091.587902,383.047749,2590.720797,7698.141797
4091.588217,229.828649,2294.638420,8216.285956
4091.588532,0.000000,1332.370696,9622.677246
4091.588847,-689.485948,-148.041188,10584.944971
4091.589163,-919.314598,-1110.308913,11399.171507
4091.589478,-689.485948,-1480.411884,11473.192101
4091.589793,-383.047749,-1554.432478,10881.027347
4091.590108,153.219100,-222.061783,10807.006753
4091.590423,766.095498,740.205942,9548.656652
4091.590738,1149.143247,1628.453072,8660.409521
4091.591053,842.705048,2368.659014,8142.265362
4091.591368,229.828649,1924.535449,7624.121203
4091.591684,536.266849,1554.432478,8512.368333
4091.591999,-306.438199,592.164754,10214.842000
4091.592314,-306.438199,-740.205942,10955.047942
4091.592629,-536.266849,-1554.432478,11695.253884
4091.592944,-306.438199,-1332.370696,11843.295072
4091.593259,306.438199,-1036.288319,11695.253884
4091.593574,1149.143247,148.041188,9844.739029
4091.593889,1762.019645,1554.432478,8660.409521
4091.594205,1302.362347,1850.514855,8216.285956
4091.594520,1149.143247,2590.720797,7328.038826
4091.594835,1455.581446,1850.514855,7772.162391
4091.595150,612.876398,518.144159,8734.430116
4091.595465,-383.047749,-962.267725,10066.800811
4091.595780,-536.266849,-1776.494261,11029.068536
4091.596095,-689.485948,-2072.576638,11103.089130
4091.596410,-689.485948,-1628.453072,11177.109724
4091.596726,459.657299,-888.247130,10140.821405
4091.597041,842.705048,518.144159,9326.594869
4091.597356,766.095498,1036.288319,7994.224174
4091.597671,766.095498,1702.473667,7402.059420
4091.597986,383.047749,1776.494261,7550.100608
4091.598301,0.000000,1110.308913,7920.203579
4091.598616,-459.657299,-222.061783,9696.697840
4091.598931,-612.876398,-1702.473667,10584.944971
4091.599247,-689.485948,-1850.514855,10955.047942
4091.599562,-383.047749,-1850.514855,11399.171507
4091.599877,0.000000,-1036.288319,10955.047942
4091.600192,383.047749,-0.000000,9548.656652
4091.600507,1302.362347,962.267725,8290.306550
4091.600822,306.438199,740.205942,7624.121203
4091.601137,0.000000,1036.288319,7550.100608
4091.601452,-229.828649,814.226536,8142.265362
4091.601768,-536.266849,-148.041188,9548.656652
4091.602083,-1072.533697,-1554.432478,10214.842000
4091.602398,-1149.143247,-2072.576638,11103.089130
4091.602713,-766.095498,-2294.638420,11769.274478
4091.603028,-153.219100,-1702.473667,10955.047942
4091.603343,689.485948,-74.020594,10288.862594
4091.603658,1378.971896,1184.329507,9030.512492
4091.603974,842.705048,1628.453072,8216.285956
4091.604289,766.095498,2220.617826,7624.121203
4091.604604,153.219100,1332.370696,7624.121203
4091.604919,76.609550,888.247130,9400.615463
4091.605234,-1072.533697,-148.041188,10658.965565
4091.605549,-1072.533697,-1628.453072,11547.212695
4091.605864,-1455.581446,-2368.659014,11843.295072
4091.606179,-995.924147,-1998.556043,11621.233289
4091.606495,0.000000,-962.267725,10881.027347
4091.606810,536.266849,-0.000000,9622.677246
4091.607125,1149.143247,1628.453072,8734.430116
4091.607440,1072.533697,2294.638420,7402.059420
4091.607755,995.924147,2442.679609,7550.100608
4091.608070,689.485948,1258.350101,8068.244768
4091.608385,766.095498,222.061783,9326.594869
4091.608700,-229.828649,-666.185348,10510.924376
4091.609016,-689.485948,-1184.329507,11251.130318
4091.609331,-229.828649,-1406.391290,11695.253884
4091.609646,76.609550,-740.205942,10807.006753
4091.609961,919.314598,-0.000000,9770.718434
4091.610276,766.095498,592.164754,9030.512492
4091.610591,1072.533697,1776.494261,7846.182985
4091.610906,383.047749,1924.535449,7550.100608
4091.611221,383.047749,1702.473667,7920.203579
4091.611537,0.000000,962.267725,8882.471304
4091.611852,-612.876398,-222.061783,9696.697840
4091.612167,-766.095498,-1184.329507,10807.006753
4091.612482,-459.657299,-1332.370696,11621.233289
4091.612797,76.609550,-1184.329507,10955.047942
4091.613112,383.047749,-74.020594,10066.800811
4091.613427,1072.533697,666.185348,9104.533087
4091.613742,1378.971896,1924.535449,8216.285956
4091.614058,1072.533697,2738.761985,7476.080014
4091.614373,229.828649,2368.659014,7698.141797
4091.614688,0.000000,1924.535449,8734.430116
4091.615003,-612.876398,666.185348,9622.677246
4091.615318,-842.705048,-518.144159,10881.027347
4091.615633,-1149.143247,-1480.411884,11917.315666
4091.615948,-612.876398,-1480.411884,12213.398043
4091.616263,-229.828649,-296.082377,11695.253884
4091.616579,383.047749,888.247130,10214.842000
4091.616894,1149.143247,1628.453072,9030.512492
4091.617209,1149.143247,2960.823768,8068.244768
4091.617524,919.314598,2960.823768,7624.121203
4091.617839,689.485948,2442.679609,8142.265362
4091.618154,536.266849,1554.432478,8882.471304
4091.618469,0.000000,148.041188,9992.780217
4091.618784,-612.876398,-1110.308913,11103.089130
4091.619100,-383.047749,-1628.453072,11843.295072
4091.619415,-306.438199,-1332.370696,11769.274478
4091.619730,383.047749,-518.144159,10436.903782
4091.620045,842.705048,222.061783,9918.759623
4091.620360,842.705048,1258.350101,8438.347739
4091.620675,612.876398,1776.494261,7328.038826
4091.620990,229.828649,2220.617826,8290.306550
4091.621305,-306.438199,1258.350101,8734.430116
4091.621621,-459.657299,-0.000000,9696.697840
4091.621936,-306.438199,-1258.350101,10732.986159
4091.622251,-459.657299,-1850.514855,11695.253884
4091.622566,-229.828649,-1998.556043,11473.192101
4091.622881,306.438199,-962.267725,10807.006753
4091.623196,1149.143247,370.102971,10288.862594
4091.623511,1149.143247,1110.308913,8882.471304
4091.623826,1225.752797,1702.473667,8142.265362
4091.624142,689.485948,1554.432478,7476.080014
4091.624457,229.828649,666.185348,7994.224174
4091.624772,-229.828649,-222.061783,9326.594869
4091.625087,-919.314598,-1628.453072,10214.842000
4091.625402,-919.314598,-2368.659014,11547.212695
4091.625717,-612.876398,-2442.679609,11177.109724
4091.626032,-383.047749,-2146.597232,10881.027347
4091.626347,612.876398,-888.247130,10510.924376
4091.626663,689.485948,222.061783,9400.615463
4091.626978,1225.752797,1184.329507,7920.203579
4091.627293,1072.533697,1998.556043,7179.997637
4091.627608,536.266849,1628.453072,7254.018232
4091.627923,229.828649,740.205942,8364.327145
4091.628238,-612.876398,-370.102971,9474.636058
4091.628553,-1225.752797,-1332.370696,10584.944971
4091.628868,-1149.143247,-2220.617826,11251.130318
4091.629184,-995.924147,-1850.514855,11177.109724
4091.629499,-612.876398,-1258.350101,10288.862594
4091.629814,-383.047749,-222.061783,9918.759623
4091.630129,153.219100,518.144159,8808.450710
4091.630444,76.609550,1036.288319,7624.121203
4091.630759,0.000000,1036.288319,7698.141797
4091.631074,-229.828649,592.164754,8142.265362
4091.631390,-459.657299,-0.000000,8956.491898
4091.631705,-919.314598,-962.267725,9696.697840
4091.632020,-689.485948,-1628.453072,10510.924376
4091.632335,0.000000,-1628.453072,10510.924376
4091.632650,612.876398,-1258.350101,10436.903782
4091.632965,1455.581446,-0.000000,9548.656652
4091.633280,1608.800546,1110.308913,8142.265362
4091.633595,1455.581446,2072.576638,7624.121203
4091.633911,1072.533697,2294.638420,7846.182985
4091.634226,306.438199,1480.411884,8290.306550
4091.634541,153.219100,740.205942,8660.409521
4091.634856,-612.876398,-444.123565,10140.821405
4091.635171,-1149.143247,-1850.514855,11399.171507
4091.635486,-766.095498,-1480.411884,11917.315666
4091.635801,-306.438199,-1110.308913,11843.295072
4091.636116,842.705048,-148.041188,11621.233289
4091.636432,1455.581446,1110.308913,9622.677246
4091.636747,1838.629195,2294.638420,8512.368333
4091.637062,1685.410096,2812.782580,7846.182985
4091.637377,1378.971896,2664.741391,7920.203579
4091.637692,1149.143247,2220.617826,8808.450710
4091.638007,306.438199,888.247130,9696.697840
4091.638322,-229.828649,-592.164754,11177.109724
4091.638637,-689.485948,-1480.411884,12139.377449
4091.638953,-766.095498,-1628.453072,12139.377449
4091.639268,-229.828649,-962.267725,11473.192101
4091.639583,76.609550,-74.020594,10510.924376
4091.639898,919.314598,962.267725,9400.615463
4091.640213,842.705048,1850.514855,7920.203579
4091.640528,612.876398,2368.659014,7920.203579
4091.640843,383.047749,2146.597232,7920.203579
4091.641158,459.657299,1110.308913,8882.471304
4091.641474,-383.047749,-0.000000,10658.965565
4091.641789,-766.095498,-962.267725,10732.986159
4091.642104,-689.485948,-1850.514855,11103.089130
4091.642419,0.000000,-1036.288319,11029.068536
4091.642734,536.266849,-518.144159,10214.842000
4091.643049,766.095498,296.082377,9104.533087
4091.643364,842.705048,962.267725,8586.388927
4091.643679,0.000000,1702.473667,7624.121203
4091.643995,-459.657299,1554.432478,7105.977043
4091.644310,-842.705048,888.247130,8142.265362
4091.644625,-1149.143247,-814.226536,9622.677246
4091.644940,-1532.190996,-1850.514855,10658.965565
4091.645255,-1991.848295,-2294.638420,11325.150913
4091.645570,-1072.533697,-1776.494261,11029.068536
4091.645885,-383.047749,-1036.288319,10510.924376
4091.646200,842.705048,444.123565,9474.636058
4091.646516,1225.752797,1480.411884,8364.327145
4091.646831,842.705048,1850.514855,7328.038826
4091.647146,306.438199,2294.638420,7179.997637
4091.647461,0.000000,1702.473667,7550.100608
4091.647776,-383.047749,666.185348,9104.533087
4091.648091,-1225.752797,-1036.288319,10288.862594
4091.648406,-1608.800546,-2294.638420,11029.068536
4091.648721,-1915.238745,-2146.597232,11399.171507
4091.649037,-842.705048,-1776.494261,11473.192101
4091.649352,0.000000,-1036.288319,10214.842000
4091.649667,383.047749,888.247130,9030.512492
4091.649982,689.485948,1628.453072,8216.285956
4091.650297,536.266849,2220.617826,7698.141797
4091.650612,842.705048,2368.659014,7920.203579
4091.650927,536.266849,962.267725,8660.409521
4091.651242,76.609550,-296.082377,9992.780217
4091.651558,-76.609550,-740.205942,11103.089130
4091.651873,0.000000,-1406.391290,11177.109724
4091.652188,536.266849,-1554.432478,11473.192101
4091.652503,842.705048,-740.205942,11029.068536
4091.652818,1149.143247,296.082377,9696.697840
4091.653133,1455.581446,1332.370696,8364.327145
4091.653448,995.924147,1850.514855,8068.244768
4091.653763,689.485948,1554.432478,8068.244768
4091.654079,0.000000,518.144159,8660.409521
4091.654394,229.828649,-0.000000,9622.677246
4091.654709,-383.047749,-1110.308913,10955.047942
4091.655024,-306.438199,-1628.453072,11547.212695
4091.655339,153.219100,-1332.370696,11769.274478
4091.655654,995.924147,-814.226536,11251.130318
4091.655969,1532.190996,222.061783,10214.842000
4091.656284,1838.629195,1258.350101,8660.409521
4091.656600,1532.190996,1924.535449,7920.203579
4091.656915,919.314598,2368.659014,7772.162391
4091.657230,306.438199,1554.432478,7772.162391
4091.657545,0.000000,444.123565,9252.574275
4091.657860,-689.485948,-444.123565,10214.842000
4091.658175,-1149.143247,-1924.535449,11325.150913
4091.658490,-842.705048,-2294.638420,11695.253884
4091.658805,-612.876398,-1998.556043,11991.336260
4091.659121,153.219100,-962.267725,11029.068536
4091.659436,919.314598,-0.000000,9548.656652
4091.659751,1225.752797,1110.308913,7698.141797
4091.660066,1455.581446,2072.576638,7254.018232
4091.660381,919.314598,2442.679609,7031.956449
4091.660696,306.438199,1480.411884,8216.285956
4091.661011,0.000000,518.144159,9252.574275
4091.661327,-612.876398,-1036.288319,10214.842000
4091.661642,-919.314598,-2146.597232,11251.130318
4091.661957,-1532.190996,-2294.638420,11177.109724
4091.662272,-995.924147,-1480.411884,11325.150913
4091.662587,-383.047749,-444.123565,9992.780217
4091.662902,0.000000,370.102971,8956.491898
4091.663217,0.000000,1110.308913,7920.203579
4091.663532,-306.438199,2072.576638,7402.059420
4091.663848,-306.438199,2072.576638,7698.141797
4091.664163,-612.876398,1036.288319,8660.409521
4091.664478,-766.095498,-74.020594,9770.718434
4091.664793,-995.924147,-962.267725,10510.924376
4091.665108,-612.876398,-1554.432478,10732.986159
4091.665423,0.000000,-1036.288319,10955.047942
4091.665738,383.047749,-0.000000,10140.821405
4091.666053,1378.971896,666.185348,9326.594869
4091.666369,995.924147,1554.432478,8216.285956
4091.666684,76.609550,1998.556043,7772.162391
4091.666999,0.000000,2146.597232,7624.121203
4091.667314,-306.438199,962.267725,8438.347739
4091.667629,-1302.362347,-148.041188,9844.739029
4091.667944,-1302.362347,-1036.288319,11251.130318
4091.668259,-1302.362347,-1702.473667,11991.336260
4091.668574,-766.095498,-1258.350101,11843.295072
4091.668890,229.828649,-518.144159,11177.109724
4091.669205,1455.581446,888.247130,10066.800811
4091.669520,1608.800546,2368.659014,9400.615463
4091.669835,1455.581446,2738.761985,8364.327145
4091.670150,1532.190996,2886.803174,7846.182985
4091.670465,1149.143247,2072.576638,8512.368333
4091.670780,536.266849,1110.308913,9622.677246
4091.671095,229.828649,-296.082377,10732.986159
4091.671411,0.000000,-1406.391290,11769.274478
4091.671726,-229.828649,-1924.535449,11769.274478
4091.672041,306.438199,-1850.514855,11843.295072
4091.672356,383.047749,-740.205942,11177.109724
4091.672672,995.924147,296.082377,9696.697840
4091.672987,1532.190996,1406.391290,8512.368333
4091.673302,1838.629195,1924.535449,7920.203579
4091.673618,1532.190996,1628.453072,7772.162391
4091.673933,842.705048,888.247130,8660.409521
4091.674248,536.266849,-0.000000,9918.759623
4091.674563,-153.219100,-888.247130,10658.965565
4091.674879,-153.219100,-1332.370696,10955.047942
4091.675194,0.000000,-1628.453072,11103.089130
4091.675509,612.876398,-1036.288319,11029.068536
4091.675824,842.705048,-74.020594,9622.677246
4091.676140,842.705048,444.123565,8364.327145
4091.676455,536.266849,1036.288319,7772.162391
4091.676770,0.000000,1110.308913,7402.059420
4091.677086,-306.438199,814.226536,7994.224174
4091.677401,-1072.533697,-222.061783,9104.533087
4091.677716,-1455.581446,-1480.411884,9844.739029
4091.678031,-1532.190996,-2072.576638,10584.944971
4091.678347,-842.705048,-2146.597232,10955.047942
4091.678662,-383.047749,-1406.391290,10510.924376
4091.678977,383.047749,-0.000000,9622.677246
4091.679292,766.095498,1184.329507,8586.388927
4091.679608,1302.362347,2220.617826,7994.224174
4091.679923,306.438199,1998.556043,7328.038826
4091.680238,0.000000,1776.494261,7698.141797
4091.680553,-459.657299,814.226536,8882.471304
4091.680869,-1302.362347,-370.102971,10066.800811
4091.681184,-1608.800546,-2072.576638,10658.965565
4091.681499,-2068.457845,-2368.659014,11547.212695
4091.681815,-1378.971896,-2146.597232,11325.150913
4091.682130,-919.314598,-1332.370696,10732.986159
4091.682445,153.219100,-74.020594,9474.636058
4091.682760,919.314598,1480.411884,8512.368333
4091.683076,383.047749,1998.556043,7254.018232
4091.683391,0.000000,1998.556043,7476.080014
4091.683706,-306.438199,1554.432478,8364.327145
4091.684021,-459.657299,444.123565,8882.471304
4091.684337,-536.266849,-814.226536,10658.965565
4091.684652,-612.876398,-1406.391290,11325.150913
4091.684967,-612.876398,-1332.370696,11473.192101
4091.685282,-306.438199,-666.185348,11103.089130
4091.685598,383.047749,888.247130,10214.842000
4091.685913,1532.190996,1406.391290,8808.450710
4091.686228,1455.581446,1998.556043,8142.265362
4091.686544,919.314598,2368.659014,7920.203579
4091.686859,612.876398,1924.535449,8142.265362
4091.687174,383.047749,1184.329507,9104.533087
4091.687489,0.000000,-0.000000,10510.924376
4091.687805,-612.876398,-888.247130,11695.253884
4091.688120,0.000000,-962.267725,11917.315666
4091.688435,536.266849,-888.247130,11473.192101
4091.688750,1532.190996,-222.061783,10807.006753
4091.689066,1838.629195,888.247130,9992.780217
4091.689381,1991.848295,2146.597232,8882.471304
4091.689696,1685.410096,2368.659014,7624.121203
4091.690012,1302.362347,2516.700203,8290.306550
4091.690327,1302.362347,1924.535449,8882.471304
4091.690642,919.314598,370.102971,9622.677246
4091.690957,536.266849,-888.247130,11103.089130
4091.691273,0.000000,-1554.432478,11473.192101
4091.691588,76.609550,-1554.432478,11547.212695
4091.691903,612.876398,-1110.308913,11029.068536
4091.692218,1225.752797,-0.000000,9918.759623
4091.692534,1225.752797,1184.329507,9252.574275
4091.692849,995.924147,1776.494261,7920.203579
4091.693164,766.095498,2072.576638,7550.100608
4091.693479,229.828649,1258.350101,7920.203579
4091.693795,0.000000,296.082377,8956.491898
4091.694110,-919.314598,-888.247130,10066.800811
4091.694425,-1072.533697,-1702.473667,11103.089130
4091.694741,-995.924147,-1998.556043,11251.130318
4091.695056,-383.047749,-1850.514855,11103.089130
4091.695371,229.828649,-592.164754,10140.821405
4091.695686,306.438199,222.061783,9178.553681
4091.696002,306.438199,1110.308913,7846.182985
4091.696317,153.219100,1776.494261,7328.038826
4091.696632,229.828649,1702.473667,7550.100608
4091.696947,-229.828649,296.082377,7920.203579
4091.697263,-612.876398,-370.102971,9178.553681
4091.697578,-919.314598,-1702.473667,10510.924376
4091.697893,-1302.362347,-1850.514855,10807.006753
4091.698208,-612.876398,-2220.617826,11399.171507
4091.698524,0.000000,-962.267725,10140.821405
4091.698839,153.219100,-148.041188,9474.636058
4091.699154,153.219100,962.267725,8364.327145
4091.699470,0.000000,1554.432478,7698.141797
4091.699785,-536.266849,1480.411884,7624.121203
4091.700100,-536.266849,1184.329507,8586.388927
4091.700415,-1149.143247,222.061783,9400.615463
4091.700731,-1302.362347,-814.226536,10362.883188
4091.701046,-1225.752797,-1850.514855,11621.233289
4091.701361,-766.095498,-2072.576638,11917.315666
4091.701676,-383.047749,-1036.288319,11621.233289
4091.701992,229.828649,148.041188,10362.883188
4091.702307,995.924147,1184.329507,9104.533087
4091.702622,1302.362347,1776.494261,7994.224174
4091.702938,383.047749,2294.638420,7920.203579
4091.703253,306.438199,2146.597232,7994.224174
4091.703568,0.000000,592.164754,9030.512492
4091.703883,-459.657299,-370.102971,10510.924376
4091.704199,-689.485948,-1924.535449,11843.295072
4091.704514,-766.095498,-1924.535449,11843.295072
4091.704829,-383.047749,-1998.556043,11917.315666
4091.705144,153.219100,-1036.288319,11547.212695
4091.705460,995.924147,370.102971,10140.821405
4091.705775,1608.800546,1332.370696,8660.409521
4091.706090,1455.581446,2294.638420,8068.244768
4091.706405,1072.533697,2294.638420,7698.141797
4091.706721,1072.533697,1776.494261,8216.285956
4091.707036,383.047749,740.205942,9326.594869
4091.707351,229.828649,-1036.288319,10807.006753
4091.707667,-76.609550,-1554.432478,11251.130318
4091.707982,0.000000,-1702.473667,11177.109724
4091.708297,612.876398,-1332.370696,11399.171507
4091.708612,1072.533697,-0.000000,10066.800811
4091.708928,1455.581446,814.226536,8660.409521
4091.709243,1762.019645,1924.535449,7402.059420
4091.709558,1149.143247,2220.617826,7179.997637
4091.709873,459.657299,1850.514855,7920.203579
4091.710189,153.219100,1110.308913,8586.388927
4091.710504,-306.438199,-222.061783,9548.656652
4091.710819,-689.485948,-1258.350101,10658.965565
4091.711134,-612.876398,-1776.494261,11103.089130
4091.711450,0.000000,-1184.329507,11251.130318
4091.711765,842.705048,-296.082377,11029.068536
4091.712080,995.924147,740.205942,9178.553681
4091.712396,1149.143247,2146.597232,8068.244768
4091.712711,689.485948,2516.700203,7476.080014
4091.713026,459.657299,2516.700203,7254.018232
4091.713341,0.000000,1628.453072,8290.306550
4091.713657,-766.095498,148.041188,9474.636058
4091.713972,-1072.533697,-888.247130,10955.047942
4091.714287,-1532.190996,-1702.473667,11399.171507
4091.714602,-1149.143247,-1702.473667,11325.150913
4091.714918,-536.266849,-1480.411884,11251.130318
4091.715233,0.000000,444.123565,9992.780217
4091.715548,229.828649,1184.329507,8808.450710
4091.715864,229.828649,2146.597232,7772.162391
4091.716179,229.828649,1850.514855,7920.203579
4091.716494,0.000000,1628.453072,7772.162391
4091.716809,-536.266849,1110.308913,9252.574275
4091.717125,-1378.971896,-0.000000,10584.944971
4091.717440,-1685.410096,-1258.350101,11769.274478
4091.717755,-1072.533697,-1406.391290,11325.150913
4091.718070,-383.047749,-1332.370696,11547.212695
4091.718386,229.828649,-148.041188,10732.986159
4091.718701,766.095498,814.226536,9474.636058
4091.719016,766.095498,1776.494261,8512.368333
4091.719331,459.657299,2368.659014,8142.265362
4091.719647,0.000000,1776.494261,7920.203579
4091.719962,0.000000,592.164754,9104.533087
4091.720277,-459.657299,-148.041188,9992.780217
4091.720593,-306.438199,-1258.350101,10955.047942
4091.720908,-459.657299,-1776.494261,11473.192101
4091.721223,0.000000,-1480.411884,11251.130318
4091.721538,766.095498,-888.247130,10955.047942
4091.721854,1302.362347,-0.000000,9992.780217
