#time,accel_x,accel_y,accel_z
3740.820726,0.000000,370.102971,9622.677246
3740.821041,76.609550,370.102971,9474.636058
3740.821356,-229.828649,296.082377,9326.594869
3740.821670,0.000000,222.061783,9622.677246
3740.821985,0.000000,-0.000000,9548.656652
3740.822300,0.000000,-0.000000,9400.615463
3740.822614,0.000000,-0.000000,9400.615463
3740.822929,153.219100,-0.000000,9474.636058
3740.823244,153.219100,148.041188,9400.615463
3740.823558,153.219100,-0.000000,9326.594869
3740.823873,536.266849,-0.000000,9474.636058
3740.824188,612.876398,-74.020594,9474.636058
3740.824502,383.047749,-0.000000,9400.615463
3740.824817,536.266849,296.082377,9918.759623
3740.825132,0.000000,-74.020594,9400.615463
3740.825446,153.219100,-0.000000,9622.677246
3740.825761,306.438199,-74.020594,9622.677246
3740.826076,76.609550,-0.000000,9696.697840
3740.826390,612.876398,-0.000000,9918.759623
3740.826705,229.828649,-0.000000,9548.656652
3740.827020,0.000000,-0.000000,10214.842000
3740.827334,0.000000,-0.000000,9918.759623
3740.827649,306.438199,296.082377,9474.636058
3740.827963,0.000000,222.061783,9844.739029
3740.828278,0.000000,-0.000000,9992.780217
3740.828593,76.609550,-0.000000,9844.739029
3740.828907,0.000000,-0.000000,9548.656652
3740.829222,76.609550,296.082377,9548.656652
3740.829537,229.828649,148.041188,9770.718434
3740.829851,0.000000,-74.020594,9400.615463
3740.830166,-229.828649,222.061783,9844.739029
3740.830481,-153.219100,-0.000000,9696.697840
3740.830795,0.000000,444.123565,9548.656652
3740.831110,0.000000,296.082377,9474.636058
3740.831425,0.000000,222.061783,9474.636058
3740.831739,0.000000,-0.000000,9548.656652
3740.832054,229.828649,222.061783,9400.615463
3740.832369,0.000000,148.041188,9548.656652
3740.832683,76.609550,518.144159,9474.636058
3740.832998,306.438199,296.082377,9622.677246
3740.833313,153.219100,-0.000000,9326.594869
3740.833627,0.000000,-0.000000,9696.697840
3740.833942,153.219100,222.061783,9400.615463
3740.834257,229.828649,-222.061783,9178.553681
3740.834571,76.609550,-0.000000,9474.636058
3740.834886,153.219100,148.041188,9474.636058
3740.835201,306.438199,370.102971,9400.615463
3740.835515,153.219100,222.061783,9770.718434
3740.835830,229.828649,-74.020594,9622.677246
3740.836144,153.219100,-0.000000,9622.677246
3740.836459,76.609550,222.061783,9474.636058
3740.836774,306.438199,-0.000000,9474.636058
3740.837088,153.219100,-0.000000,9770.718434
3740.837403,0.000000,-0.000000,9770.718434
3740.837718,383.047749,-0.000000,9474.636058
3740.838032,76.609550,222.061783,9548.656652
3740.838347,383.047749,222.061783,9770.718434
3740.838662,153.219100,-0.000000,9548.656652
3740.838976,229.828649,-0.000000,9844.739029
3740.839291,306.438199,-0.000000,9770.718434
3740.839606,459.657299,296.082377,9622.677246
3740.839920,229.828649,222.061783,9474.636058
3740.840235,0.000000,296.082377,9770.718434
3740.840550,0.000000,222.061783,9992.780217
3740.840864,0.000000,-0.000000,9474.636058
3740.841179,0.000000,-0.000000,9548.656652
3740.841494,0.000000,296.082377,9696.697840
3740.841808,229.828649,148.041188,9918.759623
3740.842123,-229.828649,370.102971,9696.697840
3740.842438,-306.438199,222.061783,9326.594869
3740.842752,0.000000,-0.000000,9400.615463
3740.843067,76.609550,296.082377,9474.636058
3740.843382,-229.828649,-0.000000,9252.574275
3740.843696,0.000000,222.061783,9474.636058
3740.844011,0.000000,148.041188,9178.553681
3740.844326,76.609550,296.082377,9474.636058
3740.844640,153.219100,222.061783,9400.615463
3740.844955,0.000000,-0.000000,9474.636058
3740.845269,0.000000,148.041188,9548.656652
3740.845584,229.828649,296.082377,9474.636058
3740.845899,459.657299,370.102971,9844.739029
3740.846213,536.266849,296.082377,9178.553681
3740.846528,-229.828649,-74.020594,9474.636058
3740.846843,0.000000,-0.000000,9770.718434
3740.847157,76.609550,-222.061783,9622.677246
3740.847472,229.828649,-0.000000,9696.697840
3740.847787,536.266849,-148.041188,9622.677246
3740.848101,689.485948,-0.000000,9918.759623
3740.848416,383.047749,814.226536,9622.677246
3740.848731,612.876398,370.102971,9104.533087
3740.849045,995.924147,444.123565,9696.697840
3740.849360,766.095498,888.247130,9104.533087
3740.849675,919.314598,222.061783,9400.615463
3740.849989,689.485948,370.102971,9252.574275
3740.850304,612.876398,370.102971,9474.636058
3740.850619,689.485948,296.082377,9844.739029
3740.850933,0.000000,740.205942,10066.800811
3740.851248,459.657299,592.164754,10288.862594
3740.851563,536.266849,1110.308913,9770.718434
3740.851877,842.705048,1036.288319,9326.594869
3740.852192,995.924147,962.267725,9474.636058
3740.852507,1225.752797,814.226536,9844.739029
3740.852821,1532.190996,592.164754,9770.718434
3740.853136,1455.581446,962.267725,9770.718434
3740.853450,2221.676944,1332.370696,9844.739029
3740.853765,2451.505594,1258.350101,9622.677246
3740.854080,2681.334243,2072.576638,9474.636058
3740.854394,2911.162892,2220.617826,9252.574275
3740.854709,3370.820191,2220.617826,9104.533087
3740.855024,3524.039291,2368.659014,8438.347739
3740.855338,3370.820191,2294.638420,8586.388927
3740.855653,3524.039291,2442.679609,8660.409521
3740.855968,3830.477490,2146.597232,8586.388927
3740.856282,3524.039291,2368.659014,8660.409521
3740.856597,3294.210641,2368.659014,9252.574275
3740.856912,3294.210641,2442.679609,9622.677246
3740.857226,3064.381992,2738.761985,9474.636058
3740.857541,2911.162892,2960.823768,9104.533087
3740.857856,2987.772442,3108.864956,9178.553681
3740.858170,2911.162892,3478.967927,9178.553681
3740.858485,2834.553343,3552.988522,9104.533087
3740.858800,2757.943793,3627.009116,9918.759623
3740.859114,3140.991542,3997.112087,9918.759623
3740.859429,2374.896044,3923.091493,9992.780217
3740.859744,2298.286494,3849.070898,10066.800811
3740.860058,2374.896044,3997.112087,10955.047942
3740.860373,2068.457845,3627.009116,10955.047942
3740.860688,1762.019645,3552.988522,10807.006753
3740.861002,1532.190996,3552.988522,11103.089130
3740.861317,1225.752797,3478.967927,10955.047942
3740.861632,1762.019645,3701.029710,10955.047942
3740.861946,2068.457845,3627.009116,10362.883188
3740.862261,1991.848295,3775.050304,9844.739029
3740.862575,2145.067394,4293.194464,9622.677246
3740.862890,2068.457845,4145.153275,9474.636058
3740.863205,2374.896044,3701.029710,9770.718434
3740.863519,1915.238745,3627.009116,9844.739029
3740.863834,1608.800546,3404.947333,10066.800811
3740.864149,1838.629195,2664.741391,10436.903782
3740.864463,1608.800546,2812.782580,10436.903782
3740.864778,1915.238745,2590.720797,10510.924376
3740.865093,1838.629195,2886.803174,9992.780217
3740.865407,1532.190996,3182.885551,9844.739029
3740.865722,1685.410096,3256.906145,9770.718434
3740.866037,1991.848295,3034.844362,9326.594869
3740.866351,1915.238745,3108.864956,9178.553681
3740.866666,1838.629195,2738.761985,8882.471304
3740.866981,1608.800546,2368.659014,8882.471304
3740.867295,1532.190996,1776.494261,9104.533087
3740.867610,1915.238745,1406.391290,9622.677246
3740.867925,1915.238745,1258.350101,10955.047942
3740.868239,995.924147,1332.370696,10214.842000
3740.868554,1225.752797,1258.350101,9918.759623
3740.868869,1608.800546,1702.473667,9622.677246
3740.869183,2451.505594,1628.453072,9474.636058
3740.869498,2374.896044,1924.535449,9252.574275
3740.869813,2757.943793,2368.659014,8808.450710
3740.870127,3294.210641,2220.617826,8734.430116
3740.870442,3447.429741,1998.556043,8216.285956
3740.870757,3677.258390,1850.514855,8290.306550
3740.871071,3217.601092,1480.411884,8808.450710
3740.871386,3064.381992,1184.329507,9252.574275
3740.871700,2834.553343,1184.329507,9178.553681
3740.872015,2451.505594,814.226536,9030.512492
3740.872330,2145.067394,666.185348,9178.553681
3740.872644,1991.848295,888.247130,9474.636058
3740.872959,1608.800546,296.082377,10066.800811
3740.873274,1991.848295,148.041188,10288.862594
3740.873588,2221.676944,222.061783,10066.800811
3740.873903,2221.676944,1036.288319,10510.924376
3740.874218,2528.115143,1554.432478,10140.821405
3740.874532,3217.601092,2442.679609,9548.656652
3740.874847,3677.258390,2368.659014,8808.450710
3740.875162,3830.477490,2590.720797,8068.244768
3740.875476,3677.258390,2072.576638,7994.224174
3740.875791,3753.867940,2146.597232,8068.244768
3740.876106,2911.162892,1406.391290,8586.388927
3740.876420,2298.286494,1036.288319,8734.430116
3740.876735,1149.143247,370.102971,9844.739029
3740.877050,229.828649,-592.164754,11029.068536
3740.877364,76.609550,-518.144159,11843.295072
3740.877679,-383.047749,-222.061783,12065.356855
3740.877994,153.219100,740.205942,12065.356855
3740.878308,766.095498,2220.617826,11473.192101
3740.878623,2451.505594,2590.720797,10140.821405
3740.878938,3600.648841,3627.009116,9622.677246
3740.879252,4060.306139,4515.256246,8068.244768
3740.879567,4749.792088,4737.318029,7105.977043
3740.879881,4749.792088,4589.276840,6661.853478
3740.880196,4903.011187,3404.947333,7624.121203
3740.880511,3753.867940,2664.741391,8660.409521
3740.880825,1455.581446,1554.432478,9474.636058
3740.881140,-612.876398,666.185348,11103.089130
3740.881455,-1072.533697,296.082377,11917.315666
3740.881769,-1762.019645,370.102971,12583.501014
3740.882084,-1608.800546,1110.308913,12213.398043
3740.882399,-1072.533697,2294.638420,10881.027347
3740.882713,306.438199,3256.906145,9696.697840
3740.883028,1685.410096,4367.215058,8290.306550
3740.883343,2374.896044,3923.091493,7846.182985
3740.883657,3677.258390,4219.173869,8586.388927
3740.883972,3294.210641,4367.215058,7846.182985
3740.884287,2604.724693,3775.050304,8438.347739
3740.884601,1685.410096,3182.885551,10807.006753
3740.884916,689.485948,2294.638420,11843.295072
3740.885231,-536.266849,1998.556043,11991.336260
3740.885545,-1762.019645,2072.576638,11251.130318
3740.885860,-1532.190996,1776.494261,10362.883188
3740.886175,-689.485948,1110.308913,9992.780217
3740.886489,919.314598,888.247130,9992.780217
3740.886804,1149.143247,962.267725,9326.594869
3740.887119,1149.143247,1184.329507,8512.368333
3740.887433,1532.190996,1702.473667,8512.368333
3740.887748,1838.629195,1628.453072,8734.430116
3740.888063,2145.067394,2072.576638,8216.285956
3740.888377,1225.752797,2368.659014,8956.491898
3740.888692,536.266849,1776.494261,9326.594869
3740.889006,76.609550,814.226536,9992.780217
3740.889321,766.095498,-296.082377,11029.068536
3740.889636,-153.219100,-592.164754,11473.192101
3740.889950,-612.876398,-222.061783,11103.089130
3740.890265,-842.705048,-0.000000,10732.986159
3740.890580,459.657299,370.102971,10658.965565
3740.890894,919.314598,962.267725,9252.574275
3740.891209,1532.190996,1110.308913,8216.285956
3740.891524,1685.410096,1110.308913,7402.059420
3740.891838,2068.457845,-0.000000,8142.265362
3740.892153,1762.019645,-888.247130,9326.594869
3740.892468,995.924147,-1332.370696,9696.697840
3740.892782,306.438199,-1184.329507,10510.924376
3740.893097,0.000000,-1036.288319,10732.986159
3740.893412,0.000000,-814.226536,10732.986159
3740.893726,0.000000,296.082377,9918.759623
3740.894041,153.219100,296.082377,8882.471304
3740.894356,842.705048,-0.000000,8512.368333
3740.894670,1532.190996,-148.041188,8734.430116
3740.894985,1838.629195,-962.267725,8956.491898
3740.895299,1685.410096,-1480.411884,9104.533087
3740.895614,842.705048,-1628.453072,9548.656652
3740.895929,995.924147,-1184.329507,10436.903782
3740.896243,383.047749,-74.020594,9696.697840
3740.896558,0.000000,-0.000000,9400.615463
3740.896872,-383.047749,-0.000000,9030.512492
3740.897187,-153.219100,-888.247130,9548.656652
3740.897502,383.047749,-1628.453072,9178.553681
3740.897816,-612.876398,-2368.659014,9696.697840
3740.898131,-919.314598,-1998.556043,9992.780217
3740.898446,-689.485948,-1702.473667,9770.718434
3740.898760,-306.438199,-814.226536,9992.780217
3740.899075,0.000000,-370.102971,9770.718434
3740.899389,306.438199,-0.000000,8882.471304
3740.899704,0.000000,-148.041188,8882.471304
3740.900019,0.000000,-814.226536,9474.636058
3740.900333,-459.657299,-1332.370696,10140.821405
3740.900648,-536.266849,-1850.514855,9844.739029
3740.900963,-1225.752797,-1554.432478,9844.739029
3740.901277,-1225.752797,-962.267725,9844.739029
3740.901592,-919.314598,-296.082377,9548.656652
3740.901906,-612.876398,518.144159,8512.368333
3740.902221,0.000000,-0.000000,8216.285956
3740.902536,-153.219100,-0.000000,8364.327145
3740.902850,0.000000,-962.267725,8512.368333
3740.903165,-306.438199,-1998.556043,9252.574275
3740.903479,-766.095498,-1924.535449,10436.903782
3740.903794,-1225.752797,-1628.453072,10881.027347
3740.904109,-1378.971896,-740.205942,10658.965565
3740.904423,-1225.752797,666.185348,10288.862594
3740.904738,-1378.971896,1554.432478,9474.636058
3740.905053,-459.657299,1406.391290,9178.553681
3740.905367,0.000000,222.061783,9104.533087
3740.905682,383.047749,-0.000000,9548.656652
3740.905996,153.219100,-666.185348,9474.636058
3740.906311,153.219100,-148.041188,9918.759623
3740.906626,153.219100,370.102971,9844.739029
3740.906940,0.000000,1184.329507,9696.697840
3740.907255,306.438199,1554.432478,9252.574275
3740.907569,459.657299,1332.370696,8808.450710
3740.907884,459.657299,518.144159,9474.636058
3740.908199,153.219100,444.123565,9918.759623
3740.908513,-229.828649,-370.102971,9400.615463
3740.908828,-459.657299,-74.020594,9844.739029
3740.909143,306.438199,296.082377,10214.842000
3740.909457,383.047749,740.205942,10066.800811
3740.909772,536.266849,1850.514855,9474.636058
3740.910086,1149.143247,2368.659014,8512.368333
3740.910401,1762.019645,2146.597232,8364.327145
3740.910716,2068.457845,1480.411884,9030.512492
3740.911030,1608.800546,370.102971,9548.656652
3740.911345,1455.581446,-148.041188,10288.862594
3740.911659,612.876398,-0.000000,10288.862594
3740.911974,689.485948,666.185348,10881.027347
3740.912289,536.266849,1480.411884,10732.986159
3740.912603,612.876398,2294.638420,9696.697840
3740.912918,766.095498,1998.556043,9178.553681
3740.913233,1225.752797,1332.370696,9178.553681
3740.913547,1532.190996,888.247130,9104.533087
3740.913862,1149.143247,296.082377,9770.718434
3740.914176,536.266849,222.061783,9844.739029
3740.914491,766.095498,-518.144159,10658.965565
3740.914806,536.266849,592.164754,10732.986159
3740.915120,229.828649,1258.350101,9770.718434
3740.915435,229.828649,2294.638420,9400.615463
3740.915749,383.047749,1924.535449,9400.615463
3740.916064,459.657299,1036.288319,9770.718434
3740.916379,-229.828649,-0.000000,9622.677246
3740.916693,-766.095498,-444.123565,10510.924376
3740.917008,-842.705048,-444.123565,10732.986159
3740.917323,-766.095498,-0.000000,10510.924376
3740.917637,-612.876398,740.205942,9474.636058
3740.917952,-766.095498,1110.308913,9104.533087
3740.918266,0.000000,1184.329507,8734.430116
3740.918581,76.609550,296.082377,9104.533087
3740.918896,-383.047749,-222.061783,9548.656652
3740.919210,-766.095498,-444.123565,9548.656652
3740.919525,-1455.581446,-740.205942,10288.862594
3740.919839,-1149.143247,-592.164754,10584.944971
3740.920154,-995.924147,-0.000000,10362.883188
3740.920469,-766.095498,592.164754,9548.656652
3740.920783,-383.047749,1110.308913,8660.409521
3740.921098,229.828649,888.247130,8660.409521
3740.921413,153.219100,370.102971,8660.409521
3740.921727,0.000000,-592.164754,9252.574275
3740.922042,-459.657299,-1184.329507,9622.677246
3740.922356,-612.876398,-1850.514855,10362.883188
3740.922671,-919.314598,-1406.391290,10362.883188
3740.922986,-766.095498,-518.144159,9844.739029
3740.923300,-229.828649,-0.000000,8956.491898
3740.923615,0.000000,592.164754,9252.574275
3740.923929,76.609550,-0.000000,9030.512492
3740.924244,459.657299,-666.185348,8808.450710
3740.924559,229.828649,-1036.288319,9326.594869
3740.924873,459.657299,-1554.432478,10214.842000
3740.925188,229.828649,-1036.288319,10214.842000
3740.925503,612.876398,-592.164754,9548.656652
3740.925817,459.657299,-0.000000,9326.594869
3740.926132,536.266849,666.185348,8660.409521
3740.926446,766.095498,-0.000000,9326.594869
3740.926761,919.314598,-444.123565,9474.636058
3740.927076,229.828649,-1036.288319,9474.636058
3740.927390,-229.828649,-1554.432478,9696.697840
3740.927705,0.000000,-1554.432478,10362.883188
3740.928019,-229.828649,-1332.370696,10881.027347
3740.928334,-306.438199,-296.082377,10066.800811
3740.928649,76.609550,296.082377,8956.491898
3740.928963,689.485948,740.205942,8586.388927
3740.929278,1455.581446,592.164754,9326.594869
3740.929593,1685.410096,-0.000000,9178.553681
3740.929907,1149.143247,-518.144159,9178.553681
3740.930222,459.657299,-740.205942,9326.594869
3740.930536,536.266849,-592.164754,9992.780217
3740.930851,0.000000,-222.061783,9918.759623
3740.931166,0.000000,74.020594,9252.574275
3740.931480,229.828649,1184.329507,9178.553681
3740.931795,383.047749,370.102971,9104.533087
3740.932109,612.876398,-0.000000,9474.636058
3740.932424,153.219100,-148.041188,9622.677246
3740.932739,0.000000,-888.247130,9844.739029
3740.933053,153.219100,-814.226536,10436.903782
3740.933368,612.876398,-74.020594,10214.842000
3740.933683,536.266849,1110.308913,9548.656652
3740.933997,766.095498,2516.700203,8364.327145
3740.934312,689.485948,2368.659014,8734.430116
3740.934626,1072.533697,1702.473667,9030.512492
3740.934941,536.266849,1184.329507,9622.677246
3740.935256,0.000000,148.041188,9474.636058
3740.935570,-306.438199,-296.082377,10140.821405
3740.935885,-306.438199,-444.123565,11177.109724
3740.936199,-766.095498,518.144159,10510.924376
3740.936514,-919.314598,814.226536,9844.739029
3740.936829,-689.485948,1406.391290,9252.574275
3740.937143,0.000000,1406.391290,9474.636058
3740.937458,229.828649,1332.370696,9252.574275
3740.937773,0.000000,592.164754,9918.759623
3740.938087,-153.219100,-0.000000,10584.944971
3740.938402,-306.438199,222.061783,10140.821405
3740.938716,0.000000,296.082377,11029.068536
3740.939031,0.000000,1406.391290,10362.883188
3740.939346,-306.438199,2220.617826,9326.594869
3740.939660,306.438199,2368.659014,9252.574275
3740.939975,919.314598,1702.473667,9474.636058
3740.940289,153.219100,666.185348,9992.780217
3740.940604,-76.609550,-222.061783,9844.739029
3740.940919,-612.876398,-592.164754,10362.883188
3740.941233,-919.314598,-0.000000,10658.965565
3740.941548,-229.828649,-0.000000,10436.903782
3740.941863,0.000000,888.247130,9918.759623
3740.942177,-612.876398,1480.411884,9252.574275
3740.942492,306.438199,1036.288319,9400.615463
3740.942806,842.705048,740.205942,9178.553681
3740.943121,383.047749,296.082377,9474.636058
3740.943436,383.047749,-222.061783,10066.800811
3740.943750,153.219100,-370.102971,10214.842000
3740.944065,459.657299,-0.000000,9474.636058
3740.944379,689.485948,518.144159,9696.697840
3740.944694,459.657299,1554.432478,8512.368333
3740.945009,689.485948,888.247130,9252.574275
3740.945323,1225.752797,444.123565,9104.533087
3740.945638,919.314598,-518.144159,9696.697840
3740.945953,383.047749,-962.267725,9622.677246
3740.946267,0.000000,-1480.411884,9992.780217
3740.946582,-536.266849,-1776.494261,10658.965565
3740.946896,-459.657299,-740.205942,10362.883188
3740.947211,0.000000,-0.000000,9622.677246
3740.947526,536.266849,444.123565,8734.430116
3740.947840,1149.143247,296.082377,8586.388927
3740.948155,1072.533697,-0.000000,8882.471304
3740.948469,766.095498,-518.144159,9326.594869
3740.948784,459.657299,-740.205942,9622.677246
3740.949099,536.266849,-1628.453072,10140.821405
3740.949413,229.828649,-1036.288319,10140.821405
3740.949728,0.000000,-0.000000,9622.677246
3740.950043,0.000000,-0.000000,9104.533087
3740.950357,0.000000,370.102971,9030.512492
3740.950672,0.000000,-592.164754,9474.636058
3740.950986,-229.828649,-962.267725,9844.739029
3740.951301,-383.047749,-1554.432478,9992.780217
3740.951616,-842.705048,-1480.411884,9696.697840
3740.951930,-536.266849,-1628.453072,10214.842000
3740.952245,-229.828649,-444.123565,9844.739029
3740.952560,76.609550,666.185348,8882.471304
3740.952874,76.609550,888.247130,8290.306550
3740.953189,689.485948,962.267725,8068.244768
3740.953503,383.047749,592.164754,8142.265362
3740.953818,229.828649,-148.041188,8882.471304
3740.954133,0.000000,-1036.288319,9474.636058
3740.954447,-383.047749,-1258.350101,10288.862594
3740.954762,-766.095498,-888.247130,10510.924376
3740.955076,-995.924147,-0.000000,9622.677246
3740.955391,-689.485948,814.226536,9326.594869
3740.955706,-229.828649,740.205942,9326.594869
3740.956020,153.219100,222.061783,9252.574275
3740.956335,0.000000,-74.020594,9326.594869
3740.956650,-766.095498,-370.102971,9696.697840
3740.956964,-612.876398,-296.082377,10955.047942
3740.957279,0.000000,-74.020594,10584.944971
3740.957593,-229.828649,592.164754,10510.924376
3740.957908,-383.047749,1702.473667,9696.697840
3740.958223,153.219100,1924.535449,9104.533087
3740.958537,766.095498,1480.411884,9178.553681
3740.958852,536.266849,1036.288319,9918.759623
3740.959166,0.000000,444.123565,9918.759623
3740.959481,-306.438199,-296.082377,10066.800811
3740.959796,-383.047749,-592.164754,10288.862594
3740.960110,-229.828649,-444.123565,11029.068536
3740.960425,-229.828649,370.102971,10436.903782
3740.960740,0.000000,666.185348,9548.656652
3740.961054,229.828649,814.226536,9474.636058
3740.961369,689.485948,592.164754,9696.697840
3740.961683,689.485948,740.205942,9696.697840
3740.961998,0.000000,-148.041188,10584.944971
3740.962313,229.828649,-370.102971,10510.924376
3740.962627,612.876398,-74.020594,10066.800811
3740.962942,612.876398,740.205942,10066.800811
3740.963256,1072.533697,1332.370696,9400.615463
3740.963571,1225.752797,1850.514855,8734.430116
3740.963886,1378.971896,1480.411884,9104.533087
3740.964200,1302.362347,888.247130,9178.553681
3740.964515,1072.533697,-296.082377,9474.636058
3740.964830,612.876398,-888.247130,9548.656652
3740.965144,0.000000,-1036.288319,9770.718434
3740.965459,0.000000,-814.226536,10214.842000
3740.965773,-306.438199,-296.082377,9178.553681
3740.966088,0.000000,296.082377,8808.450710
3740.966403,459.657299,888.247130,8660.409521
3740.966717,919.314598,370.102971,8586.388927
3740.967032,842.705048,148.041188,8956.491898
3740.967346,612.876398,-148.041188,9030.512492
3740.967661,153.219100,-370.102971,9474.636058
3740.967976,0.000000,-222.061783,10066.800811
3740.968290,459.657299,-0.000000,9770.718434
3740.968605,229.828649,814.226536,9326.594869
3740.968920,229.828649,1184.329507,8660.409521
3740.969234,383.047749,666.185348,9178.553681
3740.969549,459.657299,592.164754,9400.615463
3740.969863,-306.438199,-222.061783,9548.656652
3740.970178,-689.485948,-888.247130,9918.759623
3740.970493,-689.485948,-962.267725,10288.862594
3740.970807,-536.266849,-814.226536,10214.842000
3740.971122,-766.095498,-0.000000,9474.636058
3740.971436,-383.047749,444.123565,9030.512492
3740.971751,0.000000,1110.308913,8882.471304
3740.972066,689.485948,962.267725,8808.450710
3740.972380,612.876398,-0.000000,9178.553681
3740.972695,0.000000,-814.226536,9992.780217
3740.973010,-229.828649,-888.247130,10436.903782
3740.973324,-536.266849,-592.164754,10732.986159
3740.973639,-842.705048,-0.000000,10510.924376
3740.973953,-1149.143247,1258.350101,9918.759623
3740.974268,-612.876398,962.267725,9474.636058
3740.974583,76.609550,740.205942,9474.636058
3740.974897,0.000000,148.041188,9326.594869
3740.975212,0.000000,-148.041188,9474.636058
3740.975526,-459.657299,-518.144159,10066.800811
3740.975841,-536.266849,-222.061783,10732.986159
3740.976156,-459.657299,-296.082377,10436.903782
3740.976470,-383.047749,444.123565,9548.656652
3740.976785,0.000000,740.205942,9030.512492
3740.977100,306.438199,1110.308913,9178.553681
3740.977414,536.266849,666.185348,9326.594869
3740.977729,383.047749,296.082377,9474.636058
3740.978043,0.000000,-74.020594,9844.739029
3740.978358,0.000000,-444.123565,9992.780217
3740.978673,0.000000,-666.185348,9918.759623
3740.978987,0.000000,-0.000000,10214.842000
3740.979302,-153.219100,740.205942,9696.697840
3740.979616,306.438199,1036.288319,9030.512492
3740.979931,536.266849,814.226536,9400.615463
3740.980246,1072.533697,592.164754,9474.636058
3740.980560,766.095498,-0.000000,9474.636058
3740.980875,536.266849,-296.082377,9474.636058
3740.981190,459.657299,74.020594,10510.924376
3740.981504,459.657299,-0.000000,9918.759623
3740.981819,459.657299,518.144159,9326.594869
3740.982133,229.828649,666.185348,8734.430116
3740.982448,229.828649,740.205942,9104.533087
3740.982763,612.876398,296.082377,9104.533087
3740.983077,229.828649,-444.123565,9474.636058
3740.983392,0.000000,-740.205942,10214.842000
3740.983706,-383.047749,-962.267725,10510.924376
3740.984021,0.000000,-1036.288319,10807.006753
3740.984336,-229.828649,-444.123565,10807.006753
3740.984650,306.438199,1036.288319,9252.574275
3740.984965,766.095498,1332.370696,8882.471304
3740.985280,1378.971896,1184.329507,8808.450710
3740.985594,1225.752797,888.247130,9326.594869
3740.985909,842.705048,296.082377,9178.553681
3740.986223,536.266849,-444.123565,9474.636058
3740.986538,536.266849,-518.144159,10214.842000
3740.986853,459.657299,-666.185348,9844.739029
3740.987167,306.438199,-0.000000,9104.533087
3740.987482,-612.876398,-0.000000,9252.574275
3740.987796,-459.657299,444.123565,9178.553681
3740.988111,0.000000,296.082377,9770.718434
3740.988426,-229.828649,-0.000000,9622.677246
3740.988740,0.000000,-1332.370696,10140.821405
3740.989055,-536.266849,-814.226536,10510.924376
3740.989370,-536.266849,-740.205942,10807.006753
3740.989684,-306.438199,222.061783,10362.883188
3740.989999,0.000000,1258.350101,9622.677246
3740.990313,306.438199,1776.494261,9104.533087
3740.990628,842.705048,1184.329507,8882.471304
3740.990943,1302.362347,1036.288319,9030.512492
3740.991257,536.266849,296.082377,9178.553681
3740.991572,0.000000,-222.061783,9992.780217
3740.991886,-153.219100,-296.082377,9844.739029
3740.992201,-153.219100,-148.041188,9622.677246
3740.992516,-229.828649,222.061783,9474.636058
3740.992830,-459.657299,444.123565,9104.533087
3740.993145,-153.219100,296.082377,8882.471304
3740.993460,-306.438199,74.020594,9474.636058
3740.993774,-536.266849,-370.102971,9474.636058
3740.994089,-689.485948,-666.185348,9770.718434
3740.994403,-919.314598,-888.247130,10658.965565
3740.994718,-689.485948,-592.164754,10807.006753
3740.995033,-995.924147,-222.061783,10288.862594
3740.995347,-306.438199,1036.288319,9770.718434
3740.995661,229.828649,1554.432478,9178.553681
3740.995976,612.876398,1332.370696,9030.512492
3740.996290,1149.143247,962.267725,9400.615463
3740.996605,1149.143247,222.061783,9474.636058
3740.996919,383.047749,-444.123565,10140.821405
3740.997234,0.000000,-666.185348,10140.821405
3740.997548,0.000000,-370.102971,9400.615463
3740.997863,383.047749,-0.000000,9326.594869
3740.998177,76.609550,222.061783,8660.409521
3740.998492,76.609550,-0.000000,8808.450710
3740.998806,612.876398,-222.061783,9474.636058
3740.999121,0.000000,-518.144159,9770.718434
3740.999435,0.000000,-666.185348,9844.739029
3740.999750,-459.657299,-1332.370696,10214.842000
3741.000064,0.000000,-148.041188,9992.780217
3741.000379,153.219100,-0.000000,9696.697840
3741.000693,766.095498,1258.350101,9252.574275
3741.001008,612.876398,1776.494261,8808.450710
3741.001322,1762.019645,1480.411884,8808.450710
3741.001637,1762.019645,1184.329507,9326.594869
3741.001951,1149.143247,370.102971,9104.533087
3741.002266,842.705048,-296.082377,9844.739029
3741.002580,612.876398,-592.164754,9918.759623
3741.002895,0.000000,-296.082377,9918.759623
3741.003209,0.000000,-0.000000,9326.594869
3741.003524,0.000000,888.247130,8660.409521
3741.003838,76.609550,592.164754,9178.553681
3741.004153,-536.266849,-518.144159,9622.677246
3741.004467,-229.828649,-740.205942,9844.739029
3741.004782,-383.047749,-1036.288319,10288.862594
3741.005096,0.000000,-740.205942,10658.965565
3741.005411,0.000000,-0.000000,10955.047942
3741.005725,-383.047749,1110.308913,10066.800811
3741.006040,76.609550,2294.638420,9030.512492
3741.006354,689.485948,2590.720797,8734.430116
3741.006669,1532.190996,1480.411884,9474.636058
3741.006983,919.314598,1036.288319,9696.697840
3741.007298,306.438199,444.123565,9548.656652
3741.007612,0.000000,-370.102971,10658.965565
3741.007927,-306.438199,-148.041188,10881.027347
3741.008241,-306.438199,-74.020594,9918.759623
3741.008555,76.609550,-0.000000,9622.677246
3741.008870,-536.266849,444.123565,9326.594869
3741.009184,0.000000,592.164754,9104.533087
3741.009499,76.609550,222.061783,9622.677246
3741.009813,-153.219100,-74.020594,9696.697840
3741.010128,-229.828649,-814.226536,10214.842000
3741.010442,0.000000,-1184.329507,10436.903782
3741.010757,0.000000,-74.020594,10436.903782
3741.011071,0.000000,740.205942,10140.821405
3741.011386,0.000000,1628.453072,9474.636058
3741.011700,1225.752797,2072.576638,8882.471304
3741.012015,1302.362347,1184.329507,9400.615463
3741.012329,842.705048,666.185348,8882.471304
3741.012644,536.266849,-370.102971,9622.677246
3741.012958,-383.047749,-962.267725,10066.800811
3741.013273,0.000000,-888.247130,10214.842000
3741.013587,-766.095498,-444.123565,9918.759623
3741.013902,-842.705048,-222.061783,9326.594869
3741.014216,-536.266849,-74.020594,9400.615463
3741.014531,0.000000,-148.041188,9030.512492
3741.014845,0.000000,-74.020594,9474.636058
3741.015160,-229.828649,-444.123565,9400.615463
3741.015474,-459.657299,-592.164754,9548.656652
3741.015789,229.828649,-740.205942,10140.821405
3741.016103,689.485948,-222.061783,9844.739029
3741.016418,459.657299,444.123565,9178.553681
3741.016732,842.705048,1184.329507,8586.388927
3741.017047,1149.143247,1406.391290,8290.306550
3741.017361,1225.752797,962.267725,8882.471304
3741.017676,766.095498,740.205942,9252.574275
3741.017990,229.828649,-444.123565,9326.594869
3741.018305,-766.095498,-1480.411884,9622.677246
3741.018619,-306.438199,-1258.350101,10362.883188
3741.018934,-383.047749,-666.185348,10436.903782
3741.019248,-612.876398,-148.041188,9844.739029
3741.019563,0.000000,444.123565,8808.450710
3741.019877,536.266849,814.226536,8438.347739
3741.020192,1149.143247,518.144159,8956.491898
3741.020506,766.095498,444.123565,9178.553681
3741.020821,536.266849,-296.082377,10066.800811
3741.021135,153.219100,-444.123565,10066.800811
3741.021450,76.609550,148.041188,9992.780217
3741.021764,0.000000,222.061783,9770.718434
3741.022078,0.000000,814.226536,9474.636058
3741.022393,306.438199,1036.288319,9548.656652
3741.022707,153.219100,592.164754,9696.697840
3741.023022,-229.828649,-0.000000,9622.677246
3741.023336,-612.876398,-370.102971,10214.842000
3741.023651,-766.095498,-1036.288319,10732.986159
3741.023965,-459.657299,-592.164754,10807.006753
3741.024280,-306.438199,148.041188,10066.800811
3741.024594,76.609550,888.247130,9548.656652
3741.024909,459.657299,1332.370696,8512.368333
3741.025223,1072.533697,1406.391290,9030.512492
3741.025538,536.266849,814.226536,9104.533087
3741.025852,536.266849,222.061783,9326.594869
3741.026167,-229.828649,-296.082377,9770.718434
3741.026481,0.000000,-740.205942,10140.821405
3741.026796,-383.047749,-222.061783,10881.027347
3741.027110,-536.266849,370.102971,9992.780217
3741.027425,-536.266849,1036.288319,9104.533087
3741.027739,459.657299,888.247130,9474.636058
3741.028054,689.485948,740.205942,9474.636058
3741.028368,306.438199,222.061783,9474.636058
3741.028683,306.438199,-0.000000,9696.697840
3741.028997,0.000000,-296.082377,9918.759623
3741.029312,306.438199,148.041188,10288.862594
3741.029626,383.047749,814.226536,9622.677246
3741.029941,383.047749,1406.391290,9104.533087
3741.030255,459.657299,1480.411884,8586.388927
3741.030570,536.266849,1332.370696,8882.471304
3741.030884,612.876398,740.205942,9178.553681
3741.031199,459.657299,-0.000000,9696.697840
3741.031513,-536.266849,-518.144159,9918.759623
3741.031828,-919.314598,-962.267725,10362.883188
3741.032142,0.000000,-814.226536,10140.821405
3741.032457,-459.657299,370.102971,9992.780217
3741.032771,-383.047749,962.267725,9326.594869
3741.033086,-229.828649,962.267725,9326.594869
3741.033400,229.828649,1110.308913,9548.656652
3741.033715,0.000000,222.061783,9696.697840
3741.034029,0.000000,-0.000000,9622.677246
3741.034344,76.609550,-444.123565,10140.821405
3741.034658,-229.828649,-296.082377,10732.986159
3741.034972,0.000000,74.020594,9844.739029
3741.035287,0.000000,814.226536,9252.574275
3741.035601,459.657299,1110.308913,8882.471304
3741.035916,689.485948,814.226536,8956.491898
3741.036230,536.266849,296.082377,9252.574275
3741.036545,0.000000,-666.185348,9696.697840
3741.036859,-536.266849,-1332.370696,9992.780217
3741.037174,-689.485948,-1406.391290,10214.842000
3741.037488,-229.828649,-962.267725,10214.842000
3741.037803,-536.266849,-370.102971,9992.780217
3741.038117,0.000000,370.102971,9326.594869
3741.038432,459.657299,814.226536,8956.491898
3741.038746,1225.752797,518.144159,9400.615463
3741.039061,919.314598,666.185348,9252.574275
3741.039375,612.876398,-0.000000,9030.512492
3741.039690,536.266849,-1036.288319,9770.718434
3741.040004,459.657299,-740.205942,9992.780217
3741.040319,612.876398,-0.000000,9400.615463
3741.040633,-229.828649,444.123565,8882.471304
3741.040948,-612.876398,444.123565,8808.450710
3741.041262,229.828649,-148.041188,9474.636058
3741.041577,383.047749,-370.102971,9326.594869
3741.041891,76.609550,-740.205942,9548.656652
3741.042206,-383.047749,-1036.288319,10066.800811
3741.042520,-306.438199,-888.247130,9844.739029
3741.042835,-229.828649,-296.082377,9844.739029
3741.043149,0.000000,518.144159,9474.636058
3741.043464,0.000000,1258.350101,8734.430116
3741.043778,612.876398,814.226536,9178.553681
3741.044093,459.657299,296.082377,8956.491898
3741.044407,842.705048,370.102971,9474.636058
3741.044722,0.000000,-222.061783,9548.656652
3741.045036,-383.047749,-1036.288319,10288.862594
3741.045351,-383.047749,-1184.329507,10807.006753
3741.045665,-536.266849,-0.000000,10140.821405
3741.045980,-229.828649,518.144159,9104.533087
3741.046294,0.000000,518.144159,8734.430116
3741.046609,0.000000,962.267725,9326.594869
3741.046923,306.438199,-0.000000,9474.636058
3741.047238,0.000000,-0.000000,9474.636058
3741.047552,-536.266849,-1036.288319,9770.718434
3741.047867,-229.828649,-888.247130,9918.759623
3741.048181,0.000000,-0.000000,10288.862594
3741.048495,-229.828649,444.123565,10066.800811
3741.048810,-306.438199,518.144159,10066.800811
3741.049124,306.438199,1036.288319,9252.574275
3741.049439,689.485948,962.267725,9770.718434
3741.049753,919.314598,296.082377,9844.739029
3741.050068,842.705048,-0.000000,9696.697840
3741.050382,229.828649,-296.082377,9474.636058
3741.050697,842.705048,-148.041188,9622.677246
3741.051011,1225.752797,592.164754,9474.636058
3741.051326,612.876398,1036.288319,9252.574275
3741.051640,383.047749,962.267725,8734.430116
3741.051955,459.657299,814.226536,8882.471304
3741.052269,153.219100,-148.041188,9400.615463
3741.052584,0.000000,-222.061783,9918.759623
3741.052898,-459.657299,-888.247130,10436.903782
3741.053213,-842.705048,-962.267725,10807.006753
3741.053527,-153.219100,-592.164754,10732.986159
3741.053842,-459.657299,1480.411884,9030.512492
3741.054156,153.219100,1924.535449,8882.471304
3741.054471,459.657299,1850.514855,8956.491898
3741.054785,919.314598,1628.453072,9252.574275
3741.055100,153.219100,814.226536,9400.615463
3741.055414,-612.876398,296.082377,9474.636058
3741.055729,-689.485948,-370.102971,10807.006753
3741.056043,-689.485948,-518.144159,10732.986159
3741.056358,-919.314598,444.123565,9918.759623
3741.056672,-919.314598,518.144159,10214.842000
3741.056987,-153.219100,814.226536,8882.471304
3741.057301,229.828649,814.226536,9030.512492
3741.057616,0.000000,666.185348,9400.615463
3741.057930,0.000000,-0.000000,9474.636058
3741.058245,-383.047749,-74.020594,9474.636058
3741.058559,0.000000,-814.226536,9696.697840
3741.058874,459.657299,-444.123565,10214.842000
3741.059188,306.438199,-0.000000,9474.636058
3741.059503,76.609550,1036.288319,9400.615463
3741.059817,229.828649,888.247130,8882.471304
3741.060132,536.266849,1184.329507,9622.677246
3741.060446,459.657299,370.102971,9474.636058
3741.060761,229.828649,-296.082377,9844.739029
3741.061075,536.266849,-1110.308913,10214.842000
3741.061389,76.609550,-1332.370696,10288.862594
3741.061704,0.000000,-296.082377,9844.739029
3741.062018,0.000000,518.144159,9474.636058
3741.062333,306.438199,444.123565,9104.533087
3741.062647,1378.971896,-0.000000,9104.533087
3741.062962,1149.143247,370.102971,9474.636058
3741.063276,1302.362347,-74.020594,9622.677246
3741.063591,766.095498,-296.082377,9474.636058
3741.063905,536.266849,-740.205942,10362.883188
3741.064220,306.438199,-518.144159,10140.821405
3741.064534,612.876398,444.123565,9252.574275
3741.064849,689.485948,1110.308913,8882.471304
3741.065163,919.314598,518.144159,8956.491898
3741.065478,995.924147,222.061783,9474.636058
3741.065792,153.219100,-0.000000,9844.739029
3741.066107,306.438199,-740.205942,9770.718434
3741.066421,-76.609550,-1036.288319,10510.924376
3741.066736,153.219100,-666.185348,10584.944971
3741.067050,306.438199,296.082377,9844.739029
3741.067365,766.095498,962.267725,8882.471304
3741.067679,612.876398,888.247130,8660.409521
3741.067994,1149.143247,740.205942,8586.388927
3741.068308,1072.533697,666.185348,9104.533087
3741.068623,229.828649,-296.082377,9400.615463
3741.068937,-459.657299,-1036.288319,9770.718434
3741.069252,-536.266849,-888.247130,10510.924376
3741.069566,-383.047749,-666.185348,10288.862594
3741.069881,-919.314598,222.061783,9696.697840
3741.070195,-919.314598,370.102971,9400.615463
3741.070510,-536.266849,370.102971,9326.594869
3741.070824,0.000000,-0.000000,9474.636058
3741.071139,0.000000,-148.041188,9548.656652
3741.071453,-689.485948,-370.102971,9696.697840
3741.071768,-612.876398,-296.082377,9770.718434
3741.072082,0.000000,-0.000000,9918.759623
3741.072397,-383.047749,888.247130,9326.594869
3741.072711,-536.266849,1110.308913,9178.553681
3741.073026,-229.828649,814.226536,9104.533087
3741.073340,0.000000,-0.000000,9474.636058
3741.073655,-689.485948,-148.041188,10066.800811
3741.073969,-995.924147,-888.247130,9918.759623
3741.074284,-1378.971896,-1184.329507,10732.986159
3741.074598,-1072.533697,-888.247130,11399.171507
3741.074912,-689.485948,-444.123565,10584.944971
3741.075227,-919.314598,962.267725,9696.697840
3741.075541,-229.828649,1554.432478,9474.636058
3741.075856,536.266849,1036.288319,8956.491898
3741.076170,1149.143247,1036.288319,9326.594869
3741.076485,995.924147,962.267725,9400.615463
3741.076799,919.314598,148.041188,9474.636058
3741.077114,766.095498,-74.020594,9696.697840
3741.077428,842.705048,444.123565,10066.800811
3741.077743,612.876398,740.205942,9770.718434
3741.078057,842.705048,1184.329507,8956.491898
3741.078372,306.438199,518.144159,8734.430116
3741.078686,689.485948,148.041188,9104.533087
3741.079001,0.000000,-0.000000,9474.636058
3741.079315,76.609550,-74.020594,9696.697840
3741.079630,-536.266849,-444.123565,9992.780217
3741.079944,-229.828649,-444.123565,10066.800811
3741.080259,229.828649,-0.000000,10066.800811
3741.080573,689.485948,1184.329507,9252.574275
3741.080888,919.314598,1628.453072,8808.450710
3741.081202,1762.019645,1480.411884,8364.327145
3741.081517,1915.238745,1406.391290,8734.430116
3741.081831,1378.971896,1110.308913,8882.471304
3741.082146,842.705048,-0.000000,9548.656652
3741.082460,306.438199,-0.000000,9918.759623
3741.082775,306.438199,-0.000000,10362.883188
3741.083089,0.000000,592.164754,9992.780217
3741.083404,-459.657299,592.164754,9326.594869
3741.083718,-229.828649,444.123565,9548.656652
3741.084033,76.609550,-222.061783,9474.636058
3741.084347,76.609550,-296.082377,9622.677246
3741.084662,-383.047749,-888.247130,10140.821405
3741.084976,-612.876398,-814.226536,10214.842000
3741.085291,0.000000,-148.041188,10658.965565
3741.085605,306.438199,296.082377,9992.780217
3741.085920,689.485948,1036.288319,9474.636058
3741.086234,612.876398,1554.432478,8808.450710
3741.086549,919.314598,1480.411884,9178.553681
3741.086863,842.705048,962.267725,9548.656652
3741.087178,76.609550,-0.000000,9696.697840
3741.087492,0.000000,-666.185348,9548.656652
3741.087806,-306.438199,-1036.288319,10436.903782
3741.088121,-766.095498,-1036.288319,11177.109724
3741.088435,-995.924147,-0.000000,10066.800811
3741.088750,-1302.362347,444.123565,9474.636058
3741.089064,-842.705048,370.102971,8882.471304
3741.089379,0.000000,296.082377,9400.615463
3741.089693,-383.047749,-74.020594,9400.615463
3741.090008,-612.876398,-444.123565,9622.677246
3741.090322,-536.266849,-962.267725,9770.718434
3741.090637,-459.657299,-666.185348,10362.883188
3741.090951,-229.828649,592.164754,9844.739029
3741.091266,0.000000,1554.432478,9104.533087
3741.091580,153.219100,1332.370696,9030.512492
3741.091895,919.314598,592.164754,8882.471304
3741.092209,689.485948,-0.000000,9178.553681
3741.092524,153.219100,-444.123565,9326.594869
3741.092838,0.000000,-1184.329507,9548.656652
3741.093153,-536.266849,-1184.329507,10066.800811
3741.093467,-383.047749,-592.164754,9844.739029
3741.093782,-612.876398,-296.082377,9030.512492
3741.094096,-689.485948,-444.123565,9104.533087
3741.094411,0.000000,-74.020594,9252.574275
3741.094725,153.219100,-370.102971,8808.450710
3741.095040,0.000000,-74.020594,9918.759623
3741.095354,0.000000,-1036.288319,10140.821405
3741.095669,306.438199,-888.247130,10288.862594
3741.095984,842.705048,-740.205942,10362.883188
3741.096298,1149.143247,-0.000000,10288.862594
3741.096613,919.314598,592.164754,9622.677246
3741.096927,1225.752797,1258.350101,8290.306550
3741.097242,1991.848295,1110.308913,7994.224174
3741.097557,1455.581446,444.123565,9030.512492
3741.097871,842.705048,-222.061783,9104.533087
3741.098186,0.000000,-1332.370696,9326.594869
3741.098501,0.000000,-1554.432478,10362.883188
3741.098815,-536.266849,-814.226536,10362.883188
3741.099130,-689.485948,-74.020594,9770.718434
3741.099445,0.000000,518.144159,9548.656652
3741.099759,0.000000,296.082377,9548.656652
3741.100074,459.657299,222.061783,9548.656652
3741.100389,306.438199,444.123565,9844.739029
3741.100703,0.000000,592.164754,9844.739029
3741.101018,0.000000,-74.020594,10214.842000
3741.101333,306.438199,148.041188,10362.883188
3741.101647,459.657299,666.185348,9844.739029
3741.101962,306.438199,1332.370696,9474.636058
3741.102277,612.876398,1702.473667,8882.471304
3741.102591,536.266849,1554.432478,8808.450710
3741.102906,383.047749,666.185348,9474.636058
3741.103221,0.000000,222.061783,9400.615463
3741.103535,-536.266849,-592.164754,9400.615463
3741.103850,-383.047749,-1184.329507,10510.924376
3741.104164,0.000000,-592.164754,10658.965565
3741.104479,-766.095498,518.144159,9326.594869
3741.104794,-459.657299,1480.411884,8660.409521
3741.105108,0.000000,1036.288319,9622.677246
3741.105423,383.047749,1258.350101,9474.636058
3741.105738,536.266849,666.185348,9696.697840
3741.106052,229.828649,518.144159,9696.697840
3741.106367,0.000000,-148.041188,10362.883188
3741.106682,536.266849,-74.020594,10584.944971
3741.106996,383.047749,814.226536,9992.780217
3741.107311,0.000000,1110.308913,9696.697840
3741.107626,383.047749,1702.473667,9030.512492
3741.107940,766.095498,1406.391290,8882.471304
3741.108255,153.219100,814.226536,9400.615463
3741.108570,-229.828649,370.102971,9622.677246
3741.108884,-383.047749,-1110.308913,9770.718434
3741.109199,-612.876398,-1480.411884,10214.842000
3741.109514,-689.485948,-666.185348,10510.924376
3741.109828,-536.266849,370.102971,10066.800811
3741.110143,-459.657299,962.267725,9474.636058
3741.110458,306.438199,1184.329507,9178.553681
3741.110772,995.924147,962.267725,9178.553681
3741.111087,459.657299,814.226536,9400.615463
3741.111401,0.000000,-0.000000,9918.759623
3741.111716,-459.657299,-296.082377,10510.924376
3741.112031,-229.828649,-74.020594,10658.965565
3741.112345,0.000000,222.061783,10288.862594
3741.112660,0.000000,814.226536,9622.677246
3741.112975,383.047749,814.226536,9474.636058
3741.113289,383.047749,518.144159,9252.574275
3741.113604,612.876398,-148.041188,9030.512492
3741.113919,612.876398,148.041188,9326.594869
3741.114233,306.438199,-888.247130,9400.615463
3741.114548,0.000000,-1036.288319,9400.615463
3741.114863,459.657299,-518.144159,9622.677246
3741.115177,0.000000,592.164754,8290.306550
3741.115492,459.657299,370.102971,8364.327145
3741.115807,766.095498,370.102971,8364.327145
3741.116121,919.314598,-0.000000,9030.512492
3741.116436,306.438199,-518.144159,9844.739029
3741.116751,-536.266849,-1036.288319,9992.780217
3741.117065,-689.485948,-1406.391290,10510.924376
3741.117380,0.000000,-1258.350101,11029.068536
3741.117695,-153.219100,-296.082377,10807.006753
3741.118009,-306.438199,370.102971,9548.656652
3741.118324,229.828649,1036.288319,8586.388927
3741.118638,995.924147,740.205942,9252.574275
3741.118953,1149.143247,-0.000000,9622.677246
3741.119268,919.314598,-148.041188,9474.636058
3741.119582,0.000000,-1258.350101,9622.677246
3741.119897,229.828649,-1628.453072,10066.800811
3741.120212,0.000000,-740.205942,9992.780217
3741.120526,-1072.533697,-74.020594,9474.636058
3741.120841,-689.485948,-0.000000,9030.512492
3741.121156,0.000000,-0.000000,8586.388927
3741.121470,76.609550,-444.123565,9326.594869
3741.121785,153.219100,-444.123565,9400.615463
3741.122100,-612.876398,-1184.329507,10066.800811
3741.122414,-919.314598,-1480.411884,10955.047942
3741.122729,-919.314598,-888.247130,10955.047942
3741.123044,-306.438199,-0.000000,10436.903782
3741.123358,0.000000,1036.288319,9326.594869
3741.123673,612.876398,1184.329507,8882.471304
3741.123988,1455.581446,888.247130,9030.512492
3741.124302,1149.143247,814.226536,8956.491898
3741.124617,689.485948,296.082377,8882.471304
3741.124932,1149.143247,-740.205942,9252.574275
3741.125246,919.314598,-814.226536,9696.697840
3741.125561,306.438199,-148.041188,9696.697840
3741.125875,-153.219100,370.102971,9178.553681
3741.126190,-229.828649,666.185348,8660.409521
3741.126505,0.000000,962.267725,8808.450710
3741.126819,153.219100,370.102971,8734.430116
3741.127134,-229.828649,-148.041188,9252.574275
3741.127449,-383.047749,-592.164754,9696.697840
3741.127763,-459.657299,-814.226536,10732.986159
3741.128078,-306.438199,-0.000000,10807.006753
3741.128393,0.000000,1110.308913,10436.903782
3741.128707,76.609550,2368.659014,9548.656652
3741.129022,1072.533697,2960.823768,8808.450710
3741.129337,1915.238745,2368.659014,8882.471304
3741.129651,1532.190996,1628.453072,9326.594869
3741.129966,1072.533697,888.247130,9548.656652
3741.130281,153.219100,370.102971,9844.739029
3741.130595,0.000000,-370.102971,10510.924376
3741.130910,229.828649,-222.061783,10807.006753
3741.131225,-1149.143247,370.102971,10140.821405
3741.131539,-153.219100,740.205942,9474.636058
3741.131854,0.000000,1406.391290,9326.594869
3741.132169,459.657299,666.185348,9326.594869
3741.132483,842.705048,370.102971,9770.718434
3741.132798,-153.219100,518.144159,10362.883188
3741.133112,0.000000,-74.020594,10436.903782
3741.133427,536.266849,370.102971,10584.944971
3741.133742,383.047749,1110.308913,10214.842000
3741.134056,766.095498,1850.514855,9548.656652
3741.134371,1608.800546,2368.659014,9622.677246
3741.134686,1455.581446,2146.597232,9030.512492
3741.135000,1762.019645,1406.391290,9252.574275
3741.135315,536.266849,296.082377,9770.718434
3741.135630,0.000000,-888.247130,9844.739029
3741.135944,-229.828649,-1036.288319,10807.006753
3741.136259,-689.485948,-592.164754,10140.821405
3741.136574,-919.314598,-0.000000,9474.636058
3741.136888,-612.876398,962.267725,8734.430116
3741.137203,0.000000,222.061783,8512.368333
3741.137518,153.219100,-0.000000,9548.656652
3741.137832,0.000000,-0.000000,9326.594869
3741.138147,-383.047749,-444.123565,9326.594869
3741.138462,-306.438199,-1036.288319,10066.800811
3741.138776,-306.438199,-148.041188,10362.883188
3741.139091,-153.219100,666.185348,9622.677246
3741.139406,-229.828649,1184.329507,9104.533087
3741.139720,229.828649,370.102971,9548.656652
3741.140035,383.047749,370.102971,9104.533087
3741.140349,0.000000,-0.000000,9400.615463
3741.140664,-842.705048,-666.185348,9992.780217
3741.140979,-842.705048,-1480.411884,10066.800811
3741.141293,-689.485948,-1776.494261,10362.883188
3741.141608,-153.219100,-888.247130,9696.697840
3741.141923,-689.485948,-222.061783,8882.471304
3741.142237,-459.657299,222.061783,8512.368333
3741.142552,306.438199,-0.000000,9030.512492
3741.142867,1072.533697,-0.000000,8956.491898
3741.143181,229.828649,-370.102971,9178.553681
3741.143496,0.000000,-1110.308913,9474.636058
3741.143811,0.000000,-1258.350101,10214.842000
3741.144125,-383.047749,-1628.453072,10510.924376
3741.144440,-76.609550,-74.020594,10214.842000
3741.144755,-612.876398,-0.000000,9474.636058
3741.145069,-306.438199,-74.020594,9474.636058
3741.145384,612.876398,-74.020594,9104.533087
3741.145699,459.657299,-592.164754,9252.574275
3741.146013,536.266849,-1036.288319,9252.574275
3741.146328,76.609550,-1702.473667,9992.780217
3741.146643,153.219100,-1258.350101,9992.780217
3741.146957,0.000000,-518.144159,9400.615463
3741.147272,229.828649,222.061783,8660.409521
3741.147586,153.219100,296.082377,8142.265362
3741.147901,1072.533697,222.061783,8142.265362
3741.148216,1225.752797,-74.020594,9178.553681
3741.148530,536.266849,-1036.288319,9770.718434
3741.148845,0.000000,-1184.329507,9696.697840
3741.149160,-383.047749,-1480.411884,9992.780217
3741.149474,459.657299,-1184.329507,10658.965565
3741.149789,153.219100,-0.000000,10140.821405
3741.150104,229.828649,1110.308913,9178.553681
3741.150418,383.047749,1110.308913,8808.450710
3741.150733,995.924147,1184.329507,8808.450710
3741.151048,1072.533697,518.144159,9474.636058
3741.151362,612.876398,444.123565,9770.718434
3741.151677,612.876398,-518.144159,10510.924376
3741.151992,459.657299,-444.123565,10288.862594
3741.152306,383.047749,518.144159,9992.780217
3741.152621,689.485948,1110.308913,9252.574275
3741.152936,536.266849,1924.535449,8882.471304
3741.153250,995.924147,1332.370696,9104.533087
3741.153565,689.485948,1036.288319,9104.533087
3741.153880,76.609550,518.144159,9474.636058
3741.154194,-612.876398,-222.061783,10807.006753
3741.154509,-766.095498,-518.144159,10881.027347
3741.154823,-689.485948,-148.041188,11103.089130
3741.155138,-842.705048,592.164754,10214.842000
3741.155453,-842.705048,1036.288319,9770.718434
3741.155767,-306.438199,1702.473667,9622.677246
3741.156082,689.485948,1998.556043,9548.656652
3741.156397,459.657299,1850.514855,9918.759623
3741.156711,76.609550,1036.288319,9770.718434
3741.157026,306.438199,666.185348,9918.759623
3741.157341,306.438199,-0.000000,10510.924376
3741.157655,153.219100,666.185348,10362.883188
3741.157970,383.047749,1776.494261,9844.739029
3741.158285,0.000000,1850.514855,8808.450710
3741.158599,612.876398,1258.350101,8956.491898
3741.158914,612.876398,518.144159,9400.615463
3741.159229,153.219100,-0.000000,9474.636058
3741.159543,-689.485948,-518.144159,10066.800811
3741.159858,-842.705048,-666.185348,10214.842000
3741.160173,0.000000,-296.082377,10436.903782
3741.160487,0.000000,444.123565,10214.842000
3741.160802,76.609550,1406.391290,9622.677246
3741.161117,689.485948,1332.370696,9104.533087
3741.161431,1149.143247,1406.391290,9178.553681
3741.161746,995.924147,1258.350101,9474.636058
3741.162060,689.485948,888.247130,9696.697840
3741.162375,306.438199,-0.000000,9918.759623
3741.162690,383.047749,-222.061783,9918.759623
3741.163004,383.047749,-0.000000,9918.759623
3741.163319,0.000000,814.226536,9178.553681
3741.163634,153.219100,740.205942,9030.512492
3741.163948,383.047749,444.123565,9030.512492
3741.164263,459.657299,-0.000000,8660.409521
3741.164578,-306.438199,-222.061783,9030.512492
3741.164892,-536.266849,-1332.370696,9770.718434
3741.165207,-766.095498,-1332.370696,10214.842000
3741.165522,-689.485948,-1110.308913,10288.862594
3741.165836,-536.266849,-0.000000,9844.739029
3741.166151,-229.828649,814.226536,9030.512492
3741.166466,153.219100,962.267725,8734.430116
3741.166780,842.705048,-74.020594,8660.409521
3741.167095,689.485948,222.061783,9474.636058
3741.167410,536.266849,-370.102971,9844.739029
3741.167724,229.828649,-592.164754,10066.800811
3741.168039,229.828649,-740.205942,10214.842000
3741.168354,76.609550,-370.102971,9622.677246
3741.168668,0.000000,-0.000000,9252.574275
3741.168983,76.609550,-74.020594,8882.471304
3741.169297,612.876398,-518.144159,9030.512492
3741.169612,459.657299,-518.144159,9400.615463
3741.169927,0.000000,-1110.308913,9474.636058
3741.170241,-383.047749,-1480.411884,9918.759623
3741.170556,-536.266849,-1702.473667,10066.800811
3741.170871,-153.219100,-1406.391290,10288.862594
3741.171185,0.000000,222.061783,9770.718434
3741.171500,383.047749,814.226536,9178.553681
3741.171815,919.314598,666.185348,9252.574275
3741.172129,842.705048,962.267725,9104.533087
3741.172444,919.314598,296.082377,9400.615463
3741.172759,459.657299,-0.000000,10066.800811
3741.173073,0.000000,-1036.288319,10288.862594
3741.173388,-229.828649,-666.185348,11029.068536
3741.173703,-459.657299,-0.000000,10436.903782
3741.174017,-459.657299,518.144159,8882.471304
3741.174332,0.000000,222.061783,8956.491898
3741.174647,306.438199,-0.000000,9030.512492
3741.174961,383.047749,-0.000000,9178.553681
3741.175276,229.828649,-148.041188,9696.697840
3741.175591,-383.047749,-592.164754,9474.636058
3741.175905,0.000000,-1184.329507,10214.842000
3741.176220,153.219100,-296.082377,10658.965565
3741.176535,-153.219100,666.185348,9696.697840
3741.176849,0.000000,1480.411884,8882.471304
3741.177164,306.438199,1332.370696,8882.471304
3741.177478,689.485948,740.205942,9474.636058
3741.177793,536.266849,592.164754,9474.636058
3741.178108,-229.828649,-0.000000,9474.636058
3741.178422,-229.828649,-296.082377,10436.903782
3741.178737,-153.219100,-0.000000,10955.047942
3741.179052,-229.828649,740.205942,10658.965565
3741.179366,-383.047749,1036.288319,9474.636058
3741.179681,229.828649,1036.288319,9326.594869
3741.179996,919.314598,592.164754,8882.471304
3741.180310,689.485948,592.164754,9030.512492
3741.180625,383.047749,-0.000000,9844.739029
3741.180940,0.000000,-444.123565,9696.697840
3741.181254,76.609550,-444.123565,10066.800811
3741.181569,383.047749,370.102971,9770.718434
3741.181884,536.266849,1258.350101,9770.718434
3741.182198,919.314598,1258.350101,9104.533087
3741.182513,995.924147,1628.453072,8808.450710
3741.182828,995.924147,1184.329507,9104.533087
3741.183142,229.828649,592.164754,9622.677246
3741.183457,-306.438199,-0.000000,9918.759623
3741.183772,-229.828649,-518.144159,10288.862594
3741.184086,-459.657299,-592.164754,10807.006753
3741.184401,-536.266849,370.102971,10584.944971
3741.184715,-689.485948,1110.308913,9474.636058
3741.185030,0.000000,1850.514855,9474.636058
3741.185345,229.828649,666.185348,8956.491898
3741.185659,536.266849,740.205942,9474.636058
3741.185974,306.438199,666.185348,9178.553681
3741.186289,0.000000,-0.000000,9844.739029
3741.186603,229.828649,-148.041188,10066.800811
3741.186918,842.705048,-0.000000,10214.842000
3741.187233,459.657299,1332.370696,9252.574275
3741.187547,459.657299,1258.350101,8734.430116
3741.187862,689.485948,1258.350101,8660.409521
3741.188177,995.924147,592.164754,9104.533087
3741.188491,766.095498,-0.000000,9400.615463
3741.188806,0.000000,-592.164754,9696.697840
3741.189121,-383.047749,-740.205942,9770.718434
3741.189435,-229.828649,-740.205942,10807.006753
3741.189750,-459.657299,222.061783,9844.739029
3741.190065,-459.657299,222.061783,9622.677246
3741.190379,229.828649,740.205942,8956.491898
3741.190694,995.924147,740.205942,9030.512492
3741.191009,919.314598,518.144159,9326.594869
3741.191323,383.047749,-0.000000,9548.656652
3741.191638,153.219100,-888.247130,9844.739029
3741.191952,76.609550,-1036.288319,10214.842000
3741.192267,76.609550,-444.123565,10214.842000
3741.192582,153.219100,370.102971,9918.759623
3741.192896,0.000000,962.267725,9326.594869
3741.193211,536.266849,370.102971,9178.553681
3741.193526,612.876398,-0.000000,8882.471304
3741.193840,76.609550,-296.082377,9548.656652
3741.194155,-383.047749,-962.267725,10214.842000
3741.194470,0.000000,-1850.514855,10066.800811
3741.194784,-459.657299,-1258.350101,10955.047942
3741.195099,-766.095498,-814.226536,10362.883188
3741.195414,-842.705048,222.061783,9770.718434
3741.195728,-229.828649,518.144159,9400.615463
3741.196043,229.828649,-0.000000,9548.656652
3741.196357,383.047749,-0.000000,9992.780217
3741.196672,0.000000,-518.144159,9548.656652
3741.196986,-306.438199,-814.226536,9474.636058
3741.197301,0.000000,-1332.370696,10955.047942
3741.197615,229.828649,-222.061783,10140.821405
3741.197930,-153.219100,-0.000000,9474.636058
3741.198244,0.000000,666.185348,8734.430116
3741.198559,536.266849,-0.000000,9104.533087
3741.198873,842.705048,-0.000000,8660.409521
3741.199188,76.609550,-888.247130,9474.636058
3741.199502,-306.438199,-888.247130,9844.739029
3741.199817,-766.095498,-1406.391290,9844.739029
3741.200131,-689.485948,-666.185348,9992.780217
3741.200446,-459.657299,-148.041188,9770.718434
3741.200760,-766.095498,592.164754,8956.491898
3741.201075,229.828649,814.226536,8512.368333
3741.201389,1302.362347,814.226536,8734.430116
3741.201704,919.314598,296.082377,8660.409521
3741.202018,612.876398,296.082377,9104.533087
3741.202333,0.000000,-666.185348,9696.697840
3741.202647,0.000000,-888.247130,9918.759623
3741.202962,0.000000,-444.123565,10140.821405
3741.203276,0.000000,148.041188,9474.636058
3741.203591,-306.438199,666.185348,9252.574275
3741.203905,689.485948,740.205942,9178.553681
3741.204220,229.828649,518.144159,9104.533087
3741.204534,0.000000,-0.000000,9030.512492
3741.204849,0.000000,-666.185348,9918.759623
3741.205163,0.000000,-1110.308913,10288.862594
3741.205478,153.219100,-0.000000,10362.883188
3741.205792,153.219100,814.226536,9844.739029
3741.206107,0.000000,1406.391290,9474.636058
3741.206421,383.047749,1850.514855,9400.615463
3741.206736,919.314598,370.102971,9548.656652
3741.207050,612.876398,-0.000000,10362.883188
3741.207365,0.000000,444.123565,9992.780217
3741.207679,0.000000,-222.061783,10140.821405
3741.207994,0.000000,-148.041188,10436.903782
3741.208308,0.000000,-0.000000,10362.883188
3741.208623,153.219100,222.061783,9844.739029
3741.208937,76.609550,740.205942,8586.388927
3741.209252,995.924147,888.247130,9030.512492
3741.209566,1225.752797,962.267725,8808.450710
3741.209881,919.314598,592.164754,9252.574275
3741.210195,459.657299,-0.000000,9326.594869
3741.210510,0.000000,-518.144159,9918.759623
3741.210824,229.828649,-0.000000,10066.800811
3741.211139,153.219100,666.185348,9918.759623
3741.211453,76.609550,1628.453072,9326.594869
3741.211768,229.828649,1332.370696,9104.533087
3741.212082,459.657299,1184.329507,9326.594869
3741.212397,306.438199,518.144159,9696.697840
3741.212711,0.000000,518.144159,9770.718434
3741.213026,-306.438199,-222.061783,10288.862594
3741.213340,229.828649,-222.061783,10510.924376
3741.213655,459.657299,814.226536,9918.759623
3741.213969,76.609550,1110.308913,9104.533087
3741.214284,459.657299,1480.411884,8586.388927
3741.214598,689.485948,1554.432478,9326.594869
3741.214913,919.314598,962.267725,9030.512492
3741.215227,306.438199,592.164754,9474.636058
3741.215542,0.000000,-74.020594,9548.656652
3741.215856,-766.095498,-296.082377,9992.780217
3741.216171,-536.266849,-222.061783,10436.903782
3741.216485,-536.266849,370.102971,9992.780217
3741.216800,-383.047749,444.123565,9474.636058
3741.217114,0.000000,740.205942,9326.594869
3741.217429,229.828649,296.082377,9622.677246
3741.217743,229.828649,518.144159,9770.718434
3741.218058,0.000000,296.082377,9992.780217
3741.218372,-306.438199,-0.000000,10362.883188
3741.218687,153.219100,-592.164754,10510.924376
3741.219001,153.219100,-0.000000,10732.986159
3741.219316,229.828649,814.226536,9696.697840
3741.219630,383.047749,666.185348,8956.491898
3741.219944,689.485948,592.164754,9252.574275
3741.220259,1072.533697,-0.000000,9326.594869
3741.220573,229.828649,-370.102971,9622.677246
3741.220888,-306.438199,-1406.391290,9474.636058
3741.221202,-459.657299,-1776.494261,10214.842000
3741.221517,-536.266849,-1554.432478,10140.821405
3741.221831,0.000000,-370.102971,9548.656652
3741.222146,-689.485948,-0.000000,9104.533087
3741.222460,76.609550,-0.000000,8882.471304
3741.222775,995.924147,-0.000000,9104.533087
3741.223089,766.095498,-0.000000,9030.512492
3741.223404,76.609550,-296.082377,9918.759623
3741.223718,-153.219100,-666.185348,10362.883188
3741.224033,0.000000,-1184.329507,10436.903782
3741.224347,0.000000,-148.041188,9992.780217
3741.224662,-229.828649,148.041188,9474.636058
3741.224976,766.095498,-0.000000,8956.491898
3741.225291,919.314598,370.102971,8512.368333
3741.225605,995.924147,222.061783,8882.471304
3741.225920,612.876398,-296.082377,9104.533087
3741.226234,76.609550,-1036.288319,9252.574275
3741.226549,0.000000,-1406.391290,9548.656652
3741.226863,76.609550,-1258.350101,9844.739029
3741.227178,-536.266849,-222.061783,9474.636058
3741.227492,-153.219100,-0.000000,8882.471304
3741.227807,76.609550,-222.061783,8808.450710
3741.228121,689.485948,-0.000000,9252.574275
3741.228436,536.266849,-74.020594,9474.636058
3741.228750,153.219100,-148.041188,9622.677246
3741.229065,-229.828649,-518.144159,9992.780217
3741.229379,0.000000,-444.123565,10362.883188
3741.229694,383.047749,-0.000000,10362.883188
3741.230008,229.828649,1258.350101,9474.636058
3741.230323,229.828649,962.267725,9252.574275
3741.230637,612.876398,666.185348,9030.512492
3741.230952,919.314598,814.226536,9474.636058
3741.231266,76.609550,-0.000000,9474.636058
3741.231581,-306.438199,-518.144159,9252.574275
3741.231895,-612.876398,-962.267725,9918.759623
3741.232210,-306.438199,-666.185348,10214.842000
3741.232524,-689.485948,518.144159,9696.697840
3741.232839,0.000000,296.082377,9030.512492
3741.233153,153.219100,1332.370696,9104.533087
3741.233468,383.047749,1184.329507,9326.594869
3741.233782,612.876398,740.205942,9548.656652
3741.234097,459.657299,296.082377,10807.006753
3741.234411,76.609550,222.061783,10584.944971
3741.234726,229.828649,-148.041188,11399.171507
3741.235040,0.000000,1110.308913,10584.944971
3741.235355,153.219100,1702.473667,9474.636058
3741.235669,612.876398,2072.576638,8808.450710
3741.235984,1608.800546,1554.432478,9326.594869
3741.236298,1762.019645,1480.411884,9326.594869
3741.236613,766.095498,592.164754,8956.491898
3741.236927,0.000000,-74.020594,9548.656652
3741.237242,76.609550,-444.123565,10732.986159
3741.237556,0.000000,-0.000000,10436.903782
3741.237871,0.000000,592.164754,9992.780217
3741.238185,-383.047749,1036.288319,9474.636058
3741.238500,76.609550,962.267725,9400.615463
3741.238814,842.705048,814.226536,9400.615463
3741.239129,536.266849,1036.288319,9548.656652
3741.239443,0.000000,592.164754,9844.739029
3741.239758,0.000000,-592.164754,10658.965565
3741.240072,76.609550,-0.000000,10510.924376
3741.240387,0.000000,592.164754,10362.883188
3741.240701,-536.266849,1332.370696,10214.842000
3741.241016,0.000000,1554.432478,9474.636058
3741.241330,383.047749,1110.308913,8956.491898
3741.241645,536.266849,-0.000000,9400.615463
3741.241959,0.000000,296.082377,9696.697840
3741.242274,-383.047749,-370.102971,10066.800811
3741.242588,-229.828649,-1110.308913,9992.780217
3741.242903,-459.657299,-592.164754,10362.883188
3741.243217,-536.266849,-0.000000,9474.636058
3741.243532,-306.438199,222.061783,8586.388927
3741.243846,536.266849,-0.000000,8808.450710
3741.244161,459.657299,-0.000000,9326.594869
3741.244475,229.828649,222.061783,8660.409521
3741.244790,-306.438199,-740.205942,10140.821405
3741.245104,-383.047749,-888.247130,9992.780217
3741.245419,-612.876398,-1184.329507,10140.821405
3741.245733,-383.047749,-518.144159,10584.944971
3741.246047,-229.828649,148.041188,9696.697840
3741.246362,0.000000,518.144159,9178.553681
3741.246676,612.876398,296.082377,9104.533087
3741.246991,383.047749,370.102971,9252.574275
3741.247305,229.828649,-0.000000,8956.491898
3741.247620,-229.828649,-592.164754,8882.471304
3741.247934,-229.828649,-1184.329507,9770.718434
3741.248249,76.609550,-592.164754,10214.842000
3741.248563,-229.828649,-0.000000,9622.677246
3741.248878,-612.876398,296.082377,8586.388927
3741.249192,153.219100,222.061783,8882.471304
3741.249507,536.266849,-0.000000,9474.636058
3741.249821,153.219100,-222.061783,9178.553681
3741.250136,-153.219100,-1184.329507,10066.800811
3741.250450,-383.047749,-1258.350101,10807.006753
3741.250765,-383.047749,-740.205942,10732.986159
3741.251079,-306.438199,-0.000000,10140.821405
3741.251394,-229.828649,370.102971,9770.718434
3741.251708,689.485948,666.185348,9104.533087
3741.252023,1149.143247,666.185348,8882.471304
3741.252337,1225.752797,-0.000000,9326.594869
3741.252652,919.314598,-0.000000,9178.553681
3741.252966,229.828649,-592.164754,9844.739029
3741.253281,153.219100,-962.267725,9696.697840
3741.253595,0.000000,-666.185348,9918.759623
3741.253910,-306.438199,148.041188,9548.656652
3741.254224,-153.219100,444.123565,8660.409521
3741.254539,229.828649,-0.000000,9178.553681
3741.254853,766.095498,-740.205942,9622.677246
3741.255168,459.657299,-296.082377,9696.697840
3741.255482,-306.438199,-1036.288319,10066.800811
3741.255797,0.000000,-740.205942,10807.006753
3741.256111,0.000000,-0.000000,10881.027347
3741.256426,76.609550,222.061783,9992.780217
3741.256740,76.609550,962.267725,9474.636058
3741.257055,612.876398,1258.350101,8882.471304
3741.257369,1685.410096,1184.329507,9030.512492
3741.257684,1838.629195,1258.350101,9178.553681
3741.257998,1072.533697,740.205942,9400.615463
3741.258313,689.485948,-74.020594,9622.677246
3741.258627,919.314598,-518.144159,9770.718434
3741.258942,612.876398,-222.061783,9400.615463
3741.259256,383.047749,370.102971,9696.697840
3741.259571,0.000000,740.205942,9030.512492
3741.259885,0.000000,740.205942,8808.450710
3741.260200,383.047749,444.123565,9178.553681
3741.260514,0.000000,-0.000000,9696.697840
3741.260829,0.000000,-148.041188,10288.862594
3741.261143,-842.705048,-592.164754,10510.924376
3741.261458,-383.047749,-0.000000,11103.089130
3741.261772,153.219100,1480.411884,10140.821405
3741.262087,153.219100,2220.617826,9474.636058
3741.262401,459.657299,2146.597232,8808.450710
3741.262716,1225.752797,2072.576638,9030.512492
3741.263030,995.924147,1702.473667,9178.553681
3741.263345,689.485948,740.205942,9326.594869
3741.263659,76.609550,-222.061783,10214.842000
3741.263974,-229.828649,-888.247130,9918.759623
3741.264288,-689.485948,-518.144159,9548.656652
3741.264603,-1149.143247,148.041188,9548.656652
3741.264917,-1072.533697,814.226536,8882.471304
3741.265232,-459.657299,370.102971,9252.574275
3741.265546,-383.047749,-296.082377,9474.636058
3741.265861,-459.657299,518.144159,9696.697840
3741.266175,-995.924147,-222.061783,9696.697840
3741.266490,-689.485948,-148.041188,10140.821405
3741.266804,-306.438199,222.061783,11251.130318
3741.267119,-229.828649,814.226536,10732.986159
3741.267433,0.000000,1998.556043,9474.636058
3741.267748,766.095498,2072.576638,9178.553681
3741.268062,919.314598,1554.432478,9252.574275
3741.268377,919.314598,1258.350101,9400.615463
3741.268691,76.609550,-0.000000,9474.636058
3741.269006,-153.219100,-740.205942,9770.718434
3741.269320,-536.266849,-1184.329507,9992.780217
3741.269635,-383.047749,-814.226536,9622.677246
3741.269949,-689.485948,-74.020594,9474.636058
3741.270264,-536.266849,-0.000000,9178.553681
3741.270578,0.000000,-0.000000,8882.471304
3741.270893,612.876398,-0.000000,8808.450710
3741.271207,229.828649,-0.000000,9104.533087
3741.271522,-306.438199,-518.144159,9696.697840
3741.271836,0.000000,-666.185348,10510.924376
3741.272151,76.609550,-222.061783,10584.944971
3741.272465,306.438199,888.247130,10066.800811
3741.272779,459.657299,1258.350101,9474.636058
3741.273094,689.485948,1480.411884,9030.512492
3741.273408,1149.143247,666.185348,9474.636058
3741.273723,842.705048,296.082377,9252.574275
3741.274037,536.266849,-444.123565,9178.553681
3741.274352,-306.438199,-1702.473667,9918.759623
3741.274666,0.000000,-2220.617826,10362.883188
3741.274981,0.000000,-1110.308913,9992.780217
3741.275295,0.000000,-370.102971,9178.553681
3741.275610,-153.219100,-0.000000,8660.409521
3741.275924,536.266849,-296.082377,8512.368333
3741.276239,1072.533697,-666.185348,8882.471304
3741.276553,459.657299,-888.247130,9474.636058
3741.276868,76.609550,-1036.288319,9844.739029
3741.277182,229.828649,-1258.350101,10214.842000
3741.277497,612.876398,-592.164754,9918.759623
3741.277811,0.000000,-0.000000,10436.903782
3741.278126,229.828649,962.267725,9474.636058
3741.278440,689.485948,814.226536,8734.430116
3741.278755,1149.143247,444.123565,9474.636058
3741.279069,995.924147,444.123565,9622.677246
3741.279384,383.047749,-518.144159,9696.697840
3741.279698,-229.828649,-1332.370696,9770.718434
3741.280013,-383.047749,-1776.494261,10510.924376
3741.280327,-229.828649,-592.164754,9918.759623
3741.280642,-459.657299,222.061783,9400.615463
3741.280956,-459.657299,592.164754,8808.450710
3741.281271,76.609550,444.123565,8808.450710
3741.281585,689.485948,296.082377,8808.450710
3741.281900,153.219100,-0.000000,9474.636058
3741.282214,-612.876398,-592.164754,10510.924376
3741.282529,-842.705048,-962.267725,10362.883188
3741.282843,-459.657299,-0.000000,10436.903782
3741.283158,-229.828649,1184.329507,9992.780217
3741.283472,-306.438199,1702.473667,9474.636058
3741.283787,612.876398,1110.308913,8586.388927
3741.284101,612.876398,1036.288319,9770.718434
3741.284416,76.609550,740.205942,9474.636058
3741.284730,-306.438199,-148.041188,9622.677246
3741.285045,-919.314598,-518.144159,9770.718434
3741.285359,-383.047749,-518.144159,10584.944971
3741.285674,-459.657299,-0.000000,10658.965565
3741.285988,-689.485948,444.123565,9696.697840
3741.286303,-306.438199,1332.370696,8586.388927
3741.286617,612.876398,1258.350101,8734.430116
3741.286932,689.485948,814.226536,9104.533087
3741.287246,459.657299,666.185348,9178.553681
3741.287561,0.000000,-0.000000,9696.697840
3741.287875,0.000000,-740.205942,10658.965565
3741.288190,0.000000,-0.000000,10658.965565
3741.288504,0.000000,592.164754,9992.780217
3741.288819,0.000000,1406.391290,9622.677246
3741.289133,0.000000,1406.391290,9400.615463
3741.289448,842.705048,962.267725,9474.636058
3741.289762,459.657299,888.247130,9622.677246
3741.290077,229.828649,-0.000000,9992.780217
3741.290391,-153.219100,-814.226536,10288.862594
3741.290706,0.000000,-666.185348,10214.842000
3741.291020,306.438199,-0.000000,9548.656652
3741.291335,229.828649,962.267725,9400.615463
3741.291649,842.705048,1258.350101,8512.368333
3741.291964,1378.971896,740.205942,8364.327145
3741.292278,1302.362347,592.164754,8660.409521
3741.292593,536.266849,148.041188,9474.636058
3741.292907,0.000000,-370.102971,9770.718434
3741.293222,-229.828649,-1258.350101,10510.924376
3741.293536,0.000000,-444.123565,10510.924376
3741.293851,536.266849,666.185348,9992.780217
3741.294165,-229.828649,962.267725,9474.636058
3741.294480,383.047749,1110.308913,9326.594869
3741.294794,689.485948,1110.308913,9622.677246
3741.295109,689.485948,888.247130,9548.656652
3741.295423,383.047749,-0.000000,9696.697840
3741.295738,76.609550,-518.144159,9992.780217
3741.296052,612.876398,-518.144159,10362.883188
3741.296367,383.047749,592.164754,9474.636058
3741.296681,383.047749,1036.288319,8586.388927
3741.296995,1302.362347,1776.494261,8882.471304
3741.297310,1072.533697,1184.329507,8512.368333
3741.297624,1225.752797,-0.000000,9178.553681
3741.297939,383.047749,-222.061783,9474.636058
3741.298253,-536.266849,-1036.288319,9622.677246
3741.298568,-766.095498,-1554.432478,9622.677246
3741.298882,-766.095498,-814.226536,10732.986159
3741.299197,-766.095498,296.082377,9844.739029
3741.299511,-766.095498,296.082377,9548.656652
3741.299826,-229.828649,888.247130,9326.594869
3741.300140,0.000000,370.102971,9770.718434
3741.300455,459.657299,518.144159,9696.697840
3741.300769,0.000000,222.061783,9992.780217
3741.301083,0.000000,-666.185348,10658.965565
3741.301398,0.000000,-74.020594,10066.800811
3741.301712,76.609550,-0.000000,9992.780217
3741.302027,-306.438199,666.185348,9326.594869
3741.302341,-612.876398,370.102971,9030.512492
3741.302656,-229.828649,-0.000000,9104.533087
3741.302970,-383.047749,-370.102971,9474.636058
3741.303285,-1149.143247,-888.247130,9548.656652
3741.303599,-1915.238745,-1924.535449,10584.944971
3741.303914,-1608.800546,-2072.576638,10807.006753
3741.304228,-919.314598,-1036.288319,10436.903782
3741.304542,-689.485948,-0.000000,10288.862594
3741.304857,0.000000,962.267725,9474.636058
3741.305171,-536.266849,1036.288319,9030.512492
3741.305486,536.266849,888.247130,9104.533087
3741.305800,459.657299,518.144159,9178.553681
3741.306115,229.828649,-0.000000,9474.636058
3741.306429,76.609550,-814.226536,9770.718434
3741.306744,-153.219100,-1110.308913,10362.883188
3741.307058,-383.047749,-0.000000,9844.739029
3741.307373,-689.485948,222.061783,8808.450710
3741.307687,-459.657299,-0.000000,8734.430116
3741.308002,229.828649,-74.020594,9178.553681
3741.308316,153.219100,-740.205942,9252.574275
3741.308630,229.828649,-814.226536,9548.656652
3741.308945,0.000000,-1110.308913,9918.759623
3741.309259,0.000000,-1480.411884,10510.924376
3741.309574,1302.362347,-592.164754,10362.883188
3741.309888,1685.410096,740.205942,9622.677246
3741.310203,1762.019645,1036.288319,8216.285956
3741.310517,2604.724693,1480.411884,8290.306550
3741.310832,2834.553343,1702.473667,8660.409521
3741.311146,1685.410096,740.205942,8660.409521
3741.311461,1608.800546,148.041188,9178.553681
3741.311775,842.705048,-592.164754,10362.883188
3741.312089,306.438199,-666.185348,10140.821405
3741.312404,0.000000,-444.123565,10288.862594
3741.312718,-459.657299,592.164754,9918.759623
3741.313033,-689.485948,370.102971,9696.697840
3741.313347,229.828649,296.082377,9992.780217
3741.313662,842.705048,-0.000000,10066.800811
3741.313976,612.876398,148.041188,9252.574275
3741.314291,-306.438199,-74.020594,10436.903782
3741.314605,306.438199,444.123565,10214.842000
3741.314920,919.314598,666.185348,10732.986159
3741.315234,612.876398,1998.556043,9548.656652
3741.315548,766.095498,2368.659014,8956.491898
3741.315863,1149.143247,2220.617826,9104.533087
3741.316177,1302.362347,1628.453072,8808.450710
3741.316492,153.219100,962.267725,9844.739029
3741.316806,-612.876398,222.061783,10362.883188
3741.317121,-1225.752797,-518.144159,10288.862594
3741.317435,-383.047749,-1258.350101,10807.006753
3741.317750,-1072.533697,-518.144159,11029.068536
3741.318064,-1149.143247,888.247130,9992.780217
3741.318379,-842.705048,1110.308913,9104.533087
3741.318693,76.609550,814.226536,8882.471304
3741.319008,612.876398,1406.391290,9252.574275
3741.319322,612.876398,1184.329507,9030.512492
3741.319636,0.000000,444.123565,9400.615463
3741.319951,76.609550,-0.000000,9844.739029
3741.320265,612.876398,740.205942,10066.800811
3741.320580,153.219100,1554.432478,9030.512492
3741.320894,-306.438199,1258.350101,8956.491898
3741.321209,-153.219100,814.226536,9252.574275
3741.321523,76.609550,444.123565,9474.636058
3741.321838,-459.657299,814.226536,9548.656652
3741.322152,-1302.362347,-444.123565,10288.862594
3741.322467,-1378.971896,-1258.350101,10658.965565
3741.322781,-995.924147,-1258.350101,10436.903782
3741.323095,0.000000,-222.061783,9918.759623
3741.323410,0.000000,592.164754,9696.697840
3741.323724,76.609550,1480.411884,9104.533087
3741.324039,842.705048,1184.329507,9030.512492
3741.324353,1302.362347,1184.329507,9030.512492
3741.324668,536.266849,666.185348,8956.491898
3741.324982,76.609550,-592.164754,9770.718434
3741.325297,536.266849,-666.185348,10214.842000
3741.325611,229.828649,-370.102971,10584.944971
3741.325926,153.219100,296.082377,9548.656652
3741.326240,-306.438199,296.082377,8956.491898
3741.326554,0.000000,222.061783,9178.553681
3741.326869,536.266849,-444.123565,9474.636058
3741.327183,0.000000,-370.102971,9474.636058
3741.327498,-459.657299,-962.267725,9770.718434
3741.327812,0.000000,-1628.453072,10066.800811
3741.328127,0.000000,-1110.308913,9918.759623
3741.328441,153.219100,296.082377,9696.697840
3741.328756,383.047749,1036.288319,9252.574275
3741.329070,612.876398,666.185348,8734.430116
3741.329385,1225.752797,444.123565,8660.409521
3741.329699,1302.362347,444.123565,9326.594869
3741.330014,536.266849,-370.102971,9474.636058
3741.330328,0.000000,-1036.288319,9474.636058
3741.330642,0.000000,-1554.432478,10510.924376
3741.330957,-76.609550,-1554.432478,9844.739029
3741.331271,-383.047749,-222.061783,9548.656652
3741.331586,-459.657299,-222.061783,9030.512492
3741.331900,0.000000,-370.102971,8512.368333
3741.332215,153.219100,-666.185348,9400.615463
3741.332529,0.000000,-296.082377,9030.512492
3741.332844,0.000000,-1110.308913,9622.677246
3741.333158,76.609550,-962.267725,9918.759623
3741.333473,76.609550,-370.102971,10510.924376
3741.333787,306.438199,666.185348,9992.780217
3741.334101,153.219100,888.247130,9474.636058
3741.334416,383.047749,1036.288319,8956.491898
3741.334730,1072.533697,740.205942,9474.636058
3741.335045,842.705048,518.144159,9326.594869
3741.335359,229.828649,-0.000000,9400.615463
3741.335674,-536.266849,-518.144159,9992.780217
3741.335988,-383.047749,-1480.411884,10510.924376
3741.336303,-306.438199,-666.185348,10288.862594
3741.336617,-536.266849,444.123565,9548.656652
3741.336932,-536.266849,740.205942,8734.430116
3741.337246,0.000000,592.164754,8586.388927
3741.337560,612.876398,592.164754,8956.491898
3741.337875,383.047749,-0.000000,9252.574275
3741.338189,-612.876398,-296.082377,9770.718434
3741.338504,-306.438199,-518.144159,10140.821405
3741.338818,153.219100,-222.061783,10214.842000
3741.339133,0.000000,962.267725,9918.759623
3741.339447,0.000000,1480.411884,9252.574275
3741.339762,76.609550,1332.370696,8808.450710
3741.340076,306.438199,1036.288319,8882.471304
3741.340391,153.219100,1258.350101,9400.615463
3741.340705,0.000000,444.123565,9844.739029
3741.341020,-842.705048,-370.102971,10140.821405
3741.341334,-306.438199,-666.185348,10436.903782
3741.341648,-153.219100,-74.020594,10584.944971
3741.341963,-306.438199,962.267725,9696.697840
3741.342277,-459.657299,1628.453072,9326.594869
3741.342592,536.266849,888.247130,9104.533087
3741.342906,1225.752797,518.144159,8660.409521
3741.343221,995.924147,1184.329507,9030.512492
3741.343535,919.314598,666.185348,9178.553681
3741.343850,766.095498,-0.000000,10140.821405
3741.344164,612.876398,-0.000000,10140.821405
3741.344479,306.438199,962.267725,9992.780217
3741.344793,0.000000,1480.411884,8956.491898
3741.345107,306.438199,1332.370696,8956.491898
3741.345422,612.876398,888.247130,9918.759623
3741.345736,612.876398,296.082377,9992.780217
3741.346051,-842.705048,-0.000000,9770.718434
3741.346365,-1072.533697,-444.123565,10510.924376
3741.346680,-536.266849,-592.164754,10732.986159
3741.346994,0.000000,518.144159,10510.924376
3741.347309,229.828649,1184.329507,9844.739029
3741.347623,459.657299,1702.473667,9030.512492
3741.347938,1302.362347,1406.391290,8586.388927
3741.348252,1838.629195,1184.329507,8660.409521
3741.348567,1225.752797,814.226536,9030.512492
3741.348881,383.047749,-222.061783,9400.615463
3741.349195,0.000000,-1036.288319,10140.821405
3741.349510,0.000000,-814.226536,10214.842000
3741.349824,-536.266849,296.082377,9992.780217
3741.350139,-612.876398,444.123565,9400.615463
3741.350453,-919.314598,-148.041188,9030.512492
3741.350768,-383.047749,-296.082377,9474.636058
3741.351082,-306.438199,-0.000000,9992.780217
3741.351397,-919.314598,-296.082377,10066.800811
3741.351711,-1149.143247,-888.247130,10140.821405
3741.352026,-536.266849,-814.226536,10881.027347
3741.352340,-229.828649,-444.123565,9992.780217
3741.352654,229.828649,1036.288319,9474.636058
3741.352969,383.047749,888.247130,9104.533087
3741.353283,919.314598,296.082377,9030.512492
3741.353598,1532.190996,444.123565,8660.409521
3741.353912,766.095498,222.061783,8290.306550
3741.354227,306.438199,-666.185348,9030.512492
3741.354541,0.000000,-1924.535449,9696.697840
3741.354856,0.000000,-1628.453072,9918.759623
3741.355170,0.000000,-962.267725,9622.677246
3741.355485,-842.705048,-0.000000,9400.615463
3741.355799,-459.657299,-222.061783,8882.471304
3741.356113,229.828649,-444.123565,9252.574275
3741.356428,0.000000,-666.185348,9696.697840
3741.356742,153.219100,-1184.329507,9770.718434
3741.357057,-383.047749,-888.247130,10140.821405
3741.357371,76.609550,-1110.308913,10807.006753
3741.357686,76.609550,74.020594,10732.986159
3741.358000,383.047749,888.247130,10140.821405
3741.358315,229.828649,1036.288319,8808.450710
3741.358629,1455.581446,888.247130,8882.471304
3741.358944,1685.410096,666.185348,8808.450710
3741.359258,842.705048,222.061783,8882.471304
3741.359573,229.828649,-814.226536,9474.636058
3741.359887,0.000000,-1850.514855,9696.697840
3741.360201,0.000000,-1998.556043,10066.800811
3741.360516,-383.047749,-888.247130,9770.718434
3741.360830,-842.705048,-148.041188,9400.615463
3741.361145,-383.047749,-0.000000,9178.553681
3741.361459,0.000000,-222.061783,9400.615463
3741.361774,76.609550,-296.082377,9622.677246
3741.362088,-383.047749,-222.061783,9474.636058
3741.362403,0.000000,-370.102971,9918.759623
3741.362717,76.609550,-222.061783,10288.862594
3741.363032,842.705048,370.102971,10362.883188
3741.363346,612.876398,1554.432478,9178.553681
3741.363660,766.095498,1776.494261,9030.512492
3741.363975,842.705048,1036.288319,9252.574275
3741.364289,1149.143247,740.205942,9178.553681
3741.364604,612.876398,296.082377,9252.574275
3741.364918,-76.609550,148.041188,9178.553681
3741.365233,-229.828649,-1110.308913,10140.821405
3741.365547,-689.485948,-1036.288319,10510.924376
3741.365862,-1149.143247,-74.020594,9770.718434
3741.366176,-1225.752797,888.247130,8882.471304
3741.366491,-612.876398,592.164754,9252.574275
3741.366805,0.000000,592.164754,9696.697840
3741.367119,0.000000,592.164754,9696.697840
3741.367434,0.000000,296.082377,10066.800811
3741.367748,-766.095498,-0.000000,10362.883188
3741.368063,-153.219100,-0.000000,10955.047942
3741.368377,0.000000,1036.288319,10436.903782
3741.368692,306.438199,1998.556043,10140.821405
3741.369006,612.876398,1998.556043,9252.574275
3741.369321,1225.752797,1554.432478,8734.430116
3741.369635,1455.581446,1332.370696,9326.594869
3741.369950,766.095498,666.185348,9548.656652
3741.370264,0.000000,-148.041188,9548.656652
3741.370579,306.438199,-1110.308913,9844.739029
3741.370893,306.438199,-814.226536,10066.800811
3741.371207,76.609550,370.102971,9474.636058
3741.371522,153.219100,1110.308913,8512.368333
3741.371836,153.219100,666.185348,8734.430116
3741.372151,1225.752797,518.144159,9400.615463
3741.372465,995.924147,518.144159,9548.656652
3741.372780,383.047749,370.102971,9696.697840
3741.373094,0.000000,-148.041188,10288.862594
3741.373409,383.047749,-222.061783,10510.924376
3741.373723,919.314598,444.123565,10214.842000
3741.374038,842.705048,1406.391290,10066.800811
3741.374352,842.705048,1406.391290,9178.553681
3741.374666,1455.581446,1036.288319,8808.450710
3741.374981,1455.581446,962.267725,9252.574275
3741.375295,842.705048,222.061783,9326.594869
3741.375610,383.047749,-370.102971,9474.636058
3741.375924,612.876398,-888.247130,9548.656652
3741.376239,459.657299,-666.185348,10362.883188
3741.376553,76.609550,296.082377,9474.636058
3741.376868,0.000000,518.144159,8512.368333
3741.377182,919.314598,-444.123565,9252.574275
3741.377497,76.609550,888.247130,9548.656652
3741.377811,0.000000,-148.041188,9474.636058
3741.378125,0.000000,-592.164754,10140.821405
3741.378440,-536.266849,-666.185348,10584.944971
3741.378754,0.000000,-666.185348,10362.883188
3741.379069,-536.266849,222.061783,10066.800811
3741.379383,-459.657299,1258.350101,10436.903782
3741.379698,0.000000,1036.288319,9326.594869
3741.380012,229.828649,1184.329507,9178.553681
3741.380327,306.438199,740.205942,9474.636058
3741.380641,0.000000,-0.000000,9252.574275
3741.380956,-612.876398,-814.226536,10140.821405
3741.381270,-842.705048,-1776.494261,10214.842000
3741.381585,-459.657299,-1258.350101,10584.944971
3741.381899,-459.657299,-148.041188,9474.636058
3741.382213,-766.095498,-0.000000,9178.553681
3741.382528,-153.219100,518.144159,9178.553681
3741.382842,229.828649,-0.000000,8882.471304
3741.383157,229.828649,-0.000000,9178.553681
3741.383471,-842.705048,-518.144159,9178.553681
3741.383786,-536.266849,-1184.329507,10288.862594
3741.384100,-306.438199,-1406.391290,11103.089130
3741.384415,-153.219100,-444.123565,10214.842000
3741.384729,0.000000,592.164754,9622.677246
3741.385044,0.000000,814.226536,9104.533087
3741.385358,612.876398,888.247130,9326.594869
3741.385672,689.485948,814.226536,8586.388927
3741.385987,383.047749,-0.000000,9400.615463
3741.386301,0.000000,-592.164754,9696.697840
3741.386616,-306.438199,-1258.350101,10214.842000
3741.386930,-153.219100,-518.144159,10066.800811
3741.387245,-612.876398,-148.041188,9770.718434
3741.387559,-536.266849,370.102971,9326.594869
3741.387874,76.609550,-0.000000,8586.388927
3741.388188,689.485948,-74.020594,8586.388927
3741.388503,306.438199,-0.000000,9696.697840
3741.388817,-76.609550,-962.267725,9474.636058
3741.389132,0.000000,-814.226536,10214.842000
3741.389446,0.000000,-444.123565,10881.027347
3741.389760,-229.828649,-0.000000,10510.924376
3741.390075,76.609550,1110.308913,9696.697840
3741.390389,612.876398,1406.391290,9030.512492
3741.390704,1225.752797,740.205942,9326.594869
3741.391018,1149.143247,666.185348,9030.512492
3741.391333,612.876398,296.082377,9326.594869
3741.391647,153.219100,-592.164754,10140.821405
3741.391962,0.000000,-1110.308913,9918.759623
3741.392276,76.609550,-888.247130,9918.759623
3741.392591,0.000000,-148.041188,9252.574275
3741.392905,153.219100,444.123565,8808.450710
3741.393219,766.095498,-148.041188,8290.306550
3741.393534,1149.143247,-0.000000,8734.430116
3741.393848,383.047749,592.164754,9104.533087
3741.394163,0.000000,-222.061783,9400.615463
3741.394477,-306.438199,-962.267725,9844.739029
3741.394792,0.000000,-1110.308913,10955.047942
3741.395106,76.609550,444.123565,10732.986159
3741.395421,0.000000,1480.411884,9400.615463
3741.395735,612.876398,1850.514855,8882.471304
3741.396050,1225.752797,1480.411884,9326.594869
3741.396364,1762.019645,1110.308913,9474.636058
3741.396678,1225.752797,666.185348,9178.553681
3741.396993,306.438199,444.123565,9548.656652
3741.397307,536.266849,370.102971,9696.697840
3741.397622,689.485948,888.247130,9992.780217
3741.397936,153.219100,1628.453072,9252.574275
3741.398251,76.609550,1332.370696,8956.491898
3741.398565,536.266849,1036.288319,8882.471304
3741.398880,766.095498,1110.308913,9326.594869
3741.399195,0.000000,888.247130,9622.677246
3741.399509,-842.705048,296.082377,10510.924376
3741.399824,-1149.143247,-148.041188,10658.965565
3741.400138,-306.438199,-0.000000,10955.047942
3741.400453,0.000000,1258.350101,10732.986159
3741.400767,0.000000,2294.638420,9770.718434
3741.401082,459.657299,2368.659014,9252.574275
3741.401396,1225.752797,1924.535449,9326.594869
3741.401711,919.314598,1184.329507,9326.594869
3741.402025,306.438199,1184.329507,9770.718434
3741.402340,-459.657299,-148.041188,10140.821405
3741.402654,-229.828649,-888.247130,10658.965565
3741.402969,-919.314598,-518.144159,10584.944971
3741.403283,-842.705048,-0.000000,9844.739029
3741.403598,-842.705048,592.164754,9400.615463
3741.403912,-459.657299,296.082377,9104.533087
3741.404227,383.047749,-0.000000,9992.780217
3741.404541,76.609550,-370.102971,9104.533087
3741.404856,-306.438199,-370.102971,9548.656652
3741.405170,-612.876398,-666.185348,10362.883188
3741.405485,-153.219100,-740.205942,10584.944971
3741.405799,153.219100,370.102971,9548.656652
3741.406114,0.000000,740.205942,9178.553681
3741.406428,306.438199,888.247130,9104.533087
3741.406743,689.485948,-0.000000,9178.553681
3741.407057,766.095498,-222.061783,9770.718434
3741.407372,76.609550,-444.123565,9622.677246
3741.407686,76.609550,-1258.350101,9474.636058
3741.408001,0.000000,-1702.473667,9992.780217
3741.408315,76.609550,-1110.308913,10066.800811
3741.408630,306.438199,-0.000000,8808.450710
3741.408945,689.485948,-0.000000,8660.409521
3741.409259,689.485948,-0.000000,7994.224174
3741.409574,1149.143247,-0.000000,8512.368333
3741.409888,689.485948,-0.000000,8734.430116
3741.410203,-306.438199,-1036.288319,9548.656652
3741.410517,-306.438199,-1554.432478,10066.800811
3741.410832,229.828649,-1332.370696,10288.862594
3741.411146,76.609550,-0.000000,10288.862594
3741.411461,0.000000,592.164754,9474.636058
3741.411775,76.609550,740.205942,8882.471304
3741.412090,1149.143247,-0.000000,8882.471304
3741.412404,1302.362347,148.041188,8956.491898
3741.412719,306.438199,-592.164754,9548.656652
3741.413033,-153.219100,-1110.308913,9696.697840
3741.413348,0.000000,-1258.350101,10140.821405
3741.413662,-383.047749,-740.205942,9770.718434
3741.413977,-306.438199,-0.000000,9030.512492
3741.414291,153.219100,-74.020594,9252.574275
3741.414606,0.000000,-148.041188,9104.533087
3741.414920,459.657299,-296.082377,9696.697840
3741.415235,0.000000,-370.102971,9696.697840
3741.415549,-459.657299,-888.247130,9770.718434
3741.415864,-383.047749,-1332.370696,10288.862594
3741.416178,0.000000,-592.164754,9918.759623
3741.416493,0.000000,296.082377,9400.615463
3741.416807,0.000000,518.144159,9252.574275
3741.417122,76.609550,666.185348,8882.471304
3741.417436,383.047749,518.144159,8660.409521
3741.417751,383.047749,148.041188,9474.636058
3741.418066,-459.657299,-0.000000,9918.759623
3741.418380,-1225.752797,-518.144159,10584.944971
3741.418695,-995.924147,-962.267725,11103.089130
3741.419009,-689.485948,-0.000000,10658.965565
3741.419324,-612.876398,888.247130,9992.780217
3741.419638,-306.438199,1406.391290,9474.636058
3741.419953,536.266849,962.267725,9104.533087
3741.420267,689.485948,1036.288319,9400.615463
3741.420582,306.438199,592.164754,9252.574275
3741.420896,0.000000,148.041188,9844.739029
3741.421211,306.438199,-0.000000,9992.780217
3741.421525,-306.438199,-0.000000,10214.842000
3741.421840,383.047749,1184.329507,9622.677246
3741.422154,383.047749,1480.411884,9252.574275
3741.422469,0.000000,1332.370696,9326.594869
3741.422783,842.705048,1110.308913,9622.677246
3741.423098,766.095498,962.267725,9400.615463
3741.423412,76.609550,518.144159,9030.512492
3741.423727,76.609550,-0.000000,9844.739029
3741.424041,0.000000,-296.082377,10732.986159
3741.424356,76.609550,-0.000000,10214.842000
3741.424670,-229.828649,1332.370696,9474.636058
3741.424985,0.000000,1850.514855,8586.388927
3741.425299,612.876398,1406.391290,9030.512492
3741.425614,1072.533697,1184.329507,9178.553681
3741.425928,689.485948,888.247130,9252.574275
3741.426243,0.000000,148.041188,9844.739029
3741.426557,-306.438199,-222.061783,10140.821405
3741.426872,76.609550,-296.082377,10510.924376
3741.427187,-229.828649,444.123565,9992.780217
3741.427501,-383.047749,666.185348,9326.594869
3741.427816,0.000000,592.164754,8808.450710
3741.428130,229.828649,222.061783,9252.574275
3741.428445,229.828649,592.164754,9992.780217
3741.428759,-383.047749,-0.000000,9474.636058
3741.429074,-76.609550,-0.000000,9696.697840
3741.429388,0.000000,-592.164754,10362.883188
3741.429703,383.047749,518.144159,10066.800811
3741.430017,306.438199,888.247130,9622.677246
3741.430332,383.047749,1480.411884,8660.409521
3741.430646,995.924147,-0.000000,9252.574275
3741.430961,612.876398,814.226536,9030.512492
3741.431275,612.876398,296.082377,9548.656652
3741.431590,-229.828649,-370.102971,9918.759623
3741.431904,-842.705048,-1406.391290,10584.944971
3741.432219,0.000000,-1554.432478,11103.089130
3741.432533,-612.876398,-518.144159,10584.944971
3741.432848,-919.314598,592.164754,9918.759623
3741.433162,-536.266849,444.123565,9770.718434
3741.433477,459.657299,-0.000000,9474.636058
3741.433791,1149.143247,-0.000000,9622.677246
3741.434106,919.314598,296.082377,9622.677246
3741.434420,689.485948,-222.061783,9548.656652
3741.434735,842.705048,-518.144159,9918.759623
3741.435049,689.485948,-0.000000,9474.636058
3741.435364,536.266849,592.164754,8364.327145
3741.435678,536.266849,444.123565,8438.347739
3741.435993,919.314598,-592.164754,8808.450710
3741.436308,459.657299,-1184.329507,9104.533087
3741.436622,0.000000,-888.247130,8734.430116
3741.436937,-1072.533697,-1850.514855,10214.842000
3741.437251,-612.876398,-1850.514855,10140.821405
3741.437566,-459.657299,-1406.391290,10807.006753
3741.437880,-229.828649,-296.082377,10066.800811
3741.438195,0.000000,222.061783,9326.594869
3741.438509,306.438199,518.144159,8882.471304
3741.438824,1302.362347,518.144159,9326.594869
3741.439138,1225.752797,222.061783,9178.553681
3741.439453,995.924147,-0.000000,9474.636058
3741.439767,995.924147,-444.123565,9326.594869
3741.440082,995.924147,-888.247130,9696.697840
3741.440396,1072.533697,-222.061783,9696.697840
3741.440711,612.876398,148.041188,9400.615463
3741.441025,766.095498,518.144159,8216.285956
3741.441340,995.924147,-222.061783,8882.471304
3741.441654,1378.971896,-666.185348,8956.491898
3741.441969,459.657299,-962.267725,9252.574275
3741.442283,-229.828649,-1628.453072,9844.739029
3741.442598,-306.438199,-1628.453072,10584.944971
3741.442912,459.657299,-518.144159,10362.883188
3741.443227,536.266849,444.123565,9844.739029
3741.443541,0.000000,1702.473667,9104.533087
3741.443856,766.095498,1628.453072,9030.512492
3741.444170,1302.362347,1554.432478,9104.533087
3741.444485,919.314598,888.247130,9252.574275
3741.444799,689.485948,740.205942,10214.842000
3741.445114,-229.828649,-0.000000,10362.883188
3741.445429,-306.438199,-74.020594,10732.986159
3741.445743,0.000000,740.205942,10362.883188
3741.446058,-995.924147,1332.370696,9770.718434
3741.446372,-766.095498,814.226536,8808.450710
3741.446687,0.000000,222.061783,8808.450710
3741.447001,0.000000,296.082377,9474.636058
3741.447316,-689.485948,518.144159,9474.636058
3741.447630,-1225.752797,-0.000000,9548.656652
3741.447945,-1149.143247,-148.041188,10510.924376
3741.448259,-766.095498,-148.041188,10436.903782
3741.448574,-383.047749,740.205942,9548.656652
3741.448888,-229.828649,1776.494261,8956.491898
3741.449203,-459.657299,1554.432478,8734.430116
3741.449517,842.705048,1258.350101,8956.491898
3741.449832,306.438199,1332.370696,9104.533087
3741.450146,-153.219100,518.144159,9474.636058
3741.450461,-689.485948,-0.000000,10362.883188
3741.450775,-383.047749,-296.082377,10584.944971
3741.451090,-919.314598,444.123565,10807.006753
3741.451404,-995.924147,1184.329507,9770.718434
3741.451719,-612.876398,814.226536,9326.594869
3741.452033,0.000000,370.102971,9400.615463
3741.452348,76.609550,-0.000000,9622.677246
3741.452662,0.000000,-0.000000,9918.759623
3741.452977,-383.047749,-74.020594,10140.821405
3741.453291,0.000000,-148.041188,10288.862594
3741.453606,153.219100,296.082377,10214.842000
3741.453920,612.876398,592.164754,9104.533087
3741.454235,612.876398,1258.350101,8808.450710
3741.454549,689.485948,888.247130,8808.450710
3741.454864,1225.752797,370.102971,9474.636058
3741.455179,612.876398,370.102971,9474.636058
3741.455493,-536.266849,-444.123565,9770.718434
3741.455808,76.609550,-814.226536,10436.903782
3741.456122,-536.266849,-962.267725,10436.903782
3741.456437,-229.828649,-148.041188,10362.883188
3741.456751,-229.828649,592.164754,9844.739029
3741.457066,0.000000,740.205942,9178.553681
3741.457380,842.705048,444.123565,8734.430116
3741.457695,1378.971896,592.164754,8882.471304
3741.458009,1149.143247,-74.020594,9548.656652
3741.458324,536.266849,-1554.432478,9622.677246
3741.458638,919.314598,-1184.329507,9474.636058
3741.458953,842.705048,-148.041188,9992.780217
3741.459267,612.876398,592.164754,9400.615463
3741.459582,612.876398,962.267725,8586.388927
3741.459896,1149.143247,296.082377,8290.306550
3741.460211,1455.581446,-444.123565,8660.409521
3741.460525,919.314598,-592.164754,9104.533087
3741.460840,0.000000,-1258.350101,9622.677246
3741.461154,-689.485948,-1998.556043,10288.862594
3741.461469,-536.266849,-1628.453072,10658.965565
3741.461783,-383.047749,-148.041188,10214.842000
3741.462098,-612.876398,518.144159,9770.718434
3741.462412,0.000000,444.123565,9178.553681
3741.462727,766.095498,518.144159,9474.636058
3741.463041,766.095498,148.041188,9178.553681
3741.463356,306.438199,-0.000000,9622.677246
3741.463670,0.000000,-518.144159,9844.739029
3741.463985,76.609550,-1184.329507,10510.924376
3741.464300,76.609550,-592.164754,11029.068536
3741.464614,-229.828649,518.144159,9474.636058
3741.464929,-536.266849,814.226536,8734.430116
3741.465243,-229.828649,666.185348,8586.388927
3741.465558,0.000000,-370.102971,9844.739029
3741.465872,-536.266849,-518.144159,9474.636058
3741.466187,-1225.752797,-1332.370696,9918.759623
3741.466501,-1225.752797,-1554.432478,10288.862594
3741.466816,-1225.752797,-1110.308913,11029.068536
3741.467130,-612.876398,-0.000000,10214.842000
3741.467445,-612.876398,1480.411884,9178.553681
3741.467759,-536.266849,1628.453072,8882.471304
3741.468074,995.924147,1258.350101,8734.430116
3741.468388,995.924147,1184.329507,8290.306550
3741.468703,536.266849,296.082377,9104.533087
3741.469017,-229.828649,-148.041188,9474.636058
3741.469332,-383.047749,-518.144159,10288.862594
3741.469646,0.000000,222.061783,10140.821405
3741.469961,-153.219100,962.267725,10140.821405
3741.470275,-383.047749,814.226536,9178.553681
3741.470590,153.219100,592.164754,8734.430116
3741.470904,383.047749,-0.000000,9030.512492
3741.471219,0.000000,370.102971,9326.594869
3741.471533,-995.924147,74.020594,10066.800811
3741.471848,-612.876398,-666.185348,9622.677246
3741.472162,-153.219100,-666.185348,10140.821405
3741.472477,153.219100,814.226536,9622.677246
3741.472791,229.828649,1776.494261,9252.574275
3741.473106,612.876398,1702.473667,8956.491898
3741.473421,1072.533697,1480.411884,9252.574275
3741.473735,995.924147,1258.350101,9622.677246
3741.474050,306.438199,592.164754,9844.739029
3741.474364,-229.828649,-666.185348,10214.842000
3741.474679,0.000000,-888.247130,11843.295072
3741.474993,306.438199,-148.041188,10807.006753
3741.475308,0.000000,888.247130,10140.821405
3741.475622,0.000000,1258.350101,9326.594869
3741.475937,919.314598,962.267725,9252.574275
3741.476251,1608.800546,592.164754,9548.656652
3741.476566,995.924147,666.185348,9030.512492
3741.476880,229.828649,-148.041188,9622.677246
3741.477195,153.219100,-666.185348,9844.739029
3741.477509,383.047749,-592.164754,9992.780217
3741.477824,766.095498,592.164754,9844.739029
3741.478138,153.219100,1628.453072,9030.512492
3741.478453,459.657299,1406.391290,8586.388927
3741.478767,995.924147,444.123565,8956.491898
3741.479082,383.047749,222.061783,9474.636058
3741.479396,-229.828649,-0.000000,9992.780217
3741.479711,-1072.533697,-888.247130,10140.821405
3741.480025,-919.314598,-1258.350101,10881.027347
3741.480340,-306.438199,-444.123565,10658.965565
3741.480654,-229.828649,370.102971,10066.800811
3741.480969,0.000000,888.247130,8512.368333
3741.481283,689.485948,814.226536,8364.327145
3741.481598,1608.800546,814.226536,8956.491898
3741.481912,766.095498,222.061783,8808.450710
3741.482227,153.219100,-518.144159,9252.574275
3741.482542,0.000000,-1110.308913,9770.718434
3741.482856,153.219100,-1406.391290,9696.697840
3741.483171,306.438199,-296.082377,9104.533087
3741.483485,-229.828649,296.082377,8660.409521
3741.483800,0.000000,518.144159,8956.491898
3741.484114,459.657299,148.041188,9104.533087
3741.484429,229.828649,-222.061783,9400.615463
3741.484743,-383.047749,-740.205942,9844.739029
3741.485058,-689.485948,-962.267725,10214.842000
3741.485372,-689.485948,-1110.308913,10288.862594
3741.485687,-229.828649,-0.000000,10510.924376
3741.486001,0.000000,740.205942,9918.759623
3741.486316,0.000000,1184.329507,8882.471304
3741.486630,766.095498,888.247130,8808.450710
3741.486945,842.705048,1036.288319,9104.533087
3741.487259,0.000000,592.164754,9400.615463
3741.487574,-766.095498,-888.247130,9918.759623
3741.487888,-1149.143247,-1406.391290,10140.821405
3741.488203,-995.924147,-1110.308913,10658.965565
3741.488517,-1149.143247,-296.082377,9992.780217
3741.488832,-1532.190996,148.041188,9474.636058
3741.489146,-1072.533697,518.144159,9326.594869
3741.489461,0.000000,-0.000000,9548.656652
3741.489775,-689.485948,-0.000000,9474.636058
3741.490090,-459.657299,-370.102971,9918.759623
3741.490404,-842.705048,-296.082377,10436.903782
3741.490719,-153.219100,-444.123565,10362.883188
3741.491033,459.657299,370.102971,10066.800811
3741.491348,229.828649,1184.329507,9252.574275
3741.491663,612.876398,1776.494261,8438.347739
3741.491977,1455.581446,1554.432478,8586.388927
3741.492292,1838.629195,1258.350101,8586.388927
3741.492606,1149.143247,-0.000000,8808.450710
3741.492921,76.609550,-1110.308913,9400.615463
3741.493235,-383.047749,-1924.535449,10510.924376
3741.493550,-689.485948,-1480.411884,10584.944971
3741.493864,-536.266849,-444.123565,9992.780217
3741.494179,-459.657299,444.123565,9400.615463
3741.494493,0.000000,592.164754,9622.677246
3741.494808,1225.752797,592.164754,9548.656652
3741.495122,1455.581446,370.102971,9622.677246
3741.495437,1302.362347,518.144159,9622.677246
3741.495751,842.705048,370.102971,9696.697840
3741.496066,1532.190996,-148.041188,10214.842000
3741.496380,1455.581446,666.185348,10066.800811
3741.496695,995.924147,1258.350101,9474.636058
3741.497009,1378.971896,1702.473667,8734.430116
3741.497324,1685.410096,1110.308913,8734.430116
3741.497638,1149.143247,518.144159,9548.656652
3741.497953,153.219100,-370.102971,10288.862594
3741.498267,-842.705048,-814.226536,10214.842000
3741.498582,-1302.362347,-1924.535449,10584.944971
3741.498897,-995.924147,-1406.391290,11547.212695
3741.499211,-1072.533697,-74.020594,10881.027347
3741.499526,-689.485948,814.226536,9474.636058
3741.499840,0.000000,814.226536,8956.491898
3741.500155,1072.533697,962.267725,9178.553681
3741.500470,1072.533697,1036.288319,8882.471304
3741.500784,536.266849,888.247130,9474.636058
3741.501099,229.828649,-0.000000,9622.677246
3741.501413,153.219100,-222.061783,10066.800811
3741.501728,229.828649,-0.000000,9844.739029
3741.502043,0.000000,1184.329507,8956.491898
3741.502357,383.047749,518.144159,9030.512492
3741.502672,612.876398,370.102971,9030.512492
3741.502986,306.438199,-74.020594,9104.533087
3741.503301,0.000000,-0.000000,9178.553681
3741.503616,-689.485948,-888.247130,9474.636058
3741.503930,-766.095498,-1332.370696,9992.780217
3741.504245,-459.657299,-1036.288319,9696.697840
3741.504559,-306.438199,444.123565,9252.574275
3741.504874,0.000000,962.267725,8438.347739
3741.505189,76.609550,962.267725,9030.512492
3741.505503,919.314598,1036.288319,9474.636058
3741.505818,842.705048,962.267725,9252.574275
3741.506132,-229.828649,296.082377,9622.677246
3741.506447,-536.266849,-370.102971,10658.965565
3741.506762,-383.047749,-666.185348,10955.047942
3741.507076,0.000000,222.061783,10658.965565
3741.507391,-536.266849,962.267725,9696.697840
3741.507705,-612.876398,888.247130,9474.636058
3741.508020,153.219100,666.185348,9104.533087
3741.508335,383.047749,444.123565,9474.636058
3741.508649,-153.219100,222.061783,9918.759623
3741.508964,-536.266849,-296.082377,9696.697840
3741.509278,-536.266849,-962.267725,9992.780217
3741.509593,153.219100,-222.061783,10362.883188
3741.509908,383.047749,370.102971,9400.615463
3741.510222,0.000000,888.247130,8660.409521
3741.510537,536.266849,1036.288319,8660.409521
3741.510851,842.705048,814.226536,8882.471304
3741.511166,919.314598,370.102971,9400.615463
3741.511481,0.000000,296.082377,9844.739029
3741.511795,-383.047749,-370.102971,9992.780217
3741.512110,-689.485948,-962.267725,11029.068536
3741.512424,-536.266849,370.102971,10362.883188
3741.512739,-689.485948,740.205942,9918.759623
3741.513054,229.828649,1258.350101,9474.636058
3741.513368,766.095498,814.226536,9474.636058
3741.513683,1225.752797,592.164754,9400.615463
3741.513997,766.095498,-74.020594,9622.677246
3741.514312,0.000000,-296.082377,9844.739029
3741.514627,153.219100,-814.226536,9474.636058
3741.514941,383.047749,-370.102971,9400.615463
3741.515256,153.219100,148.041188,9400.615463
3741.515570,76.609550,296.082377,8734.430116
3741.515885,612.876398,-0.000000,8586.388927
3741.516200,766.095498,-0.000000,9326.594869
3741.516514,153.219100,-222.061783,9622.677246
3741.516829,-383.047749,-888.247130,10214.842000
3741.517143,-612.876398,-1406.391290,10510.924376
3741.517458,-229.828649,-1184.329507,11325.150913
3741.517773,0.000000,-148.041188,10732.986159
3741.518087,0.000000,814.226536,9622.677246
3741.518402,689.485948,1332.370696,9104.533087
3741.518716,1532.190996,1110.308913,9252.574275
3741.519031,1378.971896,814.226536,8734.430116
3741.519346,1225.752797,370.102971,9178.553681
3741.519660,383.047749,-74.020594,9474.636058
3741.519975,306.438199,-740.205942,9844.739029
3741.520289,383.047749,-592.164754,9770.718434
3741.520604,0.000000,148.041188,9548.656652
3741.520918,-536.266849,296.082377,8734.430116
3741.521233,76.609550,-0.000000,8512.368333
3741.521548,842.705048,-370.102971,9030.512492
3741.521862,0.000000,-222.061783,9400.615463
3741.522177,-766.095498,-518.144159,9992.780217
3741.522491,-612.876398,-518.144159,9844.739029
3741.522806,-536.266849,-592.164754,10436.903782
3741.523121,-459.657299,740.205942,10214.842000
3741.523435,-229.828649,1480.411884,9252.574275
3741.523750,0.000000,1702.473667,9030.512492
3741.524064,995.924147,962.267725,9400.615463
3741.524379,1072.533697,814.226536,9178.553681
3741.524694,306.438199,222.061783,9770.718434
3741.525008,-383.047749,-148.041188,9548.656652
3741.525323,-536.266849,-148.041188,10732.986159
3741.525637,-306.438199,-0.000000,9622.677246
3741.525952,-689.485948,666.185348,9178.553681
3741.526267,-459.657299,740.205942,8364.327145
3741.526581,-383.047749,296.082377,8660.409521
3741.526896,459.657299,-296.082377,9252.574275
3741.527210,-383.047749,-296.082377,9918.759623
3741.527525,-995.924147,-444.123565,10510.924376
3741.527840,-1072.533697,-814.226536,10436.903782
3741.528154,-536.266849,-370.102971,10881.027347
3741.528469,536.266849,222.061783,10955.047942
3741.528783,612.876398,1628.453072,9474.636058
3741.529098,766.095498,1850.514855,8808.450710
3741.529413,1302.362347,1776.494261,8956.491898
3741.529727,1455.581446,1406.391290,8956.491898
3741.530042,689.485948,518.144159,9104.533087
3741.530356,0.000000,-74.020594,9770.718434
3741.530671,76.609550,-814.226536,10362.883188
3741.530986,229.828649,-444.123565,10362.883188
3741.531300,0.000000,296.082377,10066.800811
3741.531615,-153.219100,518.144159,9400.615463
3741.531929,0.000000,-0.000000,9178.553681
3741.532244,383.047749,296.082377,9474.636058
3741.532559,153.219100,-0.000000,9696.697840
3741.532873,0.000000,-444.123565,9770.718434
3741.533188,229.828649,-1036.288319,9622.677246
3741.533502,229.828649,-222.061783,10362.883188
3741.533817,229.828649,962.267725,9770.718434
3741.534132,459.657299,1850.514855,9178.553681
3741.534446,1378.971896,2072.576638,8586.388927
3741.534761,1991.848295,1110.308913,9030.512492
3741.535075,1532.190996,814.226536,8956.491898
3741.535390,306.438199,444.123565,9104.533087
3741.535705,-306.438199,-296.082377,9696.697840
3741.536019,-459.657299,-1332.370696,10658.965565
3741.536334,0.000000,-666.185348,10807.006753
3741.536648,-383.047749,-0.000000,9622.677246
3741.536963,-383.047749,740.205942,8586.388927
3741.537278,0.000000,592.164754,8808.450710
3741.537592,612.876398,-0.000000,9178.553681
3741.537907,689.485948,-0.000000,9178.553681
3741.538221,229.828649,-814.226536,10140.821405
3741.538536,153.219100,-814.226536,9770.718434
3741.538851,306.438199,-518.144159,10214.842000
3741.539165,76.609550,592.164754,9918.759623
3741.539480,536.266849,740.205942,10066.800811
3741.539794,689.485948,1258.350101,9178.553681
3741.540109,536.266849,444.123565,8734.430116
3741.540424,1072.533697,296.082377,9178.553681
3741.540738,0.000000,-222.061783,9770.718434
3741.541053,-1225.752797,-888.247130,10066.800811
3741.541367,-766.095498,-1628.453072,10881.027347
3741.541682,-919.314598,-1036.288319,10510.924376
3741.541997,-919.314598,-222.061783,10066.800811
3741.542311,-612.876398,222.061783,9548.656652
3741.542626,383.047749,-0.000000,9622.677246
3741.542940,306.438199,-0.000000,9696.697840
3741.543255,76.609550,-296.082377,9770.718434
3741.543570,-229.828649,-518.144159,9696.697840
3741.543884,76.609550,-444.123565,9696.697840
3741.544199,612.876398,-518.144159,10140.821405
3741.544513,383.047749,370.102971,9474.636058
3741.544828,229.828649,1036.288319,8586.388927
3741.545143,459.657299,1184.329507,8660.409521
3741.545457,1072.533697,666.185348,8586.388927
3741.545772,612.876398,296.082377,8660.409521
3741.546086,-153.219100,-370.102971,9474.636058
3741.546401,-612.876398,-888.247130,10066.800811
3741.546716,-842.705048,-1702.473667,10140.821405
3741.547030,-766.095498,-740.205942,10510.924376
3741.547345,-842.705048,222.061783,9696.697840
3741.547659,-383.047749,592.164754,8808.450710
3741.547974,306.438199,666.185348,8882.471304
3741.548289,842.705048,962.267725,9030.512492
3741.548603,383.047749,444.123565,9252.574275
3741.548918,76.609550,-0.000000,9474.636058
3741.549232,153.219100,-518.144159,9474.636058
3741.549547,689.485948,-222.061783,10214.842000
3741.549861,459.657299,296.082377,9548.656652
3741.550176,153.219100,1184.329507,8882.471304
3741.550491,306.438199,666.185348,8586.388927
3741.550805,536.266849,518.144159,8808.450710
3741.551120,689.485948,444.123565,9252.574275
3741.551434,76.609550,-148.041188,9696.697840
3741.551749,-536.266849,-888.247130,10362.883188
3741.552064,-689.485948,-1110.308913,10362.883188
3741.552378,-766.095498,-814.226536,10732.986159
3741.552693,-459.657299,222.061783,9770.718434
3741.553007,0.000000,1406.391290,9178.553681
3741.553322,383.047749,1332.370696,9622.677246
3741.553637,1149.143247,1184.329507,9474.636058
3741.553951,1149.143247,814.226536,9770.718434
3741.554266,153.219100,-0.000000,9844.739029
3741.554580,153.219100,-0.000000,10140.821405
3741.554895,306.438199,-148.041188,11177.109724
3741.555210,229.828649,222.061783,10510.924376
3741.555524,0.000000,1184.329507,9474.636058
3741.555839,459.657299,962.267725,9326.594869
3741.556153,995.924147,592.164754,9030.512492
3741.556468,459.657299,148.041188,9992.780217
3741.556783,306.438199,370.102971,9474.636058
3741.557097,0.000000,-0.000000,9992.780217
3741.557412,229.828649,-370.102971,10140.821405
3741.557726,306.438199,-0.000000,9474.636058
3741.558041,612.876398,814.226536,9178.553681
3741.558356,536.266849,1628.453072,8512.368333
3741.558670,1302.362347,1480.411884,8586.388927
3741.558985,1149.143247,962.267725,9030.512492
3741.559299,842.705048,814.226536,9622.677246
3741.559614,0.000000,148.041188,9696.697840
3741.559929,-766.095498,-592.164754,10140.821405
3741.560243,-306.438199,-518.144159,10732.986159
3741.560558,-536.266849,222.061783,10584.944971
3741.560872,-383.047749,1110.308913,9474.636058
3741.561187,0.000000,666.185348,9252.574275
3741.561502,842.705048,740.205942,9104.533087
3741.561816,842.705048,370.102971,9178.553681
3741.562131,306.438199,296.082377,9326.594869
3741.562445,0.000000,-518.144159,9844.739029
3741.562760,995.924147,-740.205942,9696.697840
3741.563075,536.266849,148.041188,9548.656652
3741.563389,76.609550,888.247130,8586.388927
3741.563704,153.219100,962.267725,8882.471304
3741.564018,536.266849,-0.000000,9474.636058
3741.564333,612.876398,-222.061783,9474.636058
3741.564648,153.219100,-222.061783,9696.697840
3741.564962,-612.876398,-592.164754,9844.739029
3741.565277,-612.876398,-1110.308913,10510.924376
3741.565591,-383.047749,-962.267725,10658.965565
3741.565906,-229.828649,370.102971,10584.944971
3741.566221,-536.266849,592.164754,9622.677246
3741.566535,0.000000,888.247130,9326.594869
3741.566850,919.314598,740.205942,9326.594869
3741.567164,766.095498,444.123565,9474.636058
3741.567479,459.657299,-0.000000,9622.677246
3741.567794,0.000000,-814.226536,9548.656652
3741.568108,0.000000,-518.144159,10140.821405
3741.568423,0.000000,-74.020594,10214.842000
3741.568737,-306.438199,518.144159,8808.450710
3741.569052,306.438199,444.123565,8808.450710
3741.569367,612.876398,-0.000000,9030.512492
3741.569681,612.876398,-74.020594,9474.636058
3741.569996,0.000000,-74.020594,9696.697840
3741.570310,-766.095498,-518.144159,9992.780217
3741.570625,-536.266849,-1036.288319,10214.842000
3741.570940,-383.047749,-740.205942,9992.780217
3741.571254,-459.657299,296.082377,9622.677246
3741.571569,0.000000,740.205942,9030.512492
3741.571883,229.828649,1036.288319,8734.430116
3741.572198,995.924147,888.247130,9104.533087
3741.572513,689.485948,962.267725,9252.574275
3741.572827,306.438199,222.061783,9400.615463
3741.573142,-229.828649,-296.082377,9844.739029
3741.573456,-306.438199,-666.185348,11103.089130
3741.573771,0.000000,-296.082377,10214.842000
3741.574086,-306.438199,-0.000000,9252.574275
3741.574400,76.609550,592.164754,9030.512492
3741.574715,229.828649,-0.000000,9326.594869
3741.575029,536.266849,-370.102971,9326.594869
3741.575344,0.000000,-666.185348,9400.615463
3741.575659,-459.657299,-1110.308913,9622.677246
3741.575973,-306.438199,-1554.432478,10732.986159
3741.576288,76.609550,-1036.288319,10658.965565
3741.576602,0.000000,222.061783,9622.677246
3741.576917,0.000000,1110.308913,9252.574275
3741.577232,306.438199,1184.329507,9030.512492
3741.577546,1149.143247,740.205942,9474.636058
3741.577861,919.314598,296.082377,9400.615463
3741.578175,76.609550,-0.000000,9992.780217
3741.578490,-383.047749,-666.185348,9770.718434
3741.578804,-612.876398,-814.226536,10288.862594
3741.579119,-459.657299,-518.144159,10436.903782
3741.579434,-689.485948,592.164754,9474.636058
3741.579748,-383.047749,740.205942,8734.430116
3741.580063,383.047749,518.144159,8808.450710
3741.580377,842.705048,222.061783,9326.594869
3741.580692,383.047749,222.061783,9474.636058
3741.581007,-229.828649,-0.000000,9844.739029
3741.581321,76.609550,-518.144159,10436.903782
3741.581636,153.219100,-148.041188,10584.944971
3741.581950,76.609550,592.164754,9770.718434
3741.582265,459.657299,1184.329507,9252.574275
3741.582580,1302.362347,1480.411884,9400.615463
3741.582894,1302.362347,1406.391290,9178.553681
3741.583209,766.095498,888.247130,9030.512492
3741.583523,229.828649,518.144159,9474.636058
3741.583838,0.000000,-296.082377,10066.800811
3741.584153,-229.828649,-592.164754,10510.924376
3741.584467,-153.219100,-0.000000,10362.883188
3741.584782,76.609550,962.267725,9622.677246
3741.585096,0.000000,1184.329507,9474.636058
3741.585411,536.266849,888.247130,9326.594869
3741.585726,919.314598,666.185348,9696.697840
3741.586040,229.828649,-0.000000,9770.718434
3741.586355,-306.438199,-370.102971,9992.780217
3741.586669,-306.438199,-740.205942,10362.883188
3741.586984,0.000000,-148.041188,10436.903782
3741.587299,76.609550,814.226536,9844.739029
3741.587613,-229.828649,666.185348,8882.471304
3741.587928,536.266849,962.267725,9104.533087
3741.588242,766.095498,370.102971,9178.553681
3741.588557,612.876398,-0.000000,9252.574275
3741.588872,-229.828649,-296.082377,9770.718434
3741.589186,-153.219100,-962.267725,10214.842000
3741.589501,-306.438199,-1036.288319,10881.027347
3741.589815,0.000000,-0.000000,9992.780217
3741.590130,-306.438199,666.185348,9548.656652
3741.590445,306.438199,666.185348,8956.491898
3741.590759,536.266849,296.082377,9178.553681
3741.591074,766.095498,740.205942,8808.450710
3741.591388,306.438199,444.123565,9474.636058
3741.591703,0.000000,-74.020594,9844.739029
3741.592018,0.000000,-814.226536,9770.718434
3741.592332,76.609550,296.082377,9844.739029
3741.592647,0.000000,888.247130,9474.636058
3741.592961,0.000000,1258.350101,8956.491898
3741.593276,229.828649,962.267725,9178.553681
3741.593591,612.876398,296.082377,9178.553681
3741.593905,229.828649,370.102971,9030.512492
3741.594220,0.000000,-0.000000,9622.677246
3741.594534,-995.924147,-814.226536,10066.800811
3741.594849,-689.485948,-962.267725,10955.047942
3741.595164,-612.876398,-0.000000,10214.842000
3741.595478,-383.047749,444.123565,9030.512492
3741.595793,459.657299,1036.288319,9252.574275
3741.596107,612.876398,740.205942,8956.491898
3741.596422,919.314598,592.164754,9474.636058
3741.596737,536.266849,592.164754,9252.574275
3741.597051,0.000000,-370.102971,10140.821405
3741.597366,-229.828649,-666.185348,9918.759623
3741.597680,76.609550,-740.205942,10066.800811
3741.597995,0.000000,222.061783,9918.759623
3741.598310,-306.438199,296.082377,9104.533087
3741.598624,0.000000,518.144159,8734.430116
3741.598939,383.047749,-0.000000,9474.636058
3741.599253,0.000000,-222.061783,9622.677246
3741.599568,-383.047749,-1184.329507,9844.739029
3741.599883,-459.657299,-1258.350101,10436.903782
3741.600197,0.000000,-1258.350101,10807.006753
3741.600512,0.000000,-222.061783,9918.759623
3741.600827,153.219100,370.102971,9252.574275
3741.601141,383.047749,962.267725,8882.471304
3741.601456,1455.581446,666.185348,9178.553681
3741.601771,1608.800546,666.185348,8734.430116
3741.602085,766.095498,-0.000000,9400.615463
3741.602400,153.219100,-814.226536,9844.739029
3741.602715,-76.609550,-888.247130,9844.739029
3741.603029,0.000000,-592.164754,10584.944971
3741.603344,-153.219100,74.020594,9918.759623
3741.603659,-306.438199,740.205942,8956.491898
3741.603973,0.000000,370.102971,9548.656652
3741.604288,229.828649,222.061783,9548.656652
3741.604603,0.000000,-0.000000,9770.718434
3741.604917,0.000000,-0.000000,9770.718434
3741.605232,-383.047749,-222.061783,10658.965565
3741.605547,229.828649,-370.102971,10584.944971
3741.605861,689.485948,740.205942,9548.656652
3741.606176,229.828649,1702.473667,8364.327145
3741.606491,459.657299,1406.391290,8290.306550
3741.606805,612.876398,888.247130,8956.491898
3741.607120,1149.143247,370.102971,9104.533087
3741.607435,76.609550,-148.041188,9252.574275
3741.607749,-383.047749,-1036.288319,9770.718434
3741.608064,-612.876398,-1036.288319,10140.821405
3741.608379,-459.657299,-1036.288319,10658.965565
3741.608693,-383.047749,-0.000000,10362.883188
3741.609008,-459.657299,296.082377,9770.718434
3741.609323,153.219100,666.185348,8956.491898
3741.609637,995.924147,444.123565,9326.594869
3741.609952,536.266849,444.123565,9474.636058
3741.610267,229.828649,148.041188,9770.718434
3741.610581,153.219100,-0.000000,9696.697840
3741.610896,306.438199,-148.041188,9992.780217
3741.611211,306.438199,962.267725,9474.636058
3741.611525,459.657299,1554.432478,9104.533087
3741.611840,383.047749,1184.329507,8512.368333
3741.612155,689.485948,666.185348,9252.574275
3741.612469,229.828649,370.102971,9474.636058
3741.612784,-306.438199,-148.041188,10214.842000
3741.613098,-459.657299,-814.226536,10955.047942
3741.613413,-1225.752797,-1184.329507,10807.006753
3741.613728,-766.095498,-0.000000,11029.068536
3741.614042,-612.876398,666.185348,9548.656652
3741.614357,-612.876398,1258.350101,8956.491898
3741.614672,459.657299,1406.391290,9252.574275
3741.614986,919.314598,1110.308913,8734.430116
3741.615301,1149.143247,1184.329507,8882.471304
3741.615616,383.047749,888.247130,9474.636058
3741.615930,76.609550,-296.082377,9696.697840
3741.616245,0.000000,-370.102971,10510.924376
3741.616560,-306.438199,444.123565,10140.821405
3741.616874,-306.438199,1258.350101,9326.594869
3741.617189,-229.828649,962.267725,8660.409521
3741.617504,0.000000,592.164754,9104.533087
3741.617818,0.000000,74.020594,9696.697840
3741.618133,-1149.143247,-444.123565,9918.759623
3741.618448,-995.924147,-814.226536,10140.821405
3741.618762,-842.705048,-1036.288319,10584.944971
3741.619077,-306.438199,-222.061783,10510.924376
3741.619392,153.219100,962.267725,9696.697840
3741.619706,459.657299,1110.308913,8734.430116
3741.620021,1225.752797,666.185348,8734.430116
3741.620336,1762.019645,666.185348,8956.491898
3741.620650,1378.971896,370.102971,9104.533087
3741.620965,536.266849,-370.102971,9474.636058
3741.621280,383.047749,-740.205942,9548.656652
3741.621594,766.095498,-592.164754,9992.780217
3741.621909,459.657299,-222.061783,9992.780217
3741.622224,0.000000,148.041188,9548.656652
3741.622538,459.657299,148.041188,9326.594869
3741.622853,383.047749,-148.041188,9474.636058
3741.623168,536.266849,-370.102971,9844.739029
3741.623482,0.000000,-740.205942,10362.883188
3741.623797,-229.828649,-962.267725,10955.047942
3741.624112,383.047749,-1110.308913,11029.068536
3741.624426,383.047749,-222.061783,10807.006753
3741.624741,919.314598,1110.308913,9104.533087
3741.625056,1225.752797,1628.453072,8142.265362
3741.625370,2068.457845,1480.411884,8438.347739
3741.625685,2451.505594,740.205942,8734.430116
3741.626000,1225.752797,518.144159,9030.512492
3741.626314,0.000000,-666.185348,9474.636058
3741.626629,-229.828649,-1480.411884,10288.862594
3741.626943,-689.485948,-1480.411884,10584.944971
