#time,accel_x,accel_y,accel_z
3602.336021,2451.505594,2368.659014,9770.718434
3602.336336,2528.115143,1998.556043,8956.491898
3602.336650,1762.019645,2294.638420,9104.533087
3602.336964,1149.143247,2072.576638,9030.512492
3602.337278,1149.143247,1776.494261,9104.533087
3602.337592,689.485948,1332.370696,9030.512492
3602.337906,306.438199,666.185348,9252.574275
3602.338221,153.219100,148.041188,9696.697840
3602.338535,0.000000,-74.020594,9474.636058
3602.338849,0.000000,-222.061783,9400.615463
3602.339163,383.047749,-666.185348,9770.718434
3602.339477,0.000000,-370.102971,9918.759623
3602.339792,0.000000,-444.123565,9622.677246
3602.340106,0.000000,-0.000000,9622.677246
3602.340420,153.219100,444.123565,9178.553681
3602.340734,536.266849,666.185348,8586.388927
3602.341048,229.828649,740.205942,8734.430116
3602.341362,76.609550,148.041188,9178.553681
3602.341677,0.000000,-0.000000,8956.491898
3602.341991,0.000000,-370.102971,9400.615463
3602.342305,0.000000,-666.185348,10288.862594
3602.342619,-459.657299,-888.247130,10140.821405
3602.342933,-459.657299,-1184.329507,10140.821405
3602.343248,-1072.533697,-1258.350101,10362.883188
3602.343562,-766.095498,-1184.329507,10288.862594
3602.343876,-919.314598,-740.205942,10214.842000
3602.344190,-459.657299,-592.164754,9770.718434
3602.344504,0.000000,-666.185348,9400.615463
3602.344818,153.219100,-296.082377,9104.533087
3602.345133,459.657299,-370.102971,9326.594869
3602.345447,1225.752797,-1036.288319,9696.697840
3602.345761,766.095498,-444.123565,9696.697840
3602.346075,1072.533697,-222.061783,9252.574275
3602.346389,919.314598,-518.144159,9252.574275
3602.346704,689.485948,-518.144159,9622.677246
3602.347018,1378.971896,-370.102971,9474.636058
3602.347332,689.485948,-148.041188,9474.636058
3602.347646,459.657299,-518.144159,9326.594869
3602.347960,229.828649,-518.144159,9178.553681
3602.348274,612.876398,-74.020594,9104.533087
3602.348589,383.047749,-666.185348,8956.491898
3602.348903,459.657299,-296.082377,9474.636058
3602.349217,306.438199,-0.000000,9474.636058
3602.349531,536.266849,-0.000000,8808.450710
3602.349845,1072.533697,-0.000000,9400.615463
3602.350160,536.266849,444.123565,9104.533087
3602.350474,229.828649,444.123565,9178.553681
3602.350788,153.219100,518.144159,8956.491898
3602.351102,536.266849,740.205942,8956.491898
3602.351416,536.266849,888.247130,9252.574275
3602.351730,0.000000,592.164754,9178.553681
3602.352045,153.219100,592.164754,9622.677246
3602.352359,0.000000,814.226536,9918.759623
3602.352673,0.000000,592.164754,9844.739029
3602.352987,306.438199,592.164754,9548.656652
3602.353301,842.705048,592.164754,10140.821405
3602.353616,0.000000,592.164754,10066.800811
3602.353930,229.828649,666.185348,9696.697840
3602.354244,383.047749,666.185348,9622.677246
3602.354558,306.438199,740.205942,9622.677246
3602.354872,153.219100,592.164754,9992.780217
3602.355186,229.828649,592.164754,10362.883188
3602.355501,0.000000,666.185348,10510.924376
3602.355815,0.000000,666.185348,10288.862594
3602.356129,76.609550,740.205942,10510.924376
3602.356443,76.609550,740.205942,10881.027347
3602.356757,76.609550,740.205942,10584.944971
3602.357072,0.000000,666.185348,10362.883188
3602.357386,0.000000,666.185348,10140.821405
3602.357700,76.609550,518.144159,10584.944971
3602.358014,153.219100,666.185348,10658.965565
3602.358328,0.000000,370.102971,10362.883188
3602.358642,-306.438199,592.164754,9992.780217
3602.358957,-229.828649,296.082377,9992.780217
3602.359271,-383.047749,296.082377,10288.862594
3602.359585,-229.828649,-0.000000,9992.780217
3602.359899,-383.047749,222.061783,9770.718434
3602.360213,-383.047749,296.082377,9622.677246
3602.360528,0.000000,296.082377,9400.615463
3602.360842,76.609550,296.082377,9696.697840
3602.361156,0.000000,222.061783,9474.636058
3602.361470,306.438199,296.082377,9400.615463
3602.361784,383.047749,222.061783,9178.553681
3602.362098,766.095498,-0.000000,9178.553681
3602.362413,536.266849,222.061783,8956.491898
3602.362727,536.266849,-0.000000,8956.491898
3602.363041,306.438199,-74.020594,9030.512492
3602.363355,153.219100,-0.000000,9104.533087
3602.363669,153.219100,-296.082377,9178.553681
3602.363984,536.266849,-518.144159,9178.553681
3602.364298,536.266849,-740.205942,9178.553681
3602.364612,229.828649,-518.144159,9104.533087
3602.364926,153.219100,-518.144159,8882.471304
3602.365240,153.219100,-518.144159,9474.636058
3602.365554,0.000000,-296.082377,9326.594869
3602.365869,536.266849,-888.247130,8734.430116
3602.366183,383.047749,-444.123565,9178.553681
3602.366497,459.657299,-444.123565,9178.553681
3602.366811,0.000000,-518.144159,9474.636058
3602.367125,0.000000,-518.144159,9696.697840
3602.367440,-536.266849,-444.123565,9992.780217
3602.367754,0.000000,-370.102971,9918.759623
3602.368068,-229.828649,-370.102971,9252.574275
3602.368382,-76.609550,-444.123565,9548.656652
3602.368696,153.219100,-370.102971,10214.842000
3602.369010,-612.876398,-592.164754,10066.800811
3602.369325,-383.047749,-296.082377,9696.697840
3602.369639,0.000000,-148.041188,9696.697840
3602.369953,-459.657299,-222.061783,9992.780217
3602.370267,-306.438199,-518.144159,9770.718434
3602.370581,-536.266849,-592.164754,10066.800811
3602.370896,-383.047749,-0.000000,9918.759623
3602.371210,-153.219100,-74.020594,9474.636058
3602.371524,0.000000,-0.000000,9474.636058
3602.371838,-153.219100,296.082377,9622.677246
3602.372152,76.609550,-0.000000,9400.615463
3602.372466,0.000000,370.102971,9474.636058
3602.372781,0.000000,370.102971,9474.636058
3602.373095,0.000000,222.061783,9770.718434
3602.373409,76.609550,148.041188,9474.636058
3602.373723,0.000000,-0.000000,9622.677246
3602.374037,0.000000,370.102971,9548.656652
3602.374352,153.219100,592.164754,9474.636058
3602.374666,0.000000,666.185348,9474.636058
3602.374980,612.876398,740.205942,9474.636058
3602.375294,383.047749,888.247130,9474.636058
3602.375608,153.219100,666.185348,8734.430116
3602.375922,229.828649,666.185348,9400.615463
3602.376237,459.657299,740.205942,9992.780217
3602.376551,536.266849,666.185348,9326.594869
3602.376865,459.657299,888.247130,9622.677246
3602.377179,229.828649,370.102971,9474.636058
3602.377493,612.876398,666.185348,9844.739029
3602.377808,536.266849,740.205942,9622.677246
3602.378122,459.657299,296.082377,9770.718434
3602.378436,306.438199,148.041188,10140.821405
3602.378750,229.828649,814.226536,9622.677246
3602.379064,689.485948,888.247130,9474.636058
3602.379378,306.438199,444.123565,9918.759623
3602.379693,76.609550,814.226536,9918.759623
3602.380007,229.828649,592.164754,9992.780217
3602.380321,0.000000,370.102971,9844.739029
3602.380635,76.609550,370.102971,10066.800811
3602.380949,0.000000,444.123565,9992.780217
3602.381263,153.219100,148.041188,10066.800811
3602.381577,-306.438199,222.061783,10140.821405
3602.381891,153.219100,-0.000000,9548.656652
3602.382205,0.000000,222.061783,9622.677246
3602.382519,153.219100,148.041188,9770.718434
3602.382833,0.000000,-0.000000,9696.697840
3602.383147,-229.828649,-74.020594,9548.656652
3602.383461,0.000000,-148.041188,9622.677246
3602.383776,76.609550,-74.020594,9770.718434
3602.384090,0.000000,-370.102971,9474.636058
3602.384404,0.000000,-222.061783,9474.636058
3602.384718,-306.438199,-0.000000,9622.677246
3602.385032,76.609550,-74.020594,9326.594869
3602.385346,306.438199,-0.000000,9104.533087
3602.385660,0.000000,-74.020594,9252.574275
3602.385974,153.219100,-74.020594,9474.636058
3602.386288,842.705048,-296.082377,8882.471304
3602.386602,153.219100,-74.020594,8808.450710
3602.386916,153.219100,-148.041188,9474.636058
3602.387230,306.438199,-296.082377,9326.594869
3602.387545,153.219100,-148.041188,9030.512492
3602.387859,612.876398,-444.123565,8956.491898
3602.388173,459.657299,-0.000000,9178.553681
3602.388487,383.047749,-0.000000,9252.574275
3602.388801,153.219100,-74.020594,9326.594869
3602.389115,153.219100,-444.123565,9326.594869
3602.389429,612.876398,-148.041188,9178.553681
3602.389743,153.219100,-0.000000,9548.656652
3602.390057,229.828649,222.061783,9326.594869
3602.390371,229.828649,296.082377,9622.677246
3602.390685,0.000000,-0.000000,9474.636058
3602.390999,0.000000,-0.000000,9400.615463
3602.391313,306.438199,-0.000000,9622.677246
3602.391628,0.000000,-0.000000,9696.697840
3602.391942,76.609550,-0.000000,9918.759623
3602.392256,383.047749,-222.061783,9844.739029
3602.392570,0.000000,-0.000000,9770.718434
3602.392884,76.609550,222.061783,9844.739029
3602.393198,76.609550,296.082377,9992.780217
3602.393512,0.000000,-0.000000,9696.697840
3602.393826,0.000000,-0.000000,9918.759623
3602.394140,0.000000,370.102971,10066.800811
3602.394454,0.000000,148.041188,9918.759623
3602.394768,0.000000,370.102971,10066.800811
3602.395082,153.219100,-0.000000,9770.718434
3602.395396,76.609550,148.041188,9548.656652
3602.395711,0.000000,666.185348,10140.821405
3602.396025,0.000000,518.144159,10066.800811
3602.396339,229.828649,592.164754,9696.697840
3602.396653,76.609550,592.164754,9992.780217
3602.396967,0.000000,222.061783,9918.759623
3602.397281,0.000000,740.205942,9770.718434
3602.397595,76.609550,592.164754,9770.718434
3602.397909,153.219100,370.102971,10362.883188
3602.398223,76.609550,370.102971,10288.862594
3602.398537,306.438199,296.082377,9474.636058
3602.398851,229.828649,592.164754,9770.718434
3602.399165,153.219100,740.205942,9992.780217
3602.399480,612.876398,740.205942,9770.718434
3602.399794,76.609550,296.082377,9474.636058
3602.400108,229.828649,962.267725,9474.636058
3602.400422,229.828649,296.082377,9696.697840
3602.400736,229.828649,592.164754,9622.677246
3602.401050,459.657299,592.164754,9622.677246
3602.401364,383.047749,592.164754,9696.697840
3602.401678,459.657299,222.061783,9400.615463
3602.401992,383.047749,518.144159,9474.636058
3602.402306,229.828649,370.102971,9622.677246
3602.402620,153.219100,222.061783,9844.739029
3602.402934,153.219100,296.082377,9474.636058
3602.403248,0.000000,370.102971,9548.656652
3602.403563,306.438199,296.082377,9474.636058
3602.403877,153.219100,296.082377,9548.656652
3602.404191,76.609550,370.102971,9622.677246
3602.404505,153.219100,-74.020594,9474.636058
3602.404819,0.000000,-0.000000,9474.636058
3602.405133,153.219100,-0.000000,9474.636058
3602.405447,229.828649,-0.000000,9474.636058
3602.405761,383.047749,-0.000000,9622.677246
3602.406075,0.000000,-296.082377,9178.553681
3602.406389,536.266849,-222.061783,9326.594869
3602.406703,76.609550,-370.102971,9548.656652
3602.407017,76.609550,-518.144159,9696.697840
3602.407332,153.219100,-148.041188,9548.656652
3602.407646,0.000000,-222.061783,9474.636058
3602.407960,76.609550,-444.123565,9622.677246
3602.408274,306.438199,-222.061783,9474.636058
3602.408588,0.000000,-518.144159,9474.636058
3602.408902,153.219100,-296.082377,9622.677246
3602.409216,459.657299,-444.123565,9030.512492
3602.409530,306.438199,-444.123565,9474.636058
3602.409844,76.609550,-74.020594,9918.759623
3602.410158,0.000000,-148.041188,9770.718434
3602.410472,-306.438199,-74.020594,9326.594869
3602.410786,-76.609550,-74.020594,9326.594869
3602.411100,229.828649,-0.000000,9918.759623
3602.411415,0.000000,-0.000000,9622.677246
3602.411729,0.000000,-0.000000,9696.697840
3602.412043,76.609550,-0.000000,9474.636058
3602.412357,0.000000,-0.000000,9178.553681
3602.412671,0.000000,-0.000000,9474.636058
3602.412985,0.000000,-0.000000,9770.718434
3602.413299,229.828649,-0.000000,9696.697840
3602.413613,153.219100,-0.000000,9252.574275
3602.413927,0.000000,-0.000000,9474.636058
3602.414241,0.000000,370.102971,9548.656652
3602.414555,76.609550,296.082377,9474.636058
3602.414869,306.438199,222.061783,9474.636058
3602.415183,229.828649,370.102971,9548.656652
3602.415498,153.219100,444.123565,9770.718434
3602.415812,306.438199,444.123565,8956.491898
3602.416126,306.438199,370.102971,9326.594869
3602.416440,0.000000,222.061783,9918.759623
3602.416754,76.609550,222.061783,9622.677246
3602.417068,766.095498,-0.000000,9696.697840
3602.417382,306.438199,222.061783,9696.697840
3602.417696,383.047749,222.061783,9918.759623
3602.418010,306.438199,592.164754,9696.697840
3602.418324,0.000000,-0.000000,9622.677246
3602.418638,76.609550,-0.000000,10066.800811
3602.418952,76.609550,-0.000000,9622.677246
3602.419267,0.000000,-0.000000,9474.636058
3602.419581,153.219100,-0.000000,9770.718434
3602.419895,76.609550,148.041188,9844.739029
3602.420209,0.000000,-0.000000,9992.780217
3602.420523,306.438199,148.041188,9844.739029
3602.420837,306.438199,296.082377,10140.821405
3602.421151,0.000000,370.102971,9844.739029
3602.421465,689.485948,370.102971,9622.677246
3602.421779,153.219100,148.041188,10066.800811
3602.422093,0.000000,296.082377,10140.821405
3602.422407,153.219100,222.061783,10066.800811
3602.422721,0.000000,148.041188,9696.697840
3602.423035,-459.657299,-0.000000,9992.780217
3602.423350,0.000000,-0.000000,9770.718434
3602.423664,0.000000,148.041188,9770.718434
3602.423978,-153.219100,-0.000000,9548.656652
3602.424292,-306.438199,222.061783,9474.636058
3602.424606,0.000000,370.102971,9252.574275
3602.424920,76.609550,-0.000000,9326.594869
3602.425234,76.609550,370.102971,9474.636058
3602.425548,0.000000,296.082377,9474.636058
3602.425862,0.000000,-0.000000,9252.574275
3602.426176,0.000000,-0.000000,9770.718434
3602.426490,-229.828649,-0.000000,9178.553681
3602.426804,0.000000,148.041188,9474.636058
3602.427118,229.828649,-148.041188,9178.553681
3602.427433,306.438199,-74.020594,9474.636058
3602.427747,-689.485948,-0.000000,9474.636058
3602.428061,-76.609550,-148.041188,9252.574275
3602.428375,76.609550,-0.000000,9770.718434
3602.428689,76.609550,-74.020594,9622.677246
3602.429003,153.219100,-74.020594,9326.594869
3602.429317,76.609550,-296.082377,9252.574275
3602.429631,383.047749,-0.000000,9474.636058
3602.429945,76.609550,-74.020594,9548.656652
3602.430259,0.000000,-148.041188,9326.594869
3602.430573,153.219100,-222.061783,9548.656652
3602.430887,0.000000,-296.082377,9622.677246
3602.431202,0.000000,-296.082377,9548.656652
3602.431516,153.219100,-0.000000,9548.656652
3602.431830,229.828649,-296.082377,9918.759623
3602.432144,0.000000,-0.000000,9770.718434
3602.432458,383.047749,-0.000000,9770.718434
3602.432772,0.000000,-0.000000,9696.697840
3602.433086,229.828649,-74.020594,10066.800811
3602.433400,76.609550,-296.082377,9844.739029
3602.433714,0.000000,-0.000000,9622.677246
3602.434028,0.000000,-0.000000,9622.677246
3602.434342,0.000000,222.061783,9844.739029
3602.434656,76.609550,-0.000000,9622.677246
3602.434970,153.219100,370.102971,9770.718434
3602.435285,-153.219100,518.144159,9400.615463
3602.435599,-306.438199,222.061783,9252.574275
3602.435913,0.000000,-0.000000,9992.780217
3602.436227,0.000000,222.061783,9622.677246
3602.436541,0.000000,222.061783,9622.677246
3602.436855,-306.438199,444.123565,9548.656652
3602.437169,0.000000,370.102971,9474.636058
3602.437483,0.000000,444.123565,9844.739029
3602.437797,-229.828649,370.102971,9326.594869
3602.438111,0.000000,222.061783,9474.636058
3602.438425,229.828649,592.164754,9474.636058
3602.438739,76.609550,740.205942,9178.553681
3602.439053,0.000000,518.144159,9326.594869
3602.439368,383.047749,592.164754,9474.636058
3602.439682,536.266849,-0.000000,9474.636058
3602.439996,76.609550,222.061783,9030.512492
3602.440310,383.047749,444.123565,9474.636058
3602.440624,306.438199,222.061783,9770.718434
3602.440938,306.438199,444.123565,9548.656652
3602.441252,689.485948,-0.000000,9548.656652
3602.441566,229.828649,222.061783,9474.636058
3602.441880,229.828649,148.041188,9622.677246
3602.442194,536.266849,222.061783,9622.677246
3602.442508,153.219100,370.102971,10066.800811
3602.442822,306.438199,-0.000000,9918.759623
3602.443137,459.657299,-0.000000,9548.656652
3602.443451,153.219100,-0.000000,9474.636058
3602.443765,0.000000,-148.041188,10140.821405
3602.444079,153.219100,-0.000000,10140.821405
3602.444393,153.219100,-74.020594,9770.718434
3602.444707,76.609550,-0.000000,9770.718434
3602.445021,0.000000,-74.020594,9696.697840
3602.445335,76.609550,-0.000000,9326.594869
3602.445649,306.438199,148.041188,9844.739029
3602.445963,153.219100,-0.000000,9844.739029
3602.446277,0.000000,-0.000000,9474.636058
3602.446591,0.000000,-74.020594,9548.656652
3602.446905,0.000000,-0.000000,9918.759623
3602.447220,0.000000,-0.000000,9474.636058
3602.447534,-766.095498,-148.041188,9770.718434
3602.447848,0.000000,-0.000000,9622.677246
3602.448162,153.219100,-74.020594,9770.718434
3602.448476,153.219100,148.041188,9548.656652
3602.448790,-306.438199,222.061783,8882.471304
3602.449104,0.000000,222.061783,9474.636058
3602.449418,76.609550,-0.000000,9474.636058
3602.449732,153.219100,-0.000000,9474.636058
3602.450046,229.828649,-0.000000,9400.615463
3602.450360,0.000000,148.041188,9400.615463
3602.450674,229.828649,-0.000000,9252.574275
3602.450988,612.876398,222.061783,9326.594869
3602.451303,229.828649,-0.000000,9474.636058
3602.451617,229.828649,-0.000000,9252.574275
3602.451931,459.657299,-0.000000,9178.553681
3602.452245,153.219100,-0.000000,9474.636058
3602.452559,383.047749,-74.020594,9474.636058
3602.452873,459.657299,-0.000000,9696.697840
3602.453187,153.219100,-0.000000,9622.677246
3602.453501,153.219100,-0.000000,9548.656652
3602.453815,459.657299,-74.020594,9548.656652
3602.454129,153.219100,-0.000000,9474.636058
3602.454443,459.657299,148.041188,9696.697840
3602.454757,383.047749,-0.000000,9992.780217
3602.455072,459.657299,-222.061783,9770.718434
3602.455386,0.000000,-0.000000,9770.718434
3602.455700,306.438199,-0.000000,9992.780217
3602.456014,76.609550,222.061783,9918.759623
3602.456328,76.609550,-0.000000,9696.697840
3602.456642,0.000000,-0.000000,9918.759623
3602.456956,306.438199,-0.000000,9918.759623
3602.457270,229.828649,-0.000000,9844.739029
3602.457584,-153.219100,-0.000000,9770.718434
3602.457898,0.000000,-0.000000,9992.780217
3602.458212,0.000000,-0.000000,10066.800811
3602.458526,0.000000,222.061783,9622.677246
3602.458840,153.219100,-74.020594,9548.656652
3602.459155,76.609550,-0.000000,9770.718434
3602.459469,0.000000,222.061783,9474.636058
3602.459783,-612.876398,444.123565,9474.636058
3602.460097,0.000000,370.102971,9548.656652
3602.460411,0.000000,222.061783,9474.636058
3602.460725,229.828649,148.041188,9474.636058
3602.461039,153.219100,222.061783,9474.636058
3602.461353,612.876398,222.061783,9474.636058
3602.461667,153.219100,666.185348,9474.636058
3602.461981,383.047749,222.061783,9474.636058
3602.462295,153.219100,-0.000000,9474.636058
3602.462609,0.000000,148.041188,9400.615463
3602.462924,229.828649,-0.000000,9400.615463
3602.463238,76.609550,-0.000000,9252.574275
3602.463552,153.219100,-74.020594,9474.636058
3602.463866,383.047749,222.061783,9548.656652
3602.464180,229.828649,-0.000000,9548.656652
3602.464494,383.047749,-0.000000,9622.677246
3602.464808,153.219100,-0.000000,9474.636058
3602.465122,153.219100,-0.000000,9696.697840
3602.465436,153.219100,-0.000000,9844.739029
3602.465750,76.609550,-0.000000,9474.636058
3602.466064,306.438199,-0.000000,9326.594869
3602.466378,76.609550,148.041188,9844.739029
3602.466692,383.047749,-0.000000,9918.759623
3602.467007,76.609550,-0.000000,9992.780217
3602.467321,0.000000,-0.000000,9696.697840
3602.467635,76.609550,-74.020594,9770.718434
3602.467949,0.000000,222.061783,9918.759623
3602.468263,0.000000,-0.000000,9770.718434
3602.468577,0.000000,-0.000000,9770.718434
3602.468891,0.000000,-0.000000,9622.677246
3602.469205,76.609550,-0.000000,9696.697840
3602.469519,153.219100,-0.000000,9326.594869
3602.469833,383.047749,222.061783,9622.677246
3602.470147,153.219100,-0.000000,9844.739029
3602.470461,76.609550,-74.020594,9252.574275
3602.470775,229.828649,148.041188,9252.574275
3602.471090,153.219100,-74.020594,9252.574275
3602.471404,229.828649,-0.000000,9474.636058
3602.471718,229.828649,370.102971,9474.636058
3602.472032,153.219100,-0.000000,9474.636058
3602.472346,0.000000,-0.000000,9696.697840
3602.472660,0.000000,148.041188,9474.636058
3602.472974,76.609550,148.041188,9474.636058
3602.473288,0.000000,-0.000000,9474.636058
3602.473602,0.000000,-0.000000,9400.615463
3602.473916,0.000000,-74.020594,9252.574275
3602.474230,76.609550,-0.000000,9548.656652
3602.474544,76.609550,-0.000000,9474.636058
3602.474859,0.000000,296.082377,9252.574275
3602.475173,383.047749,296.082377,9474.636058
3602.475487,536.266849,296.082377,9770.718434
3602.475801,689.485948,222.061783,9474.636058
3602.476115,536.266849,444.123565,9622.677246
3602.476429,0.000000,222.061783,9844.739029
3602.476743,0.000000,-0.000000,9400.615463
3602.477057,842.705048,-0.000000,9474.636058
3602.477371,153.219100,-0.000000,9696.697840
3602.477685,0.000000,-0.000000,10066.800811
3602.477999,0.000000,222.061783,9622.677246
3602.478313,0.000000,296.082377,9400.615463
3602.478627,383.047749,-0.000000,10066.800811
3602.478942,153.219100,370.102971,9770.718434
3602.479256,0.000000,222.061783,9622.677246
3602.479570,0.000000,-0.000000,9770.718434
3602.479884,0.000000,370.102971,9770.718434
3602.480198,0.000000,-0.000000,9770.718434
3602.480512,153.219100,-0.000000,9548.656652
3602.480826,0.000000,370.102971,9918.759623
3602.481140,0.000000,222.061783,9622.677246
3602.481454,0.000000,296.082377,9474.636058
3602.481768,229.828649,296.082377,9622.677246
3602.482082,0.000000,-0.000000,9622.677246
3602.482396,0.000000,74.020594,9696.697840
3602.482710,0.000000,-0.000000,9696.697840
3602.483025,76.609550,296.082377,9696.697840
3602.483339,536.266849,-0.000000,9770.718434
3602.483653,383.047749,148.041188,9548.656652
3602.483967,383.047749,296.082377,9474.636058
3602.484281,229.828649,518.144159,9548.656652
3602.484595,383.047749,444.123565,9474.636058
3602.484909,306.438199,222.061783,9474.636058
3602.485223,842.705048,-0.000000,10066.800811
3602.485537,383.047749,-0.000000,9696.697840
3602.485851,306.438199,222.061783,9622.677246
3602.486165,766.095498,518.144159,9696.697840
3602.486479,1072.533697,518.144159,9992.780217
3602.486793,1072.533697,592.164754,9770.718434
3602.487107,919.314598,814.226536,8956.491898
3602.487422,842.705048,666.185348,8808.450710
3602.487736,919.314598,592.164754,9326.594869
3602.488050,612.876398,518.144159,9622.677246
3602.488364,689.485948,-0.000000,9696.697840
3602.488678,766.095498,-0.000000,9770.718434
3602.488992,689.485948,370.102971,10214.842000
3602.489306,919.314598,222.061783,9918.759623
3602.489620,919.314598,592.164754,10214.842000
3602.489934,1072.533697,814.226536,9992.780217
3602.490248,1455.581446,1036.288319,9696.697840
3602.490562,2068.457845,1406.391290,9474.636058
3602.490876,2604.724693,1480.411884,9030.512492
3602.491190,2834.553343,1998.556043,9178.553681
3602.491504,3217.601092,1628.453072,8660.409521
3602.491819,2834.553343,1850.514855,8660.409521
3602.492133,2834.553343,1924.535449,8734.430116
3602.492447,2528.115143,1998.556043,8512.368333
3602.492761,2221.676944,2072.576638,8586.388927
3602.493075,2145.067394,1850.514855,8364.327145
3602.493389,1838.629195,1924.535449,8660.409521
3602.493703,1455.581446,2072.576638,9030.512492
3602.494017,842.705048,1998.556043,9696.697840
3602.494331,1072.533697,1924.535449,9770.718434
3602.494645,612.876398,1998.556043,10288.862594
3602.494959,1225.752797,2960.823768,10066.800811
3602.495273,1225.752797,2812.782580,9474.636058
3602.495587,2068.457845,2886.803174,9696.697840
3602.495902,2068.457845,2738.761985,9844.739029
3602.496216,2145.067394,3256.906145,9770.718434
3602.496530,1378.971896,3627.009116,9622.677246
3602.496844,995.924147,3404.947333,9696.697840
3602.497158,919.314598,3330.926739,10288.862594
3602.497472,153.219100,2738.761985,11325.150913
3602.497786,76.609550,2516.700203,10807.006753
3602.498100,0.000000,1850.514855,11103.089130
3602.498414,-153.219100,1554.432478,11547.212695
3602.498728,383.047749,1776.494261,11473.192101
3602.499042,995.924147,1184.329507,10510.924376
3602.499356,1378.971896,2146.597232,10066.800811
3602.499670,2068.457845,2294.638420,9622.677246
3602.499984,2221.676944,2664.741391,8882.471304
3602.500299,2221.676944,2664.741391,9030.512492
3602.500613,1991.848295,1850.514855,8808.450710
3602.500927,1149.143247,2294.638420,9178.553681
3602.501241,612.876398,1776.494261,9696.697840
3602.501555,-229.828649,962.267725,10066.800811
3602.501869,-842.705048,-0.000000,10584.944971
3602.502183,-995.924147,-666.185348,10510.924376
3602.502497,-1455.581446,-962.267725,11103.089130
3602.502811,-1302.362347,-814.226536,11177.109724
3602.503125,-1072.533697,-370.102971,10732.986159
3602.503439,-689.485948,-0.000000,10732.986159
3602.503753,0.000000,-0.000000,9918.759623
3602.504067,0.000000,-0.000000,9696.697840
3602.504381,76.609550,518.144159,9104.533087
3602.504696,229.828649,296.082377,9400.615463
3602.505010,612.876398,222.061783,9326.594869
3602.505324,459.657299,-148.041188,9178.553681
3602.505638,536.266849,-222.061783,8956.491898
3602.505952,536.266849,-518.144159,8512.368333
3602.506266,689.485948,-592.164754,8438.347739
3602.506580,919.314598,-1036.288319,8660.409521
3602.506894,612.876398,-814.226536,8216.285956
3602.507208,229.828649,-1110.308913,7920.203579
3602.507522,229.828649,-1406.391290,7698.141797
3602.507836,0.000000,-1554.432478,8068.244768
3602.508150,-229.828649,-1850.514855,9252.574275
3602.508464,-1072.533697,-1776.494261,9252.574275
3602.508779,-1378.971896,-2220.617826,9844.739029
3602.509093,-995.924147,-1554.432478,10362.883188
3602.509407,-536.266849,-888.247130,10510.924376
3602.509721,-153.219100,-148.041188,10362.883188
3602.510035,689.485948,-0.000000,10066.800811
3602.510349,1072.533697,-0.000000,9548.656652
3602.510663,1685.410096,-0.000000,8808.450710
3602.510977,2068.457845,148.041188,8290.306550
3602.511291,1762.019645,-0.000000,8512.368333
3602.511605,1225.752797,-222.061783,8216.285956
3602.511919,919.314598,-814.226536,8142.265362
3602.512233,0.000000,-1406.391290,8734.430116
3602.512547,-842.705048,-2368.659014,9400.615463
3602.512861,-1455.581446,-2442.679609,9474.636058
3602.513176,-1991.848295,-2812.782580,9992.780217
3602.513490,-1838.629195,-2664.741391,10584.944971
3602.513804,-1838.629195,-2368.659014,10584.944971
3602.514118,-1532.190996,-1628.453072,10732.986159
3602.514432,-689.485948,-962.267725,10510.924376
3602.514746,0.000000,-0.000000,10140.821405
3602.515060,459.657299,518.144159,9474.636058
3602.515374,919.314598,1480.411884,9622.677246
3602.515688,1225.752797,1332.370696,10140.821405
3602.516002,919.314598,962.267725,9770.718434
3602.516316,842.705048,1110.308913,9770.718434
3602.516630,689.485948,666.185348,9770.718434
3602.516944,919.314598,148.041188,9844.739029
3602.517258,995.924147,-0.000000,9770.718434
3602.517573,459.657299,-74.020594,9326.594869
3602.517887,0.000000,-148.041188,8882.471304
3602.518201,76.609550,-74.020594,8586.388927
3602.518515,0.000000,-74.020594,8438.347739
3602.518829,536.266849,-666.185348,8734.430116
3602.519143,-306.438199,-74.020594,9104.533087
3602.519457,-536.266849,-0.000000,9548.656652
3602.519771,-689.485948,444.123565,10288.862594
3602.520085,0.000000,1184.329507,10955.047942
3602.520399,0.000000,1776.494261,10881.027347
3602.520713,612.876398,2368.659014,10955.047942
3602.521027,995.924147,2516.700203,10510.924376
3602.521341,1455.581446,2812.782580,10214.842000
3602.521656,1532.190996,3034.844362,9622.677246
3602.521970,1302.362347,2442.679609,9178.553681
3602.522284,1302.362347,2368.659014,9252.574275
3602.522598,689.485948,1702.473667,9326.594869
3602.522912,383.047749,740.205942,9104.533087
3602.523226,-229.828649,296.082377,9622.677246
3602.523540,-995.924147,-296.082377,9844.739029
3602.523854,-1378.971896,-666.185348,9992.780217
3602.524168,-1378.971896,-666.185348,10066.800811
3602.524482,-1149.143247,-0.000000,10510.924376
3602.524796,-766.095498,-0.000000,10362.883188
3602.525110,-536.266849,444.123565,10288.862594
3602.525424,306.438199,1332.370696,10362.883188
3602.525738,689.485948,1850.514855,9474.636058
3602.526053,919.314598,2072.576638,9548.656652
3602.526367,1608.800546,1998.556043,9992.780217
3602.526681,1378.971896,1850.514855,9992.780217
3602.526995,1149.143247,1184.329507,10066.800811
3602.527309,842.705048,962.267725,10140.821405
3602.527623,612.876398,444.123565,10288.862594
3602.527937,536.266849,296.082377,10362.883188
3602.528251,0.000000,-74.020594,9770.718434
3602.528565,0.000000,-370.102971,9104.533087
3602.528879,76.609550,-296.082377,8438.347739
3602.529193,-229.828649,-296.082377,8882.471304
3602.529507,76.609550,-740.205942,8734.430116
3602.529821,0.000000,-814.226536,9030.512492
3602.530135,-383.047749,-814.226536,8882.471304
3602.530450,-536.266849,-592.164754,9326.594869
3602.530764,-229.828649,-370.102971,9770.718434
3602.531078,0.000000,222.061783,10584.944971
3602.531392,153.219100,518.144159,10584.944971
3602.531706,306.438199,814.226536,10362.883188
3602.532020,76.609550,1184.329507,10214.842000
3602.532334,995.924147,888.247130,9918.759623
3602.532648,689.485948,1110.308913,9844.739029
3602.532962,919.314598,666.185348,9104.533087
3602.533276,766.095498,296.082377,8586.388927
3602.533590,766.095498,-296.082377,8660.409521
3602.533904,383.047749,-1110.308913,8734.430116
3602.534218,-383.047749,-1110.308913,8660.409521
3602.534533,-842.705048,-1628.453072,8956.491898
3602.534847,-842.705048,-1924.535449,9252.574275
3602.535161,-612.876398,-1998.556043,9770.718434
3602.535475,-1378.971896,-1924.535449,9918.759623
3602.535789,-1455.581446,-1702.473667,9770.718434
3602.536103,-689.485948,-962.267725,10214.842000
3602.536417,-383.047749,-296.082377,10066.800811
3602.536731,153.219100,296.082377,10066.800811
3602.537045,766.095498,518.144159,9622.677246
3602.537359,995.924147,222.061783,9918.759623
3602.537673,919.314598,518.144159,10066.800811
3602.537987,842.705048,-0.000000,9548.656652
3602.538301,689.485948,-0.000000,9918.759623
3602.538615,995.924147,-444.123565,9548.656652
3602.538930,536.266849,-444.123565,9622.677246
3602.539244,0.000000,-518.144159,9178.553681
3602.539558,-306.438199,-296.082377,8586.388927
3602.539872,-612.876398,-814.226536,9030.512492
3602.540186,-612.876398,-1406.391290,9030.512492
3602.540500,-689.485948,-1554.432478,9178.553681
3602.540814,-995.924147,-1406.391290,9326.594869
3602.541128,-766.095498,-1406.391290,9474.636058
3602.541442,-459.657299,-888.247130,9992.780217
3602.541756,-536.266849,-370.102971,10584.944971
3602.542070,-536.266849,296.082377,10584.944971
3602.542384,76.609550,1036.288319,9918.759623
3602.542698,383.047749,1554.432478,9844.739029
3602.543013,1378.971896,1776.494261,10066.800811
3602.543327,1225.752797,1850.514855,9622.677246
3602.543641,1302.362347,1628.453072,9178.553681
3602.543955,995.924147,1184.329507,8512.368333
3602.544269,919.314598,888.247130,8512.368333
3602.544583,766.095498,592.164754,8586.388927
3602.544897,689.485948,-74.020594,8586.388927
3602.545211,-306.438199,-148.041188,8734.430116
3602.545525,-612.876398,-222.061783,9030.512492
3602.545839,-766.095498,-444.123565,9548.656652
3602.546153,-842.705048,-444.123565,9622.677246
3602.546467,-995.924147,-444.123565,9918.759623
3602.546781,-766.095498,148.041188,10066.800811
3602.547095,-459.657299,1036.288319,10140.821405
3602.547410,229.828649,1480.411884,10362.883188
3602.547724,689.485948,1850.514855,9696.697840
3602.548038,1455.581446,2368.659014,9474.636058
3602.548352,1302.362347,2368.659014,9770.718434
3602.548666,1302.362347,2146.597232,9696.697840
3602.548980,995.924147,1628.453072,9992.780217
3602.549294,919.314598,1184.329507,10066.800811
3602.549608,612.876398,1110.308913,10066.800811
3602.549922,153.219100,888.247130,10066.800811
3602.550236,-383.047749,518.144159,9400.615463
3602.550550,-612.876398,296.082377,9548.656652
3602.550864,-306.438199,-296.082377,9548.656652
3602.551178,-229.828649,-296.082377,9548.656652
3602.551492,-612.876398,-444.123565,9844.739029
3602.551807,-383.047749,-370.102971,9474.636058
3602.552121,-306.438199,-148.041188,10140.821405
3602.552435,-842.705048,-74.020594,11029.068536
3602.552749,153.219100,370.102971,10807.006753
3602.553063,383.047749,1258.350101,10362.883188
3602.553377,842.705048,1702.473667,10288.862594
3602.553691,153.219100,1702.473667,10140.821405
3602.554005,919.314598,1702.473667,10288.862594
3602.554319,1302.362347,1702.473667,9770.718434
3602.554633,1149.143247,1258.350101,9400.615463
3602.554947,919.314598,740.205942,9104.533087
3602.555261,766.095498,296.082377,8660.409521
3602.555575,536.266849,-0.000000,9252.574275
3602.555890,0.000000,-444.123565,8734.430116
3602.556204,-229.828649,-1036.288319,8734.430116
3602.556518,-612.876398,-1036.288319,9178.553681
3602.556832,-229.828649,-1406.391290,9326.594869
3602.557146,-689.485948,-1110.308913,9918.759623
3602.557460,-995.924147,-888.247130,9696.697840
3602.557774,-766.095498,-740.205942,9844.739029
3602.558088,0.000000,-74.020594,9844.739029
3602.558402,0.000000,444.123565,9770.718434
3602.558716,153.219100,666.185348,9252.574275
3602.559030,612.876398,814.226536,9252.574275
3602.559344,536.266849,518.144159,9474.636058
3602.559658,842.705048,296.082377,9474.636058
3602.559972,536.266849,-0.000000,9548.656652
3602.560287,536.266849,-592.164754,9696.697840
3602.560601,306.438199,-666.185348,9696.697840
3602.560915,0.000000,-518.144159,9400.615463
3602.561229,-612.876398,-814.226536,9326.594869
3602.561543,0.000000,-814.226536,8734.430116
3602.561857,-536.266849,-1332.370696,9030.512492
3602.562171,-536.266849,-1406.391290,9104.533087
3602.562485,-536.266849,-1702.473667,9252.574275
3602.562799,-689.485948,-1702.473667,9400.615463
3602.563113,-766.095498,-1776.494261,9844.739029
3602.563427,0.000000,-1110.308913,10140.821405
3602.563741,153.219100,-592.164754,10362.883188
3602.564055,383.047749,148.041188,10066.800811
3602.564369,536.266849,296.082377,9992.780217
3602.564684,919.314598,518.144159,9622.677246
3602.564998,995.924147,666.185348,9770.718434
3602.565312,842.705048,444.123565,8956.491898
3602.565626,1149.143247,444.123565,9252.574275
3602.565940,1072.533697,370.102971,8660.409521
3602.566254,1302.362347,-592.164754,9030.512492
3602.566568,229.828649,-518.144159,8586.388927
3602.566882,-76.609550,-444.123565,8882.471304
3602.567196,-76.609550,-666.185348,9030.512492
3602.567510,-383.047749,-888.247130,9178.553681
3602.567824,-459.657299,-1258.350101,9548.656652
3602.568138,-919.314598,-1036.288319,9992.780217
3602.568452,-1072.533697,-666.185348,9844.739029
3602.568767,-689.485948,-0.000000,9622.677246
3602.569081,919.314598,666.185348,9622.677246
3602.569395,536.266849,1184.329507,10140.821405
3602.569709,612.876398,1258.350101,9252.574275
3602.570023,995.924147,1554.432478,9326.594869
3602.570337,1072.533697,1776.494261,9474.636058
3602.570651,1225.752797,1554.432478,9844.739029
3602.570965,1072.533697,1332.370696,10066.800811
3602.571279,689.485948,592.164754,9844.739029
3602.571593,306.438199,518.144159,9770.718434
3602.571907,76.609550,370.102971,9622.677246
3602.572221,-153.219100,518.144159,9252.574275
3602.572535,-536.266849,148.041188,9474.636058
3602.572849,-306.438199,-0.000000,9400.615463
3602.573164,-229.828649,-296.082377,9548.656652
3602.573478,-76.609550,-74.020594,9696.697840
3602.573792,-153.219100,-222.061783,10066.800811
3602.574106,-306.438199,-74.020594,10362.883188
3602.574420,0.000000,444.123565,10658.965565
3602.574734,76.609550,962.267725,10881.027347
3602.575048,919.314598,1480.411884,10732.986159
3602.575362,995.924147,1850.514855,11103.089130
3602.575676,1072.533697,1998.556043,10066.800811
3602.575990,1072.533697,2368.659014,9696.697840
3602.576304,995.924147,1702.473667,9548.656652
3602.576618,1302.362347,1258.350101,9326.594869
3602.576932,1225.752797,814.226536,9474.636058
3602.577246,536.266849,518.144159,8882.471304
3602.577561,229.828649,-0.000000,8660.409521
3602.577875,-229.828649,-148.041188,8808.450710
3602.578189,-689.485948,-740.205942,9474.636058
3602.578503,-842.705048,-814.226536,9548.656652
3602.578817,-1072.533697,-1036.288319,9918.759623
3602.579131,-1072.533697,-814.226536,9844.739029
3602.579445,-919.314598,-148.041188,9992.780217
3602.579759,-383.047749,592.164754,9992.780217
3602.580073,-153.219100,888.247130,10066.800811
3602.580387,0.000000,1406.391290,9770.718434
3602.580702,612.876398,1406.391290,9474.636058
3602.581017,766.095498,1110.308913,9474.636058
3602.581331,1072.533697,1184.329507,9474.636058
3602.581645,995.924147,888.247130,9696.697840
3602.581959,995.924147,296.082377,9622.677246
3602.582273,919.314598,-74.020594,9696.697840
3602.582587,536.266849,222.061783,9474.636058
3602.582901,76.609550,-74.020594,9030.512492
3602.583216,0.000000,-518.144159,8882.471304
3602.583530,0.000000,-740.205942,8956.491898
3602.583844,-229.828649,-962.267725,9030.512492
3602.584158,-153.219100,-1850.514855,9104.533087
3602.584472,-612.876398,-1110.308913,9474.636058
3602.584786,-459.657299,-962.267725,9918.759623
3602.585100,-306.438199,-814.226536,10214.842000
3602.585414,306.438199,-222.061783,10436.903782
3602.585729,536.266849,-296.082377,10066.800811
3602.586043,536.266849,296.082377,10140.821405
3602.586357,459.657299,518.144159,10362.883188
3602.586671,536.266849,740.205942,9918.759623
3602.586985,689.485948,814.226536,9622.677246
3602.587299,689.485948,-0.000000,9178.553681
3602.587613,995.924147,-0.000000,9178.553681
3602.587927,612.876398,-296.082377,9326.594869
3602.588242,306.438199,-518.144159,9104.533087
3602.588556,-459.657299,-1184.329507,8512.368333
3602.588870,-306.438199,-1258.350101,8438.347739
3602.589184,-612.876398,-1702.473667,9326.594869
3602.589498,-842.705048,-1776.494261,9622.677246
3602.589812,-689.485948,-1628.453072,9548.656652
3602.590126,-1149.143247,-1258.350101,9770.718434
3602.590440,-766.095498,-222.061783,10140.821405
3602.590755,-306.438199,-0.000000,9696.697840
3602.591069,0.000000,518.144159,9770.718434
3602.591383,306.438199,888.247130,9474.636058
3602.591697,766.095498,1184.329507,9548.656652
3602.592011,1072.533697,1036.288319,9474.636058
3602.592325,995.924147,1036.288319,9992.780217
3602.592639,919.314598,740.205942,9844.739029
3602.592953,612.876398,444.123565,9474.636058
3602.593268,459.657299,-0.000000,9326.594869
3602.593582,306.438199,222.061783,9326.594869
3602.593896,0.000000,-0.000000,9178.553681
3602.594210,-306.438199,-0.000000,8808.450710
3602.594524,-383.047749,-0.000000,8808.450710
3602.594838,-229.828649,-666.185348,8882.471304
3602.595152,-229.828649,-592.164754,9104.533087
3602.595466,-1225.752797,-814.226536,9696.697840
3602.595781,-766.095498,-444.123565,10510.924376
3602.596095,-306.438199,-0.000000,10510.924376
3602.596409,0.000000,518.144159,10658.965565
3602.596723,383.047749,1184.329507,10955.047942
3602.597037,306.438199,1554.432478,10584.944971
3602.597351,766.095498,1554.432478,10362.883188
3602.597665,1072.533697,1924.535449,9918.759623
3602.597979,1455.581446,1702.473667,9474.636058
3602.598294,1532.190996,814.226536,9104.533087
3602.598608,1149.143247,1110.308913,9178.553681
3602.598922,1225.752797,962.267725,9400.615463
3602.599236,229.828649,444.123565,8808.450710
3602.599550,0.000000,-0.000000,8808.450710
3602.599864,0.000000,-740.205942,9178.553681
3602.600178,-842.705048,-666.185348,9622.677246
3602.600492,-689.485948,-592.164754,10214.842000
3602.600807,-1302.362347,-592.164754,9992.780217
3602.601121,-1149.143247,-518.144159,10436.903782
3602.601435,-919.314598,444.123565,10362.883188
3602.601749,-153.219100,1184.329507,10214.842000
3602.602063,153.219100,1628.453072,9992.780217
3602.602377,536.266849,1702.473667,9696.697840
3602.602691,1072.533697,1998.556043,9696.697840
3602.603005,1149.143247,1702.473667,9696.697840
3602.603320,995.924147,1332.370696,9770.718434
3602.603634,766.095498,1258.350101,9770.718434
3602.603948,842.705048,814.226536,9622.677246
3602.604262,229.828649,666.185348,10066.800811
3602.604576,76.609550,814.226536,9844.739029
3602.604890,-459.657299,-0.000000,9474.636058
3602.605204,-459.657299,-148.041188,8512.368333
3602.605518,-383.047749,-666.185348,8660.409521
3602.605833,-459.657299,-666.185348,9474.636058
3602.606147,-383.047749,-1110.308913,8956.491898
3602.606461,-459.657299,-1184.329507,9992.780217
3602.606775,-459.657299,-518.144159,9770.718434
3602.607089,0.000000,-222.061783,9474.636058
3602.607403,383.047749,370.102971,10510.924376
3602.607717,536.266849,518.144159,9992.780217
3602.608032,766.095498,814.226536,10140.821405
3602.608346,459.657299,814.226536,9548.656652
3602.608660,766.095498,740.205942,9474.636058
3602.608974,842.705048,370.102971,8956.491898
3602.609288,919.314598,-0.000000,8956.491898
3602.609602,689.485948,-296.082377,9178.553681
3602.609916,459.657299,-666.185348,9030.512492
3602.610230,0.000000,-814.226536,8956.491898
3602.610545,-229.828649,-1332.370696,8586.388927
3602.610859,-612.876398,-1480.411884,9474.636058
3602.611173,-612.876398,-1998.556043,9474.636058
3602.611487,-842.705048,-1776.494261,9474.636058
3602.611801,-766.095498,-1554.432478,9770.718434
3602.612115,-689.485948,-962.267725,9918.759623
3602.612429,-459.657299,-444.123565,9992.780217
3602.612743,76.609550,-0.000000,9844.739029
3602.613058,383.047749,592.164754,9696.697840
3602.613372,536.266849,740.205942,9622.677246
3602.613686,766.095498,740.205942,9622.677246
3602.614000,766.095498,370.102971,9992.780217
3602.614314,842.705048,592.164754,9992.780217
3602.614628,459.657299,-0.000000,9474.636058
3602.614942,612.876398,-0.000000,9622.677246
3602.615256,0.000000,-222.061783,9474.636058
3602.615571,0.000000,-222.061783,9474.636058
3602.615885,-383.047749,-74.020594,8882.471304
3602.616199,-536.266849,-666.185348,8512.368333
3602.616513,-536.266849,-888.247130,8956.491898
3602.616827,-612.876398,-962.267725,9474.636058
3602.617141,-766.095498,-1110.308913,9622.677246
3602.617455,-766.095498,-666.185348,9992.780217
3602.617769,-306.438199,-296.082377,10214.842000
3602.618084,-229.828649,148.041188,10288.862594
3602.618398,153.219100,666.185348,10140.821405
3602.618712,306.438199,888.247130,10140.821405
3602.619026,766.095498,1406.391290,9992.780217
3602.619340,1072.533697,1628.453072,9622.677246
3602.619654,1455.581446,1776.494261,9474.636058
3602.619968,1455.581446,1406.391290,9178.553681
3602.620282,842.705048,740.205942,9178.553681
3602.620597,612.876398,518.144159,9252.574275
3602.620911,459.657299,222.061783,9104.533087
3602.621225,0.000000,-74.020594,9400.615463
3602.621539,0.000000,-370.102971,9252.574275
3602.621853,-459.657299,-888.247130,9548.656652
3602.622167,-766.095498,-888.247130,10066.800811
3602.622481,-919.314598,-814.226536,10140.821405
3602.622795,-919.314598,-222.061783,10288.862594
3602.623110,-842.705048,444.123565,10436.903782
3602.623424,0.000000,962.267725,10436.903782
3602.623738,306.438199,1480.411884,9770.718434
3602.624052,689.485948,1702.473667,9770.718434
3602.624366,1225.752797,1850.514855,9696.697840
3602.624680,1149.143247,1850.514855,9844.739029
3602.624994,1149.143247,1554.432478,9992.780217
3602.625308,766.095498,1110.308913,9844.739029
3602.625623,766.095498,518.144159,9548.656652
3602.625937,459.657299,222.061783,9474.636058
3602.626251,-153.219100,-0.000000,10140.821405
3602.626565,0.000000,296.082377,9400.615463
3602.626879,-459.657299,-0.000000,9178.553681
3602.627193,-383.047749,-296.082377,9030.512492
3602.627507,-229.828649,-814.226536,9178.553681
3602.627821,-612.876398,-740.205942,9252.574275
3602.628136,-306.438199,-444.123565,9548.656652
3602.628450,0.000000,-296.082377,10214.842000
3602.628764,76.609550,-0.000000,10140.821405
3602.629078,-383.047749,740.205942,10436.903782
3602.629392,459.657299,1036.288319,10140.821405
3602.629706,229.828649,1332.370696,10140.821405
3602.630020,459.657299,1628.453072,9548.656652
3602.630335,995.924147,1184.329507,9696.697840
3602.630649,995.924147,962.267725,9696.697840
3602.630963,995.924147,444.123565,9178.553681
3602.631277,536.266849,222.061783,8956.491898
3602.631591,383.047749,-0.000000,9104.533087
3602.631905,383.047749,-370.102971,8734.430116
3602.632219,-306.438199,-962.267725,8438.347739
3602.632533,-383.047749,-1480.411884,9104.533087
3602.632848,-612.876398,-1110.308913,8956.491898
3602.633162,-459.657299,-1258.350101,9178.553681
3602.633476,-766.095498,-1110.308913,9696.697840
3602.633790,-383.047749,-814.226536,10066.800811
3602.634104,-612.876398,-666.185348,9770.718434
3602.634418,0.000000,296.082377,9918.759623
3602.634732,229.828649,888.247130,9844.739029
3602.635046,612.876398,1036.288319,9844.739029
3602.635361,689.485948,666.185348,9844.739029
3602.635675,995.924147,814.226536,9326.594869
3602.635989,1225.752797,814.226536,9992.780217
3602.636303,689.485948,222.061783,9474.636058
3602.636617,229.828649,-0.000000,9252.574275
3602.636931,612.876398,-222.061783,10140.821405
3602.637245,0.000000,-370.102971,9400.615463
3602.637559,-229.828649,-222.061783,8956.491898
3602.637874,-153.219100,-518.144159,8660.409521
3602.638188,-229.828649,-814.226536,9178.553681
3602.638502,-306.438199,-962.267725,9326.594869
3602.638816,-383.047749,-814.226536,9252.574275
3602.639130,-459.657299,-1036.288319,9918.759623
3602.639444,-306.438199,-740.205942,10362.883188
3602.639758,153.219100,-74.020594,10584.944971
3602.640072,229.828649,222.061783,10584.944971
3602.640387,383.047749,1036.288319,10288.862594
3602.640701,383.047749,1332.370696,10510.924376
3602.641015,689.485948,1480.411884,9770.718434
3602.641329,995.924147,1332.370696,9622.677246
3602.641643,919.314598,1258.350101,9474.636058
3602.641957,995.924147,1110.308913,8882.471304
3602.642271,1072.533697,740.205942,8808.450710
3602.642585,383.047749,222.061783,8808.450710
3602.642900,229.828649,-0.000000,9104.533087
3602.643214,0.000000,-740.205942,8882.471304
3602.643528,-306.438199,-740.205942,9252.574275
3602.643842,-842.705048,-888.247130,9548.656652
3602.644156,-842.705048,-666.185348,9918.759623
3602.644470,-1072.533697,-518.144159,10658.965565
3602.644784,-766.095498,-370.102971,10140.821405
3602.645098,-459.657299,592.164754,10066.800811
3602.645413,76.609550,1036.288319,9770.718434
3602.645727,689.485948,1480.411884,9844.739029
3602.646041,1455.581446,1776.494261,9918.759623
3602.646355,919.314598,1776.494261,9696.697840
3602.646669,995.924147,1184.329507,9474.636058
3602.646983,1072.533697,1480.411884,9770.718434
3602.647297,842.705048,666.185348,9770.718434
3602.647611,459.657299,222.061783,9400.615463
3602.647926,153.219100,-0.000000,9548.656652
3602.648240,0.000000,-0.000000,9622.677246
3602.648554,-612.876398,-148.041188,9252.574275
3602.648868,-306.438199,-370.102971,9252.574275
3602.649182,-689.485948,-666.185348,9474.636058
3602.649496,-842.705048,-592.164754,9474.636058
3602.649810,-842.705048,-666.185348,9622.677246
3602.650124,-383.047749,-592.164754,9992.780217
3602.650439,0.000000,-518.144159,10732.986159
3602.650753,76.609550,444.123565,10584.944971
3602.651067,536.266849,1110.308913,10214.842000
3602.651381,919.314598,1480.411884,10362.883188
3602.651695,1072.533697,1480.411884,9696.697840
3602.652009,1302.362347,1406.391290,9622.677246
3602.652323,995.924147,1184.329507,9474.636058
3602.652637,995.924147,962.267725,9252.574275
3602.652952,612.876398,518.144159,9030.512492
3602.653266,459.657299,-74.020594,8808.450710
3602.653580,383.047749,-296.082377,8808.450710
3602.653894,0.000000,-592.164754,9178.553681
3602.654208,-229.828649,-740.205942,9030.512492
3602.654522,-689.485948,-814.226536,9252.574275
3602.654836,-766.095498,-740.205942,9474.636058
3602.655151,-919.314598,-962.267725,9400.615463
3602.655465,-689.485948,-592.164754,9770.718434
3602.655779,-689.485948,-148.041188,10214.842000
3602.656093,-229.828649,444.123565,9992.780217
3602.656407,153.219100,1110.308913,9918.759623
3602.656721,689.485948,1480.411884,9992.780217
3602.657035,995.924147,1184.329507,9844.739029
3602.657349,1149.143247,1184.329507,9474.636058
3602.657664,919.314598,888.247130,9474.636058
3602.657978,842.705048,666.185348,10066.800811
3602.658292,842.705048,-0.000000,9474.636058
3602.658606,153.219100,-74.020594,9474.636058
3602.658920,0.000000,-74.020594,9474.636058
3602.659234,-459.657299,-518.144159,8882.471304
3602.659548,-612.876398,-370.102971,8660.409521
3602.659862,-383.047749,-888.247130,9030.512492
3602.660177,-306.438199,-962.267725,9622.677246
3602.660491,-842.705048,-1036.288319,9400.615463
3602.660805,-612.876398,-1628.453072,9474.636058
3602.661119,-459.657299,-1036.288319,10140.821405
3602.661433,0.000000,-148.041188,10584.944971
3602.661747,76.609550,-74.020594,10658.965565
3602.662061,306.438199,592.164754,10288.862594
3602.662375,536.266849,888.247130,9696.697840
3602.662690,689.485948,1332.370696,9696.697840
3602.663004,1149.143247,1332.370696,9474.636058
3602.663318,1302.362347,1036.288319,9400.615463
3602.663632,842.705048,296.082377,8586.388927
3602.663946,689.485948,370.102971,8882.471304
3602.664260,306.438199,-222.061783,8956.491898
3602.664574,306.438199,-518.144159,8882.471304
3602.664888,76.609550,-962.267725,8956.491898
3602.665203,-689.485948,-1110.308913,8882.471304
3602.665517,-306.438199,-962.267725,9992.780217
3602.665831,-919.314598,-1110.308913,9696.697840
3602.666145,-1149.143247,-888.247130,9474.636058
3602.666459,-995.924147,-296.082377,10362.883188
3602.666773,-766.095498,-0.000000,9844.739029
3602.667087,0.000000,592.164754,9992.780217
3602.667401,229.828649,1332.370696,9992.780217
3602.667716,1149.143247,1628.453072,9770.718434
3602.668030,1072.533697,1406.391290,9474.636058
3602.668344,1149.143247,1554.432478,9178.553681
3602.668658,1072.533697,1184.329507,9844.739029
3602.668972,919.314598,518.144159,10140.821405
3602.669286,459.657299,-0.000000,9696.697840
3602.669600,153.219100,-0.000000,9474.636058
3602.669914,153.219100,-0.000000,9252.574275
3602.670229,306.438199,-0.000000,9326.594869
3602.670543,-306.438199,-222.061783,8660.409521
3602.670857,153.219100,-518.144159,9104.533087
3602.671171,-536.266849,-444.123565,9400.615463
3602.671485,0.000000,-296.082377,9252.574275
3602.671799,-383.047749,-592.164754,9770.718434
3602.672113,-306.438199,-74.020594,10584.944971
3602.672427,0.000000,296.082377,10436.903782
3602.672742,459.657299,814.226536,10436.903782
3602.673056,766.095498,1184.329507,10288.862594
3602.673370,919.314598,1850.514855,10214.842000
3602.673684,1072.533697,1850.514855,10066.800811
3602.673998,919.314598,1406.391290,9696.697840
3602.674312,1072.533697,1258.350101,9326.594869
3602.674626,1149.143247,518.144159,9178.553681
3602.674940,766.095498,592.164754,8882.471304
3602.675255,459.657299,-0.000000,8882.471304
3602.675569,76.609550,-0.000000,9030.512492
3602.675883,-229.828649,-444.123565,8586.388927
3602.676197,-229.828649,-962.267725,9400.615463
3602.676511,-1149.143247,-1036.288319,9918.759623
3602.676825,-1455.581446,-814.226536,9844.739029
3602.677139,-1149.143247,-296.082377,9770.718434
3602.677453,-612.876398,-0.000000,10066.800811
3602.677768,-306.438199,296.082377,10584.944971
3602.678082,76.609550,1184.329507,10214.842000
3602.678396,766.095498,1480.411884,9918.759623
3602.678710,536.266849,1702.473667,9696.697840
3602.679024,689.485948,1554.432478,9622.677246
3602.679338,1378.971896,1332.370696,9696.697840
3602.679652,612.876398,740.205942,10140.821405
3602.679967,383.047749,444.123565,10436.903782
3602.680281,76.609550,-148.041188,9622.677246
3602.680595,229.828649,-148.041188,9474.636058
3602.680909,0.000000,-444.123565,9400.615463
3602.681223,-229.828649,-444.123565,9252.574275
3602.681537,0.000000,-592.164754,8882.471304
3602.681851,-153.219100,-740.205942,9252.574275
3602.682166,-153.219100,-740.205942,9400.615463
3602.682480,-306.438199,-1258.350101,9252.574275
3602.682794,-153.219100,-592.164754,10066.800811
3602.683108,0.000000,-518.144159,10288.862594
3602.683422,306.438199,-0.000000,10362.883188
3602.683737,153.219100,666.185348,10584.944971
3602.684051,459.657299,962.267725,10288.862594
3602.684365,612.876398,1110.308913,10140.821405
3602.684679,1072.533697,1110.308913,9474.636058
3602.684993,1225.752797,740.205942,9400.615463
3602.685307,1072.533697,518.144159,9104.533087
3602.685622,1072.533697,444.123565,8512.368333
3602.685936,689.485948,-0.000000,8364.327145
3602.686250,229.828649,-592.164754,8660.409521
3602.686564,0.000000,-814.226536,8660.409521
3602.686878,-459.657299,-1554.432478,8808.450710
3602.687192,-536.266849,-1258.350101,9252.574275
3602.687507,-459.657299,-1184.329507,9844.739029
3602.687821,-1072.533697,-814.226536,9474.636058
3602.688135,-766.095498,-888.247130,9844.739029
3602.688449,-306.438199,-370.102971,9918.759623
3602.688763,-306.438199,444.123565,9696.697840
3602.689078,306.438199,1184.329507,9992.780217
3602.689392,919.314598,1258.350101,9770.718434
3602.689706,536.266849,1332.370696,10140.821405
3602.690020,1149.143247,1480.411884,9474.636058
3602.690334,995.924147,1184.329507,9474.636058
3602.690648,1072.533697,740.205942,10288.862594
3602.690963,306.438199,518.144159,9844.739029
3602.691277,-306.438199,296.082377,10288.862594
3602.691591,0.000000,-0.000000,9548.656652
3602.691905,-229.828649,-0.000000,9252.574275
3602.692219,-383.047749,-222.061783,9030.512492
3602.692534,-383.047749,-518.144159,9030.512492
3602.692848,-383.047749,-518.144159,9622.677246
3602.693162,-383.047749,-444.123565,9326.594869
3602.693476,-536.266849,-444.123565,9770.718434
3602.693790,-459.657299,-296.082377,10362.883188
3602.694104,0.000000,-148.041188,10436.903782
3602.694419,0.000000,814.226536,10732.986159
3602.694733,0.000000,1110.308913,10362.883188
3602.695047,689.485948,1332.370696,10510.924376
3602.695361,689.485948,1480.411884,10288.862594
3602.695675,1149.143247,1480.411884,9696.697840
3602.695990,766.095498,888.247130,9622.677246
3602.696304,689.485948,888.247130,9252.574275
3602.696618,766.095498,518.144159,9326.594869
3602.696932,536.266849,-0.000000,8956.491898
3602.697246,0.000000,-370.102971,8956.491898
3602.697560,-383.047749,-740.205942,8586.388927
3602.697875,-536.266849,-592.164754,9030.512492
3602.698189,-766.095498,-1036.288319,10066.800811
3602.698503,-1225.752797,-1036.288319,9696.697840
3602.698817,-612.876398,-592.164754,9696.697840
3602.699131,-842.705048,-0.000000,10066.800811
3602.699446,-459.657299,518.144159,10066.800811
3602.699760,76.609550,1110.308913,10066.800811
3602.700074,383.047749,1332.370696,9844.739029
3602.700388,842.705048,962.267725,9548.656652
3602.700702,995.924147,1332.370696,9474.636058
3602.701016,1149.143247,1628.453072,9474.636058
3602.701331,1149.143247,962.267725,9622.677246
3602.701645,842.705048,444.123565,9844.739029
3602.701959,459.657299,296.082377,9548.656652
3602.702273,0.000000,-0.000000,9252.574275
3602.702587,0.000000,-0.000000,9474.636058
3602.702901,-306.438199,-296.082377,9030.512492
3602.703216,-153.219100,-444.123565,8882.471304
3602.703530,0.000000,-592.164754,9178.553681
3602.703844,-612.876398,-1036.288319,9400.615463
3602.704158,-459.657299,-888.247130,9844.739029
3602.704472,-459.657299,-592.164754,9918.759623
3602.704787,153.219100,-518.144159,10140.821405
3602.705101,0.000000,-0.000000,10362.883188
3602.705415,76.609550,518.144159,10510.924376
3602.705729,995.924147,666.185348,10584.944971
3602.706043,1072.533697,1110.308913,10362.883188
3602.706357,1225.752797,1258.350101,9622.677246
3602.706672,1149.143247,814.226536,9178.553681
3602.706986,1072.533697,814.226536,9104.533087
3602.707300,919.314598,-0.000000,9104.533087
3602.707614,842.705048,-0.000000,8882.471304
3602.707928,306.438199,-518.144159,8882.471304
3602.708243,-306.438199,-962.267725,8882.471304
3602.708557,-459.657299,-740.205942,9104.533087
3602.708871,-766.095498,-1480.411884,9326.594869
3602.709185,-842.705048,-1258.350101,9992.780217
3602.709499,-919.314598,-1110.308913,10066.800811
3602.709813,-536.266849,-740.205942,10288.862594
3602.710128,-689.485948,-222.061783,10066.800811
3602.710442,-306.438199,444.123565,10436.903782
3602.710756,0.000000,888.247130,9992.780217
3602.711070,689.485948,1258.350101,9548.656652
3602.711384,612.876398,1258.350101,9622.677246
3602.711699,766.095498,1036.288319,9696.697840
3602.712013,689.485948,888.247130,9696.697840
3602.712327,536.266849,814.226536,9992.780217
3602.712641,383.047749,-74.020594,9696.697840
3602.712955,153.219100,-0.000000,9474.636058
3602.713269,229.828649,-222.061783,9400.615463
3602.713584,-536.266849,-74.020594,9104.533087
3602.713898,-459.657299,-296.082377,9030.512492
3602.714212,-536.266849,-962.267725,8956.491898
3602.714526,-383.047749,-814.226536,9030.512492
3602.714840,-383.047749,-962.267725,9178.553681
3602.715155,-612.876398,-740.205942,9474.636058
3602.715469,-689.485948,-740.205942,10288.862594
3602.715783,0.000000,-222.061783,10436.903782
3602.716097,0.000000,296.082377,10288.862594
3602.716411,0.000000,814.226536,10362.883188
3602.716725,536.266849,1184.329507,10436.903782
3602.717040,766.095498,1554.432478,10066.800811
3602.717354,919.314598,1036.288319,9474.636058
3602.717668,919.314598,1184.329507,9326.594869
3602.717982,1149.143247,444.123565,8808.450710
3602.718296,689.485948,222.061783,8808.450710
3602.718611,536.266849,-0.000000,8734.430116
3602.718925,459.657299,-592.164754,8586.388927
3602.719239,0.000000,-518.144159,9030.512492
3602.719553,-383.047749,-888.247130,9030.512492
3602.719867,-612.876398,-1332.370696,9474.636058
3602.720181,-1149.143247,-1184.329507,10140.821405
3602.720496,-459.657299,-444.123565,10066.800811
3602.720810,-459.657299,-148.041188,10066.800811
3602.721124,0.000000,666.185348,10362.883188
3602.721438,383.047749,1036.288319,9918.759623
3602.721752,612.876398,1406.391290,9474.636058
3602.722066,842.705048,1776.494261,9400.615463
3602.722381,995.924147,1850.514855,9770.718434
3602.722695,919.314598,1628.453072,9696.697840
3602.723009,1149.143247,1258.350101,10066.800811
3602.723323,842.705048,592.164754,10066.800811
3602.723637,612.876398,-74.020594,9252.574275
3602.723952,459.657299,296.082377,9770.718434
3602.724266,0.000000,222.061783,9770.718434
3602.724580,-229.828649,-148.041188,9474.636058
3602.724894,-383.047749,-592.164754,8808.450710
3602.725208,-306.438199,-296.082377,8734.430116
3602.725522,0.000000,-666.185348,9474.636058
3602.725837,-306.438199,-518.144159,9474.636058
3602.726151,-383.047749,-518.144159,9622.677246
3602.726465,-459.657299,-222.061783,10362.883188
3602.726779,0.000000,-74.020594,10510.924376
3602.727093,76.609550,666.185348,10362.883188
3602.727408,383.047749,1036.288319,10436.903782
3602.727722,766.095498,1258.350101,10658.965565
3602.728036,1072.533697,1184.329507,10288.862594
3602.728350,919.314598,1406.391290,9400.615463
3602.728664,995.924147,1110.308913,9252.574275
3602.728978,1072.533697,592.164754,9030.512492
3602.729293,995.924147,296.082377,8882.471304
3602.729607,689.485948,-148.041188,8438.347739
3602.729921,0.000000,-518.144159,9178.553681
3602.730235,0.000000,-888.247130,9104.533087
3602.730549,-766.095498,-888.247130,8808.450710
3602.730864,-995.924147,-1258.350101,9622.677246
3602.731178,-919.314598,-1184.329507,9696.697840
3602.731492,-1149.143247,-888.247130,9622.677246
3602.731806,-919.314598,-222.061783,10214.842000
3602.732120,-153.219100,296.082377,9992.780217
3602.732434,-459.657299,1184.329507,10288.862594
3602.732749,689.485948,1184.329507,9326.594869
3602.733063,766.095498,1702.473667,9474.636058
3602.733377,995.924147,1258.350101,9622.677246
3602.733691,766.095498,962.267725,9696.697840
3602.734005,919.314598,518.144159,9474.636058
3602.734320,536.266849,-0.000000,9770.718434
3602.734634,306.438199,-74.020594,9696.697840
3602.734948,0.000000,-444.123565,9548.656652
3602.735262,-383.047749,-518.144159,9622.677246
3602.735576,-383.047749,-518.144159,8734.430116
3602.735890,-536.266849,-518.144159,8364.327145
3602.736205,-306.438199,-740.205942,8734.430116
3602.736519,-536.266849,-1036.288319,9104.533087
3602.736833,-383.047749,-962.267725,9548.656652
3602.737147,-612.876398,-1776.494261,9844.739029
3602.737461,0.000000,-370.102971,10214.842000
3602.737775,306.438199,296.082377,10288.862594
3602.738090,306.438199,814.226536,10436.903782
3602.738404,1302.362347,962.267725,10362.883188
3602.738718,-383.047749,740.205942,10214.842000
3602.739032,1149.143247,1554.432478,9918.759623
3602.739346,919.314598,1036.288319,9400.615463
3602.739661,995.924147,666.185348,9252.574275
3602.739975,459.657299,592.164754,9326.594869
3602.740289,842.705048,148.041188,8956.491898
3602.740603,383.047749,-0.000000,8882.471304
3602.740917,76.609550,-444.123565,8660.409521
3602.741231,-229.828649,-666.185348,8882.471304
3602.741546,0.000000,-1110.308913,9326.594869
3602.741860,-459.657299,-740.205942,9622.677246
3602.742174,-766.095498,-888.247130,9622.677246
3602.742488,-536.266849,-518.144159,9770.718434
3602.742802,-383.047749,148.041188,9992.780217
3602.743117,-229.828649,814.226536,9918.759623
3602.743431,153.219100,1110.308913,9992.780217
3602.743745,612.876398,1406.391290,9992.780217
3602.744059,766.095498,1554.432478,9770.718434
3602.744373,919.314598,1332.370696,9918.759623
3602.744687,842.705048,1258.350101,9696.697840
3602.745002,766.095498,814.226536,10140.821405
3602.745316,306.438199,518.144159,9844.739029
3602.745630,459.657299,296.082377,9548.656652
3602.745944,76.609550,-222.061783,9474.636058
3602.746258,-306.438199,-0.000000,9178.553681
3602.746573,0.000000,74.020594,8882.471304
3602.746887,0.000000,-148.041188,8512.368333
3602.747201,0.000000,-814.226536,9326.594869
3602.747515,-383.047749,-740.205942,9474.636058
3602.747829,-766.095498,-666.185348,9696.697840
3602.748143,-153.219100,-444.123565,9992.780217
3602.748458,-153.219100,-0.000000,10436.903782
3602.748772,76.609550,740.205942,10955.047942
3602.749086,306.438199,1480.411884,10362.883188
3602.749400,842.705048,1480.411884,10214.842000
3602.749714,766.095498,1554.432478,10288.862594
3602.750029,766.095498,1554.432478,9622.677246
3602.750343,1532.190996,962.267725,9844.739029
3602.750657,919.314598,814.226536,9326.594869
3602.750971,919.314598,444.123565,8808.450710
3602.751285,459.657299,-0.000000,8660.409521
3602.751599,0.000000,-370.102971,8734.430116
3602.751914,-306.438199,-814.226536,9252.574275
3602.752228,-919.314598,-814.226536,9400.615463
3602.752542,-1149.143247,-1406.391290,9400.615463
3602.752856,-1072.533697,-1184.329507,9770.718434
3602.753170,-1149.143247,-1036.288319,10140.821405
3602.753485,-1072.533697,-740.205942,10732.986159
3602.753799,-459.657299,-0.000000,10288.862594
3602.754113,0.000000,666.185348,10140.821405
3602.754427,306.438199,1184.329507,9474.636058
3602.754741,1072.533697,1480.411884,9474.636058
3602.755055,1072.533697,1258.350101,10066.800811
3602.755370,1378.971896,1110.308913,9548.656652
3602.755684,689.485948,444.123565,9474.636058
3602.755998,459.657299,-0.000000,9622.677246
3602.756312,153.219100,-74.020594,9696.697840
3602.756626,0.000000,-74.020594,9474.636058
3602.756940,-229.828649,-296.082377,9178.553681
3602.757255,-612.876398,-592.164754,9252.574275
3602.757569,-459.657299,-740.205942,8882.471304
3602.757883,-306.438199,-1184.329507,8956.491898
3602.758197,-459.657299,-1258.350101,9178.553681
3602.758511,-689.485948,-1332.370696,9622.677246
3602.758826,-766.095498,-1258.350101,9918.759623
3602.759140,-229.828649,-814.226536,9992.780217
3602.759454,689.485948,-444.123565,10732.986159
3602.759768,612.876398,444.123565,10436.903782
3602.760082,689.485948,888.247130,9992.780217
3602.760396,842.705048,1258.350101,9918.759623
3602.760711,995.924147,1258.350101,9474.636058
3602.761025,1455.581446,1110.308913,9178.553681
3602.761339,1149.143247,814.226536,9178.553681
3602.761653,1072.533697,-0.000000,8956.491898
3602.761967,995.924147,-0.000000,9030.512492
3602.762282,459.657299,-148.041188,8808.450710
3602.762596,0.000000,-740.205942,9548.656652
3602.762910,-153.219100,-888.247130,9030.512492
3602.763224,-383.047749,-1258.350101,9400.615463
3602.763538,-612.876398,-1036.288319,9474.636058
3602.763852,-995.924147,-1184.329507,9622.677246
3602.764167,-842.705048,-518.144159,9992.780217
3602.764481,-919.314598,-0.000000,10362.883188
3602.764795,0.000000,740.205942,9992.780217
3602.765109,153.219100,1258.350101,9696.697840
3602.765423,536.266849,1924.535449,9622.677246
3602.765738,689.485948,1406.391290,9918.759623
3602.766052,842.705048,1702.473667,10066.800811
3602.766366,536.266849,1258.350101,9770.718434
3602.766680,612.876398,962.267725,9770.718434
3602.766994,612.876398,518.144159,10140.821405
3602.767308,306.438199,296.082377,9844.739029
3602.767623,0.000000,-0.000000,9474.636058
3602.767937,-612.876398,-0.000000,9252.574275
3602.768251,-612.876398,-0.000000,9178.553681
3602.768565,153.219100,-222.061783,9030.512492
3602.768879,-383.047749,-518.144159,9178.553681
3602.769194,-536.266849,-444.123565,9474.636058
3602.769508,-612.876398,-444.123565,9696.697840
3602.769822,-306.438199,-222.061783,10214.842000
3602.770136,-459.657299,-0.000000,10510.924376
3602.770450,229.828649,444.123565,10658.965565
3602.770764,536.266849,1036.288319,10288.862594
3602.771079,459.657299,1406.391290,10510.924376
3602.771393,766.095498,1702.473667,10140.821405
3602.771707,689.485948,1258.350101,10066.800811
3602.772021,842.705048,1406.391290,9474.636058
3602.772335,1149.143247,962.267725,9178.553681
3602.772649,919.314598,518.144159,8882.471304
3602.772964,536.266849,222.061783,8660.409521
3602.773278,76.609550,-148.041188,9030.512492
3602.773592,-383.047749,-814.226536,8882.471304
3602.773906,-536.266849,-962.267725,9178.553681
3602.774220,-919.314598,-1036.288319,9400.615463
3602.774535,-995.924147,-1110.308913,9696.697840
3602.774849,-1302.362347,-962.267725,10288.862594
3602.775163,-919.314598,-518.144159,10140.821405
3602.775477,-459.657299,-0.000000,10288.862594
3602.775791,0.000000,814.226536,9918.759623
3602.776105,766.095498,1480.411884,10066.800811
3602.776420,919.314598,1776.494261,9696.697840
3602.776734,1072.533697,1776.494261,9696.697840
3602.777048,1225.752797,1554.432478,9400.615463
3602.777362,766.095498,740.205942,9400.615463
3602.777676,766.095498,296.082377,9400.615463
3602.777991,383.047749,-0.000000,9696.697840
3602.778305,153.219100,-370.102971,9770.718434
3602.778619,0.000000,-296.082377,9178.553681
3602.778933,-383.047749,-444.123565,8734.430116
3602.779247,-689.485948,-814.226536,9030.512492
3602.779561,-842.705048,-1036.288319,9104.533087
3602.779876,-919.314598,-1184.329507,9178.553681
3602.780190,-536.266849,-814.226536,9474.636058
3602.780504,-306.438199,-1332.370696,9696.697840
3602.780818,-229.828649,-592.164754,9844.739029
3602.781132,153.219100,-0.000000,10658.965565
3602.781447,383.047749,444.123565,10362.883188
3602.781761,459.657299,592.164754,10140.821405
3602.782075,842.705048,1110.308913,10362.883188
3602.782390,842.705048,1184.329507,9770.718434
3602.782704,919.314598,1036.288319,9548.656652
3602.783018,1072.533697,592.164754,9474.636058
3602.783333,766.095498,444.123565,9400.615463
3602.783647,919.314598,-370.102971,8956.491898
3602.783961,766.095498,-296.082377,8734.430116
3602.784276,0.000000,-740.205942,8882.471304
3602.784590,0.000000,-888.247130,8956.491898
3602.784905,-536.266849,-1110.308913,9400.615463
3602.785219,-612.876398,-1406.391290,9252.574275
3602.785533,-612.876398,-962.267725,9844.739029
3602.785848,-766.095498,-814.226536,9992.780217
3602.786162,-842.705048,-296.082377,9770.718434
3602.786476,0.000000,296.082377,10140.821405
3602.786791,0.000000,962.267725,10436.903782
3602.787105,153.219100,962.267725,9992.780217
3602.787419,612.876398,1036.288319,10214.842000
3602.787734,766.095498,1554.432478,9992.780217
3602.788048,766.095498,1184.329507,9918.759623
3602.788363,459.657299,962.267725,9992.780217
3602.788677,766.095498,666.185348,9844.739029
3602.788991,459.657299,148.041188,10140.821405
3602.789306,459.657299,222.061783,9400.615463
3602.789620,0.000000,592.164754,8808.450710
3602.789934,0.000000,-0.000000,8808.450710
3602.790249,-459.657299,-370.102971,8660.409521
3602.790563,-459.657299,-666.185348,9030.512492
3602.790878,-536.266849,-814.226536,9548.656652
3602.791192,-842.705048,-888.247130,9474.636058
3602.791506,-919.314598,-444.123565,9992.780217
3602.791821,-612.876398,-148.041188,10214.842000
3602.792135,0.000000,148.041188,10658.965565
3602.792449,153.219100,888.247130,10436.903782
3602.792764,229.828649,1628.453072,10436.903782
3602.793078,689.485948,1628.453072,9696.697840
3602.793392,1072.533697,1554.432478,9622.677246
3602.793707,1149.143247,1554.432478,9474.636058
3602.794021,1225.752797,1258.350101,9030.512492
3602.794336,1072.533697,962.267725,8808.450710
3602.794650,842.705048,222.061783,8586.388927
3602.794964,0.000000,-74.020594,9178.553681
3602.795279,-459.657299,-740.205942,8956.491898
3602.795593,-459.657299,-814.226536,8660.409521
3602.795907,-766.095498,-1258.350101,9030.512492
3602.796222,-995.924147,-1480.411884,9548.656652
3602.796536,-1378.971896,-1332.370696,10066.800811
3602.796850,-919.314598,-592.164754,9992.780217
3602.797165,-612.876398,-0.000000,9992.780217
3602.797479,-153.219100,518.144159,9918.759623
3602.797794,689.485948,1406.391290,10140.821405
3602.798108,919.314598,1776.494261,9844.739029
3602.798422,842.705048,1628.453072,9918.759623
3602.798737,1072.533697,1480.411884,9696.697840
3602.799051,766.095498,1332.370696,9696.697840
3602.799365,842.705048,666.185348,9622.677246
3602.799680,766.095498,-0.000000,9844.739029
3602.799994,229.828649,-0.000000,9844.739029
3602.800308,-153.219100,-0.000000,9326.594869
3602.800623,-459.657299,-518.144159,9178.553681
3602.800937,-459.657299,-444.123565,9178.553681
3602.801252,-459.657299,-592.164754,8882.471304
3602.801566,-229.828649,-1110.308913,9252.574275
3602.801880,-229.828649,-1184.329507,9178.553681
3602.802195,-612.876398,-962.267725,9770.718434
3602.802509,0.000000,-962.267725,10066.800811
3602.802823,76.609550,-370.102971,10288.862594
3602.803138,383.047749,222.061783,10214.842000
3602.803452,766.095498,962.267725,10288.862594
3602.803767,766.095498,962.267725,9992.780217
3602.804081,1225.752797,1258.350101,9696.697840
3602.804395,1302.362347,1184.329507,9474.636058
3602.804710,1302.362347,740.205942,9104.533087
3602.805024,919.314598,222.061783,9104.533087
3602.805338,766.095498,-0.000000,9474.636058
3602.805653,306.438199,-296.082377,9178.553681
3602.805967,0.000000,-666.185348,8734.430116
3602.806281,-229.828649,-888.247130,8808.450710
3602.806596,-383.047749,-888.247130,8956.491898
3602.806910,-919.314598,-962.267725,9622.677246
3602.807225,-689.485948,-1110.308913,9696.697840
3602.807539,-842.705048,-740.205942,9844.739029
3602.807853,-1072.533697,-592.164754,10066.800811
3602.808168,-689.485948,-0.000000,9622.677246
3602.808482,-153.219100,666.185348,9696.697840
3602.808796,0.000000,1406.391290,10362.883188
3602.809111,383.047749,1406.391290,9770.718434
3602.809425,536.266849,1258.350101,9622.677246
3602.809739,536.266849,1258.350101,9992.780217
3602.810054,842.705048,888.247130,10066.800811
3602.810368,383.047749,444.123565,9918.759623
3602.810683,306.438199,296.082377,9696.697840
3602.810997,0.000000,222.061783,9696.697840
3602.811311,0.000000,-74.020594,9178.553681
3602.811626,0.000000,-444.123565,8660.409521
3602.811940,-536.266849,-148.041188,8512.368333
3602.812254,-229.828649,-592.164754,9178.553681
3602.812569,-612.876398,-666.185348,9474.636058
3602.812883,-919.314598,-740.205942,9474.636058
3602.813198,-842.705048,-1036.288319,9992.780217
3602.813512,-383.047749,-296.082377,10288.862594
3602.813826,-306.438199,-0.000000,10510.924376
3602.814141,0.000000,740.205942,10732.986159
3602.814455,612.876398,1110.308913,10214.842000
3602.814769,689.485948,1036.288319,9992.780217
3602.815084,1072.533697,1406.391290,9622.677246
3602.815398,1302.362347,1554.432478,9400.615463
3602.815712,1072.533697,814.226536,9104.533087
3602.816027,1378.971896,444.123565,9178.553681
3602.816341,842.705048,148.041188,9252.574275
3602.816656,459.657299,-222.061783,8734.430116
3602.816970,153.219100,-592.164754,9030.512492
3602.817284,-306.438199,-1110.308913,9030.512492
3602.817599,0.000000,-1258.350101,9474.636058
3602.817913,-612.876398,-1332.370696,9622.677246
3602.818227,-1225.752797,-1110.308913,10066.800811
3602.818542,-766.095498,-888.247130,10510.924376
3602.818856,-383.047749,148.041188,10140.821405
3602.819170,0.000000,444.123565,9548.656652
3602.819485,306.438199,1258.350101,9844.739029
3602.819799,383.047749,1480.411884,9770.718434
3602.820114,766.095498,1406.391290,9770.718434
3602.820428,1072.533697,1332.370696,9548.656652
3602.820742,1149.143247,1184.329507,9548.656652
3602.821057,766.095498,518.144159,9770.718434
3602.821371,612.876398,222.061783,9992.780217
3602.821685,459.657299,-74.020594,9770.718434
3602.822000,0.000000,-222.061783,9548.656652
3602.822314,0.000000,-0.000000,9400.615463
3602.822628,-229.828649,-222.061783,9030.512492
3602.822943,-153.219100,-518.144159,8882.471304
3602.823257,-153.219100,-814.226536,9252.574275
3602.823572,-229.828649,-1332.370696,9178.553681
3602.823886,-383.047749,-1036.288319,9622.677246
3602.824200,0.000000,-518.144159,9770.718434
3602.824515,0.000000,-74.020594,10214.842000
3602.824829,153.219100,222.061783,9992.780217
3602.825143,536.266849,962.267725,9622.677246
3602.825458,766.095498,1036.288319,10140.821405
3602.825772,766.095498,1110.308913,10214.842000
3602.826087,842.705048,1036.288319,9548.656652
3602.826401,1072.533697,814.226536,9178.553681
3602.826715,919.314598,814.226536,9104.533087
3602.827030,612.876398,370.102971,9178.553681
3602.827344,536.266849,-296.082377,9252.574275
3602.827658,459.657299,-222.061783,8660.409521
3602.827973,0.000000,-814.226536,8956.491898
3602.828287,-229.828649,-1184.329507,9030.512492
3602.828601,-612.876398,-888.247130,9770.718434
3602.828916,-612.876398,-1036.288319,9770.718434
3602.829230,-995.924147,-1036.288319,9992.780217
3602.829545,-766.095498,-592.164754,10066.800811
3602.829859,-842.705048,-0.000000,10140.821405
3602.830173,-229.828649,592.164754,10140.821405
3602.830488,0.000000,1258.350101,10140.821405
3602.830802,383.047749,1332.370696,9992.780217
3602.831116,536.266849,1406.391290,9696.697840
3602.831431,766.095498,1332.370696,9770.718434
3602.831745,612.876398,1036.288319,9770.718434
3602.832059,383.047749,740.205942,10140.821405
3602.832374,306.438199,370.102971,9622.677246
3602.832688,0.000000,222.061783,9622.677246
3602.833003,0.000000,222.061783,9400.615463
3602.833317,-383.047749,222.061783,9178.553681
3602.833631,-383.047749,-74.020594,8956.491898
3602.833946,-306.438199,-518.144159,9252.574275
3602.834260,-689.485948,-814.226536,9252.574275
3602.834574,-766.095498,-888.247130,9474.636058
3602.834889,-995.924147,-888.247130,9548.656652
3602.835203,-612.876398,-370.102971,10140.821405
3602.835517,0.000000,-444.123565,10658.965565
3602.835832,383.047749,666.185348,10436.903782
3602.836146,306.438199,1110.308913,9992.780217
3602.836461,536.266849,1332.370696,10140.821405
3602.836775,842.705048,1406.391290,9622.677246
3602.837089,1225.752797,1258.350101,9252.574275
3602.837404,1378.971896,1258.350101,8956.491898
3602.837718,1225.752797,518.144159,8956.491898
3602.838032,842.705048,-0.000000,9400.615463
3602.838347,459.657299,-148.041188,9326.594869
3602.838661,153.219100,-888.247130,8660.409521
3602.838976,-229.828649,-888.247130,9178.553681
3602.839290,0.000000,-1036.288319,9400.615463
3602.839604,-612.876398,-1110.308913,9696.697840
3602.839919,-536.266849,-1110.308913,9400.615463
3602.840233,-612.876398,-888.247130,9548.656652
3602.840547,-459.657299,-148.041188,9992.780217
3602.840862,-306.438199,592.164754,9844.739029
3602.841176,0.000000,1036.288319,9696.697840
3602.841490,612.876398,1332.370696,9622.677246
3602.841805,842.705048,1184.329507,9474.636058
3602.842119,995.924147,1628.453072,9548.656652
3602.842434,766.095498,1184.329507,9918.759623
3602.842748,689.485948,666.185348,9992.780217
3602.843062,459.657299,296.082377,9622.677246
3602.843377,383.047749,370.102971,9622.677246
3602.843691,0.000000,-0.000000,9770.718434
3602.844005,0.000000,222.061783,9474.636058
3602.844320,-459.657299,-74.020594,9104.533087
3602.844634,-459.657299,-370.102971,8808.450710
3602.844948,0.000000,-740.205942,8956.491898
3602.845263,-306.438199,-666.185348,9178.553681
3602.845577,-459.657299,-518.144159,9474.636058
3602.845892,-383.047749,-444.123565,9918.759623
3602.846206,-536.266849,-666.185348,10214.842000
3602.846520,306.438199,-0.000000,10362.883188
3602.846835,0.000000,740.205942,10584.944971
3602.847149,536.266849,1036.288319,10510.924376
3602.847463,766.095498,1258.350101,10066.800811
3602.847778,766.095498,1258.350101,9844.739029
3602.848092,1072.533697,1110.308913,9548.656652
3602.848406,1072.533697,814.226536,9030.512492
3602.848721,995.924147,370.102971,8660.409521
3602.849035,919.314598,148.041188,9104.533087
3602.849350,306.438199,-0.000000,8956.491898
3602.849664,0.000000,-74.020594,9252.574275
3602.849978,-383.047749,-518.144159,9326.594869
3602.850293,-536.266849,-1036.288319,9548.656652
3602.850607,-689.485948,-1110.308913,9474.636058
3602.850921,-1072.533697,-1036.288319,9770.718434
3602.851236,-1149.143247,-666.185348,10362.883188
3602.851550,-689.485948,-0.000000,10288.862594
3602.851865,-383.047749,592.164754,10510.924376
3602.852179,153.219100,1036.288319,9918.759623
3602.852493,459.657299,1258.350101,9770.718434
3602.852808,842.705048,1554.432478,10140.821405
3602.853122,612.876398,1406.391290,9844.739029
3602.853436,842.705048,1036.288319,9992.780217
3602.853751,536.266849,666.185348,9474.636058
3602.854065,842.705048,666.185348,9548.656652
3602.854379,306.438199,-0.000000,9474.636058
3602.854694,0.000000,-148.041188,9474.636058
3602.855008,-612.876398,-148.041188,9474.636058
3602.855323,-612.876398,-296.082377,8956.491898
3602.855637,-459.657299,-592.164754,8586.388927
3602.855951,-383.047749,-444.123565,9326.594869
3602.856266,-919.314598,-888.247130,9178.553681
3602.856580,-766.095498,-1036.288319,9474.636058
3602.856894,-612.876398,-814.226536,10288.862594
3602.857209,-459.657299,-74.020594,10732.986159
3602.857523,76.609550,444.123565,10362.883188
3602.857837,383.047749,814.226536,9992.780217
3602.858152,689.485948,1258.350101,10510.924376
3602.858466,1072.533697,1332.370696,9918.759623
3602.858781,536.266849,1184.329507,9696.697840
3602.859095,1302.362347,1184.329507,9178.553681
3602.859409,995.924147,888.247130,8364.327145
3602.859724,995.924147,296.082377,8734.430116
3602.860038,689.485948,-148.041188,8512.368333
3602.860352,689.485948,-1036.288319,9030.512492
3602.860667,0.000000,-888.247130,9104.533087
3602.860981,-383.047749,-1184.329507,9252.574275
3602.861295,-842.705048,-1184.329507,9622.677246
3602.861610,-1149.143247,-1110.308913,9918.759623
3602.861924,-1225.752797,-1110.308913,10066.800811
3602.862239,-919.314598,-592.164754,10140.821405
3602.862553,-612.876398,148.041188,10732.986159
3602.862867,76.609550,888.247130,9696.697840
3602.863182,306.438199,1184.329507,9770.718434
3602.863496,689.485948,1258.350101,10214.842000
3602.863810,1072.533697,1554.432478,9770.718434
3602.864125,689.485948,1110.308913,9770.718434
3602.864439,536.266849,888.247130,9770.718434
3602.864754,612.876398,444.123565,9548.656652
3602.865068,306.438199,-0.000000,9696.697840
3602.865382,0.000000,-74.020594,9696.697840
3602.865697,-612.876398,-296.082377,9548.656652
3602.866011,-995.924147,-296.082377,9474.636058
3602.866325,-459.657299,-740.205942,9030.512492
3602.866640,-612.876398,-814.226536,9030.512492
3602.866954,-459.657299,-740.205942,9548.656652
3602.867268,-536.266849,-592.164754,9474.636058
3602.867583,-229.828649,-814.226536,9770.718434
3602.867897,0.000000,-222.061783,10658.965565
3602.868212,306.438199,370.102971,10140.821405
3602.868526,383.047749,740.205942,10510.924376
3602.868840,766.095498,1110.308913,10288.862594
3602.869155,919.314598,1332.370696,9918.759623
3602.869469,1455.581446,1406.391290,9844.739029
3602.869783,1225.752797,1258.350101,9474.636058
3602.870098,1149.143247,888.247130,9474.636058
3602.870412,1225.752797,740.205942,8956.491898
3602.870726,766.095498,-0.000000,8808.450710
3602.871041,689.485948,-370.102971,8734.430116
3602.871355,459.657299,-518.144159,8734.430116
3602.871670,-229.828649,-1036.288319,9178.553681
3602.871984,-229.828649,-1036.288319,9178.553681
3602.872298,-306.438199,-1036.288319,9548.656652
3602.872613,-766.095498,-888.247130,9622.677246
3602.872927,-766.095498,-518.144159,9844.739029
3602.873241,-689.485948,-0.000000,10214.842000
3602.873556,-383.047749,592.164754,9992.780217
3602.873870,-153.219100,1036.288319,9844.739029
3602.874185,229.828649,1184.329507,9696.697840
3602.874499,919.314598,1332.370696,9918.759623
3602.874813,383.047749,1258.350101,9992.780217
3602.875128,306.438199,1036.288319,9918.759623
3602.875442,536.266849,740.205942,9622.677246
3602.875756,536.266849,296.082377,9696.697840
3602.876071,153.219100,-0.000000,9548.656652
3602.876385,229.828649,-0.000000,9474.636058
3602.876699,-229.828649,-0.000000,9104.533087
3602.877014,0.000000,-0.000000,8882.471304
3602.877328,0.000000,-370.102971,8808.450710
3602.877643,76.609550,-888.247130,9178.553681
3602.877957,-153.219100,-592.164754,8956.491898
3602.878271,-306.438199,-222.061783,9400.615463
3602.878586,-536.266849,-592.164754,10066.800811
3602.878900,-229.828649,-0.000000,10140.821405
3602.879214,0.000000,296.082377,10510.924376
3602.879529,76.609550,740.205942,10362.883188
3602.879843,383.047749,1110.308913,10584.944971
3602.880157,383.047749,1258.350101,10436.903782
3602.880472,689.485948,1258.350101,9770.718434
3602.880786,842.705048,1110.308913,9696.697840
3602.881101,1072.533697,1036.288319,9622.677246
3602.881415,612.876398,518.144159,8882.471304
3602.881729,919.314598,444.123565,8808.450710
3602.882044,306.438199,-0.000000,8956.491898
3602.882358,153.219100,-666.185348,8882.471304
3602.882672,-306.438199,-518.144159,9178.553681
3602.882986,-612.876398,-666.185348,9548.656652
3602.883301,-689.485948,-962.267725,9622.677246
3602.883615,-842.705048,-962.267725,9696.697840
3602.883929,-919.314598,-740.205942,10288.862594
3602.884244,-459.657299,-148.041188,10436.903782
3602.884558,-153.219100,814.226536,9918.759623
3602.884872,76.609550,962.267725,9918.759623
3602.885186,536.266849,1110.308913,9548.656652
3602.885501,689.485948,888.247130,10066.800811
3602.885815,1225.752797,1480.411884,9918.759623
3602.886129,689.485948,962.267725,9696.697840
3602.886443,842.705048,666.185348,9844.739029
3602.886758,612.876398,296.082377,9696.697840
3602.887072,0.000000,-0.000000,9770.718434
3602.887386,0.000000,-148.041188,9326.594869
3602.887701,-153.219100,-370.102971,8882.471304
3602.888015,-459.657299,-444.123565,9030.512492
3602.888329,-229.828649,-962.267725,9178.553681
3602.888643,-229.828649,-1184.329507,9474.636058
3602.888958,-306.438199,-1036.288319,9178.553681
3602.889272,-536.266849,-1036.288319,9474.636058
3602.889586,-306.438199,-518.144159,9992.780217
3602.889900,76.609550,-0.000000,10510.924376
3602.890215,383.047749,592.164754,10510.924376
3602.890529,766.095498,666.185348,9918.759623
3602.890843,766.095498,1110.308913,9992.780217
3602.891158,1149.143247,1480.411884,9844.739029
3602.891472,1072.533697,1036.288319,9400.615463
3602.891786,1149.143247,1036.288319,9326.594869
3602.892100,1072.533697,666.185348,9104.533087
3602.892415,995.924147,370.102971,8734.430116
3602.892729,689.485948,-148.041188,8956.491898
3602.893043,0.000000,-370.102971,9030.512492
3602.893357,-383.047749,-1036.288319,9178.553681
3602.893672,-306.438199,-1184.329507,8956.491898
3602.893986,-612.876398,-814.226536,9474.636058
3602.894300,-612.876398,-814.226536,9548.656652
3602.894615,-766.095498,-518.144159,9844.739029
3602.894929,-459.657299,-296.082377,9918.759623
3602.895243,-306.438199,222.061783,9844.739029
3602.895557,0.000000,1036.288319,9992.780217
3602.895872,229.828649,1332.370696,9622.677246
3602.896186,536.266849,1332.370696,9326.594869
3602.896500,459.657299,1036.288319,10140.821405
3602.896814,612.876398,1332.370696,9548.656652
3602.897129,612.876398,444.123565,9622.677246
3602.897443,459.657299,370.102971,9992.780217
3602.897757,306.438199,-0.000000,9696.697840
3602.898072,153.219100,-74.020594,9696.697840
3602.898386,-229.828649,-74.020594,9178.553681
3602.898700,-459.657299,-148.041188,8956.491898
3602.899014,-383.047749,-296.082377,8660.409521
3602.899329,0.000000,-296.082377,8956.491898
3602.899643,-766.095498,-444.123565,9696.697840
3602.899957,-689.485948,-518.144159,9178.553681
3602.900271,-842.705048,-592.164754,9918.759623
3602.900586,-536.266849,-222.061783,10732.986159
3602.900900,-383.047749,-0.000000,10584.944971
3602.901214,76.609550,814.226536,10732.986159
3602.901529,153.219100,1184.329507,10362.883188
3602.901843,689.485948,1480.411884,10288.862594
3602.902157,842.705048,1554.432478,10140.821405
3602.902471,1378.971896,1628.453072,10066.800811
3602.902786,842.705048,962.267725,9326.594869
3602.903100,1072.533697,814.226536,8882.471304
3602.903414,842.705048,518.144159,9030.512492
3602.903728,766.095498,-0.000000,9178.553681
3602.904043,306.438199,-370.102971,8734.430116
3602.904357,0.000000,-814.226536,8734.430116
3602.904671,-536.266849,-1110.308913,9178.553681
3602.904986,-536.266849,-888.247130,9918.759623
3602.905300,-306.438199,-1036.288319,10214.842000
3602.905614,-842.705048,-592.164754,9918.759623
3602.905928,-842.705048,-296.082377,10066.800811
3602.906243,-689.485948,370.102971,10288.862594
3602.906557,76.609550,1332.370696,9770.718434
3602.906871,306.438199,1480.411884,9918.759623
3602.907185,689.485948,1184.329507,9844.739029
3602.907500,766.095498,1406.391290,9918.759623
3602.907814,766.095498,888.247130,9104.533087
3602.908128,612.876398,592.164754,9844.739029
3602.908442,612.876398,-0.000000,9474.636058
3602.908757,306.438199,-0.000000,9770.718434
3602.909071,0.000000,222.061783,9252.574275
3602.909385,-306.438199,-148.041188,9030.512492
3602.909700,-306.438199,-444.123565,8586.388927
3602.910014,0.000000,-888.247130,8438.347739
3602.910328,-383.047749,-888.247130,9400.615463
3602.910642,-536.266849,-962.267725,9326.594869
3602.910957,-612.876398,-740.205942,9474.636058
3602.911271,-229.828649,-814.226536,9918.759623
3602.911585,0.000000,-370.102971,10658.965565
3602.911899,306.438199,296.082377,10436.903782
3602.912214,689.485948,814.226536,10436.903782
3602.912528,459.657299,1036.288319,10362.883188
3602.912842,1072.533697,1480.411884,9696.697840
3602.913157,1455.581446,1110.308913,9622.677246
3602.913471,1149.143247,740.205942,9474.636058
3602.913785,1149.143247,370.102971,9252.574275
3602.914099,766.095498,-0.000000,8956.491898
3602.914414,919.314598,-370.102971,8882.471304
3602.914728,459.657299,-222.061783,8808.450710
3602.915042,-153.219100,-444.123565,8734.430116
3602.915356,-229.828649,-740.205942,8882.471304
3602.915671,-689.485948,-1036.288319,9474.636058
3602.915985,-459.657299,-1036.288319,10362.883188
3602.916299,-842.705048,-888.247130,10214.842000
3602.916614,-919.314598,-444.123565,10140.821405
3602.916928,-383.047749,-0.000000,10214.842000
3602.917242,0.000000,740.205942,10214.842000
3602.917556,229.828649,1332.370696,10140.821405
3602.917871,612.876398,1036.288319,9770.718434
3602.918185,459.657299,1406.391290,9548.656652
3602.918499,612.876398,1332.370696,9474.636058
3602.918813,153.219100,1184.329507,9548.656652
3602.919128,383.047749,444.123565,9770.718434
3602.919442,383.047749,-0.000000,9770.718434
3602.919756,0.000000,-222.061783,9474.636058
3602.920071,0.000000,-222.061783,9252.574275
3602.920385,0.000000,-74.020594,9178.553681
3602.920699,-689.485948,-296.082377,8882.471304
3602.921013,-459.657299,-666.185348,8808.450710
3602.921328,-383.047749,-666.185348,9104.533087
3602.921642,-383.047749,-666.185348,9474.636058
3602.921956,0.000000,-592.164754,9622.677246
3602.922270,0.000000,-148.041188,10214.842000
3602.922585,0.000000,-0.000000,10510.924376
3602.922899,153.219100,666.185348,10658.965565
3602.923213,229.828649,962.267725,10807.006753
3602.923528,536.266849,1554.432478,9918.759623
3602.923842,919.314598,1480.411884,9992.780217
3602.924156,1072.533697,1332.370696,9622.677246
3602.924470,1149.143247,1258.350101,9252.574275
3602.924785,1149.143247,444.123565,8734.430116
3602.925099,995.924147,444.123565,8956.491898
3602.925413,842.705048,-0.000000,8734.430116
3602.925727,153.219100,-296.082377,9030.512492
3602.926042,0.000000,-370.102971,9104.533087
3602.926356,0.000000,-666.185348,9252.574275
3602.926670,-612.876398,-814.226536,9844.739029
3602.926985,-766.095498,-740.205942,10140.821405
3602.927299,-1225.752797,-370.102971,10214.842000
3602.927613,-919.314598,-0.000000,10362.883188
3602.927927,-229.828649,518.144159,10288.862594
3602.928242,0.000000,1110.308913,9992.780217
3602.928556,153.219100,1110.308913,9696.697840
3602.928870,919.314598,1702.473667,9696.697840
3602.929184,1072.533697,1850.514855,9844.739029
3602.929499,459.657299,1036.288319,9548.656652
3602.929813,842.705048,888.247130,9696.697840
3602.930127,459.657299,222.061783,9844.739029
3602.930442,229.828649,-0.000000,9622.677246
3602.930756,306.438199,-0.000000,9474.636058
3602.931070,-306.438199,-444.123565,9548.656652
3602.931384,-153.219100,-370.102971,9104.533087
3602.931699,153.219100,-592.164754,9178.553681
3602.932013,0.000000,-888.247130,9030.512492
3602.932327,-383.047749,-814.226536,9400.615463
3602.932641,-612.876398,-592.164754,9474.636058
3602.932956,-306.438199,-592.164754,9992.780217
3602.933270,0.000000,-370.102971,10288.862594
3602.933584,153.219100,148.041188,10362.883188
3602.933899,536.266849,1036.288319,10807.006753
3602.934213,995.924147,1110.308913,10288.862594
3602.934527,842.705048,1406.391290,10066.800811
3602.934841,919.314598,962.267725,9474.636058
3602.935156,995.924147,888.247130,9178.553681
3602.935470,995.924147,370.102971,9252.574275
3602.935784,1072.533697,222.061783,9474.636058
3602.936098,842.705048,-222.061783,9030.512492
3602.936413,306.438199,-592.164754,8956.491898
3602.936727,0.000000,-740.205942,8956.491898
3602.937041,0.000000,-518.144159,8956.491898
3602.937356,-536.266849,-962.267725,9030.512492
3602.937670,-919.314598,-1110.308913,9844.739029
3602.937984,-919.314598,-1036.288319,9770.718434
3602.938298,-1072.533697,-666.185348,9770.718434
3602.938613,-612.876398,-0.000000,10288.862594
3602.938927,-306.438199,444.123565,10140.821405
3602.939241,0.000000,962.267725,9622.677246
3602.939555,153.219100,1332.370696,9474.636058
3602.939870,383.047749,1554.432478,9918.759623
3602.940184,766.095498,1110.308913,9844.739029
3602.940498,229.828649,888.247130,9770.718434
3602.940813,229.828649,814.226536,9770.718434
3602.941127,229.828649,222.061783,9548.656652
3602.941441,0.000000,-0.000000,9548.656652
3602.941755,-229.828649,-0.000000,9548.656652
3602.942070,-536.266849,-222.061783,9030.512492
3602.942384,-153.219100,-296.082377,8586.388927
3602.942698,-153.219100,-444.123565,8512.368333
3602.943012,-536.266849,-962.267725,8956.491898
3602.943327,-766.095498,-740.205942,9326.594869
3602.943641,-766.095498,-370.102971,9918.759623
3602.943955,-536.266849,-370.102971,10362.883188
3602.944269,0.000000,-74.020594,10510.924376
3602.944584,76.609550,444.123565,10584.944971
3602.944898,383.047749,888.247130,10510.924376
3602.945212,536.266849,1332.370696,10584.944971
3602.945527,766.095498,1332.370696,10214.842000
3602.945841,1225.752797,1406.391290,9844.739029
3602.946155,1302.362347,1184.329507,9326.594869
3602.946469,1685.410096,814.226536,9400.615463
3602.946784,1072.533697,666.185348,9326.594869
3602.947098,1072.533697,-0.000000,9178.553681
3602.947412,459.657299,-222.061783,9030.512492
3602.947726,0.000000,-222.061783,9178.553681
3602.948041,-153.219100,-518.144159,9400.615463
3602.948355,-229.828649,-740.205942,9696.697840
3602.948669,-459.657299,-666.185348,9918.759623
3602.948984,-689.485948,-666.185348,10066.800811
3602.949298,-919.314598,-222.061783,10140.821405
3602.949612,-383.047749,370.102971,10214.842000
3602.949926,0.000000,888.247130,9918.759623
3602.950241,612.876398,1480.411884,9696.697840
3602.950555,689.485948,1554.432478,9548.656652
3602.950869,1149.143247,1258.350101,9918.759623
3602.951183,1072.533697,1406.391290,9770.718434
3602.951498,766.095498,1036.288319,9696.697840
3602.951812,459.657299,296.082377,9548.656652
3602.952126,536.266849,-0.000000,9622.677246
3602.952441,0.000000,-74.020594,9326.594869
3602.952755,0.000000,-222.061783,9252.574275
3602.953069,-383.047749,-148.041188,9030.512492
3602.953383,-612.876398,-444.123565,8660.409521
3602.953698,-306.438199,-962.267725,8808.450710
3602.954012,-229.828649,-962.267725,9104.533087
3602.954326,-766.095498,-888.247130,9252.574275
3602.954640,-229.828649,-888.247130,9696.697840
3602.954955,-229.828649,-444.123565,10066.800811
3602.955269,0.000000,-296.082377,10510.924376
3602.955583,536.266849,962.267725,10066.800811
3602.955898,536.266849,962.267725,9770.718434
3602.956212,689.485948,1110.308913,10066.800811
3602.956526,1378.971896,814.226536,9622.677246
3602.956840,842.705048,1258.350101,9400.615463
3602.957155,919.314598,666.185348,9104.533087
3602.957469,689.485948,444.123565,9326.594869
3602.957783,383.047749,-74.020594,9104.533087
3602.958097,0.000000,-888.247130,8734.430116
3602.958412,-383.047749,-444.123565,9030.512492
3602.958726,-536.266849,-740.205942,9474.636058
3602.959040,-766.095498,-888.247130,9474.636058
3602.959355,-995.924147,-1110.308913,9918.759623
3602.959669,-1532.190996,-888.247130,10288.862594
3602.959983,-1072.533697,-370.102971,10066.800811
3602.960297,-766.095498,222.061783,10066.800811
3602.960612,-383.047749,814.226536,10362.883188
3602.960926,0.000000,962.267725,10214.842000
3602.961240,536.266849,1258.350101,9474.636058
3602.961554,689.485948,1258.350101,9474.636058
3602.961869,919.314598,1332.370696,9844.739029
3602.962183,842.705048,962.267725,9548.656652
3602.962497,995.924147,296.082377,9696.697840
3602.962812,766.095498,-0.000000,9474.636058
3602.963126,383.047749,-222.061783,9474.636058
3602.963440,229.828649,-148.041188,9474.636058
3602.963754,0.000000,-370.102971,8956.491898
3602.964069,-76.609550,-444.123565,8734.430116
3602.964383,-229.828649,-888.247130,8512.368333
3602.964697,0.000000,-592.164754,8956.491898
3602.965011,-153.219100,-740.205942,9326.594869
3602.965326,-229.828649,-666.185348,9844.739029
3602.965640,0.000000,-740.205942,9696.697840
3602.965954,153.219100,-296.082377,9992.780217
3602.966269,459.657299,666.185348,10732.986159
3602.966583,689.485948,962.267725,10214.842000
3602.966897,536.266849,888.247130,10362.883188
3602.967211,1072.533697,962.267725,10214.842000
3602.967526,1302.362347,1184.329507,9474.636058
3602.967840,1225.752797,1110.308913,9474.636058
3602.968154,1149.143247,740.205942,9326.594869
3602.968468,995.924147,444.123565,9104.533087
3602.968783,919.314598,148.041188,8512.368333
3602.969097,612.876398,-0.000000,8660.409521
3602.969411,0.000000,-296.082377,9400.615463
3602.969726,-229.828649,-592.164754,9400.615463
3602.970040,-536.266849,-740.205942,9474.636058
3602.970354,-689.485948,-888.247130,9770.718434
3602.970668,-1072.533697,-666.185348,10140.821405
3602.970983,-842.705048,-222.061783,10066.800811
3602.971297,-766.095498,370.102971,10510.924376
3602.971611,-306.438199,740.205942,10584.944971
3602.971925,-229.828649,1480.411884,9696.697840
3602.972240,0.000000,1776.494261,9548.656652
3602.972554,383.047749,1702.473667,9622.677246
3602.972868,306.438199,1406.391290,9992.780217
3602.973183,536.266849,1036.288319,9548.656652
3602.973497,459.657299,370.102971,9548.656652
3602.973811,153.219100,-0.000000,9474.636058
3602.974125,-229.828649,-0.000000,9400.615463
3602.974440,-306.438199,-0.000000,9474.636058
3602.974754,-766.095498,-444.123565,9030.512492
3602.975068,-689.485948,-740.205942,8808.450710
3602.975382,-766.095498,-740.205942,8956.491898
3602.975697,-689.485948,-814.226536,9178.553681
3602.976011,-766.095498,-962.267725,9622.677246
3602.976325,-536.266849,-814.226536,9844.739029
3602.976639,0.000000,-740.205942,9770.718434
3602.976954,76.609550,-0.000000,10732.986159
3602.977268,229.828649,592.164754,10288.862594
3602.977582,612.876398,814.226536,9696.697840
3602.977897,842.705048,962.267725,10214.842000
3602.978211,995.924147,740.205942,9474.636058
3602.978525,1532.190996,1110.308913,9474.636058
3602.978839,1225.752797,592.164754,9400.615463
3602.979154,995.924147,518.144159,9326.594869
3602.979468,995.924147,-0.000000,8734.430116
3602.979782,536.266849,-74.020594,8660.409521
3602.980096,306.438199,-296.082377,9104.533087
3602.980411,153.219100,-592.164754,9400.615463
3602.980725,0.000000,-888.247130,9474.636058
3602.981039,-153.219100,-962.267725,9474.636058
3602.981354,-842.705048,-962.267725,9770.718434
3602.981668,-536.266849,-592.164754,10288.862594
3602.981982,-306.438199,-518.144159,10288.862594
3602.982296,-459.657299,-0.000000,10066.800811
3602.982611,153.219100,888.247130,9992.780217
3602.982925,459.657299,962.267725,9992.780217
3602.983239,766.095498,1184.329507,9622.677246
3602.983554,1072.533697,1332.370696,9844.739029
3602.983868,919.314598,1110.308913,9770.718434
3602.984182,1072.533697,740.205942,9622.677246
3602.984496,995.924147,444.123565,9474.636058
3602.984811,919.314598,-0.000000,9474.636058
3602.985125,306.438199,-0.000000,9400.615463
3602.985439,0.000000,-0.000000,8882.471304
3602.985754,-229.828649,-74.020594,8660.409521
3602.986068,-536.266849,-592.164754,8956.491898
3602.986382,-383.047749,-740.205942,8956.491898
3602.986696,-459.657299,-962.267725,9178.553681
3602.987011,-766.095498,-1036.288319,9622.677246
3602.987325,-536.266849,-740.205942,9918.759623
3602.987639,-306.438199,-370.102971,10288.862594
3602.987954,229.828649,518.144159,10436.903782
3602.988268,153.219100,814.226536,10510.924376
3602.988582,229.828649,1036.288319,9992.780217
3602.988896,229.828649,1406.391290,9918.759623
3602.989211,383.047749,1332.370696,10066.800811
3602.989525,842.705048,1184.329507,9696.697840
3602.989839,995.924147,740.205942,9474.636058
3602.990154,842.705048,666.185348,9474.636058
3602.990468,536.266849,-0.000000,9252.574275
3602.990782,306.438199,-222.061783,9030.512492
3602.991096,0.000000,-296.082377,9104.533087
3602.991411,-383.047749,-592.164754,9474.636058
3602.991725,-766.095498,-814.226536,9474.636058
3602.992039,-842.705048,-888.247130,9918.759623
3602.992354,-1302.362347,-888.247130,9992.780217
3602.992668,-1225.752797,-592.164754,10362.883188
3602.992982,-842.705048,-74.020594,10362.883188
3602.993296,-612.876398,370.102971,10362.883188
3602.993611,76.609550,962.267725,9992.780217
3602.993925,383.047749,1406.391290,9844.739029
3602.994239,995.924147,1480.411884,9770.718434
3602.994553,689.485948,1332.370696,9622.677246
3602.994868,689.485948,1036.288319,9474.636058
3602.995182,995.924147,592.164754,9474.636058
3602.995496,459.657299,444.123565,9696.697840
3602.995811,536.266849,-0.000000,9474.636058
3602.996125,153.219100,-222.061783,8882.471304
3602.996439,229.828649,-296.082377,9030.512492
3602.996753,0.000000,-444.123565,8586.388927
3602.997068,-459.657299,-444.123565,8808.450710
3602.997382,-229.828649,-888.247130,9252.574275
3602.997696,-229.828649,-1036.288319,9400.615463
3602.998011,0.000000,-888.247130,9622.677246
3602.998325,-383.047749,-888.247130,9548.656652
3602.998639,0.000000,-296.082377,9992.780217
3602.998953,306.438199,518.144159,10510.924376
3602.999268,306.438199,740.205942,10140.821405
3602.999582,995.924147,740.205942,9992.780217
3602.999896,1149.143247,1036.288319,10066.800811
3603.000211,1455.581446,1184.329507,9622.677246
3603.000525,1608.800546,962.267725,9474.636058
3603.000839,1302.362347,518.144159,9252.574275
3603.001153,1149.143247,-74.020594,9326.594869
3603.001468,766.095498,-222.061783,8808.450710
3603.001782,612.876398,-148.041188,8808.450710
3603.002096,0.000000,-962.267725,8956.491898
3603.002411,0.000000,-962.267725,9252.574275
3603.002725,-153.219100,-962.267725,9696.697840
3603.003039,-842.705048,-962.267725,9548.656652
3603.003353,-689.485948,-518.144159,10214.842000
3603.003668,-995.924147,-518.144159,10288.862594
3603.003982,-842.705048,222.061783,10436.903782
3603.004296,-383.047749,444.123565,10214.842000
3603.004611,0.000000,1110.308913,9918.759623
3603.004925,383.047749,1406.391290,9992.780217
3603.005239,383.047749,1332.370696,9992.780217
3603.005553,612.876398,1258.350101,9918.759623
3603.005868,689.485948,1480.411884,9770.718434
3603.006182,612.876398,666.185348,9400.615463
3603.006496,459.657299,222.061783,9770.718434
3603.006811,0.000000,-0.000000,9548.656652
3603.007125,-153.219100,148.041188,8808.450710
3603.007439,-536.266849,-74.020594,8586.388927
3603.007753,-689.485948,-296.082377,8882.471304
3603.008068,-306.438199,-518.144159,8956.491898
3603.008382,-536.266849,-1036.288319,9104.533087
3603.008696,-306.438199,-740.205942,9400.615463
3603.009011,-766.095498,-666.185348,9474.636058
3603.009325,-153.219100,-222.061783,9696.697840
3603.009639,0.000000,74.020594,10732.986159
3603.009953,306.438199,592.164754,10658.965565
3603.010268,612.876398,1184.329507,10288.862594
3603.010582,612.876398,1258.350101,10066.800811
3603.010896,1149.143247,1406.391290,9844.739029
3603.011211,1302.362347,1480.411884,9918.759623
3603.011525,1455.581446,888.247130,9474.636058
3603.011839,1072.533697,296.082377,9178.553681
3603.012153,842.705048,444.123565,9104.533087
3603.012468,612.876398,-0.000000,8660.409521
3603.012782,153.219100,-444.123565,9030.512492
3603.013096,0.000000,-222.061783,9104.533087
3603.013411,-306.438199,-888.247130,9474.636058
3603.013725,-689.485948,-1036.288319,9548.656652
3603.014039,-766.095498,-1036.288319,10066.800811
3603.014353,-1149.143247,-666.185348,10140.821405
3603.014668,-766.095498,-444.123565,10362.883188
3603.014982,-383.047749,444.123565,10510.924376
3603.015296,0.000000,1036.288319,10214.842000
3603.015611,459.657299,1554.432478,9844.739029
3603.015925,919.314598,1628.453072,9696.697840
3603.016239,995.924147,1036.288319,9992.780217
3603.016553,612.876398,740.205942,9622.677246
3603.016868,766.095498,740.205942,9696.697840
3603.017182,919.314598,148.041188,9548.656652
3603.017496,459.657299,-0.000000,9622.677246
3603.017811,76.609550,-0.000000,9178.553681
3603.018125,-383.047749,-296.082377,8808.450710
3603.018439,-459.657299,-666.185348,8660.409521
3603.018753,-229.828649,-518.144159,8660.409521
3603.019068,0.000000,-1110.308913,8882.471304
3603.019382,-689.485948,-592.164754,9252.574275
3603.019696,-383.047749,-666.185348,9326.594869
3603.020011,-383.047749,-592.164754,9548.656652
3603.020325,0.000000,-370.102971,9992.780217
3603.020639,153.219100,-148.041188,10510.924376
3603.020953,306.438199,888.247130,10288.862594
3603.021268,536.266849,1258.350101,9918.759623
3603.021582,1072.533697,1702.473667,9918.759623
3603.021896,1072.533697,1332.370696,9844.739029
3603.022211,842.705048,1184.329507,9474.636058
3603.022525,842.705048,-0.000000,8956.491898
3603.022839,612.876398,74.020594,8734.430116
3603.023153,612.876398,-0.000000,9104.533087
3603.023468,383.047749,-148.041188,9104.533087
3603.023782,-229.828649,-592.164754,9178.553681
3603.024096,-612.876398,-962.267725,9400.615463
3603.024411,-766.095498,-814.226536,9252.574275
3603.024725,-842.705048,-962.267725,9622.677246
3603.025039,-842.705048,-518.144159,10066.800811
3603.025353,-842.705048,-370.102971,10214.842000
3603.025668,-383.047749,-0.000000,9696.697840
3603.025982,-459.657299,296.082377,10362.883188
3603.026296,76.609550,1036.288319,10732.986159
3603.026611,459.657299,1406.391290,9696.697840
3603.026925,612.876398,1406.391290,9992.780217
3603.027239,766.095498,888.247130,9622.677246
3603.027553,536.266849,888.247130,9770.718434
3603.027868,612.876398,370.102971,9252.574275
3603.028182,536.266849,370.102971,9474.636058
3603.028496,0.000000,-0.000000,9992.780217
3603.028811,153.219100,-296.082377,9474.636058
3603.029125,-459.657299,-0.000000,9178.553681
3603.029439,-153.219100,-296.082377,8956.491898
3603.029753,-229.828649,-592.164754,9030.512492
3603.030068,0.000000,-814.226536,9104.533087
3603.030382,-306.438199,-740.205942,9178.553681
3603.030696,-229.828649,-518.144159,9622.677246
3603.031011,-229.828649,-444.123565,9696.697840
3603.031325,76.609550,-0.000000,10288.862594
3603.031639,689.485948,518.144159,10288.862594
3603.031953,919.314598,1036.288319,10288.862594
3603.032268,1149.143247,1480.411884,9992.780217
3603.032582,919.314598,1332.370696,9844.739029
3603.032896,1072.533697,1332.370696,9770.718434
3603.033211,1302.362347,888.247130,9178.553681
3603.033525,1378.971896,666.185348,8660.409521
3603.033839,995.924147,370.102971,9030.512492
3603.034153,1149.143247,-0.000000,8956.491898
3603.034468,459.657299,-222.061783,8956.491898
3603.034782,0.000000,-592.164754,9030.512492
3603.035096,-459.657299,-444.123565,8808.450710
3603.035411,-689.485948,-888.247130,9770.718434
3603.035725,-766.095498,-888.247130,9918.759623
3603.036039,-995.924147,-666.185348,10807.006753
3603.036353,-842.705048,-370.102971,10288.862594
3603.036668,-306.438199,444.123565,9992.780217
3603.036982,76.609550,1036.288319,10214.842000
3603.037296,76.609550,1258.350101,10214.842000
3603.037611,612.876398,1184.329507,9770.718434
3603.037925,306.438199,1036.288319,9474.636058
3603.038239,842.705048,592.164754,9474.636058
3603.038553,536.266849,814.226536,9474.636058
3603.038868,536.266849,666.185348,9474.636058
3603.039182,306.438199,-0.000000,9622.677246
3603.039496,-229.828649,-74.020594,9548.656652
3603.039811,-229.828649,-0.000000,8956.491898
3603.040125,-689.485948,-148.041188,9030.512492
3603.040439,-612.876398,-444.123565,8882.471304
3603.040753,-689.485948,-962.267725,9104.533087
3603.041068,-383.047749,-814.226536,9400.615463
3603.041382,-536.266849,-888.247130,9474.636058
3603.041696,-306.438199,-592.164754,9770.718434
3603.042011,-459.657299,-74.020594,10362.883188
3603.042325,76.609550,-0.000000,10436.903782
3603.042639,306.438199,518.144159,10362.883188
3603.042953,459.657299,1036.288319,10214.842000
3603.043268,766.095498,1184.329507,9918.759623
3603.043582,1072.533697,1406.391290,9844.739029
3603.043896,1149.143247,1110.308913,9326.594869
3603.044211,689.485948,444.123565,9104.533087
3603.044525,995.924147,222.061783,8882.471304
3603.044839,1072.533697,222.061783,8882.471304
3603.045153,306.438199,-296.082377,8882.471304
3603.045468,229.828649,-592.164754,9030.512492
3603.045782,-306.438199,-740.205942,9474.636058
3603.046096,-536.266849,-1036.288319,9400.615463
3603.046411,-689.485948,-1184.329507,9770.718434
3603.046725,-536.266849,-1036.288319,10362.883188
3603.047039,-612.876398,-666.185348,10066.800811
3603.047353,-689.485948,-0.000000,9992.780217
3603.047668,459.657299,444.123565,9770.718434
3603.047982,306.438199,666.185348,9696.697840
3603.048296,459.657299,1184.329507,9918.759623
3603.048611,536.266849,1184.329507,9548.656652
3603.048925,919.314598,1110.308913,9474.636058
3603.049239,842.705048,888.247130,9770.718434
3603.049553,766.095498,518.144159,9622.677246
3603.049868,842.705048,222.061783,9548.656652
3603.050182,459.657299,-296.082377,9844.739029
3603.050496,0.000000,-296.082377,9326.594869
3603.050811,0.000000,-0.000000,8808.450710
3603.051125,0.000000,-222.061783,8586.388927
3603.051439,0.000000,-370.102971,8660.409521
3603.051753,-76.609550,-444.123565,8882.471304
3603.052068,0.000000,-518.144159,9104.533087
3603.052382,-383.047749,-518.144159,9474.636058
3603.052696,-383.047749,-148.041188,10066.800811
3603.053011,-306.438199,-222.061783,10140.821405
3603.053325,0.000000,444.123565,10510.924376
3603.053639,306.438199,814.226536,10288.862594
3603.053953,383.047749,1258.350101,10214.842000
3603.054268,689.485948,1702.473667,10510.924376
3603.054582,766.095498,1776.494261,9992.780217
3603.054896,842.705048,1110.308913,9400.615463
3603.055211,842.705048,962.267725,9104.533087
3603.055525,612.876398,518.144159,9178.553681
3603.055839,612.876398,222.061783,9178.553681
3603.056153,0.000000,-74.020594,8882.471304
3603.056468,0.000000,-444.123565,8956.491898
3603.056782,-919.314598,-592.164754,9400.615463
3603.057096,-459.657299,-814.226536,9474.636058
3603.057411,-1072.533697,-962.267725,9844.739029
3603.057725,-995.924147,-592.164754,10214.842000
3603.058039,-1072.533697,-222.061783,10658.965565
3603.058353,-536.266849,-0.000000,10362.883188
3603.058668,-306.438199,962.267725,10066.800811
3603.058982,229.828649,1110.308913,10214.842000
3603.059296,689.485948,1332.370696,9844.739029
3603.059611,766.095498,1702.473667,9622.677246
3603.059925,766.095498,1110.308913,9770.718434
3603.060239,919.314598,814.226536,9844.739029
3603.060553,689.485948,518.144159,9548.656652
3603.060868,306.438199,-0.000000,9548.656652
3603.061182,76.609550,-74.020594,9474.636058
3603.061496,-229.828649,-0.000000,9326.594869
3603.061811,-306.438199,-370.102971,9030.512492
3603.062125,-306.438199,-740.205942,8734.430116
3603.062439,0.000000,-666.185348,8882.471304
3603.062753,-306.438199,-888.247130,8808.450710
3603.063068,153.219100,-1036.288319,9474.636058
3603.063382,-459.657299,-888.247130,10066.800811
3603.063696,-459.657299,-666.185348,9844.739029
3603.064011,-229.828649,-0.000000,10140.821405
3603.064325,0.000000,740.205942,10214.842000
3603.064639,766.095498,888.247130,10140.821405
3603.064953,995.924147,1036.288319,10066.800811
3603.065268,995.924147,1332.370696,9918.759623
3603.065582,1225.752797,1110.308913,9474.636058
3603.065896,1685.410096,1036.288319,8660.409521
3603.066211,1302.362347,814.226536,8882.471304
3603.066525,842.705048,148.041188,9178.553681
3603.066839,689.485948,-74.020594,8808.450710
3603.067153,306.438199,-740.205942,8660.409521
3603.067468,-306.438199,-814.226536,9030.512492
3603.067782,-306.438199,-1110.308913,9400.615463
3603.068096,-689.485948,-1184.329507,9548.656652
3603.068411,-766.095498,-1036.288319,9844.739029
3603.068725,-612.876398,-814.226536,10066.800811
3603.069039,-536.266849,-444.123565,9918.759623
3603.069353,0.000000,296.082377,9992.780217
3603.069668,0.000000,740.205942,10436.903782
3603.069982,612.876398,1110.308913,9844.739029
3603.070296,842.705048,1406.391290,9474.636058
3603.070610,1378.971896,1110.308913,9770.718434
3603.070925,995.924147,814.226536,9992.780217
3603.071239,1072.533697,740.205942,9844.739029
3603.071553,612.876398,444.123565,9696.697840
3603.071868,229.828649,-0.000000,9696.697840
3603.072182,536.266849,-0.000000,9622.677246
3603.072496,-306.438199,-0.000000,9252.574275
3603.072810,-76.609550,-666.185348,8882.471304
3603.073125,0.000000,-370.102971,8956.491898
3603.073439,-383.047749,-518.144159,9104.533087
3603.073753,-459.657299,-814.226536,9252.574275
3603.074068,-536.266849,-962.267725,9770.718434
3603.074382,-842.705048,-962.267725,10214.842000
3603.074696,-229.828649,-0.000000,10362.883188
3603.075010,-153.219100,444.123565,10362.883188
3603.075325,459.657299,888.247130,10436.903782
3603.075639,612.876398,1332.370696,10140.821405
3603.075953,612.876398,1628.453072,10066.800811
3603.076268,612.876398,1406.391290,9918.759623
3603.076582,689.485948,1332.370696,9400.615463
3603.076896,842.705048,1480.411884,9474.636058
3603.077210,919.314598,666.185348,9178.553681
3603.077525,689.485948,296.082377,9326.594869
3603.077839,0.000000,-296.082377,9030.512492
3603.078153,-459.657299,-370.102971,8586.388927
3603.078468,-459.657299,-518.144159,9400.615463
3603.078782,-383.047749,-888.247130,9474.636058
3603.079096,-995.924147,-814.226536,9696.697840
3603.079410,-995.924147,-666.185348,9770.718434
3603.079725,-1072.533697,-666.185348,10140.821405
3603.080039,-689.485948,-0.000000,10140.821405
3603.080353,-306.438199,888.247130,10066.800811
3603.080668,76.609550,1332.370696,9992.780217
3603.080982,459.657299,1480.411884,9474.636058
3603.081296,612.876398,1480.411884,9770.718434
3603.081610,536.266849,1036.288319,9622.677246
3603.081925,459.657299,592.164754,9548.656652
3603.082239,536.266849,592.164754,9548.656652
3603.082553,153.219100,-0.000000,9548.656652
3603.082868,459.657299,-222.061783,9326.594869
3603.083182,76.609550,222.061783,9252.574275
3603.083496,0.000000,-74.020594,9030.512492
3603.083811,0.000000,-444.123565,8808.450710
3603.084125,0.000000,-518.144159,8808.450710
3603.084439,-153.219100,-740.205942,8956.491898
3603.084754,-383.047749,-962.267725,9252.574275
3603.085068,-383.047749,-740.205942,9770.718434
3603.085382,76.609550,-518.144159,9844.739029
3603.085697,306.438199,-148.041188,10140.821405
3603.086011,306.438199,444.123565,10658.965565
3603.086325,612.876398,888.247130,10214.842000
3603.086640,842.705048,1332.370696,9992.780217
3603.086954,1072.533697,1258.350101,9696.697840
3603.087268,1225.752797,1036.288319,9474.636058
3603.087583,1302.362347,1036.288319,9548.656652
3603.087897,1149.143247,592.164754,9252.574275
3603.088212,842.705048,444.123565,9400.615463
3603.088526,383.047749,-0.000000,9326.594869
3603.088840,76.609550,-74.020594,9252.574275
3603.089155,0.000000,-222.061783,9030.512492
3603.089469,-459.657299,-962.267725,9474.636058
3603.089783,-536.266849,-1110.308913,10140.821405
3603.090098,-842.705048,-814.226536,9844.739029
3603.090412,-842.705048,-666.185348,9918.759623
3603.090726,-689.485948,-296.082377,10214.842000
3603.091041,-459.657299,-0.000000,10214.842000
3603.091355,0.000000,962.267725,10066.800811
3603.091669,76.609550,1332.370696,10140.821405
3603.091984,229.828649,1184.329507,9548.656652
3603.092298,306.438199,1110.308913,9400.615463
3603.092612,919.314598,888.247130,10066.800811
3603.092927,383.047749,740.205942,9918.759623
3603.093241,0.000000,296.082377,9474.636058
3603.093555,0.000000,-0.000000,9770.718434
3603.093870,0.000000,-222.061783,9622.677246
3603.094184,0.000000,-370.102971,9178.553681
3603.094499,76.609550,-0.000000,8956.491898
3603.094813,0.000000,-296.082377,8586.388927
3603.095127,-383.047749,-370.102971,9104.533087
3603.095442,0.000000,-518.144159,9104.533087
3603.095756,-612.876398,-592.164754,9400.615463
3603.096070,-306.438199,-814.226536,9992.780217
3603.096385,-383.047749,-444.123565,9992.780217
3603.096699,0.000000,-0.000000,10436.903782
3603.097013,0.000000,518.144159,10658.965565
3603.097328,842.705048,1258.350101,10584.944971
3603.097642,612.876398,1258.350101,9844.739029
3603.097956,995.924147,1628.453072,9548.656652
3603.098271,1302.362347,1258.350101,9474.636058
3603.098585,1532.190996,444.123565,8956.491898
3603.098899,1302.362347,666.185348,8808.450710
3603.099214,842.705048,444.123565,8808.450710
3603.099528,536.266849,-0.000000,8512.368333
3603.099842,0.000000,-0.000000,8882.471304
3603.100157,-229.828649,-592.164754,9104.533087
3603.100471,-536.266849,-1184.329507,9326.594869
3603.100786,-766.095498,-1258.350101,9696.697840
3603.101100,-1072.533697,-888.247130,9918.759623
3603.101414,-842.705048,-592.164754,10362.883188
3603.101729,-1225.752797,-518.144159,10510.924376
3603.102043,-459.657299,444.123565,10214.842000
3603.102357,-229.828649,666.185348,9696.697840
3603.102672,536.266849,1406.391290,9622.677246
3603.102986,842.705048,1184.329507,9474.636058
3603.103300,459.657299,1110.308913,9992.780217
3603.103615,689.485948,962.267725,9844.739029
3603.103929,689.485948,444.123565,9844.739029
3603.104243,689.485948,-0.000000,9474.636058
3603.104558,689.485948,-222.061783,9622.677246
3603.104872,0.000000,-444.123565,9474.636058
3603.105186,0.000000,-148.041188,9178.553681
3603.105501,-229.828649,-222.061783,9326.594869
3603.105815,-459.657299,-666.185348,9548.656652
3603.106130,-689.485948,-1110.308913,9030.512492
3603.106444,-306.438199,-962.267725,9252.574275
3603.106758,-919.314598,-740.205942,9844.739029
3603.107073,-612.876398,-814.226536,9844.739029
3603.107387,-689.485948,-444.123565,10362.883188
3603.107701,0.000000,296.082377,10362.883188
3603.108016,459.657299,666.185348,10362.883188
3603.108330,612.876398,1258.350101,9918.759623
3603.108644,612.876398,1628.453072,9474.636058
3603.108959,995.924147,1332.370696,9696.697840
3603.109273,1149.143247,1332.370696,9622.677246
3603.109587,995.924147,888.247130,9326.594869
3603.109902,536.266849,370.102971,8956.491898
3603.110216,689.485948,-444.123565,8882.471304
3603.110530,0.000000,-0.000000,8808.450710
3603.110845,-76.609550,-222.061783,8956.491898
3603.111159,-459.657299,-814.226536,9400.615463
3603.111473,-536.266849,-962.267725,9474.636058
3603.111788,-919.314598,-814.226536,9548.656652
3603.112102,-995.924147,-814.226536,9622.677246
3603.112417,-995.924147,-370.102971,10140.821405
3603.112731,-842.705048,296.082377,10066.800811
3603.113045,-153.219100,666.185348,9696.697840
3603.113360,229.828649,962.267725,9252.574275
3603.113674,459.657299,814.226536,9400.615463
3603.113988,459.657299,1406.391290,9474.636058
3603.114303,842.705048,1480.411884,9622.677246
3603.114617,459.657299,814.226536,9696.697840
3603.114931,689.485948,296.082377,9696.697840
3603.115246,383.047749,222.061783,9918.759623
3603.115560,459.657299,-0.000000,9696.697840
3603.115874,76.609550,-74.020594,9252.574275
3603.116189,0.000000,-370.102971,8660.409521
3603.116503,0.000000,-888.247130,8956.491898
3603.116817,-383.047749,-740.205942,9326.594869
3603.117132,-76.609550,-740.205942,9030.512492
3603.117446,-612.876398,-666.185348,9104.533087
3603.117760,-459.657299,-814.226536,9844.739029
3603.118075,-153.219100,-592.164754,10288.862594
3603.118389,76.609550,-0.000000,10140.821405
3603.118704,383.047749,518.144159,10584.944971
3603.119018,383.047749,1110.308913,10807.006753
3603.119332,612.876398,1480.411884,10510.924376
3603.119647,689.485948,1924.535449,9696.697840
3603.119961,1149.143247,1554.432478,9622.677246
3603.120275,1149.143247,1184.329507,9770.718434
3603.120590,919.314598,740.205942,9326.594869
3603.120904,995.924147,444.123565,9030.512492
3603.121218,689.485948,-0.000000,8882.471304
3603.121533,76.609550,-444.123565,8734.430116
3603.121847,0.000000,-666.185348,8808.450710
3603.122161,-306.438199,-666.185348,9252.574275
3603.122476,-612.876398,-888.247130,9696.697840
3603.122790,-1225.752797,-962.267725,9844.739029
3603.123104,-1302.362347,-666.185348,10140.821405
3603.123419,-995.924147,-74.020594,10140.821405
3603.123733,-919.314598,296.082377,10362.883188
3603.124047,-306.438199,740.205942,9844.739029
3603.124362,306.438199,1110.308913,9918.759623
3603.124676,383.047749,1184.329507,9770.718434
3603.124991,842.705048,1406.391290,9474.636058
3603.125305,842.705048,1258.350101,9696.697840
3603.125619,1072.533697,666.185348,9474.636058
3603.125934,1149.143247,518.144159,9326.594869
3603.126248,459.657299,-518.144159,9178.553681
3603.126562,229.828649,-148.041188,9400.615463
3603.126877,0.000000,-74.020594,9178.553681
3603.127191,-306.438199,-592.164754,8734.430116
3603.127505,153.219100,-888.247130,8882.471304
3603.127820,0.000000,-888.247130,9400.615463
3603.128134,-536.266849,-1184.329507,9252.574275
3603.128448,-766.095498,-1184.329507,9400.615463
3603.128763,-459.657299,-1184.329507,9844.739029
3603.129077,-229.828649,-370.102971,10288.862594
3603.129391,459.657299,74.020594,10362.883188
3603.129706,153.219100,740.205942,10584.944971
3603.130020,612.876398,1184.329507,10881.027347
3603.130335,1072.533697,1480.411884,9918.759623
3603.130649,1302.362347,1776.494261,9400.615463
3603.130963,1149.143247,1480.411884,9696.697840
3603.131278,995.924147,888.247130,9474.636058
3603.131592,536.266849,370.102971,9178.553681
3603.131906,612.876398,-0.000000,8956.491898
3603.132221,0.000000,-74.020594,9030.512492
3603.132535,-306.438199,-370.102971,8956.491898
3603.132849,-306.438199,-592.164754,9252.574275
3603.133164,-689.485948,-1036.288319,9474.636058
3603.133478,-842.705048,-1110.308913,9622.677246
3603.133792,-1072.533697,-592.164754,9918.759623
3603.134107,0.000000,-0.000000,9844.739029
3603.134421,-612.876398,-0.000000,9992.780217
3603.134735,-153.219100,888.247130,9992.780217
3603.135050,153.219100,1258.350101,9770.718434
3603.135364,306.438199,1258.350101,10066.800811
3603.135678,766.095498,1554.432478,9474.636058
3603.135993,383.047749,1110.308913,9548.656652
3603.136307,919.314598,666.185348,9770.718434
3603.136622,536.266849,814.226536,9548.656652
3603.136936,689.485948,370.102971,9844.739029
3603.137250,0.000000,-370.102971,9548.656652
3603.137565,612.876398,-148.041188,9252.574275
3603.137879,0.000000,-0.000000,8734.430116
3603.138193,0.000000,-0.000000,8438.347739
3603.138508,-153.219100,-666.185348,9400.615463
3603.138822,-229.828649,-1036.288319,9622.677246
3603.139136,-689.485948,-888.247130,9474.636058
3603.139451,-612.876398,-740.205942,9696.697840
3603.139765,-383.047749,-444.123565,10436.903782
3603.140079,0.000000,-148.041188,11029.068536
3603.140394,76.609550,296.082377,10881.027347
3603.140708,306.438199,962.267725,10510.924376
3603.141022,612.876398,1258.350101,10214.842000
