#time,accel_x,accel_y,accel_z
4224.353830,459.657299,148.041188,9548.656652
4224.354145,0.000000,296.082377,9548.656652
4224.354460,229.828649,-0.000000,9622.677246
4224.354776,0.000000,222.061783,9474.636058
4224.355091,0.000000,-0.000000,9474.636058
4224.355407,0.000000,-0.000000,9400.615463
4224.355722,153.219100,444.123565,9696.697840
4224.356037,229.828649,296.082377,9474.636058
4224.356353,0.000000,-0.000000,9474.636058
4224.356668,229.828649,-0.000000,9474.636058
4224.356984,-153.219100,-0.000000,9548.656652
4224.357299,0.000000,-0.000000,9622.677246
4224.357614,76.609550,296.082377,9400.615463
4224.357930,153.219100,222.061783,9326.594869
4224.358245,306.438199,-0.000000,9770.718434
4224.358561,229.828649,-0.000000,9548.656652
4224.358876,383.047749,-0.000000,9474.636058
4224.359191,0.000000,-148.041188,9474.636058
4224.359507,229.828649,-0.000000,9474.636058
4224.359822,459.657299,-0.000000,9548.656652
4224.360138,153.219100,148.041188,9770.718434
4224.360453,153.219100,148.041188,9770.718434
4224.360768,0.000000,-0.000000,9548.656652
4224.361084,536.266849,296.082377,9548.656652
4224.361399,383.047749,-0.000000,9622.677246
4224.361715,612.876398,-0.000000,9844.739029
4224.362030,0.000000,-74.020594,9844.739029
4224.362345,0.000000,296.082377,9770.718434
4224.362661,76.609550,-0.000000,9326.594869
4224.362976,76.609550,-0.000000,9696.697840
4224.363292,306.438199,-74.020594,9548.656652
4224.363607,0.000000,222.061783,9622.677246
4224.363922,76.609550,370.102971,9696.697840
4224.364238,76.609550,296.082377,9474.636058
4224.364553,153.219100,-0.000000,9548.656652
4224.364869,229.828649,-0.000000,9548.656652
4224.365184,76.609550,444.123565,9770.718434
4224.365499,0.000000,296.082377,9326.594869
4224.365815,229.828649,-0.000000,9400.615463
4224.366130,0.000000,148.041188,9474.636058
4224.366446,0.000000,370.102971,9400.615463
4224.366761,0.000000,148.041188,9474.636058
4224.367076,76.609550,222.061783,9474.636058
4224.367392,0.000000,-0.000000,9474.636058
4224.367707,153.219100,-0.000000,9548.656652
4224.368023,229.828649,444.123565,9696.697840
4224.368338,76.609550,370.102971,9178.553681
4224.368653,459.657299,296.082377,9474.636058
4224.368969,229.828649,-74.020594,9474.636058
4224.369284,0.000000,-0.000000,9918.759623
4224.369600,306.438199,-0.000000,9918.759623
4224.369915,229.828649,-0.000000,9548.656652
4224.370230,76.609550,-0.000000,9622.677246
4224.370546,306.438199,-0.000000,9696.697840
4224.370861,306.438199,-0.000000,9474.636058
4224.371177,153.219100,-74.020594,9770.718434
4224.371492,76.609550,74.020594,9474.636058
4224.371807,383.047749,370.102971,9696.697840
4224.372123,153.219100,296.082377,9622.677246
4224.372438,76.609550,-0.000000,9844.739029
4224.372754,153.219100,-0.000000,10066.800811
4224.373069,0.000000,370.102971,9474.636058
4224.373384,0.000000,222.061783,9474.636058
4224.373700,-153.219100,222.061783,9696.697840
4224.374015,-229.828649,-0.000000,9918.759623
4224.374331,0.000000,-0.000000,9474.636058
4224.374646,0.000000,-0.000000,9474.636058
4224.374961,0.000000,296.082377,9474.636058
4224.375277,0.000000,-0.000000,9622.677246
4224.375592,0.000000,666.185348,9696.697840
4224.375908,-689.485948,370.102971,9326.594869
4224.376223,-842.705048,296.082377,9400.615463
4224.376538,-536.266849,370.102971,9400.615463
4224.376854,-689.485948,370.102971,9696.697840
4224.377169,-153.219100,666.185348,9696.697840
4224.377485,-766.095498,370.102971,9474.636058
4224.377800,-612.876398,518.144159,9104.533087
4224.378115,-459.657299,814.226536,9474.636058
4224.378431,-459.657299,1036.288319,9696.697840
4224.378746,-383.047749,962.267725,9178.553681
4224.379062,-766.095498,1036.288319,9104.533087
4224.379377,-612.876398,1332.370696,9104.533087
4224.379692,-1455.581446,1332.370696,8882.471304
4224.380008,-1225.752797,1332.370696,9326.594869
4224.380323,-1991.848295,1184.329507,9178.553681
4224.380639,-2298.286494,888.247130,9400.615463
4224.380954,-2528.115143,962.267725,9548.656652
4224.381269,-2681.334243,1036.288319,9918.759623
4224.381585,-2987.772442,1332.370696,9992.780217
4224.381900,-3064.381992,1184.329507,9770.718434
4224.382216,-2911.162892,1702.473667,9548.656652
4224.382531,-2681.334243,2294.638420,9992.780217
4224.382846,-2221.676944,2072.576638,9474.636058
4224.383162,-2834.553343,2442.679609,9252.574275
4224.383477,-2604.724693,2664.741391,9326.594869
4224.383793,-2374.896044,3182.885551,9400.615463
4224.384108,-2298.286494,3034.844362,9104.533087
4224.384423,-2757.943793,3256.906145,9844.739029
4224.384739,-2604.724693,2738.761985,10288.862594
4224.385054,-2451.505594,2590.720797,10214.842000
4224.385370,-2451.505594,2516.700203,10140.821405
4224.385685,-2298.286494,2146.597232,10214.842000
4224.386000,-1378.971896,2368.659014,10214.842000
4224.386316,-1149.143247,2738.761985,9474.636058
4224.386631,-1225.752797,3034.844362,8882.471304
4224.386947,-919.314598,3775.050304,8586.388927
4224.387262,0.000000,4219.173869,8438.347739
4224.387577,-919.314598,4145.153275,8586.388927
4224.387893,-1762.019645,4071.132681,9104.533087
4224.388208,-2221.676944,3552.988522,9400.615463
4224.388524,-2451.505594,3034.844362,9918.759623
4224.388839,-2987.772442,2368.659014,10658.965565
4224.389154,-2451.505594,2368.659014,11103.089130
4224.389470,-2757.943793,2738.761985,11177.109724
4224.389785,-2451.505594,3034.844362,10807.006753
4224.390101,-2221.676944,3775.050304,10510.924376
4224.390416,-2068.457845,3849.070898,9696.697840
4224.390731,-1532.190996,4515.256246,8956.491898
4224.391047,-1608.800546,4515.256246,8882.471304
4224.391362,-1455.581446,4367.215058,8734.430116
4224.391678,-1532.190996,3701.029710,9326.594869
4224.391993,-1991.848295,3256.906145,9696.697840
4224.392308,-2298.286494,2442.679609,10288.862594
4224.392624,-2221.676944,1850.514855,10732.986159
4224.392939,-2221.676944,1776.494261,10955.047942
4224.393255,-1685.410096,1628.453072,11621.233289
4224.393570,-1685.410096,2072.576638,11103.089130
4224.393885,-766.095498,2368.659014,10288.862594
4224.394201,0.000000,2886.803174,9548.656652
4224.394516,536.266849,2886.803174,8808.450710
4224.394832,766.095498,3627.009116,8216.285956
4224.395147,383.047749,3775.050304,7920.203579
4224.395462,-306.438199,3701.029710,7994.224174
4224.395778,-1455.581446,3182.885551,8142.265362
4224.396093,-2221.676944,2442.679609,8586.388927
4224.396409,-2528.115143,1480.411884,9548.656652
4224.396724,-3907.087040,1110.308913,10584.944971
4224.397039,-4443.353888,296.082377,11399.171507
4224.397355,-4673.182538,-0.000000,11103.089130
4224.397670,-4519.963438,370.102971,11251.130318
4224.397986,-3370.820191,370.102971,10658.965565
4224.398301,-3064.381992,962.267725,10288.862594
4224.398616,-1991.848295,1776.494261,10436.903782
4224.398932,-842.705048,2294.638420,9696.697840
4224.399247,0.000000,2960.823768,8808.450710
4224.399563,766.095498,3404.947333,8586.388927
4224.399878,0.000000,3182.885551,8216.285956
4224.400193,0.000000,3034.844362,7920.203579
4224.400509,-842.705048,2442.679609,7772.162391
4224.400824,-2068.457845,1628.453072,7994.224174
4224.401140,-2757.943793,518.144159,7920.203579
4224.401455,-4060.306139,-296.082377,8438.347739
4224.401770,-5362.668486,-814.226536,9696.697840
4224.402086,-5286.058936,-1554.432478,10732.986159
4224.402401,-5362.668486,-1036.288319,10955.047942
4224.402717,-4903.011187,-1258.350101,11621.233289
4224.403032,-3370.820191,-666.185348,11769.274478
4224.403347,-1378.971896,-0.000000,11769.274478
4224.403663,153.219100,1554.432478,9844.739029
4224.403978,2221.676944,3552.988522,8956.491898
4224.404293,2451.505594,5181.441594,7105.977043
4224.404609,2298.286494,6217.729913,5921.647536
4224.404924,1915.238745,6143.709319,5107.421000
4224.405240,612.876398,5107.421000,5477.523971
4224.405555,-1685.410096,3849.070898,7105.977043
4224.405870,-4673.182538,1554.432478,9326.594869
4224.406186,-6052.154434,-2294.638420,12583.501014
4224.406501,-6818.249932,-3478.967927,13027.624579
4224.406817,-7584.345430,-4145.153275,14211.954086
4224.407132,-6511.811733,-3552.988522,15840.407159
4224.407447,-4519.963438,-1998.556043,13693.809927
4224.407763,-1685.410096,1702.473667,10510.924376
4224.408078,689.485948,4737.318029,7772.162391
4224.408394,2298.286494,7698.141797,5403.503377
4224.408709,3447.429741,9622.677246,4071.132681
4224.409024,3140.991542,10288.862594,3404.947333
4224.409340,1608.800546,8364.327145,5477.523971
4224.409655,-229.828649,5477.523971,9030.512492
4224.409971,-2145.067394,2146.597232,11547.212695
4224.410286,-4366.744339,-1924.535449,14063.912898
4224.410601,-5056.230287,-3330.926739,15248.242405
4224.410917,-5056.230287,-3404.947333,15248.242405
4224.411232,-4290.134789,-2738.761985,13545.768739
4224.411548,-3294.210641,222.061783,10732.986159
4224.411863,-1608.800546,3330.926739,9622.677246
4224.412178,-306.438199,6291.750507,5699.585753
4224.412494,689.485948,7550.100608,4367.215058
4224.412809,1532.190996,8068.244768,4663.297435
4224.413125,-306.438199,6957.935855,6513.812290
4224.413440,-995.924147,4737.318029,8216.285956
4224.413755,-1455.581446,2220.617826,10288.862594
4224.414071,-1838.629195,1110.308913,11695.253884
4224.414386,-1762.019645,518.144159,12287.418637
4224.414702,-2834.553343,592.164754,12953.603985
4224.415017,-3753.867940,592.164754,13027.624579
4224.415332,-3140.991542,1480.411884,12065.356855
4224.415648,-3370.820191,3034.844362,10288.862594
4224.415963,-3217.601092,3701.029710,8512.368333
4224.416279,-3294.210641,3627.009116,8216.285956
4224.416594,-2145.067394,3256.906145,7624.121203
4224.416909,-1608.800546,3256.906145,7328.038826
4224.417225,-1915.238745,4071.132681,8290.306550
4224.417540,-1991.848295,3404.947333,9770.718434
4224.417856,-2528.115143,2516.700203,10881.027347
4224.418171,-2451.505594,2368.659014,12139.377449
4224.418486,-2068.457845,1110.308913,11695.253884
4224.418802,-1915.238745,-74.020594,10955.047942
4224.419117,-1608.800546,-0.000000,10214.842000
4224.419433,-2221.676944,2072.576638,8956.491898
4224.419748,-2451.505594,3330.926739,7920.203579
4224.420063,-2145.067394,4293.194464,7328.038826
4224.420379,-2145.067394,5255.462188,7254.018232
4224.420694,-2681.334243,4515.256246,7846.182985
4224.421009,-3447.429741,2516.700203,8660.409521
4224.421325,-3140.991542,740.205942,9992.780217
4224.421640,-3294.210641,-296.082377,11473.192101
4224.421955,-3064.381992,-1332.370696,12805.562797
4224.422271,-2068.457845,-518.144159,13101.645173
4224.422586,-1608.800546,370.102971,11843.295072
4224.422901,-459.657299,1924.535449,9844.739029
4224.423217,995.924147,3034.844362,7920.203579
4224.423532,1685.410096,4441.235652,6291.750507
4224.423847,1532.190996,5107.421000,5921.647536
4224.424163,842.705048,4737.318029,5477.523971
4224.424478,-536.266849,3552.988522,6291.750507
4224.424793,-2604.724693,2590.720797,8216.285956
4224.425109,-3140.991542,-296.082377,9548.656652
4224.425424,-3600.648841,-1480.411884,10955.047942
4224.425739,-3524.039291,-2664.741391,12509.480420
4224.426055,-3677.258390,-2960.823768,13841.851115
4224.426370,-3983.696590,-1480.411884,14137.933492
4224.426685,-3294.210641,1110.308913,12287.418637
4224.427000,-2374.896044,2738.761985,10436.903782
4224.427316,0.000000,4145.153275,8808.450710
4224.427631,1302.362347,5033.400406,6661.853478
4224.427946,1685.410096,4515.256246,6143.709319
4224.428262,536.266849,4367.215058,6883.915261
4224.428577,-1149.143247,4737.318029,7254.018232
4224.428892,-2145.067394,3034.844362,8956.491898
4224.429208,-2604.724693,1258.350101,10288.862594
4224.429523,-2681.334243,-592.164754,12361.439231
4224.429838,-2681.334243,-2294.638420,12583.501014
4224.430154,-3830.477490,-3034.844362,13027.624579
4224.430469,-4673.182538,-814.226536,11843.295072
4224.430784,-3830.477490,-0.000000,10881.027347
4224.431100,-1991.848295,2368.659014,8216.285956
4224.431415,-459.657299,4293.194464,7402.059420
4224.431730,766.095498,4589.276840,6883.915261
4224.432046,459.657299,4663.297435,6735.874072
4224.432361,-995.924147,6069.688724,7105.977043
4224.432676,-536.266849,4589.276840,8438.347739
4224.432992,-459.657299,2664.741391,9770.718434
4224.433307,0.000000,296.082377,11991.336260
4224.433622,-766.095498,-1258.350101,12879.583391
4224.433938,-1991.848295,-814.226536,12583.501014
4224.434253,-3217.601092,-148.041188,11769.274478
4224.434568,-1685.410096,1036.288319,9918.759623
4224.434884,-612.876398,2590.720797,7920.203579
4224.435199,306.438199,3256.906145,6439.791695
4224.435514,153.219100,3330.926739,6883.915261
4224.435829,-1378.971896,4441.235652,5921.647536
4224.436145,-2221.676944,2960.823768,7550.100608
4224.436460,-1685.410096,2146.597232,9104.533087
4224.436775,-1225.752797,222.061783,11399.171507
4224.437091,-1225.752797,-518.144159,12139.377449
4224.437406,-2604.724693,-962.267725,13545.768739
4224.437721,-1991.848295,-148.041188,13027.624579
4224.438037,-842.705048,-0.000000,12657.521608
4224.438352,612.876398,1924.535449,10658.965565
4224.438667,2068.457845,2442.679609,9696.697840
4224.438983,1685.410096,3478.967927,8364.327145
4224.439298,612.876398,4367.215058,6513.812290
4224.439613,842.705048,3034.844362,6661.853478
4224.439929,766.095498,2442.679609,7772.162391
4224.440244,536.266849,888.247130,8956.491898
4224.440559,-229.828649,-1554.432478,10140.821405
4224.440875,-2834.553343,-2220.617826,12065.356855
4224.441190,-2451.505594,-2516.700203,12583.501014
4224.441505,-1532.190996,-2590.720797,12287.418637
4224.441821,-383.047749,-1850.514855,12065.356855
4224.442136,842.705048,-296.082377,11029.068536
4224.442451,0.000000,1628.453072,8734.430116
4224.442767,995.924147,2590.720797,7328.038826
4224.443082,2221.676944,3330.926739,7031.956449
4224.443397,2451.505594,3997.112087,6217.729913
4224.443713,1838.629195,2664.741391,6809.894666
4224.444028,153.219100,1998.556043,8364.327145
4224.444343,-1302.362347,444.123565,9474.636058
4224.444658,-1378.971896,-1480.411884,10362.883188
4224.444974,-1072.533697,-2590.720797,12509.480420
4224.445289,-1072.533697,-3478.967927,12657.521608
4224.445604,-1838.629195,-3997.112087,12213.398043
4224.445920,-1149.143247,-2368.659014,10584.944971
4224.446235,-383.047749,-370.102971,8956.491898
4224.446550,612.876398,1184.329507,8808.450710
4224.446866,2374.896044,2294.638420,8142.265362
4224.447181,1991.848295,2516.700203,6587.832884
4224.447496,1378.971896,2664.741391,6217.729913
4224.447812,1378.971896,1480.411884,6735.874072
4224.448127,1455.581446,-74.020594,9030.512492
4224.448442,1455.581446,-1628.453072,10584.944971
4224.448758,0.000000,-2886.803174,11473.192101
4224.449073,-1072.533697,-3108.864956,12065.356855
4224.449388,-766.095498,-2368.659014,11251.130318
4224.449704,0.000000,-1924.535449,11103.089130
4224.450019,995.924147,-1406.391290,10362.883188
4224.450334,536.266849,-444.123565,9326.594869
4224.450650,-153.219100,814.226536,7698.141797
4224.450965,229.828649,962.267725,6883.915261
4224.451280,842.705048,1628.453072,7624.121203
4224.451596,612.876398,814.226536,7846.182985
4224.451911,919.314598,-1406.391290,9696.697840
4224.452226,-383.047749,-1628.453072,9770.718434
4224.452542,-1302.362347,-2072.576638,10658.965565
4224.452857,-919.314598,-1850.514855,12583.501014
4224.453172,-766.095498,-1924.535449,12139.377449
4224.453488,383.047749,-1998.556043,11695.253884
4224.453803,-459.657299,-962.267725,10436.903782
4224.454118,-919.314598,-0.000000,8660.409521
4224.454433,76.609550,888.247130,7846.182985
4224.454749,689.485948,2072.576638,7254.018232
4224.455064,536.266849,1184.329507,7772.162391
4224.455379,-689.485948,518.144159,8364.327145
4224.455695,-1455.581446,-518.144159,8734.430116
4224.456010,-995.924147,-1406.391290,10436.903782
4224.456325,-536.266849,-1850.514855,11399.171507
4224.456641,76.609550,-1850.514855,12361.439231
4224.456956,-612.876398,-1776.494261,11843.295072
4224.457271,-612.876398,-518.144159,10732.986159
4224.457587,919.314598,296.082377,8808.450710
4224.457902,1991.848295,1702.473667,7994.224174
4224.458217,2987.772442,1998.556043,8216.285956
4224.458533,1915.238745,2664.741391,7031.956449
4224.458848,689.485948,2886.803174,6957.935855
4224.459163,383.047749,2146.597232,7179.997637
4224.459479,459.657299,1480.411884,8808.450710
4224.459794,383.047749,-962.267725,10732.986159
4224.460109,-229.828649,-1924.535449,11695.253884
4224.460425,-1378.971896,-814.226536,11917.315666
4224.460740,-995.924147,-1036.288319,11621.233289
4224.461055,383.047749,-148.041188,11473.192101
4224.461371,306.438199,1332.370696,9844.739029
4224.461686,1455.581446,518.144159,9696.697840
4224.462001,536.266849,2368.659014,8660.409521
4224.462317,1455.581446,3256.906145,6809.894666
4224.462632,1838.629195,3182.885551,7624.121203
4224.462947,2145.067394,2886.803174,8142.265362
4224.463262,1225.752797,1184.329507,9474.636058
4224.463578,-306.438199,296.082377,10881.027347
4224.463893,-1072.533697,-888.247130,11251.130318
4224.464208,-689.485948,-518.144159,11621.233289
4224.464524,0.000000,-888.247130,11991.336260
4224.464839,76.609550,-1036.288319,11843.295072
4224.465154,-842.705048,-296.082377,10881.027347
4224.465470,0.000000,814.226536,9696.697840
4224.465785,766.095498,1554.432478,8290.306550
4224.466100,2068.457845,2294.638420,8216.285956
4224.466416,2221.676944,1850.514855,8734.430116
4224.466731,689.485948,1702.473667,7994.224174
4224.467046,-229.828649,814.226536,9474.636058
4224.467362,0.000000,518.144159,9622.677246
4224.467677,0.000000,-0.000000,11029.068536
4224.467992,0.000000,-962.267725,12065.356855
4224.468308,-1608.800546,-1110.308913,11473.192101
4224.468623,-2298.286494,-1406.391290,11029.068536
4224.468938,-1225.752797,-444.123565,9992.780217
4224.469254,-459.657299,370.102971,9918.759623
4224.469569,153.219100,518.144159,9474.636058
4224.469884,-306.438199,592.164754,8956.491898
4224.470200,-919.314598,1406.391290,8142.265362
4224.470515,-536.266849,1480.411884,7402.059420
4224.470830,76.609550,2220.617826,8438.347739
4224.471146,383.047749,-0.000000,9992.780217
4224.471461,-766.095498,-1110.308913,10955.047942
4224.471776,-1915.238745,-1184.329507,10288.862594
4224.472091,-1072.533697,-2220.617826,10362.883188
4224.472407,-612.876398,-1406.391290,10140.821405
4224.472722,-153.219100,-592.164754,10288.862594
4224.473037,459.657299,-592.164754,9622.677246
4224.473353,153.219100,296.082377,8364.327145
4224.473668,536.266849,-74.020594,8068.244768
4224.473983,919.314598,1406.391290,6957.935855
4224.474299,1072.533697,740.205942,7476.080014
4224.474614,1302.362347,-74.020594,8956.491898
4224.474929,0.000000,-666.185348,9474.636058
4224.475245,-306.438199,-1702.473667,9474.636058
4224.475560,0.000000,-1480.411884,10288.862594
4224.475875,153.219100,-1110.308913,10881.027347
4224.476191,1455.581446,-1406.391290,10510.924376
4224.476506,153.219100,-814.226536,9844.739029
4224.476821,0.000000,-1036.288319,9252.574275
4224.477137,995.924147,-148.041188,8364.327145
4224.477452,1838.629195,814.226536,7994.224174
4224.477767,1991.848295,962.267725,8142.265362
4224.478083,1149.143247,518.144159,8734.430116
4224.478398,536.266849,-222.061783,8956.491898
4224.478713,612.876398,-814.226536,8882.471304
4224.479029,1072.533697,-0.000000,10066.800811
4224.479344,1072.533697,-666.185348,9992.780217
4224.479659,383.047749,-1480.411884,11251.130318
4224.479975,0.000000,-592.164754,10658.965565
4224.480290,306.438199,-814.226536,9474.636058
4224.480605,1072.533697,-0.000000,9844.739029
4224.480920,1608.800546,148.041188,9178.553681
4224.481236,842.705048,-148.041188,9474.636058
4224.481551,0.000000,666.185348,9104.533087
4224.481866,76.609550,666.185348,8734.430116
4224.482182,842.705048,1184.329507,9178.553681
4224.482497,1225.752797,814.226536,9844.739029
4224.482812,0.000000,-0.000000,10362.883188
4224.483128,-1072.533697,-0.000000,10214.842000
4224.483443,-536.266849,-0.000000,10066.800811
4224.483758,76.609550,222.061783,9844.739029
4224.484074,536.266849,222.061783,10288.862594
4224.484389,229.828649,518.144159,10362.883188
4224.484704,-1225.752797,666.185348,9474.636058
4224.485020,-1685.410096,1258.350101,9030.512492
4224.485335,-995.924147,1924.535449,8512.368333
4224.485650,0.000000,1702.473667,9030.512492
4224.485966,76.609550,666.185348,9474.636058
4224.486281,-1608.800546,222.061783,9844.739029
4224.486596,-1915.238745,-222.061783,9622.677246
4224.486912,-1838.629195,-0.000000,10140.821405
4224.487227,-919.314598,444.123565,10436.903782
4224.487542,-306.438199,-74.020594,10732.986159
4224.487858,-1455.581446,370.102971,9992.780217
4224.488173,-459.657299,518.144159,9400.615463
4224.488488,-229.828649,1184.329507,9326.594869
4224.488804,383.047749,1406.391290,8956.491898
4224.489119,536.266849,1184.329507,9474.636058
4224.489434,-306.438199,592.164754,9400.615463
4224.489750,-689.485948,814.226536,9030.512492
4224.490065,-306.438199,518.144159,9326.594869
4224.490380,459.657299,1332.370696,9474.636058
4224.490695,536.266849,814.226536,9992.780217
4224.491011,-459.657299,370.102971,10214.842000
4224.491326,-1149.143247,-518.144159,10140.821405
4224.491641,-536.266849,-592.164754,9770.718434
4224.491957,536.266849,518.144159,9622.677246
4224.492272,1302.362347,-0.000000,10214.842000
4224.492587,766.095498,296.082377,9548.656652
4224.492903,-306.438199,592.164754,9474.636058
4224.493218,76.609550,740.205942,9474.636058
4224.493533,1072.533697,1554.432478,9030.512492
4224.493849,1685.410096,1924.535449,9474.636058
4224.494164,689.485948,666.185348,9548.656652
4224.494479,-306.438199,-74.020594,9474.636058
4224.494795,383.047749,-962.267725,9992.780217
4224.495110,306.438199,-148.041188,10288.862594
4224.495425,1149.143247,-0.000000,10658.965565
4224.495741,995.924147,-222.061783,10584.944971
4224.496056,76.609550,-148.041188,10066.800811
4224.496371,1072.533697,-0.000000,9178.553681
4224.496687,1532.190996,-148.041188,8364.327145
4224.497002,2528.115143,1332.370696,8586.388927
4224.497317,1991.848295,-0.000000,9400.615463
4224.497633,1302.362347,370.102971,8364.327145
4224.497948,229.828649,-518.144159,8660.409521
4224.498263,842.705048,-518.144159,9252.574275
4224.498579,1225.752797,-74.020594,10214.842000
4224.498894,1378.971896,-1332.370696,10510.924376
4224.499209,153.219100,-1332.370696,10658.965565
4224.499524,-306.438199,-962.267725,10066.800811
4224.499840,76.609550,-592.164754,9474.636058
4224.500155,995.924147,148.041188,9474.636058
4224.500470,1072.533697,148.041188,9770.718434
4224.500786,306.438199,370.102971,9548.656652
4224.501101,-612.876398,370.102971,8438.347739
4224.501416,-306.438199,-0.000000,8734.430116
4224.501732,0.000000,296.082377,9548.656652
4224.502047,536.266849,-370.102971,9770.718434
4224.502362,-689.485948,-666.185348,9918.759623
4224.502678,-1915.238745,-888.247130,10732.986159
4224.502993,-1991.848295,-1258.350101,10288.862594
4224.503308,-1072.533697,-518.144159,10288.862594
4224.503624,383.047749,-518.144159,10288.862594
4224.503939,-229.828649,-592.164754,9474.636058
4224.504254,-1378.971896,-296.082377,9400.615463
4224.504570,-995.924147,-0.000000,8882.471304
4224.504885,-766.095498,1110.308913,8808.450710
4224.505200,612.876398,740.205942,9104.533087
4224.505516,689.485948,-0.000000,9178.553681
4224.505831,-689.485948,-370.102971,9400.615463
4224.506146,-1225.752797,-1332.370696,9696.697840
4224.506462,-612.876398,-740.205942,9178.553681
4224.506777,153.219100,222.061783,10140.821405
4224.507092,153.219100,-518.144159,10510.924376
4224.507408,-919.314598,-296.082377,9696.697840
4224.507723,-842.705048,370.102971,9474.636058
4224.508038,0.000000,370.102971,9030.512492
4224.508353,766.095498,1480.411884,9030.512492
4224.508669,1455.581446,740.205942,9622.677246
4224.508984,-153.219100,148.041188,9400.615463
4224.509299,-842.705048,740.205942,9030.512492
4224.509615,-612.876398,-148.041188,8734.430116
4224.509930,1072.533697,-222.061783,9770.718434
4224.510245,766.095498,-518.144159,9992.780217
4224.510561,0.000000,-740.205942,9992.780217
4224.510876,-1455.581446,-296.082377,9326.594869
4224.511191,-306.438199,148.041188,8660.409521
4224.511507,1072.533697,1036.288319,9178.553681
4224.511822,1915.238745,740.205942,9474.636058
4224.512137,995.924147,222.061783,9400.615463
4224.512453,76.609550,-0.000000,9252.574275
4224.512768,76.609550,444.123565,9104.533087
4224.513083,1455.581446,1924.535449,9252.574275
4224.513399,2374.896044,1258.350101,9844.739029
4224.513714,1072.533697,814.226536,10510.924376
4224.514029,0.000000,444.123565,10214.842000
4224.514345,229.828649,-222.061783,10658.965565
4224.514660,842.705048,518.144159,10214.842000
4224.514975,1149.143247,-0.000000,11399.171507
4224.515291,1302.362347,814.226536,9992.780217
4224.515606,229.828649,518.144159,9918.759623
4224.515921,766.095498,370.102971,9326.594869
4224.516237,1302.362347,1628.453072,8660.409521
4224.516552,2221.676944,1406.391290,9548.656652
4224.516867,2145.067394,888.247130,9696.697840
4224.517182,76.609550,814.226536,9548.656652
4224.517498,153.219100,370.102971,9326.594869
4224.517813,76.609550,-0.000000,9400.615463
4224.518128,459.657299,-0.000000,10881.027347
4224.518444,229.828649,-148.041188,11843.295072
4224.518759,-689.485948,-370.102971,10362.883188
4224.519074,-459.657299,-370.102971,10732.986159
4224.519390,-229.828649,444.123565,9474.636058
4224.519705,1225.752797,814.226536,8882.471304
4224.520020,1072.533697,518.144159,9326.594869
4224.520336,-383.047749,-0.000000,9696.697840
4224.520651,-842.705048,-74.020594,9326.594869
4224.520973,-766.095498,-74.020594,9104.533087
4224.521288,0.000000,592.164754,9474.636058
4224.521604,229.828649,-296.082377,9474.636058
4224.521919,-766.095498,-1110.308913,9400.615463
4224.522235,-1608.800546,-1332.370696,9992.780217
4224.522550,-1455.581446,-1184.329507,9548.656652
4224.522866,-766.095498,-74.020594,9622.677246
4224.523181,-383.047749,-0.000000,9474.636058
4224.523497,-459.657299,-518.144159,9400.615463
4224.523812,-1225.752797,-74.020594,8808.450710
4224.524128,-766.095498,-148.041188,7994.224174
4224.524443,0.000000,814.226536,9400.615463
4224.524759,459.657299,1406.391290,8364.327145
4224.525074,-306.438199,148.041188,9326.594869
4224.525390,-1608.800546,-148.041188,8956.491898
4224.525705,-1455.581446,-666.185348,9474.636058
4224.526021,-306.438199,-518.144159,10066.800811
4224.526336,-306.438199,-296.082377,9992.780217
4224.526652,-383.047749,-222.061783,10288.862594
4224.526967,-1378.971896,-74.020594,9548.656652
4224.527283,-1149.143247,-148.041188,9252.574275
4224.527598,0.000000,-0.000000,9104.533087
4224.527914,766.095498,814.226536,9548.656652
4224.528229,1072.533697,518.144159,9548.656652
4224.528545,0.000000,518.144159,9252.574275
4224.528860,0.000000,296.082377,8734.430116
4224.529176,766.095498,370.102971,8512.368333
4224.529491,1455.581446,666.185348,9548.656652
4224.529807,1838.629195,-296.082377,10584.944971
4224.530122,459.657299,-296.082377,9918.759623
4224.530438,229.828649,-370.102971,9326.594869
4224.530753,306.438199,-222.061783,10066.800811
4224.531069,842.705048,518.144159,10881.027347
4224.531384,1455.581446,296.082377,10140.821405
4224.531700,766.095498,-0.000000,10362.883188
4224.532015,306.438199,-0.000000,9548.656652
4224.532331,229.828649,-0.000000,9474.636058
4224.532646,1149.143247,1184.329507,9918.759623
4224.532962,1838.629195,814.226536,9992.780217
4224.533277,995.924147,222.061783,10732.986159
4224.533593,153.219100,-148.041188,10362.883188
4224.533908,229.828649,-0.000000,9770.718434
4224.534224,995.924147,666.185348,10066.800811
4224.534539,1302.362347,666.185348,10362.883188
4224.534855,842.705048,-0.000000,10066.800811
4224.535170,-306.438199,-296.082377,9326.594869
4224.535486,-536.266849,-74.020594,9474.636058
4224.535801,383.047749,444.123565,9474.636058
4224.536117,1072.533697,666.185348,9400.615463
4224.536432,612.876398,592.164754,9992.780217
4224.536748,-1149.143247,-0.000000,10214.842000
4224.537063,-766.095498,-0.000000,9548.656652
4224.537379,153.219100,518.144159,9326.594869
4224.537694,1072.533697,370.102971,9474.636058
4224.538010,995.924147,370.102971,9770.718434
4224.538326,-383.047749,-518.144159,10214.842000
4224.538641,0.000000,-148.041188,9918.759623
4224.538957,229.828649,814.226536,8882.471304
4224.539272,1225.752797,962.267725,8956.491898
4224.539588,995.924147,518.144159,9400.615463
4224.539903,-383.047749,148.041188,8882.471304
4224.540219,-1225.752797,-370.102971,8808.450710
4224.540534,-459.657299,-444.123565,8660.409521
4224.540850,153.219100,-74.020594,9844.739029
4224.541165,-306.438199,-148.041188,9474.636058
4224.541481,-1915.238745,-888.247130,9770.718434
4224.541796,-2145.067394,-666.185348,9030.512492
4224.542112,-1225.752797,-444.123565,9400.615463
4224.542427,0.000000,1036.288319,9474.636058
4224.542743,536.266849,518.144159,9104.533087
4224.543058,-612.876398,666.185348,9252.574275
4224.543374,-1378.971896,444.123565,9104.533087
4224.543689,-1225.752797,-0.000000,8734.430116
4224.544005,0.000000,888.247130,9770.718434
4224.544320,459.657299,444.123565,10140.821405
4224.544636,-229.828649,-148.041188,10288.862594
4224.544951,-1149.143247,-74.020594,9918.759623
4224.545267,-919.314598,-888.247130,9696.697840
4224.545582,76.609550,370.102971,9696.697840
4224.545898,536.266849,740.205942,9696.697840
4224.546213,153.219100,518.144159,9474.636058
4224.546529,0.000000,666.185348,9400.615463
4224.546844,0.000000,-0.000000,8586.388927
4224.547160,689.485948,740.205942,9400.615463
4224.547475,1149.143247,592.164754,9474.636058
4224.547791,536.266849,-222.061783,10140.821405
4224.548106,-995.924147,-148.041188,9844.739029
4224.548422,-842.705048,-0.000000,9770.718434
4224.548737,-153.219100,370.102971,9696.697840
4224.549053,0.000000,-0.000000,10436.903782
4224.549368,306.438199,296.082377,10732.986159
4224.549684,-383.047749,296.082377,10362.883188
4224.549999,-459.657299,296.082377,9474.636058
4224.550315,459.657299,814.226536,9474.636058
4224.550630,1455.581446,1332.370696,10066.800811
4224.550946,1762.019645,888.247130,10362.883188
4224.551261,1072.533697,814.226536,9696.697840
4224.551577,76.609550,740.205942,9400.615463
4224.551892,689.485948,962.267725,9104.533087
4224.552208,1072.533697,1406.391290,9474.636058
4224.552523,1149.143247,592.164754,9992.780217
4224.552839,153.219100,-888.247130,10140.821405
4224.553154,-689.485948,-962.267725,9622.677246
4224.553470,76.609550,-962.267725,9474.636058
4224.553785,1378.971896,-296.082377,10584.944971
4224.554101,995.924147,-0.000000,10584.944971
4224.554416,842.705048,-592.164754,10510.924376
4224.554732,153.219100,-0.000000,10066.800811
4224.555047,842.705048,592.164754,8808.450710
4224.555363,1762.019645,1036.288319,9326.594869
4224.555678,2757.943793,1184.329507,9104.533087
4224.555994,2145.067394,296.082377,9770.718434
4224.556310,919.314598,-0.000000,8956.491898
4224.556625,536.266849,-444.123565,8882.471304
4224.556941,842.705048,-74.020594,8808.450710
4224.557256,842.705048,-666.185348,9622.677246
4224.557572,0.000000,-518.144159,9030.512492
4224.557887,-1378.971896,-1406.391290,10140.821405
4224.558203,-1225.752797,-1184.329507,9400.615463
4224.558518,-1072.533697,-1332.370696,9400.615463
4224.558834,-459.657299,-74.020594,8660.409521
4224.559149,-536.266849,-148.041188,9474.636058
4224.559465,-919.314598,222.061783,9030.512492
4224.559780,-995.924147,-888.247130,8734.430116
4224.560096,0.000000,-0.000000,8956.491898
4224.560411,766.095498,666.185348,9770.718434
4224.560727,0.000000,740.205942,9696.697840
4224.561042,-995.924147,444.123565,9696.697840
4224.561358,-1072.533697,-0.000000,9474.636058
4224.561673,0.000000,-518.144159,9178.553681
4224.561989,536.266849,444.123565,9252.574275
4224.562304,0.000000,-74.020594,9474.636058
4224.562620,-1072.533697,-74.020594,9770.718434
4224.562935,-1762.019645,-592.164754,8956.491898
4224.563251,-995.924147,-592.164754,8734.430116
4224.563566,0.000000,-518.144159,9474.636058
4224.563882,0.000000,-518.144159,9992.780217
4224.564197,-1149.143247,-222.061783,9474.636058
4224.564513,-1302.362347,-0.000000,9252.574275
4224.564828,-383.047749,370.102971,9474.636058
4224.565144,536.266849,1554.432478,9474.636058
4224.565459,1378.971896,1702.473667,8734.430116
4224.565775,536.266849,962.267725,9622.677246
4224.566090,-1072.533697,962.267725,9548.656652
4224.566406,-1225.752797,370.102971,9474.636058
4224.566721,-459.657299,1110.308913,9992.780217
4224.567037,0.000000,666.185348,10214.842000
4224.567352,-919.314598,-0.000000,10362.883188
4224.567668,-1608.800546,-518.144159,10288.862594
4224.567983,-1532.190996,-370.102971,9696.697840
4224.568299,-383.047749,518.144159,9844.739029
4224.568614,612.876398,1110.308913,9548.656652
4224.568930,76.609550,592.164754,10140.821405
4224.569245,-536.266849,962.267725,9622.677246
4224.569561,0.000000,370.102971,9474.636058
4224.569876,1302.362347,1258.350101,9400.615463
4224.570192,2145.067394,518.144159,9770.718434
4224.570507,2145.067394,592.164754,9474.636058
4224.570823,536.266849,222.061783,9622.677246
4224.571138,0.000000,-0.000000,9844.739029
4224.571454,459.657299,370.102971,9548.656652
4224.571769,1225.752797,444.123565,9326.594869
4224.572085,1072.533697,-0.000000,10288.862594
4224.572400,306.438199,-0.000000,10436.903782
4224.572716,0.000000,-370.102971,8956.491898
4224.573031,995.924147,-444.123565,9474.636058
4224.573347,1378.971896,296.082377,10066.800811
4224.573663,1532.190996,444.123565,9326.594869
4224.573978,612.876398,-0.000000,9474.636058
4224.574294,153.219100,-0.000000,8808.450710
4224.574609,995.924147,-74.020594,9030.512492
4224.574925,1762.019645,962.267725,9400.615463
4224.575240,1915.238745,962.267725,9326.594869
4224.575556,306.438199,518.144159,9622.677246
4224.575871,0.000000,-222.061783,9400.615463
4224.576187,153.219100,-222.061783,9104.533087
4224.576502,459.657299,-0.000000,9992.780217
4224.576818,689.485948,222.061783,10140.821405
4224.577133,0.000000,-74.020594,9844.739029
4224.577449,-1149.143247,-74.020594,9622.677246
4224.577764,-229.828649,-592.164754,9474.636058
4224.578080,459.657299,740.205942,9178.553681
4224.578395,1225.752797,592.164754,9252.574275
4224.578711,842.705048,-0.000000,9696.697840
4224.579026,-306.438199,-0.000000,9400.615463
4224.579342,0.000000,-222.061783,8882.471304
4224.579657,383.047749,-0.000000,9178.553681
4224.579973,153.219100,370.102971,9400.615463
4224.580288,-229.828649,-518.144159,10140.821405
4224.580604,-1455.581446,-296.082377,9696.697840
4224.580919,-1532.190996,-1036.288319,9918.759623
4224.581235,-919.314598,-518.144159,9474.636058
4224.581550,-612.876398,-222.061783,9178.553681
4224.581866,-306.438199,-370.102971,9918.759623
4224.582181,-1455.581446,-0.000000,9918.759623
4224.582497,-2145.067394,-148.041188,9474.636058
4224.582812,-995.924147,-592.164754,10066.800811
4224.583128,-919.314598,962.267725,9548.656652
4224.583443,0.000000,296.082377,9548.656652
4224.583759,-766.095498,-0.000000,9548.656652
4224.584074,-1302.362347,-296.082377,9918.759623
4224.584390,-689.485948,-666.185348,9622.677246
4224.584705,0.000000,-74.020594,9622.677246
4224.585021,229.828649,-148.041188,10214.842000
4224.585336,-919.314598,-666.185348,9770.718434
4224.585652,-1378.971896,-666.185348,9696.697840
4224.585967,-689.485948,-296.082377,9326.594869
4224.586283,383.047749,962.267725,9252.574275
4224.586598,536.266849,-0.000000,9030.512492
4224.586914,459.657299,-74.020594,9844.739029
4224.587229,0.000000,-0.000000,9548.656652
4224.587545,229.828649,-222.061783,9770.718434
4224.587860,919.314598,1036.288319,10066.800811
4224.588176,1762.019645,1776.494261,9622.677246
4224.588491,1225.752797,1554.432478,9622.677246
4224.588807,689.485948,592.164754,9474.636058
4224.589122,536.266849,444.123565,9400.615463
4224.589438,1378.971896,814.226536,9030.512492
4224.589753,1838.629195,1406.391290,9622.677246
4224.590069,1762.019645,1110.308913,9918.759623
4224.590384,-229.828649,444.123565,9474.636058
4224.590700,76.609550,-0.000000,9474.636058
4224.591015,536.266849,-148.041188,9696.697840
4224.591331,1302.362347,518.144159,9696.697840
4224.591647,995.924147,296.082377,10436.903782
4224.591962,229.828649,148.041188,9474.636058
4224.592278,689.485948,222.061783,9548.656652
4224.592593,1762.019645,740.205942,9474.636058
4224.592909,2451.505594,1554.432478,9178.553681
4224.593224,3064.381992,740.205942,9548.656652
4224.593540,1455.581446,740.205942,9474.636058
4224.593855,1455.581446,-0.000000,9326.594869
4224.594171,1608.800546,-0.000000,9178.553681
4224.594486,1838.629195,740.205942,9548.656652
4224.594802,1455.581446,-0.000000,9992.780217
4224.595117,153.219100,-444.123565,9992.780217
4224.595433,-995.924147,-370.102971,9918.759623
4224.595748,-383.047749,-666.185348,9992.780217
4224.596064,306.438199,-592.164754,9918.759623
4224.596379,459.657299,-666.185348,10807.006753
4224.596695,0.000000,-0.000000,9918.759623
4224.597010,-689.485948,-74.020594,9548.656652
4224.597326,0.000000,-74.020594,9252.574275
4224.597641,306.438199,1480.411884,9104.533087
4224.597957,1072.533697,814.226536,9400.615463
4224.598272,0.000000,592.164754,9548.656652
4224.598588,-1608.800546,518.144159,9474.636058
4224.598903,-1455.581446,-444.123565,9252.574275
4224.599219,-919.314598,-148.041188,9548.656652
4224.599534,-842.705048,-74.020594,10214.842000
4224.599850,-1532.190996,-222.061783,10066.800811
4224.600165,-2911.162892,-888.247130,9696.697840
4224.600481,-2757.943793,-740.205942,9474.636058
4224.600796,-1378.971896,-518.144159,9696.697840
4224.601112,-919.314598,-0.000000,9474.636058
4224.601427,-1302.362347,-74.020594,9474.636058
4224.601743,-1762.019645,148.041188,9326.594869
4224.602058,-1378.971896,-222.061783,8438.347739
4224.602374,-306.438199,-0.000000,8660.409521
4224.602689,0.000000,518.144159,9400.615463
4224.603005,153.219100,518.144159,9400.615463
4224.603320,-919.314598,-74.020594,9474.636058
4224.603636,-919.314598,-0.000000,8882.471304
4224.603951,-842.705048,-962.267725,9474.636058
4224.604267,-459.657299,370.102971,9474.636058
4224.604582,-383.047749,-296.082377,9992.780217
4224.604898,-766.095498,-370.102971,9696.697840
4224.605213,-1072.533697,-518.144159,9474.636058
4224.605529,-459.657299,-1036.288319,9400.615463
4224.605844,383.047749,-148.041188,9474.636058
4224.606160,689.485948,-74.020594,10362.883188
4224.606475,153.219100,666.185348,9474.636058
4224.606791,0.000000,-0.000000,9474.636058
4224.607106,842.705048,-0.000000,9326.594869
4224.607422,1608.800546,370.102971,9696.697840
4224.607737,1838.629195,148.041188,9474.636058
4224.608053,1072.533697,148.041188,9770.718434
4224.608368,76.609550,-0.000000,9992.780217
4224.608684,689.485948,296.082377,9178.553681
4224.609000,1838.629195,814.226536,9770.718434
4224.609315,2298.286494,370.102971,10214.842000
4224.609631,1608.800546,666.185348,9622.677246
4224.609946,766.095498,444.123565,10066.800811
4224.610262,995.924147,-222.061783,9548.656652
4224.610577,1685.410096,888.247130,9918.759623
4224.610893,2374.896044,1258.350101,9548.656652
4224.611208,2221.676944,444.123565,9622.677246
4224.611524,1149.143247,592.164754,10214.842000
4224.611839,919.314598,370.102971,9548.656652
4224.612155,1302.362347,592.164754,9696.697840
4224.612470,1685.410096,1184.329507,10214.842000
4224.612786,1302.362347,740.205942,10140.821405
4224.613101,-153.219100,962.267725,9696.697840
4224.613417,-459.657299,518.144159,9252.574275
4224.613732,306.438199,370.102971,9918.759623
4224.614048,536.266849,962.267725,9474.636058
4224.614363,0.000000,222.061783,10066.800811
4224.614679,-689.485948,814.226536,9474.636058
4224.614994,-1455.581446,-0.000000,9622.677246
4224.615310,-612.876398,-0.000000,9770.718434
4224.615625,-229.828649,666.185348,9696.697840
4224.615941,-306.438199,370.102971,9844.739029
4224.616256,-1378.971896,-0.000000,9474.636058
4224.616572,-1991.848295,-370.102971,9104.533087
4224.616887,-1532.190996,-370.102971,9548.656652
4224.617203,-842.705048,-0.000000,9104.533087
4224.617518,-842.705048,-296.082377,9548.656652
4224.617834,-1302.362347,-0.000000,9548.656652
4224.618149,-1762.019645,-0.000000,9474.636058
4224.618465,-1378.971896,-666.185348,9474.636058
4224.618780,-766.095498,-0.000000,9474.636058
4224.619096,383.047749,-148.041188,10658.965565
4224.619411,-766.095498,296.082377,9400.615463
4224.619727,-1762.019645,-74.020594,9252.574275
4224.620042,-1378.971896,-666.185348,9474.636058
4224.620358,-995.924147,-148.041188,9474.636058
4224.620673,0.000000,296.082377,9252.574275
4224.620989,0.000000,-0.000000,9178.553681
4224.621304,-1685.410096,-222.061783,9844.739029
4224.621620,-1608.800546,-666.185348,9030.512492
4224.621935,-766.095498,-1406.391290,9400.615463
4224.622251,0.000000,-0.000000,9770.718434
4224.622566,-689.485948,-444.123565,9770.718434
4224.622881,-1455.581446,-888.247130,9844.739029
4224.623197,-1378.971896,-444.123565,8882.471304
4224.623512,-306.438199,-222.061783,9030.512492
4224.623828,459.657299,1110.308913,9474.636058
4224.624143,766.095498,444.123565,9252.574275
4224.624459,0.000000,-0.000000,9622.677246
4224.624774,0.000000,-0.000000,8734.430116
4224.625089,766.095498,222.061783,8734.430116
4224.625405,1608.800546,814.226536,9548.656652
4224.625720,1915.238745,-0.000000,9326.594869
4224.626036,1302.362347,518.144159,9252.574275
4224.626351,766.095498,-296.082377,8956.491898
4224.626666,1608.800546,-0.000000,8956.491898
4224.626982,2451.505594,-0.000000,9252.574275
4224.627297,2298.286494,-0.000000,8956.491898
4224.627613,1378.971896,-74.020594,9992.780217
4224.627928,766.095498,-370.102971,9696.697840
4224.628243,2068.457845,-0.000000,9770.718434
4224.628559,2451.505594,370.102971,9622.677246
4224.628874,2528.115143,740.205942,10362.883188
4224.629190,1455.581446,1036.288319,10214.842000
4224.629505,689.485948,296.082377,9474.636058
4224.629820,1455.581446,-0.000000,9918.759623
4224.630136,2604.724693,740.205942,10288.862594
4224.630451,2987.772442,1332.370696,10584.944971
4224.630767,1378.971896,814.226536,9844.739029
4224.631082,-612.876398,444.123565,9992.780217
4224.631397,-229.828649,-74.020594,9918.759623
4224.631713,306.438199,-222.061783,10362.883188
4224.632028,766.095498,-222.061783,10436.903782
4224.632344,-153.219100,-740.205942,10807.006753
4224.632659,-1532.190996,-0.000000,9622.677246
4224.632974,-1149.143247,-592.164754,9622.677246
4224.633290,-995.924147,296.082377,9696.697840
4224.633605,0.000000,666.185348,9770.718434
4224.633921,0.000000,1184.329507,9992.780217
4224.634236,-919.314598,888.247130,9400.615463
4224.634551,-1302.362347,-0.000000,9326.594869
4224.634867,-536.266849,-0.000000,9474.636058
4224.635182,-306.438199,962.267725,10066.800811
4224.635498,-612.876398,444.123565,10140.821405
4224.635813,-1532.190996,-0.000000,9474.636058
4224.636128,-1762.019645,-74.020594,9400.615463
4224.636444,-1072.533697,-370.102971,9104.533087
4224.636759,-689.485948,518.144159,8956.491898
4224.637075,-766.095498,-0.000000,9696.697840
4224.637390,-842.705048,-666.185348,9178.553681
4224.637705,-1378.971896,-370.102971,9030.512492
4224.638021,-1302.362347,-666.185348,8882.471304
4224.638336,-153.219100,-296.082377,9104.533087
4224.638652,0.000000,222.061783,9400.615463
4224.638967,0.000000,370.102971,8956.491898
4224.639283,-1302.362347,740.205942,8660.409521
4224.639598,-766.095498,-148.041188,9178.553681
4224.639913,76.609550,370.102971,9178.553681
4224.640229,306.438199,370.102971,9622.677246
4224.640544,-536.266849,-0.000000,9844.739029
4224.640860,-1378.971896,-0.000000,9548.656652
4224.641175,-1302.362347,-666.185348,9992.780217
4224.641490,0.000000,148.041188,9918.759623
4224.641806,536.266849,370.102971,10288.862594
4224.642121,995.924147,-0.000000,9622.677246
4224.642437,0.000000,-0.000000,9918.759623
4224.642752,153.219100,-222.061783,9326.594869
4224.643067,1455.581446,962.267725,9178.553681
4224.643383,1991.848295,962.267725,9252.574275
4224.643698,1838.629195,518.144159,9696.697840
4224.644014,766.095498,592.164754,9326.594869
4224.644329,689.485948,-592.164754,9474.636058
4224.644644,1225.752797,-0.000000,9844.739029
4224.644960,1685.410096,592.164754,10140.821405
4224.645275,1838.629195,370.102971,10140.821405
4224.645591,995.924147,-222.061783,10436.903782
4224.645906,229.828649,-296.082377,10288.862594
4224.646221,919.314598,-148.041188,9474.636058
4224.646537,2068.457845,222.061783,9992.780217
4224.646852,1991.848295,1184.329507,10066.800811
4224.647168,1225.752797,814.226536,10140.821405
4224.647483,536.266849,592.164754,9252.574275
4224.647798,689.485948,518.144159,9252.574275
4224.648114,1378.971896,814.226536,9400.615463
4224.648429,1532.190996,222.061783,10288.862594
4224.648745,689.485948,-0.000000,9474.636058
4224.649060,-536.266849,-222.061783,9178.553681
4224.649375,-1072.533697,-814.226536,9400.615463
4224.649691,153.219100,444.123565,9992.780217
4224.650006,229.828649,74.020594,9992.780217
4224.650322,-689.485948,-222.061783,10288.862594
4224.650637,-1455.581446,296.082377,9696.697840
4224.650952,-766.095498,370.102971,9104.533087
4224.651268,-459.657299,-0.000000,9400.615463
4224.651583,229.828649,-370.102971,9844.739029
4224.651899,-229.828649,-296.082377,10214.842000
4224.652214,-1225.752797,222.061783,9326.594869
4224.652530,-766.095498,-222.061783,9548.656652
4224.652845,0.000000,592.164754,9548.656652
4224.653160,229.828649,666.185348,9622.677246
4224.653476,-383.047749,-0.000000,9400.615463
4224.653791,-2068.457845,-0.000000,9622.677246
4224.654107,-1608.800546,-814.226536,9474.636058
4224.654422,-995.924147,-1258.350101,9474.636058
4224.654737,0.000000,-0.000000,9992.780217
4224.655053,-459.657299,-222.061783,9770.718434
4224.655368,-1302.362347,-0.000000,9622.677246
4224.655684,-1455.581446,-814.226536,9326.594869
4224.655999,-459.657299,-222.061783,9400.615463
4224.656314,229.828649,666.185348,9252.574275
4224.656630,153.219100,518.144159,9622.677246
4224.656945,-1455.581446,-0.000000,9770.718434
4224.657261,-1302.362347,-74.020594,9474.636058
4224.657576,-459.657299,-518.144159,8956.491898
4224.657891,229.828649,-0.000000,9474.636058
4224.658207,383.047749,-0.000000,9992.780217
4224.658522,-229.828649,-0.000000,10066.800811
4224.658838,-689.485948,-0.000000,9104.533087
4224.659153,-153.219100,-222.061783,9030.512492
4224.659468,995.924147,296.082377,9622.677246
4224.659784,995.924147,-0.000000,9474.636058
4224.660099,919.314598,-444.123565,9252.574275
4224.660415,-383.047749,-518.144159,9104.533087
4224.660730,229.828649,-444.123565,9178.553681
4224.661045,1149.143247,148.041188,9252.574275
4224.661361,2451.505594,888.247130,9548.656652
4224.661676,1608.800546,1332.370696,10140.821405
4224.661992,919.314598,814.226536,8586.388927
4224.662307,459.657299,-0.000000,9104.533087
4224.662622,1608.800546,592.164754,9474.636058
4224.662938,1991.848295,1406.391290,9548.656652
4224.663253,1608.800546,666.185348,9992.780217
4224.663569,0.000000,296.082377,10066.800811
4224.663884,-229.828649,-148.041188,10584.944971
4224.664199,383.047749,-74.020594,10436.903782
4224.664515,766.095498,296.082377,10955.047942
4224.664830,842.705048,1480.411884,11103.089130
4224.665146,-459.657299,740.205942,9770.718434
4224.665461,76.609550,-0.000000,9622.677246
4224.665776,1302.362347,-0.000000,9918.759623
4224.666092,2068.457845,888.247130,9474.636058
4224.666407,1685.410096,666.185348,9548.656652
4224.666723,383.047749,1258.350101,8956.491898
4224.667038,229.828649,-0.000000,9548.656652
4224.667354,229.828649,-0.000000,9030.512492
4224.667669,306.438199,370.102971,10288.862594
4224.667984,153.219100,-370.102971,11029.068536
4224.668300,-689.485948,-296.082377,10584.944971
4224.668615,-995.924147,-370.102971,9918.759623
4224.668931,-919.314598,-296.082377,9622.677246
4224.669246,-306.438199,-0.000000,10584.944971
4224.669561,383.047749,222.061783,10510.924376
4224.669877,-306.438199,444.123565,9696.697840
4224.670192,-842.705048,666.185348,9548.656652
4224.670508,-536.266849,-0.000000,9030.512492
4224.670823,76.609550,740.205942,8882.471304
4224.671138,536.266849,592.164754,9104.533087
4224.671454,0.000000,740.205942,9252.574275
4224.671769,-1149.143247,-148.041188,9326.594869
4224.672085,-1072.533697,-814.226536,9104.533087
4224.672400,-383.047749,-666.185348,9844.739029
4224.672715,0.000000,-370.102971,9326.594869
4224.673031,-536.266849,-370.102971,9548.656652
4224.673346,-1532.190996,-518.144159,9622.677246
4224.673662,-1225.752797,-1036.288319,9400.615463
4224.673977,-306.438199,-444.123565,9474.636058
4224.674292,76.609550,370.102971,9770.718434
4224.674608,0.000000,370.102971,9474.636058
4224.674923,-612.876398,-0.000000,9178.553681
4224.675239,-612.876398,-370.102971,9326.594869
4224.675554,0.000000,-370.102971,10066.800811
4224.675869,995.924147,-0.000000,9622.677246
4224.676185,1302.362347,-0.000000,9696.697840
4224.676500,0.000000,814.226536,9030.512492
4224.676816,-383.047749,-74.020594,9252.574275
4224.677131,0.000000,-740.205942,9548.656652
4224.677446,842.705048,-0.000000,9474.636058
4224.677762,1302.362347,-740.205942,9474.636058
4224.678077,0.000000,-444.123565,9622.677246
4224.678393,-459.657299,-370.102971,9030.512492
4224.678708,229.828649,-666.185348,9622.677246
4224.679023,536.266849,222.061783,9992.780217
4224.679339,995.924147,592.164754,9770.718434
4224.679654,76.609550,740.205942,9178.553681
4224.679970,383.047749,-148.041188,9474.636058
4224.680285,229.828649,-74.020594,9252.574275
4224.680601,1302.362347,814.226536,9178.553681
4224.680916,1072.533697,592.164754,10584.944971
4224.681231,0.000000,592.164754,9918.759623
4224.681547,-919.314598,-0.000000,9696.697840
4224.681862,0.000000,-148.041188,9400.615463
4224.682178,766.095498,370.102971,9548.656652
4224.682493,1225.752797,296.082377,10140.821405
4224.682808,153.219100,222.061783,9918.759623
4224.683124,-536.266849,370.102971,9548.656652
4224.683439,-842.705048,-518.144159,9030.512492
4224.683755,76.609550,222.061783,9474.636058
4224.684070,1072.533697,444.123565,10214.842000
4224.684385,689.485948,370.102971,10214.842000
4224.684701,612.876398,814.226536,9844.739029
4224.685016,0.000000,444.123565,8882.471304
4224.685332,689.485948,370.102971,9326.594869
4224.685647,995.924147,1258.350101,9474.636058
4224.685962,689.485948,888.247130,9992.780217
4224.686278,0.000000,370.102971,9400.615463
4224.686593,-919.314598,-0.000000,9252.574275
4224.686909,-383.047749,444.123565,9622.677246
4224.687224,0.000000,518.144159,9770.718434
4224.687539,-229.828649,370.102971,9992.780217
4224.687855,-1072.533697,-0.000000,9770.718434
4224.688170,-1378.971896,-148.041188,9548.656652
4224.688486,-919.314598,-0.000000,9918.759623
4224.688801,0.000000,814.226536,9548.656652
4224.689116,306.438199,888.247130,9474.636058
4224.689432,-536.266849,962.267725,9622.677246
4224.689747,-842.705048,592.164754,8882.471304
4224.690063,459.657299,-0.000000,9252.574275
4224.690378,919.314598,740.205942,9104.533087
4224.690693,919.314598,370.102971,9696.697840
4224.691009,0.000000,222.061783,9770.718434
4224.691324,-459.657299,222.061783,9104.533087
4224.691640,-612.876398,-518.144159,9992.780217
4224.691955,383.047749,-148.041188,10362.883188
4224.692270,612.876398,-0.000000,9844.739029
4224.692586,229.828649,444.123565,9326.594869
4224.692901,-306.438199,-0.000000,8956.491898
4224.693217,306.438199,-518.144159,9770.718434
4224.693532,842.705048,518.144159,9992.780217
4224.693848,995.924147,666.185348,10214.842000
4224.694163,995.924147,-0.000000,9622.677246
4224.694478,0.000000,592.164754,9178.553681
4224.694794,0.000000,-0.000000,9474.636058
4224.695109,612.876398,370.102971,9622.677246
4224.695425,995.924147,518.144159,9770.718434
4224.695740,459.657299,148.041188,9474.636058
4224.696055,-383.047749,-74.020594,9178.553681
4224.696371,-1072.533697,-592.164754,9474.636058
4224.696686,383.047749,-222.061783,9622.677246
4224.697002,459.657299,-74.020594,9696.697840
4224.697317,306.438199,-740.205942,9844.739029
4224.697632,-919.314598,-296.082377,9844.739029
4224.697948,-995.924147,-370.102971,9252.574275
4224.698263,-153.219100,-518.144159,9178.553681
4224.698579,689.485948,666.185348,9400.615463
4224.698894,995.924147,148.041188,9178.553681
4224.699209,76.609550,370.102971,8734.430116
4224.699525,-153.219100,-0.000000,9178.553681
4224.699840,0.000000,222.061783,9104.533087
4224.700156,536.266849,666.185348,9474.636058
4224.700471,1072.533697,-0.000000,9770.718434
4224.700786,153.219100,-74.020594,9770.718434
4224.701102,-995.924147,-370.102971,9696.697840
4224.701417,-459.657299,-740.205942,9622.677246
4224.701733,76.609550,296.082377,10066.800811
4224.702048,536.266849,444.123565,9918.759623
4224.702363,0.000000,-0.000000,9622.677246
4224.702679,0.000000,-222.061783,9178.553681
4224.702994,-383.047749,-370.102971,9104.533087
4224.703310,1072.533697,148.041188,9326.594869
4224.703625,1915.238745,-0.000000,9474.636058
4224.703940,1302.362347,962.267725,9400.615463
4224.704256,153.219100,814.226536,8364.327145
4224.704571,-229.828649,-0.000000,9252.574275
4224.704887,153.219100,370.102971,9326.594869
4224.705202,536.266849,370.102971,9548.656652
4224.705517,-306.438199,296.082377,10214.842000
4224.705833,-1608.800546,148.041188,9844.739029
4224.706148,-1378.971896,-888.247130,10362.883188
4224.706464,-459.657299,296.082377,10510.924376
4224.706779,0.000000,518.144159,10510.924376
4224.707094,383.047749,296.082377,10510.924376
4224.707410,-229.828649,444.123565,10214.842000
4224.707725,0.000000,740.205942,9326.594869
4224.708041,612.876398,666.185348,9178.553681
4224.708356,1608.800546,814.226536,9474.636058
4224.708672,1225.752797,444.123565,9474.636058
4224.708987,0.000000,148.041188,8808.450710
4224.709302,76.609550,-592.164754,9474.636058
4224.709618,153.219100,-592.164754,8882.471304
4224.709933,612.876398,-962.267725,9992.780217
4224.710249,153.219100,-0.000000,10362.883188
4224.710564,-995.924147,222.061783,10140.821405
4224.710879,-995.924147,222.061783,9326.594869
4224.711195,-383.047749,-444.123565,9770.718434
4224.711510,842.705048,814.226536,9622.677246
4224.711826,536.266849,370.102971,9844.739029
4224.712141,-459.657299,1258.350101,9992.780217
4224.712456,-842.705048,740.205942,9548.656652
4224.712772,-306.438199,666.185348,9030.512492
4224.713087,612.876398,666.185348,9474.636058
4224.713403,995.924147,296.082377,10288.862594
4224.713718,76.609550,-0.000000,9770.718434
4224.714033,-1378.971896,-296.082377,8660.409521
4224.714349,-919.314598,-666.185348,9252.574275
4224.714664,-306.438199,-222.061783,9474.636058
4224.714980,229.828649,-222.061783,9178.553681
4224.715295,0.000000,-592.164754,9400.615463
4224.715610,-459.657299,-296.082377,8956.491898
4224.715926,0.000000,-740.205942,9548.656652
4224.716241,612.876398,222.061783,9104.533087
4224.716557,1149.143247,370.102971,9844.739029
4224.716872,842.705048,444.123565,9696.697840
4224.717187,76.609550,518.144159,8956.491898
4224.717503,229.828649,-0.000000,9474.636058
4224.717818,766.095498,-0.000000,9400.615463
4224.718134,1302.362347,74.020594,10288.862594
4224.718449,689.485948,666.185348,10066.800811
4224.718764,-153.219100,-0.000000,9030.512492
4224.719080,-842.705048,-444.123565,9918.759623
4224.719395,0.000000,-296.082377,9400.615463
4224.719711,459.657299,-518.144159,9696.697840
4224.720026,459.657299,-222.061783,9844.739029
4224.720341,-383.047749,-0.000000,9474.636058
4224.720657,-842.705048,-0.000000,9474.636058
4224.720972,0.000000,444.123565,9252.574275
4224.721288,842.705048,740.205942,10288.862594
4224.721603,842.705048,222.061783,9844.739029
4224.721919,229.828649,444.123565,9622.677246
4224.722234,-383.047749,-0.000000,9474.636058
4224.722549,0.000000,148.041188,9252.574275
4224.722865,842.705048,962.267725,10066.800811
4224.723180,919.314598,592.164754,9844.739029
4224.723496,76.609550,-0.000000,10140.821405
4224.723811,-153.219100,-222.061783,9844.739029
4224.724127,383.047749,-888.247130,9030.512492
4224.724442,536.266849,-0.000000,10658.965565
4224.724757,842.705048,962.267725,9548.656652
4224.725073,0.000000,-0.000000,9918.759623
4224.725388,-459.657299,-0.000000,9548.656652
4224.725704,536.266849,-370.102971,9770.718434
4224.726019,766.095498,592.164754,9696.697840
4224.726335,1225.752797,1036.288319,9918.759623
4224.726650,1149.143247,518.144159,10140.821405
4224.726965,153.219100,814.226536,9400.615463
4224.727281,-306.438199,-0.000000,9474.636058
4224.727596,459.657299,-296.082377,9696.697840
4224.727912,1302.362347,296.082377,10214.842000
4224.728227,612.876398,1036.288319,9844.739029
4224.728543,-842.705048,962.267725,9030.512492
4224.728858,-1455.581446,-222.061783,9770.718434
4224.729174,-919.314598,-222.061783,9474.636058
4224.729489,0.000000,-518.144159,9844.739029
4224.729804,-612.876398,-74.020594,10362.883188
4224.730120,-1225.752797,-592.164754,9696.697840
4224.730435,-1072.533697,-666.185348,9992.780217
4224.730751,-459.657299,-0.000000,9178.553681
4224.731066,306.438199,444.123565,9474.636058
4224.731382,612.876398,444.123565,9178.553681
4224.731697,-306.438199,740.205942,8808.450710
4224.732012,-383.047749,222.061783,9400.615463
4224.732328,-306.438199,-0.000000,9474.636058
4224.732643,76.609550,814.226536,9104.533087
4224.732959,612.876398,-74.020594,9622.677246
4224.733274,-536.266849,222.061783,9622.677246
4224.733590,-1225.752797,-296.082377,9548.656652
4224.733905,-229.828649,-740.205942,9548.656652
4224.734221,76.609550,-0.000000,9844.739029
4224.734536,536.266849,444.123565,9770.718434
4224.734851,612.876398,370.102971,9696.697840
4224.735167,-306.438199,814.226536,8438.347739
4224.735482,76.609550,-814.226536,9178.553681
4224.735798,383.047749,444.123565,9178.553681
4224.736113,1149.143247,-0.000000,9474.636058
4224.736429,536.266849,444.123565,9104.533087
4224.736744,-306.438199,666.185348,9326.594869
4224.737060,0.000000,148.041188,8882.471304
4224.737375,612.876398,370.102971,9474.636058
4224.737690,1225.752797,370.102971,9622.677246
4224.738006,536.266849,-0.000000,10214.842000
4224.738321,-612.876398,296.082377,9474.636058
4224.738637,0.000000,-148.041188,9918.759623
4224.738952,536.266849,370.102971,10214.842000
4224.739268,1685.410096,592.164754,10140.821405
4224.739583,1532.190996,740.205942,10214.842000
4224.739898,919.314598,666.185348,9474.636058
4224.740214,1225.752797,-0.000000,9474.636058
4224.740529,2145.067394,444.123565,8882.471304
4224.740845,1608.800546,-0.000000,9178.553681
4224.741160,1685.410096,-666.185348,10288.862594
4224.741476,0.000000,-148.041188,9992.780217
4224.741791,-229.828649,-962.267725,9474.636058
4224.742107,0.000000,-740.205942,9844.739029
4224.742422,383.047749,-0.000000,10510.924376
4224.742737,229.828649,-592.164754,10807.006753
4224.743053,-306.438199,-74.020594,10066.800811
4224.743368,-689.485948,-370.102971,9770.718434
4224.743684,-689.485948,-444.123565,9844.739029
4224.743999,612.876398,888.247130,9696.697840
4224.744315,766.095498,740.205942,9992.780217
4224.744630,153.219100,962.267725,9548.656652
4224.744946,-229.828649,-0.000000,9400.615463
4224.745261,0.000000,148.041188,8882.471304
4224.745576,0.000000,370.102971,9844.739029
4224.745892,0.000000,-0.000000,9844.739029
4224.746207,-995.924147,-148.041188,9326.594869
4224.746523,-1378.971896,-592.164754,9844.739029
4224.746838,-1072.533697,-1184.329507,9696.697840
4224.747154,-1762.019645,666.185348,9104.533087
4224.747469,-306.438199,-962.267725,9992.780217
4224.747784,76.609550,-222.061783,9178.553681
4224.748100,-1302.362347,1110.308913,9030.512492
4224.748415,-689.485948,-296.082377,9326.594869
4224.748731,-306.438199,444.123565,8586.388927
4224.749046,76.609550,370.102971,10658.965565
4224.749362,-612.876398,-370.102971,9770.718434
4224.749677,-842.705048,962.267725,9252.574275
4224.749993,-842.705048,-222.061783,10732.986159
4224.750308,76.609550,222.061783,9844.739029
4224.750623,306.438199,666.185348,9178.553681
4224.750939,306.438199,444.123565,8956.491898
4224.751254,-766.095498,962.267725,9030.512492
4224.751570,-1072.533697,-0.000000,9030.512492
4224.751885,153.219100,-296.082377,9622.677246
4224.752201,306.438199,444.123565,9844.739029
4224.752516,76.609550,-1036.288319,9474.636058
4224.752831,0.000000,370.102971,9474.636058
4224.753147,-459.657299,518.144159,8882.471304
4224.753462,0.000000,-296.082377,9548.656652
4224.753778,1378.971896,814.226536,9844.739029
4224.754093,919.314598,666.185348,9474.636058
4224.754409,383.047749,740.205942,9474.636058
4224.754724,-229.828649,444.123565,9548.656652
4224.755040,306.438199,-0.000000,9696.697840
4224.755355,1455.581446,1110.308913,9918.759623
4224.755670,1762.019645,740.205942,10214.842000
4224.755986,995.924147,814.226536,9918.759623
4224.756301,306.438199,370.102971,9548.656652
4224.756617,459.657299,-666.185348,9548.656652
4224.756932,1455.581446,296.082377,10140.821405
4224.757248,1838.629195,296.082377,9770.718434
4224.757563,1455.581446,-0.000000,9326.594869
4224.757879,612.876398,222.061783,9326.594869
4224.758194,1378.971896,-74.020594,9548.656652
4224.758509,1149.143247,296.082377,9696.697840
4224.758825,1838.629195,518.144159,9178.553681
4224.759140,1302.362347,-0.000000,9918.759623
4224.759456,229.828649,740.205942,9400.615463
4224.759771,229.828649,-0.000000,9770.718434
4224.760087,459.657299,-0.000000,10510.924376
4224.760402,1072.533697,-0.000000,9992.780217
4224.760717,229.828649,370.102971,10214.842000
4224.761033,-995.924147,444.123565,9326.594869
4224.761348,-1225.752797,-296.082377,9696.697840
4224.761664,0.000000,370.102971,9844.739029
4224.761979,459.657299,296.082377,9622.677246
4224.762295,0.000000,-148.041188,9474.636058
4224.762610,-1455.581446,-444.123565,9474.636058
4224.762926,-1302.362347,-666.185348,8660.409521
4224.763241,-1149.143247,-74.020594,8882.471304
4224.763556,-459.657299,-444.123565,9474.636058
4224.763872,0.000000,-148.041188,9474.636058
4224.764187,-1378.971896,-296.082377,9622.677246
4224.764503,-1455.581446,-370.102971,8808.450710
4224.764818,-1149.143247,-888.247130,9548.656652
4224.765134,0.000000,222.061783,9696.697840
4224.765449,0.000000,-666.185348,9696.697840
4224.765764,383.047749,-518.144159,9770.718434
4224.766080,-612.876398,-0.000000,9474.636058
4224.766395,-229.828649,-148.041188,8734.430116
4224.766711,459.657299,296.082377,9548.656652
4224.767026,612.876398,222.061783,9400.615463
4224.767342,0.000000,-444.123565,9400.615463
4224.767657,-689.485948,-296.082377,9104.533087
4224.767973,-919.314598,-666.185348,9622.677246
4224.768288,-689.485948,-0.000000,9326.594869
4224.768603,306.438199,-740.205942,9918.759623
4224.768919,229.828649,-592.164754,9918.759623
4224.769234,-689.485948,296.082377,9474.636058
4224.769550,-306.438199,222.061783,9178.553681
4224.769865,0.000000,740.205942,9400.615463
4224.770181,1225.752797,592.164754,9918.759623
4224.770496,383.047749,518.144159,10066.800811
4224.770812,-612.876398,888.247130,9400.615463
4224.771127,-306.438199,-0.000000,10066.800811
4224.771442,689.485948,296.082377,9696.697840
4224.771758,1302.362347,444.123565,9844.739029
4224.772073,1378.971896,592.164754,9992.780217
4224.772389,0.000000,1110.308913,10066.800811
4224.772704,0.000000,444.123565,9326.594869
4224.773020,1302.362347,592.164754,9400.615463
4224.773335,1838.629195,740.205942,9474.636058
4224.773650,1685.410096,296.082377,9696.697840
4224.773966,1378.971896,592.164754,9474.636058
4224.774281,536.266849,296.082377,9474.636058
4224.774597,842.705048,-222.061783,10140.821405
4224.774912,1608.800546,-0.000000,10362.883188
4224.775228,1149.143247,-296.082377,11029.068536
4224.775543,689.485948,370.102971,10584.944971
4224.775859,0.000000,296.082377,9918.759623
4224.776174,536.266849,-0.000000,9548.656652
4224.776489,1608.800546,962.267725,9918.759623
4224.776805,1991.848295,666.185348,9474.636058
4224.777120,1149.143247,592.164754,9252.574275
4224.777436,229.828649,592.164754,9474.636058
4224.777751,689.485948,-0.000000,9252.574275
4224.778067,842.705048,444.123565,9178.553681
4224.778382,612.876398,-0.000000,9696.697840
4224.778698,-383.047749,-518.144159,9770.718434
4224.779013,-1302.362347,-0.000000,9474.636058
4224.779328,-1685.410096,-296.082377,9548.656652
4224.779644,-1378.971896,222.061783,10214.842000
4224.779959,-459.657299,-0.000000,10214.842000
4224.780275,-842.705048,-0.000000,9992.780217
4224.780590,-1378.971896,518.144159,9326.594869
4224.780906,-842.705048,-0.000000,9696.697840
4224.781221,-689.485948,222.061783,9844.739029
4224.781536,76.609550,962.267725,10140.821405
4224.781852,0.000000,-74.020594,10066.800811
4224.782167,-689.485948,814.226536,9252.574275
4224.782483,-995.924147,-0.000000,8734.430116
4224.782798,-383.047749,-148.041188,9030.512492
4224.783114,0.000000,962.267725,9474.636058
4224.783429,76.609550,-370.102971,9030.512492
4224.783745,-919.314598,-222.061783,8808.450710
4224.784060,-1302.362347,-740.205942,8882.471304
4224.784375,-612.876398,-1332.370696,9474.636058
4224.784691,153.219100,-444.123565,9770.718434
4224.785006,-459.657299,-740.205942,9844.739029
4224.785322,-536.266849,-0.000000,9326.594869
4224.785637,-995.924147,-0.000000,9400.615463
4224.785953,-536.266849,-0.000000,9400.615463
4224.786268,612.876398,296.082377,10066.800811
4224.786583,459.657299,592.164754,9326.594869
4224.786899,-306.438199,370.102971,9400.615463
4224.787214,-919.314598,148.041188,8956.491898
4224.787530,-306.438199,-518.144159,10510.924376
4224.787845,383.047749,-148.041188,9622.677246
4224.788161,612.876398,-592.164754,10807.006753
4224.788476,0.000000,74.020594,10140.821405
4224.788792,0.000000,-0.000000,9474.636058
4224.789107,459.657299,370.102971,9400.615463
4224.789422,1455.581446,962.267725,9622.677246
4224.789738,1302.362347,888.247130,9400.615463
4224.790053,1302.362347,-0.000000,9770.718434
4224.790369,229.828649,444.123565,9622.677246
4224.790684,459.657299,-0.000000,10066.800811
4224.791000,995.924147,296.082377,9918.759623
4224.791315,1608.800546,-74.020594,10066.800811
4224.791631,1532.190996,-666.185348,10510.924376
4224.791946,306.438199,-74.020594,9992.780217
4224.792261,-76.609550,-222.061783,9918.759623
4224.792577,995.924147,740.205942,9178.553681
4224.792892,1762.019645,518.144159,9474.636058
4224.793208,1532.190996,444.123565,10066.800811
4224.793523,0.000000,740.205942,9400.615463
4224.793839,76.609550,222.061783,9696.697840
4224.794154,766.095498,-0.000000,9474.636058
4224.794469,1072.533697,444.123565,9918.759623
4224.794785,689.485948,-0.000000,10066.800811
4224.795100,-612.876398,-0.000000,9400.615463
4224.795416,-459.657299,-74.020594,8956.491898
4224.795731,-383.047749,-148.041188,9252.574275
4224.796047,306.438199,444.123565,9548.656652
4224.796362,153.219100,-0.000000,9326.594869
4224.796678,-919.314598,-0.000000,9252.574275
4224.796993,-1302.362347,-666.185348,9252.574275
4224.797308,-766.095498,-518.144159,9400.615463
4224.797624,229.828649,-0.000000,9770.718434
4224.797939,229.828649,-370.102971,9252.574275
4224.798255,-459.657299,-0.000000,9474.636058
4224.798570,-919.314598,592.164754,8512.368333
4224.798886,-612.876398,-222.061783,8882.471304
4224.799201,306.438199,962.267725,9548.656652
4224.799517,459.657299,370.102971,9696.697840
4224.799832,306.438199,-0.000000,9104.533087
4224.800147,-1072.533697,-444.123565,9178.553681
4224.800463,-689.485948,-222.061783,9474.636058
4224.800778,0.000000,-0.000000,9548.656652
4224.801094,153.219100,-74.020594,9992.780217
4224.801409,-153.219100,-0.000000,9844.739029
4224.801725,-766.095498,-0.000000,9178.553681
4224.802040,-612.876398,296.082377,9326.594869
4224.802355,0.000000,592.164754,9992.780217
4224.802671,612.876398,370.102971,9770.718434
4224.802986,306.438199,-0.000000,9622.677246
4224.803302,-536.266849,-0.000000,9622.677246
4224.803617,0.000000,222.061783,9326.594869
4224.803933,0.000000,962.267725,9474.636058
4224.804248,842.705048,518.144159,10066.800811
4224.804564,612.876398,-0.000000,10288.862594
4224.804879,0.000000,666.185348,9326.594869
4224.805194,-459.657299,-74.020594,9918.759623
4224.805510,0.000000,222.061783,10288.862594
4224.805825,842.705048,888.247130,9992.780217
4224.806141,995.924147,-370.102971,9770.718434
4224.806456,995.924147,-0.000000,9696.697840
4224.806772,306.438199,296.082377,9104.533087
4224.807087,306.438199,-0.000000,9252.574275
4224.807402,995.924147,814.226536,9548.656652
4224.807718,1302.362347,-444.123565,9770.718434
4224.808033,612.876398,814.226536,9252.574275
4224.808349,153.219100,-0.000000,9030.512492
4224.808664,153.219100,-0.000000,9474.636058
4224.808980,842.705048,740.205942,9474.636058
4224.809295,1302.362347,-0.000000,9400.615463
4224.809611,612.876398,296.082377,9696.697840
4224.809926,-689.485948,-222.061783,9992.780217
4224.810241,76.609550,-222.061783,9474.636058
4224.810557,306.438199,444.123565,10066.800811
4224.810872,689.485948,-74.020594,9548.656652
4224.811188,153.219100,-74.020594,9844.739029
4224.811503,-766.095498,370.102971,9178.553681
4224.811819,-766.095498,-370.102971,9326.594869
4224.812134,76.609550,-0.000000,9548.656652
4224.812450,842.705048,148.041188,9696.697840
4224.812765,76.609550,-0.000000,9474.636058
4224.813080,-689.485948,444.123565,8808.450710
4224.813396,-766.095498,-888.247130,9474.636058
4224.813711,536.266849,-0.000000,9622.677246
4224.814027,842.705048,296.082377,9622.677246
4224.814342,919.314598,-222.061783,9474.636058
4224.814658,0.000000,444.123565,9178.553681
4224.814973,-766.095498,-222.061783,9030.512492
4224.815288,-229.828649,-370.102971,9622.677246
4224.815604,383.047749,296.082377,9474.636058
4224.815919,0.000000,-296.082377,9992.780217
4224.816235,-995.924147,-74.020594,9252.574275
4224.816550,-1225.752797,-0.000000,9474.636058
4224.816866,-612.876398,-518.144159,9622.677246
4224.817181,0.000000,592.164754,9696.697840
4224.817497,76.609550,-0.000000,9696.697840
4224.817812,-383.047749,444.123565,9326.594869
4224.818127,-995.924147,592.164754,9326.594869
4224.818443,-229.828649,-0.000000,9326.594869
4224.818758,-229.828649,222.061783,9548.656652
4224.819074,995.924147,-444.123565,9622.677246
4224.819389,0.000000,148.041188,9400.615463
4224.819705,-842.705048,444.123565,8882.471304
4224.820020,-459.657299,-148.041188,9178.553681
4224.820335,689.485948,962.267725,9474.636058
4224.820651,919.314598,-518.144159,9474.636058
4224.820966,0.000000,-666.185348,10288.862594
4224.821282,-766.095498,-0.000000,9474.636058
4224.821597,-306.438199,-222.061783,9992.780217
4224.821913,689.485948,1110.308913,10288.862594
4224.822228,1072.533697,592.164754,10436.903782
4224.822544,1225.752797,518.144159,9918.759623
4224.822859,306.438199,1110.308913,9696.697840
4224.823174,153.219100,444.123565,9474.636058
4224.823490,842.705048,370.102971,9622.677246
4224.823805,1302.362347,740.205942,10436.903782
4224.824121,766.095498,-222.061783,10214.842000
4224.824436,0.000000,148.041188,10214.842000
4224.824752,0.000000,-518.144159,9474.636058
4224.825067,153.219100,-0.000000,10066.800811
4224.825382,153.219100,666.185348,9992.780217
4224.825698,536.266849,222.061783,9844.739029
4224.826013,-306.438199,740.205942,9622.677246
4224.826329,-459.657299,-74.020594,9696.697840
4224.826644,76.609550,370.102971,9844.739029
4224.826959,76.609550,962.267725,8512.368333
4224.827275,383.047749,-0.000000,9918.759623
4224.827590,0.000000,666.185348,9844.739029
4224.827906,-766.095498,592.164754,8734.430116
4224.828221,-919.314598,-74.020594,9770.718434
4224.828536,842.705048,962.267725,9326.594869
4224.828852,689.485948,370.102971,9696.697840
4224.829167,-229.828649,592.164754,9178.553681
4224.829483,-612.876398,888.247130,8808.450710
4224.829798,0.000000,-444.123565,9326.594869
4224.830113,306.438199,-222.061783,9474.636058
4224.830429,766.095498,-74.020594,9844.739029
4224.830744,0.000000,-592.164754,9030.512492
4224.831060,-536.266849,-222.061783,9474.636058
4224.831375,-612.876398,-740.205942,8808.450710
4224.831690,536.266849,-0.000000,8956.491898
4224.832006,1072.533697,370.102971,10362.883188
4224.832321,153.219100,-148.041188,8660.409521
4224.832637,-76.609550,-0.000000,8808.450710
4224.832952,0.000000,-0.000000,9474.636058
4224.833267,536.266849,148.041188,8808.450710
4224.833583,612.876398,296.082377,9992.780217
4224.833898,459.657299,370.102971,9918.759623
4224.834214,0.000000,444.123565,9178.553681
4224.834529,76.609550,-0.000000,10288.862594
4224.834844,459.657299,888.247130,9252.574275
4224.835160,536.266849,222.061783,9474.636058
4224.835475,306.438199,-222.061783,10584.944971
4224.835791,-459.657299,-0.000000,8882.471304
4224.836106,-459.657299,-296.082377,9178.553681
4224.836421,0.000000,-0.000000,9770.718434
4224.836737,459.657299,-0.000000,9474.636058
4224.837052,306.438199,-444.123565,10510.924376
4224.837368,-536.266849,-0.000000,9696.697840
4224.837683,-842.705048,-0.000000,9918.759623
4224.837998,0.000000,-74.020594,10214.842000
4224.838314,842.705048,-0.000000,9548.656652
4224.838629,1149.143247,-74.020594,9992.780217
4224.838945,306.438199,740.205942,8882.471304
4224.839260,0.000000,296.082377,9104.533087
4224.839575,0.000000,148.041188,10807.006753
4224.839891,1149.143247,888.247130,10732.986159
4224.840206,1685.410096,296.082377,9548.656652
4224.840522,995.924147,296.082377,9104.533087
4224.840837,0.000000,-296.082377,9178.553681
4224.841152,0.000000,-518.144159,9474.636058
4224.841468,229.828649,-0.000000,9770.718434
4224.841783,459.657299,-222.061783,10436.903782
4224.842099,0.000000,-148.041188,8956.491898
4224.842414,-689.485948,-74.020594,8882.471304
4224.842729,-689.485948,-740.205942,9474.636058
4224.843045,-383.047749,-0.000000,10214.842000
4224.843360,383.047749,-0.000000,9844.739029
4224.843676,229.828649,148.041188,9474.636058
4224.843991,-612.876398,444.123565,9252.574275
4224.844306,-383.047749,-222.061783,9326.594869
4224.844622,0.000000,444.123565,9696.697840
4224.844937,459.657299,814.226536,9400.615463
4224.845253,0.000000,-0.000000,9918.759623
4224.845568,-536.266849,1036.288319,9178.553681
4224.845884,-1072.533697,-0.000000,9400.615463
4224.846199,-306.438199,-0.000000,9326.594869
4224.846514,153.219100,-222.061783,9770.718434
4224.846830,76.609550,-592.164754,10066.800811
4224.847145,-766.095498,-0.000000,9770.718434
4224.847461,-689.485948,666.185348,9474.636058
4224.847776,153.219100,740.205942,9474.636058
4224.848091,1072.533697,518.144159,9474.636058
4224.848407,842.705048,-296.082377,10066.800811
4224.848722,-153.219100,444.123565,9770.718434
4224.849038,-995.924147,148.041188,9918.759623
4224.849353,-459.657299,148.041188,10288.862594
4224.849668,459.657299,1036.288319,9696.697840
4224.849984,1072.533697,296.082377,9770.718434
4224.850299,689.485948,-0.000000,9696.697840
4224.850615,-229.828649,370.102971,9178.553681
4224.850930,153.219100,592.164754,9030.512492
4224.851245,1072.533697,1036.288319,9400.615463
4224.851561,1072.533697,148.041188,9548.656652
4224.851876,536.266849,-74.020594,9474.636058
4224.852192,-459.657299,-0.000000,8882.471304
4224.852507,0.000000,-592.164754,9770.718434
4224.852822,612.876398,-0.000000,9992.780217
4224.853138,842.705048,-148.041188,9770.718434
4224.853453,536.266849,222.061783,10066.800811
4224.853769,0.000000,444.123565,9400.615463
4224.854084,306.438199,-370.102971,9770.718434
4224.854399,1378.971896,-0.000000,9770.718434
4224.854715,1532.190996,518.144159,9622.677246
4224.855030,995.924147,592.164754,9770.718434
4224.855346,153.219100,592.164754,9918.759623
4224.855661,689.485948,-0.000000,9770.718434
4224.855976,1532.190996,592.164754,9622.677246
4224.856292,1378.971896,666.185348,9844.739029
4224.856607,766.095498,-0.000000,9696.697840
4224.856923,0.000000,-296.082377,9474.636058
4224.857238,0.000000,-1110.308913,10140.821405
4224.857553,-76.609550,222.061783,9770.718434
4224.857869,0.000000,-444.123565,9992.780217
4224.858184,-306.438199,-518.144159,10288.862594
4224.858500,-1225.752797,296.082377,9622.677246
4224.858815,-1072.533697,-148.041188,8956.491898
4224.859130,-689.485948,-0.000000,9548.656652
4224.859446,383.047749,518.144159,9474.636058
4224.859761,0.000000,296.082377,9548.656652
4224.860077,-842.705048,666.185348,9400.615463
4224.860392,-919.314598,444.123565,9030.512492
4224.860707,-689.485948,592.164754,9252.574275
4224.861023,-153.219100,-0.000000,9400.615463
4224.861338,76.609550,-888.247130,9696.697840
4224.861654,-1149.143247,-592.164754,9696.697840
4224.861969,-1685.410096,-444.123565,8956.491898
4224.862284,-1685.410096,-888.247130,9474.636058
4224.862600,-1149.143247,-0.000000,9844.739029
4224.862915,-383.047749,-962.267725,9622.677246
4224.863231,-383.047749,-888.247130,9696.697840
4224.863546,-612.876398,-296.082377,9104.533087
4224.863861,-383.047749,-666.185348,8956.491898
4224.864177,306.438199,444.123565,9474.636058
4224.864492,383.047749,592.164754,9474.636058
4224.864808,536.266849,-148.041188,9844.739029
4224.865123,-229.828649,1036.288319,9030.512492
4224.865439,153.219100,-222.061783,9696.697840
4224.865754,766.095498,-0.000000,9474.636058
4224.866069,919.314598,222.061783,9844.739029
4224.866385,766.095498,-148.041188,9400.615463
4224.866700,-383.047749,-370.102971,9400.615463
4224.867016,0.000000,-74.020594,9474.636058
4224.867331,459.657299,-0.000000,9178.553681
4224.867646,919.314598,518.144159,9696.697840
4224.867962,1302.362347,-518.144159,10140.821405
4224.868277,229.828649,370.102971,9252.574275
4224.868593,76.609550,148.041188,9252.574275
4224.868908,536.266849,444.123565,9178.553681
4224.869223,1838.629195,888.247130,9622.677246
4224.869539,1762.019645,296.082377,9622.677246
4224.869854,1072.533697,444.123565,10066.800811
4224.870170,459.657299,666.185348,10140.821405
4224.870485,306.438199,666.185348,10214.842000
4224.870800,842.705048,1776.494261,9918.759623
4224.871116,1762.019645,370.102971,10214.842000
4224.871431,919.314598,-74.020594,9992.780217
4224.871747,0.000000,-296.082377,9400.615463
4224.872062,0.000000,-444.123565,9548.656652
4224.872377,536.266849,444.123565,10288.862594
4224.872693,766.095498,296.082377,9696.697840
4224.873008,306.438199,-0.000000,10214.842000
4224.873324,229.828649,666.185348,9474.636058
4224.873639,229.828649,592.164754,9400.615463
4224.873954,459.657299,1184.329507,9548.656652
4224.874270,1072.533697,666.185348,9696.697840
4224.874585,-229.828649,370.102971,9992.780217
4224.874901,-1225.752797,666.185348,9696.697840
4224.875216,-919.314598,370.102971,10288.862594
4224.875531,-536.266849,666.185348,10362.883188
4224.875847,-383.047749,-0.000000,10214.842000
4224.876162,-383.047749,-0.000000,10658.965565
4224.876478,-1532.190996,296.082377,10140.821405
4224.876793,-1225.752797,-74.020594,9474.636058
4224.877108,-689.485948,444.123565,9326.594869
4224.877424,76.609550,-0.000000,9326.594869
4224.877739,0.000000,-222.061783,9844.739029
4224.878055,-919.314598,-0.000000,9104.533087
4224.878370,-919.314598,-518.144159,9178.553681
4224.878685,-536.266849,-370.102971,9474.636058
4224.879001,689.485948,-148.041188,9696.697840
4224.879316,229.828649,-0.000000,9548.656652
4224.879632,-612.876398,-0.000000,9178.553681
4224.879947,-689.485948,-0.000000,9474.636058
4224.880262,0.000000,-296.082377,9104.533087
4224.880578,766.095498,296.082377,9030.512492
4224.880893,153.219100,-0.000000,9844.739029
4224.881209,-612.876398,296.082377,8956.491898
4224.881524,-1072.533697,-0.000000,9030.512492
4224.881839,-76.609550,-444.123565,9400.615463
4224.882155,919.314598,444.123565,9696.697840
4224.882470,459.657299,-222.061783,9474.636058
4224.882786,0.000000,-0.000000,9030.512492
4224.883101,-153.219100,296.082377,8438.347739
4224.883416,229.828649,296.082377,8660.409521
4224.883732,1225.752797,888.247130,9104.533087
4224.884047,1149.143247,148.041188,9326.594869
4224.884363,383.047749,-74.020594,9400.615463
4224.884678,-229.828649,-0.000000,9252.574275
4224.884994,0.000000,-296.082377,9770.718434
4224.885309,1072.533697,-0.000000,10658.965565
4224.885624,766.095498,-148.041188,10584.944971
4224.885940,0.000000,-592.164754,10658.965565
4224.886255,229.828649,-296.082377,9992.780217
4224.886571,766.095498,222.061783,9696.697840
4224.886886,1378.971896,1036.288319,9474.636058
4224.887201,2451.505594,518.144159,9770.718434
4224.887517,2374.896044,370.102971,9918.759623
4224.887832,1532.190996,592.164754,8586.388927
4224.888148,1302.362347,-148.041188,9400.615463
4224.888463,1149.143247,-0.000000,10214.842000
4224.888778,1225.752797,-0.000000,10214.842000
4224.889094,536.266849,-1036.288319,10584.944971
4224.889409,-306.438199,-888.247130,9918.759623
4224.889725,-383.047749,-1258.350101,9696.697840
4224.890040,-689.485948,-740.205942,10362.883188
4224.890355,76.609550,518.144159,9844.739029
4224.890671,0.000000,-0.000000,10732.986159
4224.890986,-689.485948,814.226536,9474.636058
4224.891302,-536.266849,222.061783,9474.636058
4224.891617,0.000000,814.226536,9178.553681
4224.891932,229.828649,962.267725,9548.656652
4224.892248,229.828649,518.144159,9992.780217
4224.892563,-536.266849,666.185348,8956.491898
4224.892879,-1149.143247,-148.041188,9178.553681
4224.893194,-995.924147,-148.041188,9548.656652
4224.893509,-612.876398,-0.000000,9400.615463
4224.893825,-612.876398,-296.082377,9326.594869
4224.894140,-1455.581446,-74.020594,8808.450710
4224.894456,-1762.019645,-518.144159,8438.347739
4224.894771,-1685.410096,-1036.288319,9178.553681
4224.895086,-536.266849,-0.000000,9252.574275
4224.895402,-229.828649,-222.061783,9474.636058
4224.895717,-306.438199,148.041188,9474.636058
4224.896033,-536.266849,-0.000000,9178.553681
4224.896348,0.000000,-0.000000,9326.594869
4224.896663,76.609550,814.226536,9474.636058
4224.896979,919.314598,1036.288319,9326.594869
4224.897294,383.047749,-0.000000,9474.636058
4224.897610,0.000000,962.267725,9030.512492
4224.897925,-459.657299,-0.000000,9474.636058
4224.898240,-383.047749,74.020594,9844.739029
4224.898556,0.000000,-0.000000,9696.697840
4224.898871,76.609550,-296.082377,9696.697840
4224.899187,-766.095498,-148.041188,9770.718434
4224.899502,-689.485948,-444.123565,9474.636058
4224.899817,-229.828649,-148.041188,10362.883188
4224.900133,306.438199,518.144159,9474.636058
4224.900448,612.876398,296.082377,10066.800811
4224.900764,0.000000,666.185348,9104.533087
4224.901079,0.000000,-0.000000,9326.594869
4224.901394,689.485948,962.267725,9474.636058
4224.901710,1838.629195,1110.308913,9548.656652
4224.902025,1762.019645,518.144159,10288.862594
4224.902341,1072.533697,1110.308913,9622.677246
4224.902656,0.000000,592.164754,9326.594869
4224.902971,919.314598,222.061783,10362.883188
4224.903287,1532.190996,592.164754,10436.903782
4224.903602,1762.019645,-0.000000,10436.903782
4224.903918,1225.752797,222.061783,9918.759623
4224.904233,766.095498,-0.000000,9474.636058
4224.904548,153.219100,148.041188,10066.800811
4224.904864,842.705048,814.226536,10066.800811
4224.905179,1608.800546,-0.000000,10214.842000
4224.905495,1072.533697,370.102971,9696.697840
4224.905810,919.314598,370.102971,8734.430116
4224.906126,689.485948,296.082377,8734.430116
4224.906441,1149.143247,888.247130,9548.656652
4224.906756,1072.533697,148.041188,9326.594869
4224.907072,383.047749,-0.000000,9696.697840
4224.907387,-459.657299,296.082377,9696.697840
4224.907703,-306.438199,-74.020594,9104.533087
4224.908018,-229.828649,370.102971,9252.574275
4224.908333,0.000000,-148.041188,9696.697840
4224.908649,-459.657299,-222.061783,9992.780217
4224.908964,-1378.971896,-296.082377,10214.842000
4224.909280,-842.705048,-74.020594,9918.759623
4224.909595,-689.485948,296.082377,9474.636058
4224.909910,-153.219100,444.123565,9104.533087
4224.910226,-76.609550,-518.144159,10066.800811
4224.910541,-766.095498,592.164754,8660.409521
4224.910857,-1149.143247,-592.164754,9030.512492
4224.911172,-612.876398,-592.164754,9400.615463
4224.911487,0.000000,-0.000000,9474.636058
4224.911803,76.609550,-444.123565,9326.594869
4224.912118,-689.485948,-0.000000,9548.656652
4224.912434,-1149.143247,-74.020594,9178.553681
4224.912749,-842.705048,-814.226536,10066.800811
4224.913064,-229.828649,-0.000000,9696.697840
4224.913380,-229.828649,-592.164754,9992.780217
4224.913695,-689.485948,-74.020594,9474.636058
4224.914011,-842.705048,-592.164754,9770.718434
4224.914326,-536.266849,-148.041188,9548.656652
4224.914641,536.266849,444.123565,8660.409521
4224.914957,1149.143247,-518.144159,9474.636058
4224.915272,-689.485948,1036.288319,9104.533087
4224.915588,-766.095498,-0.000000,9400.615463
4224.915903,536.266849,-0.000000,9030.512492
4224.916218,689.485948,1184.329507,8364.327145
4224.916534,919.314598,-740.205942,8808.450710
4224.916849,995.924147,-222.061783,9474.636058
4224.917165,-306.438199,-296.082377,9474.636058
4224.917480,0.000000,-444.123565,8586.388927
4224.917795,536.266849,370.102971,10066.800811
4224.918111,689.485948,-0.000000,9474.636058
4224.918426,995.924147,-592.164754,11103.089130
4224.918742,306.438199,-148.041188,9400.615463
4224.919057,0.000000,-814.226536,9770.718434
4224.919372,1225.752797,740.205942,10066.800811
4224.919688,1838.629195,962.267725,9918.759623
4224.920003,1915.238745,888.247130,9696.697840
4224.920319,1915.238745,888.247130,9474.636058
4224.920634,1302.362347,-0.000000,8882.471304
4224.920949,1149.143247,296.082377,9992.780217
4224.921265,1838.629195,518.144159,10288.862594
4224.921580,766.095498,-0.000000,9992.780217
4224.921896,229.828649,814.226536,9770.718434
4224.922211,-306.438199,-296.082377,9770.718434
4224.922526,0.000000,-444.123565,10214.842000
4224.922842,306.438199,444.123565,10288.862594
4224.923157,0.000000,-296.082377,10288.862594
4224.923473,-612.876398,148.041188,9992.780217
4224.923788,-766.095498,518.144159,9918.759623
4224.924103,-229.828649,962.267725,9770.718434
4224.924419,995.924147,1184.329507,10066.800811
4224.924734,536.266849,444.123565,10288.862594
4224.925050,0.000000,592.164754,9474.636058
4224.925365,-766.095498,148.041188,9474.636058
4224.925681,-766.095498,-0.000000,9844.739029
4224.925996,-229.828649,1110.308913,10140.821405
4224.926311,-153.219100,-0.000000,9622.677246
4224.926627,-842.705048,-0.000000,9104.533087
4224.926942,-1225.752797,-592.164754,9030.512492
4224.927258,-766.095498,-444.123565,9474.636058
4224.927573,-229.828649,370.102971,9252.574275
4224.927889,383.047749,222.061783,9104.533087
4224.928204,306.438199,-148.041188,8364.327145
4224.928519,-766.095498,-518.144159,8364.327145
4224.928835,0.000000,-1036.288319,9326.594869
4224.929150,-689.485948,296.082377,9326.594869
4224.929466,153.219100,-0.000000,9474.636058
4224.929781,-76.609550,-148.041188,9622.677246
4224.930097,-919.314598,-0.000000,9252.574275
4224.930412,-459.657299,-444.123565,9252.574275
4224.930727,-459.657299,740.205942,9178.553681
4224.931043,0.000000,814.226536,9844.739029
4224.931358,306.438199,518.144159,9918.759623
4224.931674,-536.266849,592.164754,9178.553681
4224.931989,-842.705048,296.082377,9178.553681
4224.932305,0.000000,592.164754,9326.594869
4224.932620,536.266849,666.185348,9474.636058
4224.932935,689.485948,-0.000000,9622.677246
4224.933251,76.609550,296.082377,9770.718434
4224.933566,0.000000,-296.082377,8882.471304
4224.933882,0.000000,-0.000000,9474.636058
4224.934197,689.485948,740.205942,10066.800811
4224.934513,919.314598,-0.000000,9844.739029
4224.934828,153.219100,444.123565,9992.780217
4224.935143,153.219100,518.144159,10066.800811
4224.935459,459.657299,222.061783,9770.718434
4224.935774,1225.752797,740.205942,9918.759623
4224.936090,1838.629195,666.185348,9992.780217
4224.936405,1378.971896,296.082377,10140.821405
4224.936720,0.000000,1110.308913,9992.780217
4224.937036,306.438199,518.144159,9992.780217
4224.937351,766.095498,1480.411884,10066.800811
4224.937667,1302.362347,148.041188,11251.130318
4224.937982,1378.971896,-0.000000,10807.006753
4224.938298,0.000000,-0.000000,9400.615463
4224.938613,306.438199,-666.185348,10066.800811
4224.938928,536.266849,444.123565,9844.739029
4224.939244,766.095498,-222.061783,9474.636058
4224.939559,153.219100,-74.020594,9770.718434
4224.939875,-383.047749,-0.000000,9104.533087
4224.940190,76.609550,-666.185348,9696.697840
4224.940506,229.828649,814.226536,9400.615463
4224.940821,459.657299,-0.000000,9474.636058
4224.941136,229.828649,-0.000000,9326.594869
4224.941452,-383.047749,370.102971,9030.512492
4224.941767,-536.266849,-444.123565,9326.594869
4224.942083,0.000000,-148.041188,9770.718434
4224.942398,0.000000,888.247130,9252.574275
4224.942714,-383.047749,-148.041188,9474.636058
4224.943029,-1072.533697,296.082377,9622.677246
4224.943344,-1225.752797,-222.061783,9696.697840
4224.943660,-919.314598,-74.020594,9622.677246
4224.943975,0.000000,-222.061783,9622.677246
4224.944291,-306.438199,-1332.370696,9474.636058
4224.944606,-689.485948,-814.226536,9326.594869
4224.944922,-1149.143247,-592.164754,8512.368333
4224.945237,-612.876398,-444.123565,9178.553681
4224.945552,919.314598,962.267725,9030.512492
4224.945868,919.314598,-0.000000,8734.430116
4224.946183,153.219100,296.082377,8290.306550
4224.946499,0.000000,-592.164754,8364.327145
4224.946814,-76.609550,-666.185348,9474.636058
4224.947130,0.000000,444.123565,9548.656652
4224.947445,76.609550,-222.061783,9400.615463
4224.947760,0.000000,-0.000000,9844.739029
4224.948076,-995.924147,-222.061783,9696.697840
4224.948391,-842.705048,-296.082377,9844.739029
4224.948707,-229.828649,-74.020594,10658.965565
4224.949022,-383.047749,-444.123565,10140.821405
4224.949338,0.000000,-740.205942,10584.944971
4224.949653,229.828649,-0.000000,9400.615463
4224.949968,1072.533697,-518.144159,9548.656652
4224.950284,2145.067394,444.123565,9548.656652
4224.950599,3140.991542,-0.000000,9178.553681
4224.950915,3294.210641,-296.082377,9548.656652
4224.951230,2834.553343,518.144159,9178.553681
4224.951545,2374.896044,-74.020594,8808.450710
4224.951861,2451.505594,-0.000000,9104.533087
4224.952176,2528.115143,592.164754,9030.512492
4224.952492,2528.115143,-1036.288319,10066.800811
4224.952807,1302.362347,-1332.370696,10732.986159
4224.953123,842.705048,-2072.576638,10881.027347
4224.953438,612.876398,-1110.308913,10807.006753
4224.953753,1991.848295,-592.164754,11103.089130
4224.954069,2451.505594,-1332.370696,11325.150913
4224.954384,2757.943793,-1184.329507,11399.171507
4224.954700,2298.286494,-592.164754,10436.903782
4224.955015,2451.505594,-370.102971,9696.697840
4224.955331,3294.210641,296.082377,9622.677246
4224.955646,3830.477490,-0.000000,8586.388927
4224.955961,3983.696590,-814.226536,9326.594869
4224.956277,2834.553343,-518.144159,8438.347739
4224.956592,1302.362347,-1554.432478,9252.574275
4224.956908,536.266849,-2072.576638,9918.759623
4224.957223,1072.533697,-2368.659014,10214.842000
4224.957539,1685.410096,-3701.029710,10288.862594
4224.957854,1685.410096,-3923.091493,10658.965565
4224.958169,383.047749,-2812.782580,10436.903782
4224.958485,0.000000,-2960.823768,9844.739029
4224.958800,1225.752797,-2072.576638,9844.739029
4224.959116,2451.505594,-1332.370696,8956.491898
4224.959431,2911.162892,-1258.350101,8512.368333
4224.959747,2987.772442,-444.123565,7772.162391
4224.960062,1455.581446,-1110.308913,7846.182985
4224.960377,689.485948,-1850.514855,9474.636058
4224.960693,1378.971896,-2220.617826,9252.574275
4224.961008,1838.629195,-3108.864956,9400.615463
4224.961324,1762.019645,-3404.947333,9844.739029
4224.961639,1378.971896,-3256.906145,10288.862594
4224.961955,0.000000,-2738.761985,9548.656652
4224.962270,-306.438199,-3627.009116,9844.739029
4224.962585,919.314598,-3404.947333,9474.636058
4224.962901,1915.238745,-2368.659014,8956.491898
4224.963216,2528.115143,-1924.535449,7994.224174
4224.963532,1762.019645,-2294.638420,8660.409521
4224.963847,995.924147,-1554.432478,9178.553681
4224.964163,1149.143247,-3256.906145,9696.697840
4224.964478,2604.724693,-2368.659014,9030.512492
4224.964793,3677.258390,-2294.638420,9400.615463
4224.965109,4290.134789,-2220.617826,8438.347739
4224.965424,3294.210641,-2664.741391,9696.697840
4224.965740,2298.286494,-2220.617826,9696.697840
4224.966055,1762.019645,-2812.782580,9696.697840
4224.966370,1838.629195,-2146.597232,9178.553681
4224.966686,2911.162892,-2146.597232,8956.491898
4224.967001,2987.772442,-2442.679609,8586.388927
4224.967317,2451.505594,-2590.720797,9104.533087
4224.967632,1838.629195,-2812.782580,9474.636058
4224.967948,842.705048,-3330.926739,10732.986159
4224.968263,1608.800546,-2516.700203,9992.780217
4224.968578,1991.848295,-2220.617826,10140.821405
4224.968894,3524.039291,-2590.720797,9696.697840
4224.969209,3830.477490,-2368.659014,9474.636058
4224.969525,3447.429741,-1998.556043,9474.636058
4224.969840,3140.991542,-1480.411884,9770.718434
4224.970156,2681.334243,-740.205942,10140.821405
4224.970471,2451.505594,-370.102971,9474.636058
4224.970786,2834.553343,-740.205942,9030.512492
4224.971102,3524.039291,-1628.453072,9178.553681
4224.971417,2911.162892,-2220.617826,9696.697840
4224.971733,1455.581446,-2812.782580,10362.883188
4224.972048,1225.752797,-2812.782580,11029.068536
4224.972364,1838.629195,-2368.659014,11547.212695
4224.972679,2451.505594,-2072.576638,11177.109724
4224.972994,2911.162892,-2072.576638,10436.903782
4224.973310,2834.553343,-1628.453072,9844.739029
4224.973625,3294.210641,-1776.494261,9548.656652
4224.973941,3217.601092,-740.205942,8882.471304
4224.974256,2834.553343,-148.041188,8512.368333
4224.974572,2528.115143,-518.144159,9030.512492
4224.974887,2604.724693,-444.123565,9474.636058
4224.975202,2221.676944,-1702.473667,9400.615463
4224.975518,1225.752797,-2442.679609,10288.862594
4224.975833,689.485948,-2812.782580,10881.027347
4224.976149,689.485948,-2960.823768,10881.027347
4224.976464,689.485948,-2812.782580,10436.903782
4224.976780,1149.143247,-1924.535449,10066.800811
4224.977095,1149.143247,-1480.411884,9252.574275
4224.977410,1455.581446,-1036.288319,9548.656652
4224.977726,1685.410096,-592.164754,9548.656652
4224.978041,919.314598,-1332.370696,9770.718434
4224.978357,1608.800546,-1406.391290,9400.615463
4224.978672,1608.800546,-2072.576638,8956.491898
4224.978988,2298.286494,-2072.576638,8882.471304
4224.979303,2451.505594,-2146.597232,9030.512492
4224.979618,1991.848295,-1850.514855,9104.533087
4224.979934,1608.800546,-1628.453072,9326.594869
4224.980249,1838.629195,-1332.370696,9030.512492
4224.980565,1838.629195,-1776.494261,9326.594869
4224.980880,1378.971896,-1998.556043,9548.656652
4224.981195,995.924147,-2664.741391,9622.677246
4224.981511,1149.143247,-2812.782580,9178.553681
4224.981826,1838.629195,-2442.679609,8882.471304
4224.982142,1762.019645,-2220.617826,8882.471304
4224.982457,2374.896044,-814.226536,8438.347739
4224.982773,2145.067394,-296.082377,7994.224174
4224.983088,1838.629195,-0.000000,8734.430116
4224.983403,1838.629195,-518.144159,9252.574275
4224.983719,1455.581446,-1554.432478,10288.862594
4224.984034,1225.752797,-1924.535449,11177.109724
4224.984350,1532.190996,-2886.803174,11547.212695
4224.984665,2068.457845,-3256.906145,11177.109724
4224.984981,3064.381992,-2960.823768,10584.944971
4224.985296,3140.991542,-2146.597232,9918.759623
4224.985611,3140.991542,-370.102971,8512.368333
4224.985927,2834.553343,222.061783,8734.430116
4224.986242,2987.772442,814.226536,8734.430116
4224.986558,2681.334243,-0.000000,8142.265362
4224.986873,1532.190996,-1258.350101,8956.491898
4224.987189,1149.143247,-3108.864956,10881.027347
4224.987504,919.314598,-3923.091493,12065.356855
4224.987819,1608.800546,-5329.482782,12583.501014
4224.988135,2451.505594,-4219.173869,13027.624579
4224.988450,3370.820191,-3478.967927,11769.274478
4224.988766,3830.477490,-1480.411884,9548.656652
4224.989081,4290.134789,-222.061783,8956.491898
4224.989397,4596.572988,740.205942,7254.018232
4224.989712,4903.011187,592.164754,6439.791695
4224.990027,3294.210641,814.226536,5995.668130
4224.990343,1991.848295,-296.082377,7031.956449
4224.990658,689.485948,-2368.659014,9696.697840
4224.990974,-383.047749,-3997.112087,11325.150913
4224.991289,-689.485948,-5403.503377,13175.665768
4224.991605,-306.438199,-6143.709319,14359.995275
4224.991920,995.924147,-6217.729913,14434.015869
4224.992235,2757.943793,-5255.462188,12657.521608
4224.992551,4519.963438,-3701.029710,10362.883188
4224.992866,6052.154434,-962.267725,7994.224174
4224.993182,5898.935335,1332.370696,5699.585753
4224.993497,5745.716235,2072.576638,4219.173869
4224.993813,5056.230287,1998.556043,3775.050304
4224.994128,3677.258390,962.267725,4293.194464
4224.994443,1608.800546,-1036.288319,6513.812290
4224.994759,-612.876398,-3108.864956,9696.697840
4224.995074,-1838.629195,-5477.523971,11769.274478
4224.995390,-2681.334243,-7179.997637,12879.583391
4224.995705,-2604.724693,-7328.038826,13249.686362
4224.996021,-1762.019645,-6587.832884,14137.933492
4224.996336,-306.438199,-4737.318029,13175.665768
4224.996651,1838.629195,-2368.659014,10881.027347
4224.996967,3600.648841,740.205942,8586.388927
4224.997282,4366.744339,2738.761985,6735.874072
4224.997598,5209.449386,3627.009116,5773.606348
4224.997913,5669.106685,3182.885551,6069.688724
4224.998228,5439.278036,1480.411884,6661.853478
4224.998544,4213.525239,-0.000000,7698.141797
4224.998859,2604.724693,-1998.556043,9548.656652
4224.999175,919.314598,-4515.256246,10807.006753
4224.999490,0.000000,-5551.544565,11695.253884
4224.999806,0.000000,-6217.729913,11769.274478
4225.000121,-383.047749,-6217.729913,11695.253884
4225.000436,-306.438199,-5403.503377,10732.986159
4225.000752,0.000000,-3182.885551,9992.780217
4225.001067,689.485948,-1406.391290,8586.388927
4225.001383,1378.971896,-0.000000,7920.203579
4225.001698,2451.505594,1110.308913,7550.100608
4225.002014,3140.991542,1480.411884,8142.265362
4225.002329,3830.477490,1776.494261,8808.450710
4225.002644,3140.991542,888.247130,9474.636058
4225.002960,3524.039291,444.123565,10362.883188
4225.003275,2987.772442,-1036.288319,11399.171507
4225.003591,2451.505594,-1628.453072,11991.336260
4225.003906,1685.410096,-2516.700203,11621.233289
4225.004222,995.924147,-2590.720797,11029.068536
4225.004537,1072.533697,-2442.679609,10288.862594
4225.004852,766.095498,-2146.597232,9474.636058
4225.005168,536.266849,-1702.473667,8808.450710
4225.005483,612.876398,-1480.411884,8808.450710
4225.005799,995.924147,-1110.308913,8512.368333
4225.006114,1532.190996,-1036.288319,8734.430116
4225.006430,2145.067394,-962.267725,9326.594869
4225.006745,2528.115143,-1184.329507,10510.924376
4225.007060,3140.991542,-814.226536,10881.027347
4225.007376,3677.258390,-962.267725,10732.986159
4225.007691,3983.696590,-518.144159,10881.027347
4225.008007,4136.915689,-222.061783,10436.903782
4225.008322,3983.696590,222.061783,9474.636058
4225.008638,3294.210641,148.041188,9400.615463
4225.008953,2374.896044,-74.020594,8956.491898
4225.009268,1838.629195,-888.247130,8660.409521
4225.009584,1608.800546,-1628.453072,9104.533087
4225.009899,1302.362347,-2590.720797,9474.636058
4225.010215,459.657299,-3701.029710,9918.759623
4225.010530,612.876398,-3701.029710,10140.821405
4225.010846,842.705048,-4071.132681,10288.862594
4225.011161,1378.971896,-3627.009116,9918.759623
4225.011476,1532.190996,-2368.659014,9326.594869
4225.011792,1762.019645,-1258.350101,8586.388927
4225.012107,1532.190996,-814.226536,8068.244768
4225.012423,1838.629195,-0.000000,8068.244768
4225.012738,1762.019645,-222.061783,8290.306550
4225.013053,919.314598,-296.082377,8586.388927
4225.013369,766.095498,-370.102971,9252.574275
4225.013684,536.266849,-1406.391290,10214.842000
4225.014000,383.047749,-1998.556043,10658.965565
4225.014315,459.657299,-3108.864956,11843.295072
4225.014631,612.876398,-3256.906145,11695.253884
4225.014946,995.924147,-3627.009116,11399.171507
4225.015261,1762.019645,-2886.803174,10436.903782
4225.015577,2298.286494,-2664.741391,9400.615463
4225.015892,2604.724693,-1554.432478,8586.388927
4225.016208,2681.334243,-962.267725,7994.224174
4225.016523,3294.210641,-740.205942,7550.100608
4225.016839,3677.258390,-888.247130,7698.141797
4225.017154,3983.696590,-1258.350101,7846.182985
4225.017469,3217.601092,-2072.576638,8660.409521
4225.017785,3524.039291,-2368.659014,9696.697840
4225.018100,2757.943793,-2960.823768,10362.883188
4225.018416,2451.505594,-3404.947333,11399.171507
4225.018731,2374.896044,-3256.906145,11251.130318
4225.019047,2298.286494,-2738.761985,11029.068536
4225.019362,2681.334243,-2146.597232,11029.068536
4225.019677,2911.162892,-1850.514855,9992.780217
4225.019993,3064.381992,-1924.535449,10066.800811
4225.020308,3830.477490,-1480.411884,9622.677246
4225.020624,4136.915689,-1480.411884,9474.636058
4225.020939,4060.306139,-1924.535449,9474.636058
4225.021255,4290.134789,-2368.659014,9696.697840
4225.021570,3753.867940,-2442.679609,9622.677246
4225.021885,3447.429741,-3034.844362,9474.636058
4225.022201,3524.039291,-3256.906145,9918.759623
4225.022516,2681.334243,-3478.967927,9844.739029
4225.022832,2221.676944,-3701.029710,9622.677246
4225.023147,2068.457845,-3404.947333,9474.636058
4225.023463,1455.581446,-3404.947333,9326.594869
4225.023778,1149.143247,-3108.864956,9548.656652
4225.024093,1608.800546,-2442.679609,9696.697840
4225.024409,1608.800546,-2590.720797,9918.759623
4225.024724,1915.238745,-2146.597232,10066.800811
4225.025040,1991.848295,-2516.700203,9918.759623
4225.025355,2298.286494,-2738.761985,10214.842000
4225.025671,2374.896044,-2812.782580,10066.800811
4225.025986,2528.115143,-2664.741391,10066.800811
4225.026301,2681.334243,-2664.741391,9696.697840
4225.026617,2681.334243,-2886.803174,9252.574275
4225.026932,2911.162892,-2368.659014,9030.512492
4225.027248,2987.772442,-2442.679609,8438.347739
4225.027563,2374.896044,-1998.556043,7698.141797
4225.027879,2221.676944,-2220.617826,7550.100608
4225.028194,1915.238745,-2294.638420,7476.080014
4225.028510,1685.410096,-2368.659014,7476.080014
4225.028825,766.095498,-2442.679609,7698.141797
4225.029140,76.609550,-2368.659014,8216.285956
4225.029456,-536.266849,-2368.659014,8512.368333
4225.029771,-612.876398,-2220.617826,9252.574275
4225.030087,-612.876398,-1850.514855,10066.800811
4225.030402,-306.438199,-1332.370696,10510.924376
4225.030718,-229.828649,-1110.308913,10288.862594
4225.031033,383.047749,-888.247130,10881.027347
4225.031349,995.924147,-666.185348,11029.068536
4225.031664,1991.848295,-814.226536,11325.150913
4225.031979,2604.724693,-222.061783,10362.883188
4225.032295,3524.039291,-148.041188,9770.718434
4225.032610,4213.525239,-74.020594,9252.574275
4225.032926,4213.525239,-148.041188,8660.409521
4225.033241,3830.477490,-0.000000,8660.409521
4225.033557,2528.115143,-370.102971,8142.265362
4225.033872,1915.238745,-740.205942,8364.327145
4225.034188,1225.752797,-1776.494261,9326.594869
4225.034503,459.657299,-2220.617826,9400.615463
4225.034819,-306.438199,-2590.720797,10732.986159
4225.035134,-153.219100,-2590.720797,11991.336260
4225.035449,383.047749,-2664.741391,12583.501014
4225.035765,1378.971896,-1998.556043,12953.603985
4225.036080,2604.724693,-1332.370696,12657.521608
4225.036396,4519.963438,-222.061783,11917.315666
4225.036711,5898.935335,592.164754,10807.006753
4225.037027,6665.030833,1406.391290,9548.656652
4225.037342,6741.640382,2590.720797,7624.121203
4225.037658,6052.154434,2442.679609,6883.915261
4225.037973,4366.744339,1850.514855,6513.812290
4225.038288,2681.334243,592.164754,6735.874072
4225.038604,842.705048,-1628.453072,8882.471304
4225.038919,-536.266849,-4145.153275,11177.109724
4225.039235,-536.266849,-5699.585753,13249.686362
4225.039550,-1302.362347,-6957.935855,14359.995275
4225.039866,0.000000,-7105.977043,14434.015869
4225.040181,2068.457845,-6069.688724,13175.665768
4225.040497,4290.134789,-3627.009116,10955.047942
4225.040812,5822.325785,-0.000000,7994.224174
4225.041127,6741.640382,2516.700203,5255.462188
4225.041443,6818.249932,4441.235652,3182.885551
4225.041758,6128.763984,4367.215058,2886.803174
4225.042074,4749.792088,2294.638420,4737.318029
4225.042389,2221.676944,-370.102971,7994.224174
4225.042705,76.609550,-3775.050304,10732.986159
4225.043020,-689.485948,-7476.080014,13175.665768
4225.043336,-842.705048,-9178.553681,14434.015869
4225.043651,-1302.362347,-9844.739029,15248.242405
4225.043966,0.000000,-7920.203579,13767.830521
4225.044282,1225.752797,-5847.626942,10955.047942
4225.044597,2911.162892,-1850.514855,7772.162391
4225.044913,4519.963438,1480.411884,5551.544565
4225.045228,4673.182538,2368.659014,3701.029710
4225.045544,3983.696590,1998.556043,4737.318029
4225.045859,3524.039291,296.082377,5625.565159
4225.046175,3677.258390,-1850.514855,7328.038826
4225.046490,2834.553343,-3552.988522,9326.594869
4225.046806,1685.410096,-4737.318029,11177.109724
4225.047121,612.876398,-5847.626942,11991.336260
4225.047436,766.095498,-5921.647536,12657.521608
4225.047752,689.485948,-5329.482782,12361.439231
4225.048067,0.000000,-4293.194464,11399.171507
4225.048383,-459.657299,-2960.823768,9844.739029
4225.048698,-383.047749,-2368.659014,8734.430116
4225.049014,459.657299,-1776.494261,7550.100608
4225.049329,536.266849,-962.267725,7179.997637
4225.049645,1378.971896,-666.185348,6957.935855
4225.049960,995.924147,-666.185348,8808.450710
4225.050275,1532.190996,-1258.350101,10362.883188
4225.050591,1378.971896,-2146.597232,11547.212695
4225.050906,2221.676944,-2812.782580,12805.562797
4225.051222,2451.505594,-4145.153275,13249.686362
4225.051537,2757.943793,-4219.173869,12583.501014
4225.051853,3140.991542,-3404.947333,10584.944971
4225.052168,3600.648841,-1850.514855,8808.450710
4225.052484,3524.039291,-0.000000,7105.977043
4225.052799,2374.896044,666.185348,6735.874072
4225.053114,1378.971896,1110.308913,6735.874072
4225.053430,919.314598,148.041188,7105.977043
4225.053745,383.047749,-814.226536,8438.347739
4225.054061,536.266849,-2516.700203,9844.739029
4225.054376,459.657299,-4589.276840,11843.295072
4225.054692,1225.752797,-4515.256246,13101.645173
4225.055007,1685.410096,-3330.926739,12953.603985
4225.055323,2221.676944,-1776.494261,12435.459826
4225.055638,3753.867940,-0.000000,10510.924376
4225.055953,5132.839837,1776.494261,8956.491898
4225.056269,6205.373534,2738.761985,7105.977043
4225.056584,6128.763984,2738.761985,6217.729913
4225.056900,4673.182538,2368.659014,6587.832884
4225.057215,2757.943793,222.061783,7105.977043
4225.057531,1915.238745,-1258.350101,8734.430116
4225.057846,1302.362347,-2738.761985,9696.697840
4225.058162,766.095498,-3923.091493,11177.109724
4225.058477,1072.533697,-5329.482782,12213.398043
4225.058793,1378.971896,-5625.565159,12731.542202
4225.059108,842.705048,-3701.029710,12879.583391
4225.059423,842.705048,-2516.700203,11843.295072
4225.059739,2145.067394,-370.102971,9548.656652
4225.060054,4213.525239,888.247130,7624.121203
4225.060370,5898.935335,1110.308913,6661.853478
4225.060685,5669.106685,2664.741391,5773.606348
4225.061001,3600.648841,2294.638420,5921.647536
4225.061316,2298.286494,666.185348,8216.285956
4225.061632,1838.629195,-222.061783,9548.656652
4225.061947,995.924147,-2072.576638,10436.903782
4225.062262,1302.362347,-4959.379811,11843.295072
4225.062578,919.314598,-5329.482782,12657.521608
4225.062893,-459.657299,-5107.421000,12435.459826
4225.063209,-1225.752797,-4737.318029,12065.356855
4225.063524,-1072.533697,-2590.720797,10807.006753
4225.063840,1532.190996,-1258.350101,9030.512492
4225.064155,4136.915689,-0.000000,7105.977043
4225.064471,4749.792088,1036.288319,6143.709319
4225.064786,3140.991542,518.144159,5921.647536
4225.065101,2068.457845,-0.000000,7179.997637
4225.065417,1762.019645,-148.041188,7772.162391
4225.065732,2145.067394,-1036.288319,9104.533087
4225.066048,2757.943793,-2368.659014,10510.924376
4225.066363,1455.581446,-3552.988522,10140.821405
4225.066679,-842.705048,-4441.235652,12139.377449
4225.066994,-2604.724693,-4367.215058,12361.439231
4225.067310,-2604.724693,-2664.741391,11621.233289
4225.067625,0.000000,-2516.700203,11177.109724
4225.067940,766.095498,-666.185348,8808.450710
4225.068256,842.705048,-296.082377,8142.265362
4225.068571,1149.143247,-148.041188,8216.285956
4225.068887,383.047749,-74.020594,8882.471304
4225.069202,1608.800546,-666.185348,9178.553681
4225.069518,2987.772442,-592.164754,10288.862594
4225.069833,2451.505594,-0.000000,9326.594869
4225.070149,1072.533697,-1036.288319,9844.739029
4225.070464,-612.876398,-2442.679609,10584.944971
4225.070780,-995.924147,-2368.659014,10807.006753
4225.071095,229.828649,-2738.761985,11251.130318
4225.071410,842.705048,-1036.288319,9918.759623
4225.071726,-459.657299,-888.247130,9104.533087
4225.072041,-612.876398,-666.185348,8660.409521
4225.072357,0.000000,-444.123565,8956.491898
4225.072672,306.438199,-1036.288319,9474.636058
4225.072988,1149.143247,-148.041188,9622.677246
4225.073303,1072.533697,-370.102971,9548.656652
4225.073619,766.095498,-148.041188,9992.780217
4225.073934,1072.533697,296.082377,10140.821405
4225.074249,1455.581446,-962.267725,10436.903782
4225.074565,2068.457845,-740.205942,10362.883188
4225.074880,1608.800546,-148.041188,10140.821405
4225.075196,1225.752797,518.144159,8808.450710
4225.075511,766.095498,1184.329507,7920.203579
4225.075827,1838.629195,1184.329507,7254.018232
4225.076142,2068.457845,296.082377,8068.244768
4225.076458,153.219100,1258.350101,7179.997637
4225.076773,-536.266849,-1924.535449,9474.636058
4225.077088,-1225.752797,-0.000000,9400.615463
4225.077404,-2221.676944,-592.164754,10214.842000
4225.077719,-919.314598,-1184.329507,11843.295072
4225.078035,0.000000,-0.000000,11473.192101
4225.078350,-842.705048,-148.041188,10288.862594
4225.078666,0.000000,1480.411884,10214.842000
4225.078981,842.705048,2516.700203,9400.615463
4225.079297,1072.533697,3182.885551,8734.430116
4225.079612,2068.457845,3627.009116,9104.533087
4225.079927,1072.533697,3034.844362,8660.409521
4225.080243,-306.438199,2516.700203,8956.491898
4225.080558,-383.047749,1924.535449,9696.697840
4225.080874,-995.924147,518.144159,11177.109724
4225.081189,-766.095498,518.144159,11473.192101
4225.081505,-1072.533697,-666.185348,10807.006753
4225.081820,-2221.676944,-1332.370696,10732.986159
4225.082136,-1915.238745,-518.144159,10955.047942
4225.082451,-995.924147,74.020594,10288.862594
4225.082767,-306.438199,1036.288319,9770.718434
4225.083082,383.047749,1702.473667,9104.533087
4225.083397,536.266849,1628.453072,9252.574275
4225.083713,842.705048,2442.679609,8364.327145
4225.084028,1302.362347,2516.700203,8956.491898
4225.084344,842.705048,1998.556043,9844.739029
4225.084659,306.438199,1332.370696,9844.739029
4225.084975,-919.314598,-0.000000,10658.965565
4225.085290,-1378.971896,814.226536,10362.883188
4225.085606,-1149.143247,296.082377,10807.006753
4225.085921,-689.485948,-0.000000,11029.068536
4225.086236,-919.314598,-148.041188,10510.924376
4225.086552,-1378.971896,-592.164754,10288.862594
4225.086867,-1455.581446,-0.000000,9474.636058
4225.087183,-229.828649,518.144159,9400.615463
4225.087498,689.485948,1036.288319,9622.677246
4225.087814,919.314598,1702.473667,7994.224174
4225.088129,536.266849,444.123565,8512.368333
4225.088445,-229.828649,1406.391290,9400.615463
4225.088760,229.828649,962.267725,8290.306550
4225.089075,842.705048,148.041188,9326.594869
4225.089391,1838.629195,-0.000000,10140.821405
4225.089706,229.828649,-1036.288319,10881.027347
4225.090022,-995.924147,-370.102971,9474.636058
4225.090337,-689.485948,-1332.370696,10436.903782
4225.090653,1072.533697,-592.164754,10436.903782
4225.090968,689.485948,666.185348,9844.739029
4225.091284,0.000000,-0.000000,8734.430116
4225.091599,0.000000,-296.082377,9696.697840
4225.091914,306.438199,-148.041188,9474.636058
4225.092230,1302.362347,-666.185348,9178.553681
4225.092545,919.314598,592.164754,8734.430116
4225.092861,459.657299,-740.205942,9474.636058
4225.093176,0.000000,-1332.370696,9770.718434
4225.093492,306.438199,-74.020594,8956.491898
4225.093807,1149.143247,-592.164754,9474.636058
4225.094123,1225.752797,-370.102971,9326.594869
4225.094438,383.047749,-814.226536,9474.636058
4225.094754,-306.438199,-1332.370696,9918.759623
4225.095069,-612.876398,-666.185348,9474.636058
4225.095384,-459.657299,-740.205942,9622.677246
4225.095700,76.609550,-370.102971,9548.656652
4225.096015,-536.266849,-370.102971,9992.780217
4225.096331,-1302.362347,-1110.308913,9844.739029
4225.096646,-995.924147,-1036.288319,9474.636058
4225.096962,0.000000,-814.226536,9474.636058
4225.097277,766.095498,-1332.370696,10362.883188
4225.097593,842.705048,-444.123565,9918.759623
4225.097908,0.000000,-814.226536,9326.594869
4225.098223,-306.438199,-222.061783,9474.636058
4225.098539,459.657299,666.185348,8512.368333
4225.098854,1378.971896,-444.123565,8364.327145
4225.099170,995.924147,592.164754,8438.347739
4225.099485,-919.314598,-1184.329507,9252.574275
4225.099801,153.219100,-518.144159,8364.327145
4225.100116,0.000000,-370.102971,8882.471304
4225.100432,383.047749,-518.144159,10066.800811
4225.100747,689.485948,-296.082377,9992.780217
4225.101062,-383.047749,-814.226536,10214.842000
4225.101378,0.000000,-0.000000,9844.739029
4225.101693,153.219100,1110.308913,9178.553681
4225.102009,689.485948,1480.411884,9844.739029
4225.102324,919.314598,1554.432478,9474.636058
4225.102640,459.657299,296.082377,10066.800811
4225.102955,76.609550,1110.308913,9326.594869
4225.103271,0.000000,1184.329507,9030.512492
4225.103586,766.095498,1036.288319,9992.780217
4225.103901,459.657299,1554.432478,10510.924376
4225.104217,536.266849,888.247130,10066.800811
4225.104532,-383.047749,296.082377,9622.677246
4225.104848,-536.266849,-0.000000,9844.739029
4225.105163,459.657299,-222.061783,10362.883188
4225.105479,612.876398,1036.288319,10140.821405
4225.105794,306.438199,740.205942,9770.718434
4225.106110,0.000000,370.102971,10066.800811
4225.106425,0.000000,740.205942,9326.594869
4225.106741,842.705048,814.226536,9474.636058
4225.107056,842.705048,1036.288319,10066.800811
4225.107371,919.314598,1036.288319,9918.759623
4225.107687,153.219100,370.102971,9992.780217
4225.108002,-383.047749,1110.308913,9474.636058
4225.108318,0.000000,592.164754,9474.636058
4225.108633,383.047749,518.144159,9992.780217
4225.108949,76.609550,592.164754,10510.924376
4225.109264,-766.095498,-148.041188,10288.862594
4225.109580,-766.095498,518.144159,9918.759623
4225.109895,-383.047749,814.226536,9474.636058
4225.110210,383.047749,1332.370696,9548.656652
4225.110526,153.219100,1258.350101,9178.553681
4225.110841,-612.876398,518.144159,8882.471304
4225.111157,-766.095498,-0.000000,9770.718434
4225.111472,-459.657299,666.185348,8808.450710
4225.111788,229.828649,-0.000000,9622.677246
4225.112103,76.609550,888.247130,10288.862594
4225.112419,-459.657299,-0.000000,9992.780217
4225.112734,-842.705048,-0.000000,10214.842000
4225.113049,-306.438199,444.123565,9918.759623
4225.113365,1072.533697,444.123565,10214.842000
4225.113680,1072.533697,370.102971,9474.636058
4225.113996,459.657299,814.226536,9326.594869
4225.114311,-459.657299,296.082377,9474.636058
4225.114627,-229.828649,74.020594,9178.553681
4225.114942,536.266849,-148.041188,10066.800811
4225.115258,766.095498,-0.000000,9252.574275
4225.115573,306.438199,-370.102971,9918.759623
4225.115888,-306.438199,-592.164754,9622.677246
4225.116204,-153.219100,-962.267725,10066.800811
4225.116519,229.828649,-666.185348,9992.780217
4225.116835,842.705048,-1480.411884,9844.739029
4225.117150,383.047749,-666.185348,9548.656652
4225.117466,229.828649,-518.144159,9400.615463
4225.117781,-229.828649,-0.000000,8512.368333
4225.118097,689.485948,-370.102971,9326.594869
4225.118412,1455.581446,-0.000000,10066.800811
4225.118728,995.924147,-148.041188,9474.636058
4225.119043,536.266849,-666.185348,9474.636058
4225.119358,-153.219100,-740.205942,9548.656652
4225.119674,153.219100,-666.185348,9400.615463
4225.119989,1072.533697,-962.267725,10288.862594
4225.120305,689.485948,-592.164754,9770.718434
4225.120620,0.000000,-1628.453072,9770.718434
4225.120936,-229.828649,-1036.288319,9474.636058
4225.121251,76.609550,-74.020594,9178.553681
4225.121567,995.924147,-74.020594,9178.553681
4225.121882,612.876398,-444.123565,9622.677246
4225.122197,229.828649,-1332.370696,8956.491898
4225.122513,-229.828649,-888.247130,9696.697840
4225.122828,-153.219100,-222.061783,9178.553681
4225.123144,766.095498,-814.226536,10214.842000
4225.123459,1072.533697,740.205942,9696.697840
4225.123775,689.485948,-0.000000,9844.739029
4225.124090,0.000000,-370.102971,10214.842000
4225.124406,0.000000,370.102971,9252.574275
4225.124721,842.705048,518.144159,9548.656652
4225.125036,766.095498,814.226536,9400.615463
4225.125352,-383.047749,444.123565,9918.759623
4225.125667,-995.924147,296.082377,9548.656652
4225.125983,-766.095498,444.123565,9474.636058
4225.126298,-229.828649,148.041188,9622.677246
4225.126614,-306.438199,-296.082377,10140.821405
4225.126929,-459.657299,-0.000000,9844.739029
4225.127244,-1378.971896,-222.061783,9770.718434
4225.127560,-1072.533697,296.082377,9252.574275
4225.127875,-306.438199,370.102971,9622.677246
4225.128191,229.828649,1184.329507,9770.718434
4225.128506,306.438199,814.226536,9474.636058
4225.128821,-842.705048,666.185348,9696.697840
4225.129137,-842.705048,1258.350101,8882.471304
4225.129452,0.000000,740.205942,9104.533087
4225.129767,383.047749,444.123565,10140.821405
4225.130083,0.000000,740.205942,9696.697840
4225.130398,-766.095498,-518.144159,9548.656652
4225.130714,-919.314598,-0.000000,9992.780217
4225.131029,-689.485948,444.123565,9992.780217
4225.131344,0.000000,370.102971,10140.821405
4225.131660,153.219100,1110.308913,10140.821405
4225.131975,-306.438199,296.082377,9474.636058
4225.132291,-383.047749,444.123565,9326.594869
4225.132606,153.219100,666.185348,9474.636058
4225.132921,1532.190996,888.247130,9548.656652
4225.133237,1225.752797,1480.411884,9326.594869
4225.133552,459.657299,1480.411884,8956.491898
4225.133867,153.219100,1554.432478,8882.471304
4225.134183,536.266849,1924.535449,9326.594869
4225.134498,842.705048,1332.370696,9400.615463
4225.134814,612.876398,1258.350101,9696.697840
4225.135129,-383.047749,518.144159,9622.677246
4225.135444,-1302.362347,-296.082377,10436.903782
4225.135760,-1149.143247,592.164754,10807.006753
4225.136075,229.828649,592.164754,10510.924376
4225.136391,306.438199,1036.288319,10658.965565
4225.136706,612.876398,592.164754,10140.821405
4225.137021,306.438199,888.247130,9474.636058
4225.137337,229.828649,1554.432478,8956.491898
4225.137652,1378.971896,1110.308913,9104.533087
4225.137967,1762.019645,888.247130,9326.594869
4225.138283,1608.800546,296.082377,8956.491898
4225.138598,459.657299,-1258.350101,9696.697840
4225.138914,-766.095498,-296.082377,9622.677246
4225.139229,-536.266849,-1184.329507,10288.862594
4225.139544,0.000000,-888.247130,10436.903782
4225.139860,76.609550,-592.164754,9918.759623
4225.140175,-536.266849,-1110.308913,9326.594869
4225.140491,-995.924147,-666.185348,9030.512492
4225.140806,536.266849,-0.000000,8882.471304
4225.141121,766.095498,-444.123565,9474.636058
4225.141437,383.047749,1184.329507,8808.450710
4225.141752,306.438199,-74.020594,9104.533087
4225.142067,76.609550,-0.000000,8586.388927
4225.142383,153.219100,-148.041188,9326.594869
4225.142698,383.047749,-370.102971,9622.677246
4225.143014,0.000000,-740.205942,9770.718434
4225.143329,-1072.533697,-1332.370696,9696.697840
4225.143644,-1302.362347,-1480.411884,9474.636058
4225.143960,-766.095498,-1110.308913,9326.594869
4225.144275,0.000000,-1110.308913,9770.718434
4225.144591,459.657299,-370.102971,9326.594869
4225.144906,0.000000,-518.144159,9326.594869
4225.145221,-689.485948,-0.000000,9474.636058
4225.145537,0.000000,222.061783,8882.471304
4225.145852,995.924147,-0.000000,9326.594869
4225.146167,1532.190996,222.061783,9474.636058
4225.146483,919.314598,-0.000000,9548.656652
4225.146798,229.828649,-0.000000,9918.759623
4225.147114,153.219100,-0.000000,9178.553681
4225.147429,1072.533697,-444.123565,9844.739029
4225.147744,1532.190996,444.123565,9770.718434
4225.148060,689.485948,-0.000000,8956.491898
4225.148375,-153.219100,-1776.494261,10510.924376
4225.148690,0.000000,-592.164754,10140.821405
4225.149006,842.705048,-740.205942,9474.636058
4225.149321,1225.752797,-444.123565,9918.759623
4225.149637,766.095498,-370.102971,9474.636058
4225.149952,0.000000,-1110.308913,9696.697840
4225.150267,0.000000,-0.000000,9326.594869
4225.150583,612.876398,296.082377,9400.615463
4225.150898,1532.190996,370.102971,9918.759623
4225.151214,1378.971896,592.164754,9252.574275
4225.151529,459.657299,-74.020594,10066.800811
4225.151844,76.609550,740.205942,9474.636058
4225.152160,306.438199,740.205942,9030.512492
4225.152475,842.705048,296.082377,10214.842000
4225.152790,459.657299,444.123565,9918.759623
4225.153106,-306.438199,370.102971,9252.574275
4225.153421,-919.314598,-222.061783,9474.636058
4225.153737,-459.657299,-74.020594,9992.780217
4225.154052,0.000000,444.123565,9474.636058
4225.154367,229.828649,592.164754,9548.656652
4225.154683,-459.657299,370.102971,9622.677246
4225.154998,-689.485948,-0.000000,9400.615463
