#time,accel_x,accel_y,accel_z
3912.008234,-1991.848295,148.041188,9696.697840
3912.008548,-2221.676944,-296.082377,9918.759623
3912.008863,-2221.676944,-814.226536,9770.718434
3912.009178,-2451.505594,-814.226536,9696.697840
3912.009492,-2145.067394,-962.267725,9178.553681
3912.009807,-1685.410096,-740.205942,9326.594869
3912.010122,-1302.362347,-888.247130,9400.615463
3912.010437,-1149.143247,-814.226536,9104.533087
3912.010751,-536.266849,-296.082377,9252.574275
3912.011066,-306.438199,-74.020594,8734.430116
3912.011381,153.219100,-222.061783,8956.491898
3912.011695,229.828649,-0.000000,8882.471304
3912.012010,536.266849,-148.041188,9400.615463
3912.012325,0.000000,-296.082377,9252.574275
3912.012639,0.000000,-370.102971,9326.594869
3912.012954,-153.219100,-592.164754,9474.636058
3912.013269,-612.876398,-888.247130,9474.636058
3912.013583,-766.095498,-1332.370696,9844.739029
3912.013898,-842.705048,-1184.329507,9474.636058
3912.014213,-383.047749,-1332.370696,9474.636058
3912.014528,-383.047749,-1184.329507,9178.553681
3912.014842,-306.438199,-962.267725,9326.594869
3912.015157,-229.828649,-666.185348,8882.471304
3912.015472,0.000000,-518.144159,8660.409521
3912.015786,383.047749,-296.082377,8364.327145
3912.016101,153.219100,-148.041188,8734.430116
3912.016416,689.485948,-148.041188,8734.430116
3912.016730,76.609550,-0.000000,9326.594869
3912.017045,76.609550,-0.000000,9770.718434
3912.017360,153.219100,-222.061783,9696.697840
3912.017675,76.609550,-222.061783,9992.780217
3912.017989,153.219100,-444.123565,10214.842000
3912.018304,-306.438199,-370.102971,9992.780217
3912.018619,-383.047749,-0.000000,9992.780217
3912.018933,-459.657299,370.102971,9992.780217
3912.019248,-306.438199,444.123565,9696.697840
3912.019563,0.000000,222.061783,9400.615463
3912.019877,-306.438199,444.123565,9400.615463
3912.020192,-153.219100,-0.000000,9474.636058
3912.020507,0.000000,592.164754,9622.677246
3912.020822,229.828649,370.102971,9844.739029
3912.021136,536.266849,740.205942,9326.594869
3912.021451,919.314598,1036.288319,9252.574275
3912.021766,766.095498,1110.308913,8808.450710
3912.022080,842.705048,1628.453072,8956.491898
3912.022395,459.657299,1924.535449,9474.636058
3912.022710,153.219100,1480.411884,9252.574275
3912.023024,229.828649,1628.453072,9326.594869
3912.023339,153.219100,1406.391290,9474.636058
3912.023654,153.219100,1258.350101,9548.656652
3912.023969,383.047749,962.267725,10140.821405
3912.024283,76.609550,1110.308913,10214.842000
3912.024598,459.657299,814.226536,10066.800811
3912.024913,0.000000,1332.370696,9770.718434
3912.025227,153.219100,1406.391290,9474.636058
3912.025542,229.828649,1554.432478,9770.718434
3912.025857,153.219100,1332.370696,9844.739029
3912.026171,76.609550,1480.411884,10066.800811
3912.026486,153.219100,1184.329507,9918.759623
3912.026801,229.828649,1036.288319,10214.842000
3912.027116,536.266849,740.205942,10584.944971
3912.027430,76.609550,518.144159,10807.006753
3912.027745,0.000000,518.144159,10214.842000
3912.028060,0.000000,222.061783,10140.821405
3912.028374,306.438199,444.123565,9992.780217
3912.028689,306.438199,222.061783,9844.739029
3912.029004,229.828649,-0.000000,9844.739029
3912.029318,536.266849,-0.000000,9548.656652
3912.029633,306.438199,-148.041188,9696.697840
3912.029948,459.657299,-0.000000,9622.677246
3912.030263,306.438199,-222.061783,9770.718434
3912.030577,459.657299,-296.082377,9770.718434
3912.030892,0.000000,-296.082377,9770.718434
3912.031207,459.657299,-74.020594,9474.636058
3912.031521,459.657299,-0.000000,9696.697840
3912.031836,536.266849,-592.164754,9474.636058
3912.032151,689.485948,-370.102971,9030.512492
3912.032465,306.438199,-0.000000,8956.491898
3912.032780,459.657299,-370.102971,8882.471304
3912.033095,459.657299,-592.164754,9474.636058
3912.033410,383.047749,-518.144159,9548.656652
3912.033724,-153.219100,-1036.288319,9178.553681
3912.034039,76.609550,-740.205942,9178.553681
3912.034354,-153.219100,-1184.329507,9030.512492
3912.034668,0.000000,-888.247130,9474.636058
3912.034983,0.000000,-888.247130,9474.636058
3912.035298,-612.876398,-1258.350101,10066.800811
3912.035612,-229.828649,-1110.308913,9030.512492
3912.035927,0.000000,-740.205942,9104.533087
3912.036242,0.000000,-814.226536,9548.656652
3912.036557,0.000000,-370.102971,9548.656652
3912.036871,0.000000,-666.185348,9326.594869
3912.037186,76.609550,-444.123565,9400.615463
3912.037501,0.000000,-666.185348,9326.594869
3912.037815,0.000000,-370.102971,9548.656652
3912.038130,-153.219100,-370.102971,9770.718434
3912.038445,-306.438199,-296.082377,9770.718434
3912.038759,0.000000,-370.102971,9548.656652
3912.039074,0.000000,-148.041188,9622.677246
3912.039389,-153.219100,-222.061783,9844.739029
3912.039703,0.000000,-814.226536,9622.677246
3912.040018,0.000000,-0.000000,9474.636058
3912.040333,-306.438199,-74.020594,9474.636058
3912.040648,0.000000,-0.000000,9696.697840
3912.040962,0.000000,444.123565,9770.718434
3912.041277,766.095498,518.144159,9844.739029
3912.041592,153.219100,740.205942,9622.677246
3912.041906,306.438199,962.267725,9696.697840
3912.042221,229.828649,666.185348,10066.800811
3912.042536,153.219100,518.144159,9918.759623
3912.042850,612.876398,518.144159,9844.739029
3912.043165,229.828649,1036.288319,9696.697840
3912.043480,689.485948,1036.288319,9474.636058
3912.043795,306.438199,888.247130,10214.842000
3912.044109,0.000000,592.164754,10066.800811
3912.044424,76.609550,518.144159,10066.800811
3912.044739,0.000000,962.267725,9992.780217
3912.045053,153.219100,962.267725,9992.780217
3912.045368,229.828649,962.267725,10288.862594
3912.045683,76.609550,888.247130,10140.821405
3912.045997,459.657299,518.144159,10214.842000
3912.046312,0.000000,740.205942,9992.780217
3912.046627,76.609550,1036.288319,9992.780217
3912.046942,0.000000,1036.288319,10066.800811
3912.047256,76.609550,1036.288319,10066.800811
3912.047571,76.609550,740.205942,9992.780217
3912.047886,-229.828649,666.185348,9918.759623
3912.048200,0.000000,666.185348,9696.697840
3912.048515,-306.438199,444.123565,9918.759623
3912.048830,-306.438199,592.164754,9844.739029
3912.049144,76.609550,518.144159,9770.718434
3912.049459,-153.219100,222.061783,9474.636058
3912.049774,0.000000,222.061783,9474.636058
3912.050089,0.000000,296.082377,9178.553681
3912.050403,-383.047749,-0.000000,9770.718434
3912.050718,0.000000,-148.041188,9326.594869
3912.051033,76.609550,-0.000000,9178.553681
3912.051347,0.000000,-74.020594,9474.636058
3912.051662,0.000000,-148.041188,9252.574275
3912.051977,0.000000,-0.000000,9252.574275
3912.052291,536.266849,-444.123565,9326.594869
3912.052606,0.000000,-222.061783,9326.594869
3912.052921,229.828649,-222.061783,9178.553681
3912.053236,0.000000,-296.082377,9178.553681
3912.053550,0.000000,-370.102971,9104.533087
3912.053865,76.609550,-370.102971,9104.533087
3912.054180,153.219100,-222.061783,9030.512492
3912.054494,0.000000,-592.164754,9400.615463
3912.054809,0.000000,-740.205942,9400.615463
3912.055124,306.438199,-370.102971,9104.533087
3912.055438,-459.657299,-592.164754,9400.615463
3912.055753,153.219100,-296.082377,9400.615463
3912.056068,306.438199,-222.061783,9474.636058
3912.056383,383.047749,-222.061783,9474.636058
3912.056697,76.609550,-592.164754,9326.594869
3912.057012,383.047749,-370.102971,8956.491898
3912.057327,229.828649,-370.102971,9104.533087
3912.057641,459.657299,-222.061783,9474.636058
3912.057956,229.828649,-0.000000,9326.594869
3912.058271,0.000000,-370.102971,9474.636058
3912.058585,0.000000,-74.020594,9178.553681
3912.058900,459.657299,-0.000000,9400.615463
3912.059215,0.000000,-0.000000,9400.615463
3912.059530,-306.438199,-0.000000,9622.677246
3912.059844,383.047749,-0.000000,9548.656652
3912.060159,76.609550,222.061783,9548.656652
3912.060474,76.609550,370.102971,9696.697840
3912.060788,0.000000,444.123565,9770.718434
3912.061103,0.000000,222.061783,9622.677246
3912.061418,0.000000,-0.000000,9844.739029
3912.061732,153.219100,444.123565,9770.718434
3912.062047,0.000000,222.061783,9770.718434
3912.062362,0.000000,814.226536,9918.759623
3912.062677,0.000000,666.185348,9696.697840
3912.062991,229.828649,296.082377,9474.636058
3912.063306,0.000000,962.267725,9622.677246
3912.063621,0.000000,592.164754,9844.739029
3912.063935,76.609550,888.247130,9992.780217
3912.064250,536.266849,666.185348,9918.759623
3912.064565,536.266849,740.205942,9696.697840
3912.064879,0.000000,814.226536,9548.656652
3912.065194,0.000000,444.123565,9992.780217
3912.065509,0.000000,518.144159,10214.842000
3912.065824,76.609550,740.205942,9992.780217
3912.066138,229.828649,666.185348,9696.697840
3912.066453,383.047749,740.205942,9696.697840
3912.066768,306.438199,888.247130,10140.821405
3912.067082,153.219100,740.205942,10066.800811
3912.067397,612.876398,592.164754,9770.718434
3912.067712,459.657299,592.164754,9474.636058
3912.068026,383.047749,740.205942,9696.697840
3912.068341,229.828649,370.102971,9696.697840
3912.068656,383.047749,444.123565,9770.718434
3912.068970,229.828649,-0.000000,9844.739029
3912.069285,229.828649,370.102971,9992.780217
3912.069600,306.438199,222.061783,9844.739029
3912.069914,153.219100,296.082377,9474.636058
3912.070229,0.000000,222.061783,10066.800811
3912.070544,229.828649,148.041188,9770.718434
3912.070858,0.000000,-148.041188,9474.636058
3912.071173,229.828649,-0.000000,9474.636058
3912.071488,76.609550,-222.061783,9622.677246
3912.071802,76.609550,-148.041188,9770.718434
3912.072117,306.438199,-148.041188,9326.594869
3912.072432,0.000000,-148.041188,9696.697840
3912.072746,0.000000,-518.144159,9622.677246
3912.073061,76.609550,-0.000000,9400.615463
3912.073376,153.219100,-74.020594,9474.636058
3912.073690,-306.438199,-370.102971,9178.553681
3912.074005,153.219100,-222.061783,9474.636058
3912.074320,153.219100,-148.041188,9104.533087
3912.074634,0.000000,-222.061783,9400.615463
3912.074949,0.000000,-74.020594,9400.615463
3912.075264,459.657299,-0.000000,9104.533087
3912.075578,153.219100,-0.000000,9178.553681
3912.075893,76.609550,-370.102971,9104.533087
3912.076208,0.000000,-592.164754,9474.636058
3912.076522,229.828649,-518.144159,9326.594869
3912.076837,306.438199,-148.041188,9400.615463
3912.077152,229.828649,-296.082377,9474.636058
3912.077466,0.000000,-148.041188,9030.512492
3912.077781,0.000000,-0.000000,9326.594869
3912.078096,919.314598,-370.102971,9400.615463
3912.078410,229.828649,-0.000000,9474.636058
3912.078725,0.000000,-0.000000,9622.677246
3912.079040,306.438199,-0.000000,9548.656652
3912.079354,153.219100,222.061783,10066.800811
3912.079669,-306.438199,-148.041188,9770.718434
3912.079984,229.828649,-0.000000,9400.615463
3912.080298,153.219100,-74.020594,9326.594869
3912.080613,0.000000,148.041188,9992.780217
3912.080928,0.000000,148.041188,9918.759623
3912.081242,0.000000,-74.020594,9474.636058
3912.081557,153.219100,-0.000000,9326.594869
3912.081872,76.609550,592.164754,9696.697840
3912.082186,0.000000,370.102971,10066.800811
3912.082501,153.219100,444.123565,10288.862594
3912.082816,0.000000,370.102971,9844.739029
3912.083130,0.000000,518.144159,9548.656652
3912.083445,153.219100,222.061783,9770.718434
3912.083760,306.438199,444.123565,9918.759623
3912.084074,0.000000,592.164754,9992.780217
3912.084389,0.000000,592.164754,9400.615463
3912.084704,0.000000,592.164754,9770.718434
3912.085018,153.219100,444.123565,9844.739029
3912.085333,76.609550,666.185348,9992.780217
3912.085648,-153.219100,222.061783,9844.739029
3912.085962,153.219100,296.082377,9548.656652
3912.086277,229.828649,518.144159,9548.656652
3912.086592,229.828649,296.082377,9622.677246
3912.086906,76.609550,296.082377,9844.739029
3912.087221,0.000000,518.144159,9992.780217
3912.087536,76.609550,518.144159,9548.656652
3912.087850,153.219100,370.102971,9770.718434
3912.088165,153.219100,370.102971,9918.759623
3912.088480,153.219100,444.123565,9696.697840
3912.088794,459.657299,222.061783,9770.718434
3912.089109,0.000000,296.082377,9622.677246
3912.089424,153.219100,296.082377,9474.636058
3912.089738,0.000000,-0.000000,9474.636058
3912.090053,153.219100,-0.000000,9548.656652
3912.090368,919.314598,-0.000000,9918.759623
3912.090682,0.000000,222.061783,9400.615463
3912.090997,0.000000,-0.000000,9474.636058
3912.091312,0.000000,-0.000000,9696.697840
3912.091626,0.000000,-0.000000,9844.739029
3912.091941,76.609550,-0.000000,10066.800811
3912.092256,76.609550,-148.041188,9474.636058
3912.092570,153.219100,-0.000000,9622.677246
3912.092885,0.000000,-0.000000,9474.636058
3912.093200,0.000000,-0.000000,9474.636058
3912.093514,0.000000,-296.082377,9622.677246
3912.093829,76.609550,-222.061783,9474.636058
3912.094144,0.000000,-296.082377,9104.533087
3912.094458,383.047749,-74.020594,9474.636058
3912.094773,76.609550,-74.020594,9622.677246
3912.095088,-383.047749,-74.020594,9030.512492
3912.095402,0.000000,-0.000000,9326.594869
3912.095717,76.609550,-444.123565,9326.594869
3912.096032,153.219100,-296.082377,9474.636058
3912.096346,0.000000,-0.000000,9400.615463
3912.096661,0.000000,-0.000000,9474.636058
3912.096976,306.438199,-0.000000,9252.574275
3912.097290,76.609550,-222.061783,9326.594869
3912.097605,229.828649,-74.020594,9474.636058
3912.097920,0.000000,-0.000000,9548.656652
3912.098234,76.609550,-0.000000,9548.656652
3912.098549,153.219100,-74.020594,9474.636058
3912.098864,0.000000,-0.000000,9474.636058
3912.099178,153.219100,222.061783,9548.656652
3912.099493,76.609550,296.082377,9474.636058
3912.099808,229.828649,370.102971,9474.636058
3912.100122,153.219100,296.082377,9696.697840
3912.100437,229.828649,444.123565,9474.636058
3912.100752,0.000000,222.061783,9622.677246
3912.101066,0.000000,296.082377,9696.697840
3912.101381,153.219100,296.082377,9622.677246
3912.101696,0.000000,222.061783,9770.718434
3912.102010,76.609550,592.164754,9770.718434
3912.102325,153.219100,592.164754,9696.697840
3912.102640,0.000000,518.144159,9474.636058
3912.102954,0.000000,222.061783,9622.677246
3912.103269,76.609550,444.123565,10066.800811
3912.103584,0.000000,370.102971,9548.656652
3912.103898,0.000000,444.123565,9918.759623
3912.104213,0.000000,296.082377,9992.780217
3912.104528,0.000000,592.164754,9844.739029
3912.104842,229.828649,444.123565,9548.656652
3912.105157,76.609550,296.082377,9622.677246
3912.105472,153.219100,370.102971,9992.780217
3912.105786,383.047749,222.061783,9548.656652
3912.106101,76.609550,666.185348,9622.677246
3912.106416,383.047749,518.144159,9622.677246
3912.106730,229.828649,444.123565,9474.636058
3912.107045,0.000000,296.082377,9696.697840
3912.107360,76.609550,370.102971,9696.697840
3912.107674,229.828649,-0.000000,9548.656652
3912.107989,306.438199,444.123565,9622.677246
3912.108304,0.000000,148.041188,9474.636058
3912.108618,76.609550,370.102971,9992.780217
3912.108933,383.047749,-0.000000,9622.677246
3912.109248,536.266849,148.041188,9400.615463
3912.109562,0.000000,74.020594,9548.656652
3912.109877,306.438199,222.061783,9474.636058
3912.110192,229.828649,444.123565,9474.636058
3912.110506,153.219100,296.082377,9326.594869
3912.110821,229.828649,-0.000000,9474.636058
3912.111136,229.828649,222.061783,9326.594869
3912.111450,0.000000,370.102971,9696.697840
3912.111765,0.000000,-0.000000,9474.636058
3912.112080,0.000000,-0.000000,9104.533087
3912.112394,383.047749,-0.000000,9326.594869
3912.112709,-153.219100,148.041188,9548.656652
3912.113024,0.000000,-0.000000,9918.759623
3912.113338,76.609550,-0.000000,9400.615463
3912.113653,229.828649,-148.041188,9474.636058
3912.113968,229.828649,-0.000000,9622.677246
3912.114282,0.000000,-0.000000,9326.594869
3912.114597,0.000000,-0.000000,9474.636058
3912.114912,0.000000,-0.000000,9696.697840
3912.115226,383.047749,-222.061783,9548.656652
3912.115541,76.609550,-296.082377,9178.553681
3912.115856,0.000000,-0.000000,9474.636058
3912.116170,153.219100,-0.000000,9918.759623
3912.116485,76.609550,-0.000000,9326.594869
3912.116800,229.828649,-74.020594,9326.594869
3912.117114,153.219100,-0.000000,9548.656652
3912.117429,229.828649,-74.020594,9474.636058
3912.117744,76.609550,-0.000000,9548.656652
3912.118058,153.219100,-0.000000,9548.656652
3912.118373,536.266849,-74.020594,9474.636058
3912.118688,76.609550,-222.061783,9474.636058
3912.119002,153.219100,-0.000000,9474.636058
3912.119317,153.219100,-148.041188,9844.739029
3912.119632,0.000000,-0.000000,9696.697840
3912.119946,383.047749,-74.020594,9474.636058
3912.120261,153.219100,296.082377,9918.759623
3912.120576,153.219100,222.061783,9770.718434
3912.120890,536.266849,518.144159,9548.656652
3912.121205,229.828649,592.164754,9770.718434
3912.121520,536.266849,370.102971,9474.636058
3912.121834,76.609550,222.061783,9770.718434
3912.122149,229.828649,222.061783,9770.718434
3912.122464,76.609550,296.082377,9696.697840
3912.122778,0.000000,296.082377,9622.677246
3912.123093,0.000000,370.102971,9918.759623
3912.123408,0.000000,370.102971,9770.718434
3912.123722,0.000000,296.082377,10362.883188
3912.124037,0.000000,370.102971,9622.677246
3912.124352,0.000000,370.102971,9474.636058
3912.124666,0.000000,296.082377,9770.718434
3912.124981,306.438199,666.185348,9918.759623
3912.125296,76.609550,444.123565,9844.739029
3912.125610,0.000000,370.102971,9770.718434
3912.125925,153.219100,222.061783,9770.718434
3912.126240,766.095498,-0.000000,9622.677246
3912.126554,306.438199,370.102971,9252.574275
3912.126869,0.000000,-0.000000,9844.739029
3912.127184,-153.219100,-148.041188,9696.697840
3912.127498,153.219100,370.102971,9474.636058
3912.127813,612.876398,-74.020594,9104.533087
3912.128128,153.219100,-74.020594,9400.615463
3912.128442,229.828649,444.123565,9622.677246
3912.128757,0.000000,-0.000000,9548.656652
3912.129072,383.047749,222.061783,9696.697840
3912.129386,383.047749,-148.041188,9326.594869
3912.129701,306.438199,-148.041188,9326.594869
3912.130016,0.000000,-74.020594,9696.697840
3912.130330,76.609550,-0.000000,9696.697840
3912.130645,76.609550,-148.041188,9770.718434
3912.130960,0.000000,-296.082377,9548.656652
3912.131274,76.609550,-148.041188,9474.636058
3912.131589,0.000000,-148.041188,9252.574275
3912.131904,0.000000,-0.000000,9474.636058
3912.132218,306.438199,-74.020594,9622.677246
3912.132533,76.609550,-370.102971,9326.594869
3912.132848,306.438199,-74.020594,9474.636058
3912.133162,0.000000,-0.000000,9474.636058
3912.133477,0.000000,-74.020594,9252.574275
3912.133792,76.609550,-0.000000,9400.615463
3912.134106,0.000000,-0.000000,9622.677246
3912.134421,153.219100,-0.000000,9844.739029
3912.134736,153.219100,-0.000000,9178.553681
3912.135050,0.000000,222.061783,9104.533087
3912.135365,76.609550,-0.000000,9622.677246
3912.135680,153.219100,-0.000000,9400.615463
3912.135994,0.000000,-0.000000,9474.636058
3912.136309,0.000000,148.041188,9474.636058
3912.136624,153.219100,148.041188,9400.615463
3912.136938,306.438199,-148.041188,9474.636058
3912.137253,0.000000,-0.000000,9326.594869
3912.137568,306.438199,-0.000000,9474.636058
3912.137882,76.609550,-0.000000,9178.553681
3912.138197,229.828649,-0.000000,9474.636058
3912.138512,229.828649,-0.000000,9400.615463
3912.138826,76.609550,-0.000000,9622.677246
3912.139141,153.219100,-0.000000,9474.636058
3912.139456,0.000000,222.061783,9474.636058
3912.139770,153.219100,-0.000000,9548.656652
3912.140085,153.219100,222.061783,9548.656652
3912.140400,0.000000,-0.000000,9548.656652
3912.140714,0.000000,-0.000000,9844.739029
3912.141029,76.609550,370.102971,9622.677246
3912.141344,459.657299,148.041188,9696.697840
3912.141658,229.828649,370.102971,9992.780217
3912.141973,0.000000,370.102971,9770.718434
3912.142288,153.219100,296.082377,9474.636058
3912.142602,0.000000,370.102971,9548.656652
3912.142917,0.000000,148.041188,9770.718434
3912.143232,229.828649,296.082377,10140.821405
3912.143546,229.828649,-0.000000,9770.718434
3912.143861,76.609550,444.123565,9696.697840
3912.144176,76.609550,222.061783,9622.677246
3912.144490,0.000000,518.144159,9770.718434
3912.144805,0.000000,222.061783,9400.615463
3912.145120,0.000000,296.082377,9844.739029
3912.145434,0.000000,370.102971,9696.697840
3912.145749,0.000000,444.123565,9400.615463
3912.146064,76.609550,222.061783,9474.636058
3912.146378,-306.438199,296.082377,9622.677246
3912.146693,76.609550,296.082377,9696.697840
3912.147008,0.000000,-0.000000,9474.636058
3912.147322,-153.219100,222.061783,9474.636058
3912.147637,153.219100,222.061783,9474.636058
3912.147952,229.828649,222.061783,9918.759623
3912.148266,76.609550,148.041188,9548.656652
3912.148581,0.000000,-0.000000,9622.677246
3912.148896,76.609550,-0.000000,9400.615463
3912.149210,153.219100,148.041188,9474.636058
3912.149525,919.314598,-0.000000,9474.636058
3912.149840,153.219100,222.061783,9770.718434
3912.150154,306.438199,296.082377,9474.636058
3912.150469,76.609550,-0.000000,9696.697840
3912.150784,229.828649,-0.000000,9474.636058
3912.151098,153.219100,-0.000000,9622.677246
3912.151413,153.219100,-0.000000,9622.677246
3912.151728,0.000000,-0.000000,9844.739029
3912.152042,0.000000,-0.000000,9326.594869
3912.152357,0.000000,-0.000000,9918.759623
3912.152672,0.000000,148.041188,9844.739029
3912.152986,76.609550,-74.020594,9326.594869
3912.153301,76.609550,-0.000000,9548.656652
3912.153616,76.609550,-74.020594,9770.718434
3912.153930,-153.219100,222.061783,9844.739029
3912.154245,76.609550,222.061783,9844.739029
3912.154560,0.000000,-0.000000,9474.636058
3912.154874,-306.438199,148.041188,9548.656652
3912.155189,76.609550,-0.000000,9548.656652
3912.155504,153.219100,222.061783,9548.656652
3912.155818,153.219100,222.061783,9992.780217
3912.156133,229.828649,296.082377,9474.636058
3912.156448,0.000000,148.041188,9178.553681
3912.156762,0.000000,370.102971,9474.636058
3912.157077,76.609550,296.082377,9918.759623
3912.157392,0.000000,-0.000000,9474.636058
3912.157706,0.000000,-0.000000,9622.677246
3912.158021,-153.219100,296.082377,9326.594869
3912.158336,0.000000,222.061783,9400.615463
3912.158650,229.828649,518.144159,9548.656652
3912.158965,0.000000,518.144159,9548.656652
3912.159280,-76.609550,444.123565,9474.636058
3912.159594,-383.047749,592.164754,9918.759623
3912.159909,0.000000,592.164754,9770.718434
3912.160224,153.219100,370.102971,9844.739029
3912.160538,383.047749,518.144159,9696.697840
3912.160853,766.095498,296.082377,9400.615463
3912.161168,536.266849,518.144159,9474.636058
3912.161482,536.266849,518.144159,9548.656652
3912.161797,612.876398,296.082377,9474.636058
3912.162112,229.828649,592.164754,9474.636058
3912.162426,0.000000,444.123565,9474.636058
3912.162741,0.000000,222.061783,9844.739029
3912.163056,229.828649,-74.020594,9770.718434
3912.163370,-229.828649,-148.041188,10066.800811
3912.163685,0.000000,-0.000000,10140.821405
3912.164000,-229.828649,370.102971,9918.759623
3912.164314,0.000000,-0.000000,10066.800811
3912.164629,0.000000,296.082377,10140.821405
3912.164944,536.266849,666.185348,9622.677246
3912.165258,919.314598,814.226536,9548.656652
3912.165573,689.485948,814.226536,9178.553681
3912.165888,306.438199,740.205942,9326.594869
3912.166202,229.828649,592.164754,9474.636058
3912.166517,0.000000,296.082377,9622.677246
3912.166832,-229.828649,-0.000000,9622.677246
3912.167159,-459.657299,-0.000000,9548.656652
3912.167474,-153.219100,-74.020594,10362.883188
3912.167789,-689.485948,-148.041188,9992.780217
3912.168104,-612.876398,-148.041188,9992.780217
3912.168418,-383.047749,-0.000000,9622.677246
3912.168733,0.000000,296.082377,8956.491898
3912.169048,229.828649,740.205942,8956.491898
3912.169362,383.047749,666.185348,9030.512492
3912.169677,306.438199,888.247130,9104.533087
3912.169992,0.000000,962.267725,9104.533087
3912.170306,0.000000,888.247130,9030.512492
3912.170621,-536.266849,962.267725,9326.594869
3912.170936,-229.828649,444.123565,9622.677246
3912.171251,-459.657299,-0.000000,9770.718434
3912.171565,-612.876398,222.061783,9918.759623
3912.171880,-459.657299,-74.020594,10436.903782
3912.172195,-536.266849,-0.000000,10436.903782
3912.172509,0.000000,-0.000000,9400.615463
3912.172824,0.000000,296.082377,9474.636058
3912.173139,76.609550,666.185348,9030.512492
3912.173453,153.219100,814.226536,9030.512492
3912.173768,306.438199,1110.308913,9326.594869
3912.174083,766.095498,888.247130,9326.594869
3912.174398,306.438199,814.226536,9178.553681
3912.174712,76.609550,666.185348,9326.594869
3912.175027,0.000000,444.123565,9548.656652
3912.175342,0.000000,370.102971,10510.924376
3912.175656,0.000000,-0.000000,10584.944971
3912.175971,-459.657299,-0.000000,10362.883188
3912.176286,0.000000,-0.000000,10510.924376
3912.176601,0.000000,296.082377,10288.862594
3912.176915,0.000000,-0.000000,10066.800811
3912.177230,383.047749,370.102971,9696.697840
3912.177545,459.657299,740.205942,9622.677246
3912.177859,459.657299,666.185348,9326.594869
3912.178174,459.657299,518.144159,9474.636058
3912.178489,919.314598,444.123565,9770.718434
3912.178803,306.438199,-0.000000,9696.697840
3912.179118,76.609550,-0.000000,9622.677246
3912.179433,153.219100,-222.061783,9844.739029
3912.179748,76.609550,-222.061783,10066.800811
3912.180062,612.876398,-814.226536,9770.718434
3912.180377,383.047749,-370.102971,9622.677246
3912.180692,153.219100,-296.082377,9474.636058
3912.181006,229.828649,-0.000000,9326.594869
3912.181321,383.047749,-0.000000,9178.553681
3912.181636,229.828649,-0.000000,9326.594869
3912.181950,306.438199,-0.000000,9474.636058
3912.182265,306.438199,-0.000000,9178.553681
3912.182580,153.219100,-518.144159,9474.636058
3912.182895,383.047749,-370.102971,9622.677246
3912.183209,536.266849,-518.144159,9622.677246
3912.183524,0.000000,-296.082377,9400.615463
3912.183839,76.609550,-74.020594,9326.594869
3912.184153,383.047749,-0.000000,9326.594869
3912.184468,229.828649,-0.000000,9326.594869
3912.184783,0.000000,-0.000000,9252.574275
3912.185098,76.609550,-148.041188,9178.553681
3912.185412,153.219100,222.061783,9104.533087
3912.185727,0.000000,-370.102971,9178.553681
3912.186042,0.000000,-518.144159,9622.677246
3912.186356,-459.657299,-370.102971,10066.800811
3912.186671,-383.047749,-370.102971,9770.718434
3912.186986,-689.485948,-370.102971,9696.697840
3912.187300,-536.266849,-222.061783,9696.697840
3912.187615,0.000000,-0.000000,9548.656652
3912.187930,-153.219100,222.061783,9326.594869
3912.188245,153.219100,592.164754,9400.615463
3912.188559,0.000000,666.185348,9178.553681
3912.188874,-229.828649,148.041188,9030.512492
3912.189189,0.000000,148.041188,9696.697840
3912.189503,-536.266849,222.061783,9474.636058
3912.189818,-459.657299,-0.000000,9622.677246
3912.190133,-383.047749,-74.020594,9770.718434
3912.190447,-766.095498,-0.000000,9770.718434
3912.190762,-459.657299,-0.000000,10214.842000
3912.191077,-383.047749,-148.041188,9992.780217
3912.191392,-689.485948,148.041188,9992.780217
3912.191706,-306.438199,518.144159,9696.697840
3912.192021,306.438199,444.123565,9030.512492
3912.192336,76.609550,296.082377,9474.636058
3912.192650,459.657299,666.185348,9400.615463
3912.192965,459.657299,666.185348,9474.636058
3912.193280,229.828649,592.164754,9622.677246
3912.193594,459.657299,666.185348,9992.780217
3912.193909,459.657299,444.123565,9918.759623
3912.194224,383.047749,370.102971,9548.656652
3912.194539,0.000000,-0.000000,9622.677246
3912.194853,76.609550,296.082377,9992.780217
3912.195168,0.000000,-0.000000,9918.759623
3912.195483,459.657299,296.082377,9918.759623
3912.195797,536.266849,592.164754,9622.677246
3912.196112,306.438199,666.185348,9770.718434
3912.196427,536.266849,444.123565,9474.636058
3912.196742,766.095498,814.226536,9474.636058
3912.197056,536.266849,518.144159,9918.759623
3912.197371,536.266849,518.144159,9474.636058
3912.197686,306.438199,444.123565,9918.759623
3912.198000,383.047749,444.123565,9918.759623
3912.198315,383.047749,296.082377,9770.718434
3912.198630,383.047749,-0.000000,9696.697840
3912.198944,229.828649,222.061783,9844.739029
3912.199259,229.828649,222.061783,9696.697840
3912.199574,153.219100,444.123565,9622.677246
3912.199889,0.000000,296.082377,9474.636058
3912.200203,0.000000,370.102971,9622.677246
3912.200518,0.000000,-74.020594,9474.636058
3912.200833,153.219100,222.061783,9548.656652
3912.201147,0.000000,-0.000000,9326.594869
3912.201462,306.438199,-0.000000,9696.697840
3912.201777,229.828649,-148.041188,9400.615463
3912.202091,0.000000,-148.041188,9326.594869
3912.202406,0.000000,-74.020594,9474.636058
3912.202721,76.609550,-0.000000,9474.636058
3912.203036,76.609550,-222.061783,9474.636058
3912.203350,76.609550,-74.020594,9548.656652
3912.203665,0.000000,-0.000000,9252.574275
3912.203980,0.000000,-370.102971,9474.636058
3912.204294,76.609550,-148.041188,9474.636058
3912.204609,459.657299,-0.000000,9400.615463
3912.204924,0.000000,-222.061783,9252.574275
3912.205239,0.000000,-148.041188,9474.636058
3912.205553,0.000000,-148.041188,9474.636058
3912.205868,0.000000,-148.041188,9622.677246
3912.206183,76.609550,-74.020594,9622.677246
3912.206497,153.219100,-296.082377,9548.656652
3912.206812,0.000000,-0.000000,9844.739029
3912.207127,459.657299,-0.000000,9400.615463
3912.207441,153.219100,148.041188,9548.656652
3912.207756,306.438199,-74.020594,9622.677246
3912.208071,153.219100,-74.020594,9548.656652
3912.208386,76.609550,-0.000000,9622.677246
3912.208700,0.000000,-0.000000,9696.697840
3912.209015,76.609550,74.020594,10066.800811
3912.209330,229.828649,-222.061783,9992.780217
3912.209644,0.000000,-74.020594,9844.739029
3912.209959,153.219100,-0.000000,9770.718434
3912.210274,229.828649,-0.000000,9548.656652
3912.210588,229.828649,-0.000000,9548.656652
3912.210903,76.609550,-0.000000,9548.656652
3912.211218,76.609550,-0.000000,9400.615463
3912.211533,229.828649,-0.000000,9252.574275
3912.211847,76.609550,444.123565,9622.677246
3912.212162,0.000000,-0.000000,9474.636058
3912.212477,0.000000,-0.000000,9326.594869
3912.212791,0.000000,-0.000000,9918.759623
3912.213106,0.000000,-0.000000,9696.697840
3912.213421,0.000000,222.061783,9548.656652
3912.213735,689.485948,-0.000000,9770.718434
3912.214050,306.438199,-0.000000,9770.718434
3912.214365,689.485948,518.144159,9622.677246
3912.214680,689.485948,-0.000000,9326.594869
3912.214994,919.314598,148.041188,9474.636058
3912.215309,1149.143247,370.102971,9918.759623
3912.215624,919.314598,-74.020594,9252.574275
3912.215938,689.485948,370.102971,9400.615463
3912.216253,536.266849,296.082377,9326.594869
3912.216568,459.657299,296.082377,9030.512492
3912.216883,76.609550,518.144159,9104.533087
3912.217197,0.000000,518.144159,9548.656652
3912.217512,-229.828649,370.102971,10140.821405
3912.217827,-383.047749,-0.000000,9548.656652
3912.218141,-459.657299,-0.000000,10214.842000
3912.218456,0.000000,-0.000000,10584.944971
3912.218771,-306.438199,-74.020594,10214.842000
3912.219085,153.219100,-0.000000,9992.780217
3912.219400,383.047749,666.185348,9548.656652
3912.219715,383.047749,1036.288319,9326.594869
3912.220030,536.266849,1036.288319,9326.594869
3912.220344,229.828649,1184.329507,9104.533087
3912.220659,0.000000,1258.350101,9178.553681
3912.220974,-229.828649,666.185348,9178.553681
3912.221288,-383.047749,444.123565,9918.759623
3912.221603,-842.705048,-370.102971,10214.842000
3912.221918,-1072.533697,-148.041188,10362.883188
3912.222232,-995.924147,-0.000000,9770.718434
3912.222547,-689.485948,-74.020594,9918.759623
3912.222862,0.000000,148.041188,10140.821405
3912.223177,0.000000,814.226536,9474.636058
3912.223491,0.000000,740.205942,9252.574275
3912.223806,153.219100,1110.308913,9252.574275
3912.224121,76.609550,1258.350101,9104.533087
3912.224435,76.609550,666.185348,9474.636058
3912.224750,153.219100,888.247130,9252.574275
3912.225065,76.609550,444.123565,9474.636058
3912.225380,0.000000,-0.000000,9548.656652
3912.225694,-153.219100,-0.000000,10066.800811
3912.226009,-306.438199,-0.000000,10288.862594
3912.226324,-689.485948,-444.123565,9622.677246
3912.226638,-229.828649,-222.061783,9548.656652
3912.226953,-153.219100,-74.020594,9474.636058
3912.227268,153.219100,-0.000000,9178.553681
3912.227582,536.266849,444.123565,9474.636058
3912.227897,459.657299,444.123565,9326.594869
3912.228212,306.438199,444.123565,9326.594869
3912.228527,689.485948,296.082377,9030.512492
3912.228841,0.000000,296.082377,9622.677246
3912.229156,0.000000,-0.000000,9992.780217
3912.229471,383.047749,296.082377,10066.800811
3912.229785,229.828649,-0.000000,9992.780217
3912.230100,229.828649,-74.020594,9918.759623
3912.230415,0.000000,-0.000000,10214.842000
3912.230729,153.219100,-74.020594,9844.739029
3912.231044,306.438199,-0.000000,9992.780217
3912.231359,229.828649,296.082377,9918.759623
3912.231674,306.438199,296.082377,9918.759623
3912.231988,459.657299,-0.000000,9326.594869
3912.232303,612.876398,-0.000000,9252.574275
3912.232618,76.609550,-74.020594,9326.594869
3912.232932,536.266849,-74.020594,9400.615463
3912.233247,0.000000,-0.000000,9474.636058
3912.233562,229.828649,-296.082377,9548.656652
3912.233876,229.828649,-296.082377,9400.615463
3912.234191,0.000000,-222.061783,9326.594869
3912.234506,0.000000,-0.000000,9548.656652
3912.234821,0.000000,-0.000000,9622.677246
3912.235135,229.828649,-0.000000,9696.697840
3912.235450,153.219100,-0.000000,9400.615463
3912.235765,0.000000,-222.061783,9178.553681
3912.236079,0.000000,-74.020594,8882.471304
3912.236394,0.000000,-0.000000,9178.553681
3912.236709,153.219100,-0.000000,9770.718434
3912.237024,0.000000,-74.020594,9400.615463
3912.237338,0.000000,-0.000000,9474.636058
3912.237653,229.828649,-148.041188,9326.594869
3912.237968,76.609550,-148.041188,9474.636058
3912.238282,0.000000,-518.144159,9400.615463
3912.238597,153.219100,-0.000000,9622.677246
3912.238912,-76.609550,222.061783,9622.677246
3912.239226,0.000000,148.041188,9326.594869
3912.239541,76.609550,-0.000000,9474.636058
3912.239856,0.000000,-0.000000,9918.759623
3912.240171,0.000000,-0.000000,9844.739029
3912.240485,0.000000,-0.000000,10140.821405
3912.240800,-306.438199,-0.000000,10066.800811
3912.241115,-306.438199,-0.000000,9992.780217
3912.241429,0.000000,-74.020594,9622.677246
3912.241744,0.000000,444.123565,9844.739029
3912.242059,76.609550,370.102971,10214.842000
3912.242373,383.047749,592.164754,9622.677246
3912.242688,383.047749,666.185348,9474.636058
3912.243003,153.219100,592.164754,9770.718434
3912.243318,306.438199,444.123565,9548.656652
3912.243632,0.000000,370.102971,9474.636058
3912.243947,0.000000,370.102971,9622.677246
3912.244262,229.828649,-0.000000,10214.842000
3912.244576,0.000000,-0.000000,9400.615463
3912.244891,-76.609550,222.061783,9474.636058
3912.245206,0.000000,222.061783,9918.759623
3912.245521,0.000000,370.102971,9548.656652
3912.245835,0.000000,-0.000000,9474.636058
3912.246150,153.219100,370.102971,9548.656652
3912.246465,459.657299,370.102971,9548.656652
3912.246779,459.657299,444.123565,9252.574275
3912.247094,612.876398,888.247130,9252.574275
3912.247409,536.266849,370.102971,9474.636058
3912.247723,306.438199,370.102971,9400.615463
3912.248038,229.828649,296.082377,9400.615463
3912.248353,0.000000,296.082377,9622.677246
3912.248668,153.219100,148.041188,9770.718434
3912.248982,536.266849,-222.061783,9622.677246
3912.249297,306.438199,-0.000000,9844.739029
3912.249612,306.438199,-0.000000,9622.677246
3912.249926,306.438199,-0.000000,9474.636058
3912.250241,306.438199,-0.000000,9474.636058
3912.250556,689.485948,370.102971,10066.800811
3912.250870,842.705048,444.123565,9622.677246
3912.251185,689.485948,370.102971,9326.594869
3912.251500,306.438199,444.123565,9104.533087
3912.251815,306.438199,296.082377,9548.656652
3912.252129,153.219100,-0.000000,9844.739029
3912.252444,0.000000,-0.000000,9474.636058
3912.252759,0.000000,74.020594,10510.924376
3912.253073,-383.047749,-74.020594,9918.759623
3912.253388,0.000000,-0.000000,9770.718434
3912.253703,0.000000,-370.102971,10214.842000
3912.254017,76.609550,-222.061783,9770.718434
3912.254332,-306.438199,-74.020594,9474.636058
3912.254647,0.000000,74.020594,9474.636058
3912.254962,153.219100,-0.000000,9622.677246
3912.255276,153.219100,-0.000000,8882.471304
3912.255591,0.000000,444.123565,8956.491898
3912.255906,-229.828649,444.123565,9326.594869
3912.256220,-306.438199,222.061783,9326.594869
3912.256535,-153.219100,-74.020594,9770.718434
3912.256850,-306.438199,-592.164754,9696.697840
3912.257165,-229.828649,-444.123565,9474.636058
3912.257479,-229.828649,-148.041188,9770.718434
3912.257794,-306.438199,-0.000000,9474.636058
3912.258109,0.000000,-148.041188,9844.739029
3912.258423,-383.047749,-0.000000,9252.574275
3912.258738,76.609550,-0.000000,9178.553681
3912.259053,0.000000,518.144159,9030.512492
3912.259367,153.219100,444.123565,9030.512492
3912.259682,306.438199,592.164754,9622.677246
3912.259997,383.047749,370.102971,9400.615463
3912.260312,0.000000,-0.000000,9474.636058
3912.260626,76.609550,-0.000000,9548.656652
3912.260941,0.000000,-0.000000,9474.636058
3912.261256,153.219100,-0.000000,10066.800811
3912.261570,306.438199,-0.000000,10214.842000
3912.261885,-229.828649,-0.000000,9844.739029
3912.262200,0.000000,370.102971,9622.677246
3912.262514,153.219100,222.061783,9474.636058
3912.262829,306.438199,222.061783,9696.697840
3912.263144,459.657299,740.205942,9474.636058
3912.263459,612.876398,518.144159,9770.718434
3912.263773,459.657299,-0.000000,9770.718434
3912.264088,612.876398,444.123565,9696.697840
3912.264403,536.266849,-0.000000,9770.718434
3912.264717,229.828649,-0.000000,9770.718434
3912.265032,153.219100,296.082377,9770.718434
3912.265347,229.828649,222.061783,9770.718434
3912.265662,76.609550,-0.000000,10066.800811
3912.265976,229.828649,-0.000000,9992.780217
3912.266291,76.609550,-74.020594,9400.615463
3912.266606,-229.828649,-0.000000,9770.718434
3912.266920,0.000000,296.082377,9548.656652
3912.267235,383.047749,518.144159,9622.677246
3912.267550,306.438199,444.123565,9474.636058
3912.267865,-383.047749,370.102971,9548.656652
3912.268180,153.219100,370.102971,9400.615463
3912.268494,229.828649,370.102971,9474.636058
3912.268809,229.828649,222.061783,9622.677246
3912.269124,153.219100,-0.000000,9474.636058
3912.269439,0.000000,-0.000000,9252.574275
3912.269754,0.000000,296.082377,9178.553681
3912.270069,229.828649,370.102971,9400.615463
3912.270384,153.219100,-0.000000,9770.718434
3912.270699,153.219100,296.082377,9474.636058
3912.271014,0.000000,518.144159,9770.718434
3912.271329,76.609550,222.061783,9548.656652
3912.271643,76.609550,222.061783,9474.636058
3912.271958,0.000000,-0.000000,9548.656652
3912.272273,0.000000,-0.000000,9474.636058
3912.272588,153.219100,-0.000000,9770.718434
3912.272903,-229.828649,-0.000000,9622.677246
3912.273218,0.000000,148.041188,9918.759623
3912.273533,-76.609550,-0.000000,9622.677246
3912.273848,153.219100,222.061783,9474.636058
3912.274163,0.000000,148.041188,9770.718434
3912.274478,0.000000,-0.000000,9622.677246
3912.274792,0.000000,-0.000000,9622.677246
3912.275107,0.000000,-74.020594,9696.697840
3912.275422,-153.219100,-0.000000,9474.636058
3912.275737,0.000000,-148.041188,9548.656652
3912.276052,0.000000,-0.000000,9622.677246
3912.276367,0.000000,-222.061783,10140.821405
3912.276682,0.000000,-74.020594,9992.780217
3912.276997,-229.828649,-0.000000,9474.636058
3912.277312,229.828649,-74.020594,9400.615463
3912.277627,0.000000,-0.000000,9622.677246
3912.277941,76.609550,296.082377,9622.677246
3912.278256,459.657299,-0.000000,9474.636058
3912.278571,536.266849,74.020594,9252.574275
3912.278886,766.095498,-0.000000,9474.636058
3912.279201,536.266849,370.102971,9326.594869
3912.279516,153.219100,-0.000000,9770.718434
3912.279831,76.609550,-0.000000,9622.677246
3912.280146,153.219100,-0.000000,9474.636058
3912.280461,383.047749,-0.000000,9474.636058
3912.280776,76.609550,-0.000000,9474.636058
3912.281090,536.266849,-0.000000,9622.677246
3912.281405,383.047749,222.061783,9548.656652
3912.281720,459.657299,-0.000000,9622.677246
3912.282035,536.266849,-0.000000,9548.656652
3912.282350,612.876398,518.144159,9474.636058
3912.282665,766.095498,296.082377,9474.636058
3912.282980,536.266849,-0.000000,9474.636058
3912.283295,229.828649,-0.000000,9696.697840
3912.283610,76.609550,74.020594,9770.718434
3912.283925,153.219100,-0.000000,9622.677246
3912.284239,306.438199,-0.000000,9770.718434
3912.284554,306.438199,-0.000000,9696.697840
3912.284869,612.876398,370.102971,10066.800811
3912.285184,229.828649,-370.102971,9992.780217
3912.285499,306.438199,-0.000000,9770.718434
3912.285814,689.485948,-0.000000,9770.718434
3912.286129,689.485948,-74.020594,9474.636058
3912.286444,612.876398,-0.000000,9474.636058
3912.286759,842.705048,-0.000000,9030.512492
3912.287074,229.828649,-0.000000,9030.512492
3912.287388,0.000000,222.061783,9178.553681
3912.287703,-383.047749,296.082377,9474.636058
3912.288018,-766.095498,-0.000000,9622.677246
3912.288333,-842.705048,-0.000000,10066.800811
3912.288648,-459.657299,-222.061783,10066.800811
3912.288963,-612.876398,-740.205942,10362.883188
3912.289278,-459.657299,-444.123565,10288.862594
3912.289593,-306.438199,-370.102971,9918.759623
3912.289908,153.219100,222.061783,9548.656652
3912.290223,536.266849,666.185348,9474.636058
3912.290537,229.828649,888.247130,8808.450710
3912.290852,383.047749,1036.288319,8808.450710
3912.291167,0.000000,740.205942,8586.388927
3912.291482,306.438199,740.205942,8512.368333
3912.291797,0.000000,148.041188,9474.636058
3912.292112,-383.047749,-148.041188,10066.800811
3912.292427,-689.485948,-666.185348,9992.780217
3912.292742,-536.266849,-814.226536,10362.883188
3912.293057,-612.876398,-296.082377,9844.739029
3912.293372,-306.438199,148.041188,9992.780217
3912.293686,0.000000,666.185348,9548.656652
3912.294001,0.000000,666.185348,9178.553681
3912.294316,229.828649,1184.329507,9474.636058
3912.294631,306.438199,1110.308913,8734.430116
3912.294946,306.438199,888.247130,9326.594869
3912.295261,383.047749,740.205942,9178.553681
3912.295576,0.000000,518.144159,9770.718434
3912.295891,0.000000,222.061783,10140.821405
3912.296206,76.609550,-0.000000,10066.800811
3912.296521,0.000000,-74.020594,10140.821405
3912.296835,-306.438199,-148.041188,10066.800811
3912.297150,-153.219100,-0.000000,10066.800811
3912.297465,0.000000,-0.000000,9548.656652
3912.297780,0.000000,-0.000000,9474.636058
3912.298095,536.266849,74.020594,9474.636058
3912.298410,383.047749,666.185348,9178.553681
3912.298725,689.485948,592.164754,9400.615463
3912.299040,383.047749,740.205942,9474.636058
3912.299355,459.657299,518.144159,9622.677246
3912.299670,536.266849,296.082377,9770.718434
3912.299984,383.047749,-0.000000,9696.697840
3912.300299,383.047749,296.082377,9474.636058
3912.300614,229.828649,-148.041188,9770.718434
3912.300929,229.828649,-74.020594,10288.862594
3912.301244,536.266849,-74.020594,9696.697840
3912.301559,76.609550,-0.000000,9696.697840
3912.301874,383.047749,-0.000000,9252.574275
3912.302189,76.609550,444.123565,9400.615463
3912.302504,229.828649,222.061783,9474.636058
3912.302819,306.438199,148.041188,9400.615463
3912.303133,536.266849,-0.000000,9474.636058
3912.303448,153.219100,-0.000000,9474.636058
3912.303763,229.828649,222.061783,9474.636058
3912.304078,229.828649,222.061783,9474.636058
3912.304393,306.438199,-0.000000,9696.697840
3912.304708,536.266849,-0.000000,9696.697840
3912.305023,0.000000,-0.000000,9474.636058
3912.305338,229.828649,222.061783,9474.636058
3912.305653,0.000000,222.061783,9474.636058
3912.305968,76.609550,370.102971,9548.656652
3912.306282,0.000000,-0.000000,9178.553681
3912.306597,-153.219100,-0.000000,9474.636058
3912.306912,-76.609550,296.082377,9474.636058
3912.307227,-459.657299,-222.061783,9474.636058
3912.307542,0.000000,-74.020594,9770.718434
3912.307857,-153.219100,-222.061783,9918.759623
3912.308172,0.000000,-222.061783,9770.718434
3912.308487,0.000000,-296.082377,9770.718434
3912.308802,76.609550,-74.020594,9474.636058
3912.309117,229.828649,-222.061783,9252.574275
3912.309431,0.000000,-0.000000,9252.574275
3912.309746,0.000000,370.102971,9474.636058
3912.310061,0.000000,148.041188,9474.636058
3912.310376,0.000000,-0.000000,9474.636058
3912.310691,306.438199,-592.164754,9474.636058
3912.311006,0.000000,-74.020594,9622.677246
3912.311321,0.000000,-222.061783,9770.718434
3912.311636,-229.828649,-296.082377,10066.800811
3912.311951,-383.047749,-148.041188,9622.677246
3912.312266,0.000000,148.041188,9918.759623
3912.312580,0.000000,-0.000000,9548.656652
3912.312895,229.828649,222.061783,9548.656652
3912.313210,459.657299,296.082377,9400.615463
3912.313525,383.047749,518.144159,9326.594869
3912.313840,0.000000,518.144159,9474.636058
3912.314155,76.609550,296.082377,9400.615463
3912.314470,459.657299,814.226536,9178.553681
3912.314785,383.047749,222.061783,9474.636058
3912.315100,76.609550,296.082377,9696.697840
3912.315415,153.219100,-0.000000,9918.759623
3912.315729,0.000000,222.061783,9844.739029
3912.316044,0.000000,-0.000000,9844.739029
3912.316359,0.000000,296.082377,9918.759623
3912.316674,153.219100,296.082377,9770.718434
3912.316989,612.876398,296.082377,9992.780217
3912.317304,76.609550,370.102971,9474.636058
3912.317619,153.219100,592.164754,9844.739029
3912.317934,459.657299,592.164754,9474.636058
3912.318249,229.828649,518.144159,9474.636058
3912.318564,689.485948,-74.020594,9696.697840
3912.318878,306.438199,222.061783,9548.656652
3912.319193,153.219100,-0.000000,9844.739029
3912.319508,0.000000,-0.000000,9844.739029
3912.319823,383.047749,-0.000000,9844.739029
3912.320138,306.438199,-74.020594,9770.718434
3912.320453,459.657299,-0.000000,9844.739029
3912.320768,-153.219100,-0.000000,9770.718434
3912.321083,153.219100,148.041188,9474.636058
3912.321398,459.657299,370.102971,9474.636058
3912.321713,383.047749,666.185348,9104.533087
3912.322027,536.266849,370.102971,9326.594869
3912.322342,306.438199,-0.000000,9622.677246
3912.322657,153.219100,-74.020594,9844.739029
3912.322972,0.000000,-0.000000,9622.677246
3912.323287,76.609550,-518.144159,9844.739029
3912.323602,0.000000,-222.061783,9696.697840
3912.323917,0.000000,-74.020594,10214.842000
3912.324232,0.000000,-0.000000,9918.759623
3912.324547,0.000000,-74.020594,9770.718434
3912.324862,0.000000,74.020594,9474.636058
3912.325176,0.000000,370.102971,9474.636058
3912.325491,459.657299,518.144159,9104.533087
3912.325806,229.828649,666.185348,9326.594869
3912.326121,76.609550,370.102971,9400.615463
3912.326436,-229.828649,370.102971,9252.574275
3912.326751,-153.219100,148.041188,9400.615463
3912.327066,-229.828649,-0.000000,9622.677246
3912.327381,-383.047749,-0.000000,9918.759623
3912.327696,0.000000,-74.020594,10066.800811
3912.328011,-383.047749,-370.102971,9622.677246
3912.328325,-153.219100,-0.000000,9696.697840
3912.328640,0.000000,148.041188,9770.718434
3912.328955,-153.219100,-0.000000,9474.636058
3912.329270,0.000000,148.041188,9474.636058
3912.329585,383.047749,444.123565,9178.553681
3912.329900,383.047749,296.082377,9178.553681
3912.330215,306.438199,296.082377,9474.636058
3912.330530,76.609550,370.102971,9474.636058
3912.330845,76.609550,-296.082377,9326.594869
3912.331160,0.000000,-0.000000,9548.656652
3912.331474,153.219100,-0.000000,9252.574275
3912.331789,0.000000,-74.020594,9844.739029
3912.332104,76.609550,-0.000000,9918.759623
3912.332419,153.219100,-0.000000,9548.656652
3912.332734,76.609550,296.082377,9696.697840
3912.333049,153.219100,222.061783,9474.636058
3912.333364,306.438199,-0.000000,9992.780217
3912.333679,229.828649,222.061783,9622.677246
3912.333994,459.657299,-148.041188,9326.594869
3912.334309,536.266849,296.082377,9622.677246
3912.334623,536.266849,444.123565,9844.739029
3912.334938,229.828649,370.102971,9696.697840
3912.335253,459.657299,-0.000000,9696.697840
3912.335568,229.828649,-222.061783,9474.636058
3912.335883,536.266849,370.102971,9474.636058
3912.336198,229.828649,-0.000000,9474.636058
3912.336513,153.219100,222.061783,9918.759623
3912.336828,306.438199,-74.020594,9548.656652
3912.337143,229.828649,296.082377,9622.677246
3912.337458,383.047749,370.102971,9844.739029
3912.337772,229.828649,370.102971,9622.677246
3912.338087,229.828649,-0.000000,9696.697840
3912.338402,306.438199,-0.000000,9548.656652
3912.338717,-153.219100,-0.000000,9474.636058
3912.339032,229.828649,666.185348,9918.759623
3912.339347,229.828649,444.123565,9474.636058
3912.339662,229.828649,-0.000000,9474.636058
3912.339977,0.000000,-0.000000,9548.656652
3912.340292,0.000000,148.041188,9622.677246
3912.340607,153.219100,-0.000000,9622.677246
3912.340921,76.609550,222.061783,9696.697840
3912.341236,229.828649,-74.020594,9548.656652
3912.341551,76.609550,148.041188,9622.677246
3912.341866,0.000000,-0.000000,9474.636058
3912.342181,229.828649,-0.000000,9252.574275
3912.342496,459.657299,-0.000000,9252.574275
3912.342811,229.828649,-0.000000,9400.615463
3912.343126,0.000000,296.082377,9326.594869
3912.343441,76.609550,-0.000000,9400.615463
3912.343756,76.609550,-0.000000,9770.718434
3912.344070,0.000000,-296.082377,9992.780217
3912.344385,76.609550,-74.020594,9696.697840
3912.344700,0.000000,-222.061783,9400.615463
3912.345015,0.000000,-74.020594,9474.636058
3912.345330,76.609550,-0.000000,9696.697840
3912.345645,153.219100,370.102971,9548.656652
3912.345960,76.609550,-0.000000,9474.636058
3912.346275,153.219100,296.082377,9622.677246
3912.346590,0.000000,370.102971,9622.677246
3912.346905,0.000000,296.082377,9548.656652
3912.347219,0.000000,-0.000000,9844.739029
3912.347534,0.000000,-0.000000,9844.739029
3912.347849,0.000000,296.082377,9622.677246
3912.348164,0.000000,222.061783,9548.656652
3912.348479,76.609550,-0.000000,9918.759623
3912.348794,229.828649,-0.000000,9548.656652
3912.349109,76.609550,222.061783,9474.636058
3912.349424,-76.609550,-0.000000,9474.636058
3912.349739,76.609550,444.123565,9548.656652
3912.350054,0.000000,222.061783,9696.697840
3912.350368,306.438199,-0.000000,9548.656652
3912.350683,229.828649,370.102971,9548.656652
3912.350998,459.657299,-0.000000,9474.636058
3912.351313,0.000000,-74.020594,9844.739029
3912.351628,229.828649,296.082377,9992.780217
3912.351943,0.000000,296.082377,9548.656652
3912.352258,229.828649,-0.000000,9474.636058
3912.352573,76.609550,222.061783,9622.677246
3912.352888,229.828649,-0.000000,9474.636058
3912.353203,306.438199,222.061783,9548.656652
3912.353517,229.828649,-0.000000,9400.615463
3912.353832,766.095498,-0.000000,9548.656652
3912.354147,306.438199,-222.061783,9474.636058
3912.354462,306.438199,-0.000000,9992.780217
3912.354777,383.047749,-148.041188,9918.759623
3912.355092,306.438199,-0.000000,9770.718434
3912.355407,0.000000,-0.000000,9474.636058
3912.355722,612.876398,-0.000000,9770.718434
3912.356037,459.657299,-0.000000,10066.800811
3912.356352,459.657299,-0.000000,9696.697840
3912.356666,612.876398,-0.000000,9622.677246
3912.356981,459.657299,-0.000000,9252.574275
3912.357296,383.047749,148.041188,9030.512492
3912.357611,153.219100,222.061783,9474.636058
3912.357926,536.266849,666.185348,9400.615463
3912.358241,153.219100,-0.000000,9252.574275
3912.358556,-306.438199,-0.000000,9326.594869
3912.358871,-383.047749,222.061783,9696.697840
3912.359186,-612.876398,-0.000000,10066.800811
3912.359501,-766.095498,-444.123565,10288.862594
3912.359815,-383.047749,-222.061783,10140.821405
3912.360130,-689.485948,-370.102971,10214.842000
3912.360445,0.000000,-148.041188,9992.780217
3912.360760,0.000000,592.164754,9770.718434
3912.361075,153.219100,592.164754,9252.574275
3912.361390,995.924147,888.247130,8956.491898
3912.361705,153.219100,740.205942,8808.450710
3912.362020,229.828649,296.082377,8956.491898
3912.362335,0.000000,296.082377,9474.636058
3912.362650,-536.266849,-0.000000,9696.697840
3912.362964,-1072.533697,-296.082377,9770.718434
3912.363279,-842.705048,-518.144159,9918.759623
3912.363594,-383.047749,-444.123565,10140.821405
3912.363909,-306.438199,-296.082377,9918.759623
3912.364224,0.000000,-74.020594,9770.718434
3912.364539,0.000000,370.102971,9400.615463
3912.364854,383.047749,740.205942,9178.553681
3912.365169,612.876398,1036.288319,8956.491898
3912.365484,459.657299,740.205942,9104.533087
3912.365799,153.219100,962.267725,9252.574275
3912.366113,153.219100,740.205942,9326.594869
3912.366428,229.828649,444.123565,9696.697840
3912.366743,76.609550,-0.000000,10214.842000
3912.367058,76.609550,-0.000000,10066.800811
3912.367373,-459.657299,-444.123565,10066.800811
3912.367688,-306.438199,-222.061783,9622.677246
3912.368003,0.000000,-0.000000,9992.780217
3912.368318,0.000000,222.061783,9696.697840
3912.368633,306.438199,444.123565,9622.677246
3912.368948,536.266849,1036.288319,9474.636058
3912.369263,383.047749,370.102971,9400.615463
3912.369578,689.485948,814.226536,9474.636058
3912.369893,689.485948,814.226536,9548.656652
3912.370208,383.047749,518.144159,9770.718434
3912.370523,0.000000,-0.000000,9622.677246
3912.370838,536.266849,444.123565,9622.677246
3912.371152,306.438199,296.082377,9844.739029
3912.371467,76.609550,222.061783,9844.739029
3912.371782,306.438199,-0.000000,9844.739029
3912.372097,76.609550,370.102971,10288.862594
3912.372412,0.000000,-0.000000,9474.636058
3912.372727,229.828649,-0.000000,9696.697840
3912.373042,229.828649,148.041188,9548.656652
3912.373357,995.924147,370.102971,9400.615463
3912.373672,383.047749,-0.000000,9030.512492
3912.373987,0.000000,-0.000000,9104.533087
3912.374302,229.828649,222.061783,9474.636058
3912.374617,459.657299,-0.000000,9252.574275
3912.374932,306.438199,-74.020594,9400.615463
3912.375247,0.000000,-222.061783,9696.697840
3912.375562,153.219100,-74.020594,9622.677246
3912.375877,0.000000,-296.082377,9474.636058
3912.376192,0.000000,-222.061783,9918.759623
3912.376507,0.000000,-0.000000,9696.697840
3912.376822,-306.438199,-0.000000,9104.533087
3912.377137,153.219100,-0.000000,9474.636058
3912.377452,229.828649,-0.000000,9474.636058
3912.377767,-76.609550,-0.000000,9474.636058
3912.378082,0.000000,-296.082377,9474.636058
3912.378397,0.000000,-74.020594,9992.780217
3912.378712,0.000000,-0.000000,9770.718434
3912.379027,229.828649,-222.061783,9548.656652
3912.379342,306.438199,-0.000000,9474.636058
3912.379657,0.000000,-148.041188,9696.697840
3912.379972,0.000000,74.020594,9400.615463
3912.380287,0.000000,-0.000000,9474.636058
3912.380602,0.000000,370.102971,9474.636058
3912.380917,0.000000,74.020594,9622.677246
3912.381232,459.657299,-0.000000,9400.615463
3912.381547,0.000000,222.061783,9474.636058
3912.381862,-153.219100,148.041188,9844.739029
3912.382177,-229.828649,-0.000000,9548.656652
3912.382492,-229.828649,-0.000000,9696.697840
3912.382807,0.000000,-74.020594,9918.759623
3912.383122,0.000000,-0.000000,9770.718434
3912.383436,306.438199,-0.000000,9252.574275
3912.383751,229.828649,518.144159,9474.636058
3912.384066,306.438199,148.041188,9474.636058
3912.384381,0.000000,-0.000000,9326.594869
3912.384696,229.828649,370.102971,9104.533087
3912.385011,229.828649,-0.000000,9474.636058
3912.385326,153.219100,-0.000000,9622.677246
3912.385641,153.219100,-0.000000,9548.656652
3912.385956,0.000000,-0.000000,9474.636058
3912.386271,306.438199,444.123565,9844.739029
3912.386586,153.219100,-222.061783,9548.656652
3912.386901,0.000000,-222.061783,9992.780217
3912.387216,153.219100,148.041188,9696.697840
3912.387531,459.657299,-74.020594,9696.697840
3912.387846,459.657299,370.102971,9474.636058
3912.388161,689.485948,370.102971,9696.697840
3912.388476,612.876398,740.205942,9770.718434
3912.388791,383.047749,296.082377,9474.636058
3912.389106,459.657299,518.144159,9400.615463
3912.389421,306.438199,-0.000000,9696.697840
3912.389736,459.657299,-0.000000,9696.697840
3912.390051,153.219100,-0.000000,10140.821405
3912.390366,-153.219100,-0.000000,9918.759623
3912.390681,0.000000,-148.041188,9844.739029
3912.390996,153.219100,-0.000000,9844.739029
3912.391311,383.047749,444.123565,10140.821405
3912.391626,306.438199,518.144159,9918.759623
3912.391941,306.438199,518.144159,9030.512492
3912.392256,306.438199,-0.000000,9474.636058
3912.392571,842.705048,888.247130,9474.636058
3912.392886,306.438199,740.205942,9178.553681
3912.393201,229.828649,370.102971,9474.636058
3912.393516,0.000000,-0.000000,9474.636058
3912.393831,-459.657299,296.082377,9474.636058
3912.394146,-306.438199,-148.041188,9548.656652
3912.394461,-536.266849,-0.000000,10066.800811
3912.394776,-153.219100,-222.061783,10140.821405
3912.395091,-383.047749,-74.020594,9548.656652
3912.395406,0.000000,148.041188,9696.697840
3912.395720,76.609550,296.082377,9252.574275
3912.396035,0.000000,592.164754,9474.636058
3912.396350,76.609550,518.144159,9030.512492
3912.396665,306.438199,444.123565,9104.533087
3912.396980,612.876398,444.123565,9474.636058
3912.397295,0.000000,222.061783,9104.533087
3912.397610,-153.219100,-74.020594,9548.656652
3912.397925,-383.047749,-222.061783,9548.656652
3912.398240,-612.876398,-370.102971,9696.697840
3912.398555,-612.876398,-148.041188,9918.759623
3912.398870,-229.828649,-296.082377,9992.780217
3912.399185,-383.047749,-0.000000,9918.759623
3912.399500,-383.047749,-0.000000,9770.718434
3912.399815,-153.219100,592.164754,9548.656652
3912.400130,306.438199,592.164754,9474.636058
3912.400445,229.828649,370.102971,9474.636058
3912.400760,459.657299,370.102971,9474.636058
3912.401075,306.438199,370.102971,9474.636058
3912.401390,76.609550,518.144159,9548.656652
3912.401705,306.438199,444.123565,9548.656652
3912.402020,153.219100,-0.000000,9474.636058
3912.402335,153.219100,-0.000000,10288.862594
3912.402650,0.000000,-0.000000,9474.636058
3912.402965,0.000000,-148.041188,9918.759623
3912.403280,76.609550,-0.000000,9918.759623
3912.403595,0.000000,-0.000000,9622.677246
3912.403910,76.609550,222.061783,9474.636058
3912.404225,229.828649,296.082377,9400.615463
3912.404540,229.828649,444.123565,9474.636058
3912.404855,229.828649,444.123565,9400.615463
3912.405170,536.266849,-0.000000,9326.594869
3912.405485,536.266849,296.082377,9696.697840
3912.405800,153.219100,222.061783,9252.574275
3912.406115,0.000000,-0.000000,9474.636058
3912.406430,229.828649,-0.000000,9696.697840
3912.406745,153.219100,-148.041188,9548.656652
3912.407060,306.438199,-0.000000,9474.636058
3912.407375,76.609550,-0.000000,9696.697840
3912.407690,153.219100,-0.000000,9696.697840
3912.408004,459.657299,-0.000000,9622.677246
3912.408319,0.000000,-296.082377,9622.677246
3912.408634,229.828649,-0.000000,9474.636058
3912.408949,459.657299,-0.000000,9400.615463
3912.409264,306.438199,-0.000000,9474.636058
3912.409579,536.266849,-0.000000,9474.636058
3912.409894,306.438199,-0.000000,9622.677246
3912.410209,383.047749,-0.000000,9622.677246
3912.410524,306.438199,296.082377,9770.718434
3912.410839,229.828649,-0.000000,9770.718434
3912.411154,306.438199,74.020594,9696.697840
3912.411469,153.219100,148.041188,9696.697840
3912.411784,0.000000,-74.020594,9696.697840
3912.412099,0.000000,-0.000000,9918.759623
3912.412414,0.000000,-0.000000,9474.636058
3912.412729,-153.219100,-0.000000,9696.697840
3912.413044,0.000000,-0.000000,9992.780217
3912.413359,-229.828649,-0.000000,9326.594869
3912.413674,-306.438199,-0.000000,9548.656652
3912.413989,-153.219100,-74.020594,9992.780217
3912.414304,0.000000,296.082377,9770.718434
3912.414619,153.219100,296.082377,9474.636058
3912.414934,-229.828649,222.061783,9622.677246
3912.415249,153.219100,370.102971,9548.656652
3912.415564,229.828649,-0.000000,9326.594869
3912.415879,0.000000,-0.000000,9326.594869
3912.416194,0.000000,296.082377,9770.718434
3912.416509,0.000000,-0.000000,9252.574275
3912.416824,76.609550,-0.000000,9474.636058
3912.417139,306.438199,-0.000000,9474.636058
3912.417454,-306.438199,-74.020594,9548.656652
3912.417769,153.219100,-74.020594,9178.553681
3912.418084,76.609550,-0.000000,9548.656652
3912.418399,-306.438199,-222.061783,9696.697840
3912.418714,153.219100,-0.000000,9400.615463
3912.419029,153.219100,-0.000000,9474.636058
3912.419344,229.828649,-0.000000,9474.636058
3912.419659,612.876398,296.082377,9474.636058
3912.419974,0.000000,-0.000000,9474.636058
3912.420288,76.609550,-0.000000,9770.718434
3912.420603,306.438199,-0.000000,9696.697840
3912.420918,383.047749,-0.000000,9622.677246
3912.421233,0.000000,-0.000000,9622.677246
3912.421548,0.000000,222.061783,10288.862594
3912.421863,153.219100,-0.000000,9770.718434
3912.422178,306.438199,370.102971,9770.718434
3912.422493,229.828649,222.061783,9696.697840
3912.422808,153.219100,-0.000000,9622.677246
3912.423123,229.828649,296.082377,9696.697840
3912.423438,153.219100,518.144159,9696.697840
3912.423753,0.000000,-0.000000,9844.739029
3912.424068,153.219100,518.144159,9474.636058
3912.424383,383.047749,-0.000000,9474.636058
3912.424698,0.000000,222.061783,9844.739029
3912.425013,0.000000,296.082377,9844.739029
3912.425328,0.000000,74.020594,9696.697840
3912.425643,0.000000,148.041188,9696.697840
3912.425958,306.438199,-0.000000,9992.780217
3912.426273,229.828649,-0.000000,9622.677246
3912.426588,76.609550,-222.061783,9696.697840
3912.426903,459.657299,222.061783,9992.780217
3912.427218,919.314598,222.061783,9696.697840
3912.427533,306.438199,148.041188,9326.594869
3912.427848,459.657299,-0.000000,9252.574275
3912.428163,689.485948,222.061783,9030.512492
3912.428478,459.657299,-0.000000,8882.471304
3912.428793,229.828649,-0.000000,9030.512492
3912.429108,0.000000,370.102971,9474.636058
3912.429423,-153.219100,222.061783,9770.718434
3912.429738,-459.657299,-370.102971,9696.697840
3912.430053,-995.924147,-74.020594,10214.842000
3912.430368,-842.705048,-74.020594,10584.944971
3912.430683,-306.438199,-592.164754,10214.842000
3912.430998,0.000000,-296.082377,10214.842000
3912.431313,306.438199,296.082377,10066.800811
3912.431628,383.047749,592.164754,9252.574275
3912.431943,612.876398,1110.308913,8512.368333
3912.432258,612.876398,962.267725,9252.574275
3912.432572,76.609550,592.164754,9104.533087
3912.432887,153.219100,592.164754,9400.615463
3912.433202,-459.657299,-0.000000,9622.677246
3912.433517,-842.705048,-740.205942,9770.718434
3912.433832,-612.876398,-592.164754,10066.800811
3912.434147,-536.266849,-592.164754,10214.842000
3912.434462,-612.876398,-592.164754,10584.944971
3912.434777,-459.657299,-74.020594,9844.739029
3912.435092,-153.219100,222.061783,9474.636058
3912.435407,76.609550,740.205942,9474.636058
3912.435722,612.876398,1110.308913,8882.471304
3912.436037,306.438199,1184.329507,9104.533087
3912.436352,76.609550,1184.329507,9178.553681
3912.436667,383.047749,740.205942,9400.615463
3912.436982,-153.219100,222.061783,9326.594869
3912.437297,0.000000,296.082377,9622.677246
3912.437612,-153.219100,-74.020594,9992.780217
3912.437927,-383.047749,-0.000000,9992.780217
3912.438242,-459.657299,-74.020594,9696.697840
3912.438557,-229.828649,-74.020594,9548.656652
3912.438872,0.000000,-0.000000,9548.656652
3912.439187,229.828649,296.082377,9178.553681
3912.439502,306.438199,518.144159,9622.677246
3912.439817,383.047749,666.185348,9104.533087
3912.440132,306.438199,518.144159,9474.636058
3912.440447,612.876398,666.185348,9474.636058
3912.440762,689.485948,444.123565,9696.697840
3912.441077,689.485948,518.144159,9474.636058
3912.441392,306.438199,222.061783,9622.677246
3912.441707,153.219100,-0.000000,9770.718434
3912.442022,306.438199,-0.000000,9992.780217
3912.442337,76.609550,-0.000000,9918.759623
3912.442652,229.828649,148.041188,9474.636058
3912.442967,383.047749,296.082377,10214.842000
3912.443282,306.438199,444.123565,9770.718434
3912.443597,459.657299,-0.000000,9770.718434
3912.443912,459.657299,222.061783,9548.656652
3912.444227,0.000000,-0.000000,9548.656652
3912.444542,0.000000,296.082377,9474.636058
3912.444856,306.438199,222.061783,9770.718434
3912.445171,153.219100,-0.000000,10140.821405
3912.445486,0.000000,148.041188,9548.656652
3912.445801,153.219100,-0.000000,9474.636058
3912.446116,0.000000,-0.000000,9844.739029
3912.446431,229.828649,-0.000000,9770.718434
3912.446746,0.000000,-0.000000,9696.697840
3912.447061,0.000000,148.041188,9474.636058
3912.447376,-153.219100,-0.000000,9252.574275
3912.447691,0.000000,370.102971,9474.636058
3912.448006,0.000000,222.061783,9400.615463
3912.448321,-229.828649,-0.000000,9474.636058
3912.448636,-306.438199,-0.000000,9548.656652
3912.448951,383.047749,222.061783,9474.636058
3912.449266,-383.047749,-0.000000,9770.718434
3912.449581,153.219100,-222.061783,9252.574275
3912.449896,0.000000,-0.000000,9326.594869
3912.450211,229.828649,-0.000000,9474.636058
3912.450526,-153.219100,-0.000000,9326.594869
3912.450841,76.609550,296.082377,9326.594869
3912.451156,76.609550,-0.000000,9178.553681
3912.451471,76.609550,-0.000000,8956.491898
3912.451786,0.000000,-0.000000,9474.636058
3912.452101,0.000000,-0.000000,10288.862594
3912.452416,0.000000,-74.020594,9548.656652
3912.452731,0.000000,-0.000000,9696.697840
3912.453046,0.000000,-0.000000,9622.677246
3912.453361,0.000000,-0.000000,9400.615463
3912.453676,229.828649,-0.000000,9992.780217
3912.453991,0.000000,-0.000000,9844.739029
3912.454306,76.609550,148.041188,9548.656652
3912.454621,153.219100,296.082377,9474.636058
3912.454936,76.609550,-0.000000,9474.636058
3912.455251,536.266849,296.082377,9696.697840
3912.455566,459.657299,-0.000000,9844.739029
3912.455881,306.438199,296.082377,9696.697840
3912.456196,0.000000,-0.000000,9992.780217
3912.456511,0.000000,-0.000000,9548.656652
3912.456825,-229.828649,-0.000000,10362.883188
3912.457140,-229.828649,-0.000000,10214.842000
3912.457455,153.219100,74.020594,10214.842000
3912.457770,0.000000,-0.000000,9474.636058
3912.458085,383.047749,-0.000000,9474.636058
3912.458400,229.828649,-0.000000,9622.677246
3912.458715,459.657299,444.123565,9548.656652
3912.459030,229.828649,296.082377,9622.677246
3912.459345,76.609550,444.123565,9326.594869
3912.459660,229.828649,592.164754,9474.636058
3912.459975,0.000000,-148.041188,9474.636058
3912.460290,76.609550,-0.000000,9622.677246
3912.460605,0.000000,-0.000000,9548.656652
3912.460920,153.219100,-0.000000,9770.718434
3912.461235,459.657299,-0.000000,9622.677246
3912.461550,536.266849,-148.041188,9474.636058
3912.461865,0.000000,74.020594,9918.759623
3912.462180,306.438199,148.041188,9474.636058
3912.462495,459.657299,-0.000000,9104.533087
3912.462810,459.657299,296.082377,9252.574275
3912.463125,689.485948,-0.000000,9400.615463
3912.463440,306.438199,444.123565,9326.594869
3912.463755,153.219100,148.041188,8956.491898
3912.464070,306.438199,370.102971,9326.594869
3912.464385,536.266849,222.061783,10066.800811
3912.464700,383.047749,-74.020594,9770.718434
3912.465015,0.000000,-74.020594,10066.800811
3912.465330,-383.047749,-74.020594,9844.739029
3912.465645,-153.219100,-222.061783,9844.739029
3912.465960,0.000000,-0.000000,9844.739029
3912.466275,76.609550,-0.000000,9474.636058
3912.466590,76.609550,-0.000000,9622.677246
3912.466905,153.219100,222.061783,9326.594869
3912.467220,0.000000,370.102971,9474.636058
3912.467535,229.828649,296.082377,9474.636058
3912.467850,383.047749,222.061783,9400.615463
3912.468165,0.000000,-0.000000,9770.718434
3912.468480,0.000000,-148.041188,9548.656652
3912.468795,-306.438199,-74.020594,9622.677246
3912.469109,-306.438199,-444.123565,9844.739029
3912.469424,-229.828649,-0.000000,9918.759623
3912.469739,-153.219100,-0.000000,9770.718434
3912.470054,-306.438199,-74.020594,9474.636058
3912.470369,0.000000,296.082377,9474.636058
3912.470684,0.000000,518.144159,9326.594869
3912.470999,229.828649,370.102971,9400.615463
3912.471314,383.047749,592.164754,9474.636058
3912.471629,0.000000,444.123565,9548.656652
3912.471944,306.438199,592.164754,9252.574275
3912.472259,76.609550,740.205942,9474.636058
3912.472574,0.000000,222.061783,9326.594869
3912.472889,0.000000,-0.000000,9844.739029
3912.473204,-306.438199,222.061783,9622.677246
3912.473519,229.828649,-0.000000,9622.677246
3912.473834,153.219100,-0.000000,9844.739029
3912.474149,229.828649,222.061783,9622.677246
3912.474464,306.438199,-0.000000,9326.594869
3912.474779,306.438199,518.144159,9252.574275
3912.475093,612.876398,592.164754,9548.656652
3912.475408,153.219100,518.144159,9770.718434
3912.475723,689.485948,-0.000000,9474.636058
3912.476038,306.438199,222.061783,9474.636058
3912.476353,383.047749,444.123565,9474.636058
3912.476668,383.047749,518.144159,9696.697840
3912.476983,612.876398,-74.020594,9844.739029
3912.477298,153.219100,-0.000000,10214.842000
3912.477613,383.047749,-0.000000,9770.718434
3912.477928,0.000000,222.061783,9548.656652
3912.478243,459.657299,-0.000000,9918.759623
3912.478557,229.828649,-0.000000,9844.739029
3912.478872,76.609550,-74.020594,9770.718434
3912.479187,229.828649,-0.000000,9622.677246
3912.479502,383.047749,-0.000000,9474.636058
3912.479817,229.828649,-74.020594,9474.636058
3912.480132,229.828649,-0.000000,9622.677246
3912.480447,153.219100,518.144159,9770.718434
3912.480762,306.438199,-0.000000,9474.636058
3912.481077,76.609550,296.082377,9474.636058
3912.481392,229.828649,222.061783,9622.677246
3912.481707,0.000000,-74.020594,9474.636058
3912.482021,229.828649,-0.000000,9474.636058
3912.482336,0.000000,-0.000000,9696.697840
3912.482651,0.000000,-222.061783,9696.697840
3912.482966,0.000000,-0.000000,9326.594869
3912.483281,0.000000,-0.000000,9252.574275
3912.483596,0.000000,-0.000000,9696.697840
3912.483911,0.000000,370.102971,9252.574275
3912.484226,76.609550,222.061783,9474.636058
3912.484541,-76.609550,222.061783,9622.677246
3912.484856,0.000000,-0.000000,9548.656652
3912.485171,0.000000,-0.000000,9252.574275
3912.485485,76.609550,296.082377,8956.491898
3912.485800,0.000000,-0.000000,9474.636058
3912.486115,0.000000,-74.020594,9844.739029
3912.486430,76.609550,-0.000000,9548.656652
3912.486745,0.000000,-0.000000,9548.656652
3912.487060,0.000000,-0.000000,9400.615463
3912.487375,-383.047749,296.082377,9474.636058
3912.487690,0.000000,222.061783,9622.677246
3912.488005,0.000000,-0.000000,9844.739029
3912.488320,0.000000,222.061783,9696.697840
3912.488634,0.000000,222.061783,9474.636058
3912.488949,-306.438199,-0.000000,9622.677246
3912.489264,0.000000,296.082377,10140.821405
3912.489579,229.828649,-0.000000,9622.677246
3912.489894,229.828649,-0.000000,9548.656652
3912.490209,306.438199,-74.020594,9474.636058
3912.490524,229.828649,-0.000000,9400.615463
3912.490839,76.609550,-0.000000,9770.718434
3912.491154,383.047749,222.061783,9548.656652
3912.491469,153.219100,-0.000000,9326.594869
3912.491784,229.828649,-74.020594,9696.697840
3912.492098,306.438199,-0.000000,9770.718434
3912.492413,383.047749,-0.000000,9474.636058
3912.492728,229.828649,-74.020594,9548.656652
3912.493043,536.266849,-0.000000,9696.697840
3912.493358,459.657299,-296.082377,9770.718434
3912.493673,76.609550,-0.000000,9696.697840
3912.493988,383.047749,296.082377,9252.574275
3912.494303,229.828649,296.082377,9548.656652
3912.494618,76.609550,370.102971,9474.636058
3912.494933,766.095498,370.102971,10066.800811
3912.495248,306.438199,222.061783,9696.697840
3912.495562,459.657299,-0.000000,9770.718434
3912.495877,0.000000,148.041188,9474.636058
3912.496192,0.000000,444.123565,9326.594869
3912.496507,536.266849,-74.020594,9696.697840
3912.496822,459.657299,-0.000000,9622.677246
3912.497137,766.095498,-0.000000,9844.739029
3912.497452,612.876398,148.041188,9844.739029
3912.497767,536.266849,-0.000000,9326.594869
3912.498082,766.095498,370.102971,9400.615463
3912.498397,689.485948,148.041188,9770.718434
3912.498712,383.047749,-0.000000,9548.656652
3912.499026,612.876398,370.102971,9326.594869
3912.499341,76.609550,296.082377,9252.574275
3912.499656,153.219100,-74.020594,9400.615463
3912.499971,-383.047749,370.102971,9548.656652
3912.500286,-689.485948,-148.041188,9918.759623
3912.500601,-842.705048,-222.061783,9918.759623
3912.500916,-536.266849,-296.082377,10214.842000
3912.501231,-689.485948,-444.123565,10140.821405
3912.501546,-536.266849,-444.123565,10066.800811
3912.501861,0.000000,-222.061783,10140.821405
3912.502176,306.438199,222.061783,9474.636058
3912.502490,383.047749,444.123565,8882.471304
3912.502805,536.266849,962.267725,9030.512492
3912.503120,536.266849,962.267725,8734.430116
3912.503435,0.000000,666.185348,8956.491898
3912.503750,-229.828649,-0.000000,9104.533087
3912.504065,-459.657299,-370.102971,9548.656652
3912.504380,-383.047749,-296.082377,9770.718434
3912.504695,-689.485948,-740.205942,9770.718434
3912.505010,-766.095498,-592.164754,10288.862594
3912.505325,-689.485948,-444.123565,10066.800811
3912.505640,-153.219100,-74.020594,9548.656652
3912.505954,76.609550,444.123565,9622.677246
3912.506269,229.828649,666.185348,9252.574275
3912.506584,536.266849,1110.308913,9252.574275
3912.506899,459.657299,1184.329507,8882.471304
3912.507214,229.828649,1110.308913,9400.615463
3912.507529,229.828649,740.205942,9548.656652
3912.507844,153.219100,370.102971,9770.718434
3912.508159,153.219100,296.082377,10140.821405
3912.508474,0.000000,-0.000000,10288.862594
3912.508789,0.000000,-74.020594,9844.739029
3912.509104,-229.828649,-222.061783,10510.924376
3912.509418,0.000000,-222.061783,9918.759623
3912.509733,229.828649,222.061783,9622.677246
3912.510048,306.438199,222.061783,9474.636058
3912.510363,536.266849,814.226536,9474.636058
3912.510678,306.438199,592.164754,9548.656652
3912.510993,459.657299,666.185348,9400.615463
3912.511308,383.047749,518.144159,9622.677246
3912.511623,383.047749,444.123565,9696.697840
3912.511938,383.047749,-0.000000,9104.533087
3912.512253,306.438199,444.123565,9474.636058
3912.512568,0.000000,-74.020594,10288.862594
3912.512882,0.000000,-148.041188,10214.842000
3912.513197,0.000000,-0.000000,9844.739029
3912.513512,383.047749,296.082377,9918.759623
3912.513827,229.828649,-0.000000,9622.677246
3912.514142,306.438199,296.082377,9548.656652
3912.514457,306.438199,296.082377,9474.636058
3912.514772,306.438199,-0.000000,9696.697840
3912.515087,153.219100,222.061783,9400.615463
3912.515402,306.438199,-0.000000,9104.533087
3912.515717,0.000000,-74.020594,9252.574275
3912.516032,153.219100,-0.000000,9548.656652
3912.516346,0.000000,-148.041188,9770.718434
3912.516661,0.000000,-74.020594,9548.656652
3912.516976,76.609550,-0.000000,10066.800811
3912.517291,153.219100,-0.000000,9770.718434
3912.517606,0.000000,222.061783,9548.656652
3912.517921,0.000000,222.061783,9622.677246
3912.518236,0.000000,222.061783,9474.636058
3912.518551,0.000000,296.082377,9622.677246
3912.518866,0.000000,296.082377,9400.615463
3912.519181,0.000000,370.102971,9326.594869
3912.519496,0.000000,-0.000000,9400.615463
3912.519810,-76.609550,-74.020594,9696.697840
3912.520125,-229.828649,-0.000000,9844.739029
3912.520440,-229.828649,-0.000000,9696.697840
3912.520755,-153.219100,-0.000000,9474.636058
3912.521070,0.000000,-0.000000,9622.677246
3912.521385,153.219100,222.061783,9548.656652
3912.521700,-229.828649,-0.000000,9400.615463
3912.522015,-383.047749,-148.041188,9104.533087
3912.522330,0.000000,-0.000000,9474.636058
3912.522645,0.000000,222.061783,9030.512492
3912.522960,229.828649,222.061783,9548.656652
3912.523274,76.609550,-0.000000,9918.759623
3912.523589,-153.219100,-148.041188,9918.759623
3912.523904,0.000000,-0.000000,9474.636058
3912.524219,0.000000,-222.061783,9770.718434
3912.524534,0.000000,-592.164754,9770.718434
3912.524849,306.438199,-74.020594,9696.697840
3912.525164,0.000000,-0.000000,9474.636058
3912.525479,306.438199,-0.000000,9548.656652
3912.525794,459.657299,296.082377,9400.615463
3912.526109,689.485948,148.041188,8956.491898
3912.526424,76.609550,-0.000000,9474.636058
3912.526738,229.828649,148.041188,9474.636058
3912.527053,306.438199,-0.000000,9474.636058
3912.527368,0.000000,-0.000000,9474.636058
3912.527683,153.219100,-0.000000,9844.739029
3912.527998,0.000000,-0.000000,9992.780217
3912.528313,229.828649,296.082377,9548.656652
3912.528628,536.266849,-0.000000,9770.718434
3912.528943,229.828649,444.123565,9918.759623
3912.529258,842.705048,-0.000000,9992.780217
3912.529573,153.219100,444.123565,9474.636058
3912.529888,306.438199,518.144159,9400.615463
3912.530202,689.485948,444.123565,9400.615463
3912.530517,306.438199,592.164754,9696.697840
3912.530832,229.828649,-0.000000,9548.656652
3912.531147,383.047749,518.144159,9474.636058
3912.531462,383.047749,592.164754,9474.636058
3912.531777,383.047749,-0.000000,9918.759623
3912.532092,76.609550,-0.000000,10288.862594
3912.532407,76.609550,-370.102971,10066.800811
3912.532722,153.219100,-296.082377,9548.656652
3912.533037,153.219100,-0.000000,9474.636058
3912.533352,306.438199,370.102971,9252.574275
3912.533666,689.485948,370.102971,9400.615463
3912.533981,536.266849,222.061783,9474.636058
3912.534296,459.657299,-0.000000,9474.636058
3912.534611,229.828649,-0.000000,9474.636058
3912.534926,-229.828649,296.082377,9474.636058
3912.535241,153.219100,-0.000000,9918.759623
3912.535556,0.000000,-0.000000,9992.780217
3912.535871,-229.828649,-0.000000,9844.739029
3912.536186,-383.047749,-444.123565,9992.780217
3912.536501,-229.828649,-370.102971,9770.718434
3912.536816,0.000000,-222.061783,9474.636058
3912.537130,0.000000,-0.000000,9548.656652
3912.537445,-229.828649,222.061783,9622.677246
3912.537760,229.828649,370.102971,9326.594869
3912.538075,612.876398,370.102971,9178.553681
3912.538390,306.438199,370.102971,9326.594869
3912.538705,459.657299,370.102971,9326.594869
3912.539020,0.000000,296.082377,9178.553681
3912.539335,-229.828649,-148.041188,9622.677246
3912.539650,-229.828649,-74.020594,9844.739029
3912.539965,0.000000,-518.144159,9696.697840
3912.540280,-459.657299,-0.000000,9844.739029
3912.540594,0.000000,74.020594,9770.718434
3912.540909,0.000000,296.082377,9844.739029
3912.541224,0.000000,222.061783,9770.718434
3912.541539,76.609550,444.123565,9696.697840
3912.541854,0.000000,592.164754,9548.656652
3912.542169,76.609550,962.267725,9030.512492
3912.542484,306.438199,592.164754,8956.491898
3912.542799,229.828649,592.164754,9622.677246
3912.543114,153.219100,370.102971,9770.718434
3912.543429,0.000000,-0.000000,9474.636058
3912.543744,0.000000,-148.041188,9918.759623
3912.544058,0.000000,-0.000000,9696.697840
3912.544373,0.000000,-0.000000,9844.739029
3912.544688,306.438199,-0.000000,9992.780217
3912.545003,0.000000,-0.000000,9918.759623
3912.545318,76.609550,-0.000000,9548.656652
3912.545633,153.219100,444.123565,9400.615463
3912.545948,306.438199,296.082377,9400.615463
3912.546263,536.266849,592.164754,9622.677246
3912.546578,536.266849,296.082377,9326.594869
3912.546893,383.047749,148.041188,9400.615463
3912.547208,536.266849,296.082377,9548.656652
3912.547522,0.000000,222.061783,9696.697840
3912.547837,459.657299,-0.000000,9548.656652
3912.548152,612.876398,-0.000000,9696.697840
3912.548467,153.219100,-74.020594,9696.697840
3912.548782,383.047749,-0.000000,9696.697840
3912.549097,0.000000,-0.000000,9770.718434
3912.549412,229.828649,-0.000000,9548.656652
3912.549727,459.657299,-0.000000,9474.636058
3912.550042,536.266849,222.061783,9474.636058
3912.550357,0.000000,148.041188,9548.656652
3912.550672,536.266849,-0.000000,9770.718434
3912.550986,229.828649,222.061783,9622.677246
3912.551301,459.657299,-0.000000,9770.718434
3912.551616,76.609550,-0.000000,9844.739029
3912.551931,229.828649,222.061783,9622.677246
3912.552246,153.219100,-0.000000,9696.697840
3912.552561,0.000000,-0.000000,9622.677246
3912.552876,153.219100,296.082377,9474.636058
3912.553191,76.609550,148.041188,9548.656652
3912.553506,76.609550,370.102971,9326.594869
3912.553821,0.000000,-0.000000,9696.697840
3912.554136,0.000000,-0.000000,9400.615463
3912.554450,0.000000,-74.020594,9326.594869
3912.554765,0.000000,-0.000000,9474.636058
3912.555080,0.000000,74.020594,9622.677246
3912.555395,0.000000,-74.020594,9252.574275
3912.555710,-306.438199,-148.041188,9548.656652
3912.556025,0.000000,-0.000000,9770.718434
3912.556340,229.828649,-0.000000,9252.574275
3912.556655,153.219100,-0.000000,9474.636058
3912.556970,383.047749,-0.000000,9548.656652
3912.557285,153.219100,-0.000000,9400.615463
3912.557600,229.828649,222.061783,9770.718434
3912.557914,153.219100,-74.020594,9548.656652
3912.558229,76.609550,-74.020594,9474.636058
3912.558544,0.000000,-148.041188,9474.636058
3912.558859,0.000000,-0.000000,9622.677246
3912.559174,0.000000,-74.020594,9548.656652
3912.559489,383.047749,-148.041188,9548.656652
3912.559804,306.438199,-74.020594,9696.697840
3912.560119,153.219100,-0.000000,9770.718434
3912.560434,153.219100,296.082377,9622.677246
3912.560749,536.266849,222.061783,9696.697840
3912.561064,383.047749,222.061783,9622.677246
3912.561378,536.266849,370.102971,9918.759623
3912.561693,76.609550,222.061783,9474.636058
3912.562008,306.438199,-0.000000,9548.656652
3912.562323,-459.657299,-148.041188,9992.780217
3912.562638,153.219100,-0.000000,9844.739029
3912.562953,0.000000,-222.061783,9696.697840
3912.563268,0.000000,-0.000000,9770.718434
3912.563583,306.438199,148.041188,9844.739029
3912.563898,383.047749,74.020594,9474.636058
3912.564213,383.047749,296.082377,9548.656652
3912.564528,76.609550,222.061783,9622.677246
3912.564842,153.219100,296.082377,9474.636058
3912.565157,842.705048,296.082377,9400.615463
3912.565472,0.000000,-0.000000,9474.636058
3912.565787,536.266849,740.205942,9548.656652
3912.566102,306.438199,370.102971,9474.636058
3912.566417,0.000000,-0.000000,9918.759623
3912.566732,76.609550,-0.000000,9992.780217
3912.567047,76.609550,-0.000000,9474.636058
3912.567362,229.828649,-0.000000,9622.677246
3912.567677,536.266849,296.082377,9844.739029
3912.567992,383.047749,148.041188,9696.697840
3912.568306,459.657299,-0.000000,9770.718434
3912.568621,842.705048,-0.000000,9770.718434
3912.568936,612.876398,-0.000000,9474.636058
3912.569251,536.266849,-148.041188,9326.594869
3912.569566,612.876398,-0.000000,9104.533087
3912.569881,306.438199,148.041188,9030.512492
3912.570196,76.609550,370.102971,9326.594869
3912.570511,0.000000,296.082377,9696.697840
3912.570826,-306.438199,222.061783,9770.718434
3912.571141,-536.266849,148.041188,9844.739029
3912.571456,-689.485948,-518.144159,9770.718434
3912.571770,-689.485948,-222.061783,10436.903782
3912.572085,-383.047749,-592.164754,10732.986159
3912.572400,0.000000,-0.000000,9992.780217
3912.572715,229.828649,222.061783,9770.718434
3912.573030,612.876398,444.123565,9178.553681
3912.573345,536.266849,962.267725,9104.533087
3912.573660,306.438199,740.205942,9030.512492
3912.573975,229.828649,888.247130,8956.491898
3912.574290,0.000000,814.226536,9326.594869
3912.574605,-612.876398,-0.000000,9252.574275
3912.574920,-689.485948,-444.123565,9918.759623
3912.575235,-383.047749,-518.144159,10214.842000
3912.575550,-1225.752797,-740.205942,10362.883188
3912.575865,-689.485948,-222.061783,10140.821405
3912.576180,-383.047749,-148.041188,10066.800811
3912.576495,-229.828649,222.061783,9474.636058
3912.576810,-153.219100,592.164754,9400.615463
3912.577125,0.000000,814.226536,9104.533087
3912.577440,76.609550,592.164754,9030.512492
3912.577755,536.266849,1036.288319,9252.574275
3912.578070,459.657299,666.185348,9326.594869
3912.578385,383.047749,592.164754,9770.718434
3912.578700,76.609550,-0.000000,9474.636058
3912.579015,0.000000,-0.000000,9844.739029
3912.579330,0.000000,-0.000000,9770.718434
3912.579645,0.000000,-0.000000,9992.780217
3912.579960,0.000000,-148.041188,9696.697840
3912.580275,0.000000,-0.000000,9548.656652
3912.580589,153.219100,-0.000000,9178.553681
3912.580904,229.828649,370.102971,9548.656652
3912.581219,766.095498,370.102971,9400.615463
3912.581534,536.266849,518.144159,9622.677246
3912.581849,536.266849,740.205942,9548.656652
3912.582164,153.219100,814.226536,9400.615463
3912.582479,689.485948,-0.000000,9622.677246
3912.582794,536.266849,296.082377,10214.842000
3912.583109,76.609550,370.102971,9770.718434
3912.583424,229.828649,-0.000000,9844.739029
3912.583739,306.438199,-74.020594,9918.759623
3912.584054,459.657299,592.164754,10066.800811
3912.584369,76.609550,-0.000000,9992.780217
3912.584684,153.219100,-0.000000,9696.697840
3912.584999,229.828649,370.102971,9696.697840
3912.585314,153.219100,222.061783,9474.636058
3912.585629,153.219100,370.102971,9474.636058
3912.585944,153.219100,-0.000000,9548.656652
3912.586259,153.219100,-0.000000,9474.636058
3912.586574,766.095498,-0.000000,9474.636058
3912.586889,153.219100,-0.000000,9474.636058
3912.587204,0.000000,-74.020594,9622.677246
3912.587519,76.609550,-0.000000,9696.697840
3912.587834,153.219100,-0.000000,9474.636058
3912.588149,-153.219100,-0.000000,9548.656652
3912.588464,153.219100,222.061783,9474.636058
3912.588779,0.000000,-0.000000,9400.615463
3912.589094,0.000000,-148.041188,9400.615463
3912.589409,0.000000,370.102971,9474.636058
3912.589724,0.000000,-74.020594,9326.594869
3912.590039,0.000000,-74.020594,9548.656652
3912.590354,0.000000,-148.041188,9474.636058
3912.590669,-306.438199,-296.082377,9474.636058
3912.590984,0.000000,-370.102971,9474.636058
3912.591299,76.609550,-74.020594,9474.636058
3912.591614,0.000000,-0.000000,9474.636058
3912.591929,306.438199,222.061783,9326.594869
3912.592244,459.657299,222.061783,9400.615463
3912.592559,76.609550,-0.000000,9474.636058
3912.592874,-229.828649,370.102971,9104.533087
3912.593189,76.609550,296.082377,9696.697840
3912.593504,0.000000,-0.000000,9918.759623
3912.593818,0.000000,-0.000000,9770.718434
3912.594133,0.000000,-0.000000,9992.780217
3912.594448,0.000000,-0.000000,9770.718434
3912.594763,0.000000,-148.041188,10066.800811
3912.595078,0.000000,-0.000000,9622.677246
3912.595393,0.000000,-74.020594,9400.615463
3912.595708,306.438199,592.164754,9918.759623
3912.596023,229.828649,370.102971,9326.594869
3912.596338,229.828649,518.144159,9474.636058
3912.596653,229.828649,-0.000000,9548.656652
3912.596968,0.000000,-0.000000,9548.656652
3912.597283,306.438199,370.102971,9474.636058
3912.597598,306.438199,-0.000000,9474.636058
3912.597913,229.828649,-0.000000,9696.697840
3912.598228,0.000000,-0.000000,9548.656652
3912.598543,153.219100,-0.000000,9548.656652
3912.598858,153.219100,-0.000000,9844.739029
3912.599173,-306.438199,444.123565,9770.718434
3912.599488,306.438199,148.041188,9622.677246
3912.599803,459.657299,518.144159,9548.656652
3912.600118,459.657299,296.082377,9252.574275
3912.600433,612.876398,444.123565,9252.574275
3912.600748,689.485948,518.144159,9400.615463
3912.601063,536.266849,296.082377,9252.574275
3912.601378,229.828649,370.102971,9474.636058
3912.601693,229.828649,-0.000000,9474.636058
3912.602008,689.485948,-148.041188,9696.697840
3912.602323,306.438199,-148.041188,9918.759623
3912.602638,229.828649,-148.041188,9992.780217
3912.602953,0.000000,-74.020594,9696.697840
3912.603268,229.828649,148.041188,9992.780217
3912.603583,0.000000,-0.000000,9622.677246
3912.603898,459.657299,222.061783,9400.615463
3912.604213,612.876398,222.061783,9622.677246
3912.604528,153.219100,296.082377,9400.615463
3912.604843,459.657299,370.102971,9474.636058
3912.605158,0.000000,-0.000000,9326.594869
3912.605473,0.000000,444.123565,9696.697840
3912.605788,0.000000,-0.000000,9474.636058
3912.606103,0.000000,222.061783,9696.697840
3912.606418,-766.095498,-296.082377,9992.780217
3912.606732,-229.828649,-0.000000,9918.759623
3912.607047,-229.828649,-0.000000,9474.636058
3912.607362,-229.828649,-148.041188,10066.800811
3912.607677,0.000000,-0.000000,9622.677246
3912.607992,383.047749,296.082377,9548.656652
3912.608307,0.000000,222.061783,9178.553681
3912.608622,459.657299,222.061783,9474.636058
3912.608937,0.000000,444.123565,9326.594869
3912.609252,0.000000,222.061783,9104.533087
3912.609567,229.828649,148.041188,9548.656652
3912.609882,0.000000,-0.000000,9474.636058
3912.610197,-383.047749,-0.000000,9770.718434
3912.610512,0.000000,-74.020594,9918.759623
3912.610827,-306.438199,-222.061783,9696.697840
3912.611142,-306.438199,-0.000000,9474.636058
3912.611457,-229.828649,-0.000000,9696.697840
3912.611772,0.000000,222.061783,9696.697840
3912.612087,76.609550,148.041188,9474.636058
3912.612402,229.828649,518.144159,9326.594869
3912.612717,0.000000,370.102971,9104.533087
3912.613032,229.828649,370.102971,9252.574275
3912.613347,306.438199,592.164754,9474.636058
3912.613662,229.828649,518.144159,9548.656652
3912.613977,153.219100,148.041188,9696.697840
3912.614292,0.000000,-0.000000,9326.594869
3912.614607,153.219100,-0.000000,9548.656652
3912.614922,0.000000,148.041188,10066.800811
3912.615237,-229.828649,-0.000000,9548.656652
3912.615552,306.438199,-0.000000,9696.697840
3912.615867,459.657299,148.041188,9548.656652
3912.616182,306.438199,296.082377,9696.697840
3912.616497,306.438199,592.164754,9696.697840
3912.616812,306.438199,444.123565,9548.656652
3912.617127,383.047749,518.144159,9622.677246
3912.617442,153.219100,148.041188,9474.636058
3912.617757,459.657299,444.123565,9474.636058
3912.618072,76.609550,296.082377,9622.677246
3912.618387,153.219100,-0.000000,9770.718434
3912.618702,306.438199,296.082377,9622.677246
3912.619017,76.609550,-148.041188,10066.800811
3912.619332,0.000000,-148.041188,9844.739029
3912.619647,229.828649,-0.000000,9992.780217
3912.619961,76.609550,148.041188,9696.697840
3912.620276,306.438199,-370.102971,9548.656652
3912.620591,306.438199,296.082377,9548.656652
3912.620906,536.266849,148.041188,9474.636058
3912.621221,536.266849,-0.000000,9474.636058
3912.621536,306.438199,-0.000000,9474.636058
3912.621851,306.438199,222.061783,9474.636058
3912.622166,76.609550,296.082377,9474.636058
3912.622481,306.438199,-0.000000,9622.677246
3912.622796,229.828649,-0.000000,9548.656652
3912.623111,0.000000,222.061783,9400.615463
3912.623426,76.609550,-0.000000,9104.533087
3912.623741,76.609550,148.041188,9622.677246
3912.624056,229.828649,-0.000000,9474.636058
3912.624371,76.609550,-0.000000,9622.677246
3912.624686,76.609550,-74.020594,9622.677246
3912.625001,153.219100,-296.082377,9104.533087
3912.625316,306.438199,-0.000000,9178.553681
3912.625631,229.828649,-0.000000,9696.697840
3912.625946,0.000000,-0.000000,9622.677246
3912.626261,76.609550,-0.000000,9548.656652
3912.626576,76.609550,296.082377,9844.739029
3912.626891,0.000000,-0.000000,9474.636058
3912.627206,0.000000,-0.000000,9622.677246
3912.627521,0.000000,-0.000000,9474.636058
3912.627836,536.266849,444.123565,10066.800811
3912.628151,-229.828649,-0.000000,9400.615463
3912.628466,0.000000,148.041188,9770.718434
3912.628781,0.000000,222.061783,9770.718434
3912.629096,0.000000,-0.000000,9918.759623
3912.629411,0.000000,-0.000000,9548.656652
3912.629726,0.000000,-0.000000,9770.718434
3912.630041,153.219100,-74.020594,9770.718434
3912.630356,153.219100,-74.020594,9622.677246
3912.630671,76.609550,-148.041188,9474.636058
3912.630986,-153.219100,-0.000000,9696.697840
3912.631301,0.000000,148.041188,9622.677246
3912.631616,0.000000,-0.000000,9844.739029
3912.631931,306.438199,370.102971,9030.512492
3912.632246,306.438199,-0.000000,9104.533087
3912.632561,0.000000,222.061783,9326.594869
3912.632876,0.000000,-74.020594,9400.615463
3912.633190,306.438199,-0.000000,9844.739029
3912.633505,153.219100,-74.020594,9622.677246
3912.633820,76.609550,-0.000000,9622.677246
3912.634135,0.000000,-0.000000,9400.615463
3912.634450,153.219100,-0.000000,9474.636058
3912.634765,229.828649,-0.000000,9548.656652
3912.635080,306.438199,222.061783,9474.636058
3912.635395,306.438199,222.061783,9696.697840
3912.635710,383.047749,-0.000000,9326.594869
3912.636025,229.828649,148.041188,9400.615463
3912.636340,383.047749,148.041188,9770.718434
3912.636655,0.000000,222.061783,9548.656652
3912.636970,153.219100,-0.000000,9992.780217
3912.637285,229.828649,-0.000000,9696.697840
3912.637600,0.000000,148.041188,9918.759623
3912.637915,0.000000,74.020594,9844.739029
3912.638230,459.657299,-0.000000,9696.697840
3912.638545,153.219100,-0.000000,9918.759623
3912.638860,383.047749,-0.000000,9696.697840
3912.639175,689.485948,148.041188,9918.759623
3912.639490,306.438199,296.082377,9474.636058
3912.639805,612.876398,222.061783,9326.594869
3912.640120,919.314598,-0.000000,9252.574275
3912.640435,766.095498,296.082377,8956.491898
3912.640750,383.047749,222.061783,9252.574275
3912.641065,229.828649,296.082377,9252.574275
3912.641380,-306.438199,444.123565,9326.594869
3912.641695,-766.095498,-74.020594,9622.677246
3912.642010,-689.485948,-74.020594,9918.759623
3912.642325,-536.266849,-592.164754,10362.883188
3912.642640,-536.266849,-740.205942,10214.842000
3912.642955,-229.828649,-222.061783,10214.842000
3912.643270,0.000000,-0.000000,9474.636058
3912.643585,536.266849,444.123565,9548.656652
3912.643900,612.876398,740.205942,9474.636058
3912.644215,766.095498,592.164754,8808.450710
3912.644530,76.609550,740.205942,8734.430116
3912.644845,0.000000,296.082377,8808.450710
3912.645160,-306.438199,296.082377,9178.553681
3912.645475,-306.438199,222.061783,9548.656652
3912.645790,-612.876398,-370.102971,10066.800811
3912.646104,-612.876398,-1110.308913,10807.006753
3912.646419,-536.266849,-962.267725,10066.800811
3912.646734,-612.876398,-370.102971,9770.718434
3912.647049,0.000000,-148.041188,9918.759623
3912.647364,0.000000,370.102971,9548.656652
3912.647679,153.219100,296.082377,9326.594869
3912.647994,76.609550,1036.288319,8956.491898
3912.648309,306.438199,1184.329507,9030.512492
3912.648624,536.266849,1036.288319,9252.574275
3912.648939,0.000000,962.267725,9696.697840
3912.649254,-153.219100,666.185348,9918.759623
3912.649569,0.000000,148.041188,9696.697840
3912.649884,0.000000,-0.000000,9918.759623
3912.650199,-306.438199,-148.041188,10214.842000
3912.650514,0.000000,-222.061783,9992.780217
3912.650829,-766.095498,-370.102971,9770.718434
3912.651144,-306.438199,-0.000000,9548.656652
3912.651459,153.219100,148.041188,9696.697840
3912.651774,459.657299,592.164754,9104.533087
3912.652089,306.438199,296.082377,9104.533087
3912.652404,383.047749,444.123565,9104.533087
3912.652719,459.657299,740.205942,9548.656652
3912.653034,153.219100,444.123565,9474.636058
3912.653349,153.219100,148.041188,9770.718434
3912.653664,0.000000,370.102971,9992.780217
3912.653979,689.485948,74.020594,9622.677246
3912.654294,306.438199,-222.061783,9844.739029
3912.654609,229.828649,148.041188,10510.924376
3912.654924,0.000000,-0.000000,9918.759623
3912.655239,229.828649,-0.000000,9770.718434
3912.655554,383.047749,-0.000000,9548.656652
3912.655869,536.266849,-0.000000,9252.574275
3912.656184,536.266849,296.082377,9548.656652
3912.656499,306.438199,148.041188,9548.656652
3912.656814,536.266849,-0.000000,9696.697840
3912.657129,229.828649,370.102971,8956.491898
3912.657444,229.828649,222.061783,9474.636058
3912.657759,0.000000,-0.000000,9622.677246
3912.658074,76.609550,-0.000000,10066.800811
3912.658389,0.000000,-0.000000,9770.718434
3912.658704,0.000000,-74.020594,9474.636058
3912.659019,0.000000,-0.000000,9622.677246
3912.659333,0.000000,518.144159,9548.656652
3912.659648,0.000000,370.102971,9622.677246
3912.659963,-306.438199,296.082377,9622.677246
3912.660278,0.000000,148.041188,9252.574275
3912.660593,-383.047749,148.041188,9474.636058
3912.660908,-383.047749,148.041188,9474.636058
3912.661223,-153.219100,-0.000000,9622.677246
3912.661538,-383.047749,-222.061783,9696.697840
3912.661853,0.000000,-148.041188,9770.718434
3912.662168,0.000000,-148.041188,9474.636058
3912.662483,0.000000,-0.000000,9474.636058
3912.662798,306.438199,-0.000000,9178.553681
3912.663113,-229.828649,148.041188,9474.636058
3912.663428,76.609550,-0.000000,9400.615463
3912.663743,76.609550,-0.000000,9474.636058
3912.664058,0.000000,-0.000000,9252.574275
3912.664373,0.000000,-0.000000,9474.636058
3912.664688,-153.219100,-74.020594,9400.615463
3912.665003,0.000000,-0.000000,9474.636058
3912.665318,76.609550,-74.020594,10140.821405
3912.665633,-229.828649,-296.082377,9992.780217
3912.665948,0.000000,-0.000000,9696.697840
3912.666263,0.000000,148.041188,9474.636058
3912.666578,459.657299,-0.000000,9400.615463
3912.666893,229.828649,518.144159,9622.677246
3912.667208,383.047749,296.082377,9474.636058
3912.667523,459.657299,222.061783,9548.656652
3912.667838,0.000000,296.082377,9400.615463
3912.668153,306.438199,222.061783,9400.615463
3912.668468,153.219100,370.102971,9770.718434
3912.668783,153.219100,148.041188,9770.718434
3912.669098,153.219100,148.041188,9844.739029
3912.669413,0.000000,-0.000000,9770.718434
3912.669728,0.000000,592.164754,10066.800811
3912.670043,76.609550,518.144159,10066.800811
3912.670358,76.609550,296.082377,9770.718434
3912.670673,306.438199,296.082377,9622.677246
3912.670988,0.000000,370.102971,9474.636058
3912.671303,459.657299,740.205942,9770.718434
3912.671618,383.047749,444.123565,9548.656652
3912.671933,306.438199,518.144159,9400.615463
3912.672248,306.438199,222.061783,9326.594869
3912.672562,76.609550,148.041188,9770.718434
3912.672877,76.609550,-444.123565,9918.759623
3912.673192,0.000000,74.020594,9992.780217
3912.673507,0.000000,-222.061783,9474.636058
3912.673822,0.000000,-0.000000,9622.677246
3912.674137,459.657299,-0.000000,9622.677246
3912.674452,306.438199,-0.000000,9474.636058
3912.674767,306.438199,-0.000000,9548.656652
3912.675082,536.266849,296.082377,9326.594869
3912.675397,689.485948,296.082377,8956.491898
3912.675712,612.876398,148.041188,8808.450710
3912.676027,229.828649,-0.000000,9770.718434
3912.676342,76.609550,222.061783,9918.759623
3912.676657,-306.438199,-0.000000,9548.656652
3912.676972,-306.438199,-296.082377,9622.677246
3912.677287,0.000000,-0.000000,9918.759623
3912.677601,0.000000,-222.061783,10066.800811
3912.677916,76.609550,-74.020594,9918.759623
3912.678231,0.000000,-0.000000,9992.780217
3912.678546,76.609550,-0.000000,9474.636058
3912.678861,229.828649,296.082377,9400.615463
3912.679176,766.095498,592.164754,9770.718434
3912.679491,383.047749,370.102971,9400.615463
3912.679806,229.828649,444.123565,9104.533087
3912.680121,0.000000,296.082377,9326.594869
3912.680436,383.047749,-222.061783,9770.718434
3912.680751,0.000000,-0.000000,9622.677246
3912.681066,-383.047749,-0.000000,9992.780217
3912.681381,-459.657299,-222.061783,9992.780217
3912.681696,-459.657299,-148.041188,9770.718434
3912.682010,0.000000,-222.061783,9770.718434
3912.682325,76.609550,444.123565,9844.739029
3912.682640,-229.828649,222.061783,9474.636058
3912.682955,-229.828649,370.102971,9400.615463
3912.683270,76.609550,666.185348,9326.594869
3912.683585,306.438199,370.102971,9474.636058
3912.683900,0.000000,518.144159,9548.656652
3912.684215,0.000000,370.102971,9252.574275
3912.684530,0.000000,222.061783,9326.594869
3912.684845,-306.438199,370.102971,9474.636058
3912.685160,0.000000,-74.020594,9844.739029
3912.685475,612.876398,-148.041188,9622.677246
3912.685790,0.000000,-0.000000,9548.656652
3912.686104,76.609550,296.082377,9474.636058
3912.686419,383.047749,518.144159,9474.636058
3912.686734,306.438199,-0.000000,9696.697840
3912.687049,459.657299,-0.000000,9622.677246
3912.687364,459.657299,222.061783,9326.594869
3912.687679,536.266849,592.164754,9474.636058
3912.687994,689.485948,518.144159,9622.677246
3912.688309,919.314598,222.061783,9844.739029
3912.688624,306.438199,-148.041188,9696.697840
3912.688939,612.876398,370.102971,9844.739029
3912.689254,153.219100,-0.000000,9548.656652
3912.689569,229.828649,148.041188,9844.739029
3912.689884,153.219100,-0.000000,10066.800811
3912.690199,306.438199,-0.000000,9844.739029
3912.690513,229.828649,-0.000000,9770.718434
3912.690828,0.000000,296.082377,9474.636058
3912.691143,153.219100,148.041188,9474.636058
3912.691458,0.000000,296.082377,9252.574275
3912.691773,536.266849,370.102971,9918.759623
3912.692088,383.047749,296.082377,9770.718434
3912.692403,383.047749,-0.000000,9400.615463
3912.692718,229.828649,-0.000000,9770.718434
3912.693033,0.000000,-0.000000,9474.636058
3912.693348,0.000000,-0.000000,9918.759623
3912.693663,76.609550,-0.000000,9622.677246
3912.693978,0.000000,-0.000000,9474.636058
3912.694293,0.000000,-148.041188,9548.656652
3912.694607,0.000000,-0.000000,9474.636058
3912.694922,229.828649,-0.000000,9326.594869
3912.695237,-229.828649,148.041188,9252.574275
3912.695552,-229.828649,-0.000000,9326.594869
3912.695867,0.000000,-74.020594,9252.574275
3912.696182,0.000000,-0.000000,9400.615463
3912.696497,76.609550,-0.000000,9474.636058
3912.696812,76.609550,-0.000000,9474.636058
3912.697127,0.000000,-0.000000,9474.636058
3912.697442,0.000000,-0.000000,9696.697840
3912.697757,76.609550,-74.020594,9622.677246
3912.698072,766.095498,-0.000000,9622.677246
3912.698387,229.828649,-0.000000,9474.636058
3912.698701,76.609550,-0.000000,9474.636058
3912.699016,0.000000,-0.000000,9696.697840
3912.699331,229.828649,222.061783,9622.677246
3912.699646,153.219100,370.102971,9992.780217
3912.699961,0.000000,-0.000000,9548.656652
3912.700276,0.000000,-74.020594,9696.697840
3912.700591,0.000000,-148.041188,9918.759623
3912.700906,0.000000,-0.000000,9844.739029
3912.701221,153.219100,-0.000000,9696.697840
3912.701536,153.219100,-0.000000,9474.636058
3912.701851,306.438199,296.082377,9918.759623
3912.702166,0.000000,592.164754,9622.677246
3912.702481,229.828649,-0.000000,9622.677246
3912.702796,229.828649,148.041188,9474.636058
3912.703110,0.000000,-0.000000,9548.656652
3912.703425,0.000000,222.061783,9770.718434
3912.703740,-153.219100,-0.000000,9696.697840
3912.704055,153.219100,-0.000000,9918.759623
3912.704370,76.609550,-0.000000,9696.697840
3912.704685,0.000000,-0.000000,9696.697840
3912.705000,229.828649,-74.020594,9474.636058
3912.705315,306.438199,148.041188,9622.677246
3912.705630,0.000000,-0.000000,9474.636058
3912.705945,76.609550,296.082377,9252.574275
3912.706260,153.219100,592.164754,9474.636058
3912.706575,383.047749,-0.000000,9474.636058
3912.706890,153.219100,-0.000000,9474.636058
3912.707204,383.047749,222.061783,9770.718434
3912.707519,306.438199,-0.000000,9770.718434
3912.707834,229.828649,296.082377,9622.677246
3912.708149,306.438199,-74.020594,9548.656652
3912.708464,0.000000,-148.041188,9918.759623
3912.708779,76.609550,-0.000000,9548.656652
3912.709094,229.828649,-0.000000,9770.718434
3912.709409,536.266849,-0.000000,9622.677246
3912.709724,766.095498,-0.000000,9696.697840
3912.710039,766.095498,222.061783,9622.677246
3912.710354,536.266849,-222.061783,9400.615463
3912.710669,995.924147,-0.000000,9104.533087
3912.710984,995.924147,444.123565,9104.533087
3912.711299,766.095498,148.041188,9326.594869
3912.711613,76.609550,370.102971,9622.677246
3912.711928,-306.438199,370.102971,9622.677246
3912.712243,-459.657299,148.041188,9400.615463
3912.712558,-766.095498,-74.020594,9918.759623
3912.712873,-766.095498,-370.102971,10362.883188
3912.713188,-383.047749,-222.061783,10584.944971
3912.713503,-229.828649,-592.164754,10214.842000
3912.713818,-383.047749,-0.000000,10214.842000
3912.714133,306.438199,370.102971,9918.759623
3912.714448,0.000000,666.185348,9252.574275
3912.714763,306.438199,814.226536,9104.533087
3912.715078,612.876398,740.205942,8660.409521
3912.715393,153.219100,666.185348,8512.368333
3912.715707,-229.828649,370.102971,9030.512492
3912.716022,0.000000,-0.000000,9474.636058
3912.716337,-459.657299,-148.041188,9622.677246
3912.716652,-536.266849,-740.205942,9622.677246
3912.716967,-766.095498,-666.185348,10066.800811
3912.717282,-689.485948,-444.123565,9918.759623
3912.717597,-536.266849,-222.061783,9844.739029
3912.717912,76.609550,148.041188,9474.636058
3912.718227,0.000000,740.205942,9252.574275
3912.718542,383.047749,1036.288319,8956.491898
3912.718857,536.266849,962.267725,8956.491898
3912.719172,459.657299,814.226536,9104.533087
3912.719487,612.876398,666.185348,9104.533087
3912.719802,689.485948,-0.000000,9030.512492
3912.720116,306.438199,-0.000000,9548.656652
3912.720431,76.609550,-0.000000,10214.842000
3912.720746,0.000000,-148.041188,10140.821405
3912.721061,-76.609550,-296.082377,9844.739029
3912.721376,0.000000,-0.000000,9992.780217
3912.721691,0.000000,370.102971,9918.759623
3912.722006,153.219100,222.061783,9474.636058
3912.722321,306.438199,518.144159,9622.677246
3912.722636,459.657299,518.144159,9252.574275
3912.722951,689.485948,370.102971,9178.553681
3912.723266,689.485948,666.185348,9474.636058
3912.723581,459.657299,518.144159,9770.718434
3912.723896,459.657299,370.102971,10066.800811
3912.724210,459.657299,370.102971,9770.718434
3912.724525,229.828649,-0.000000,9770.718434
3912.724840,76.609550,-0.000000,10140.821405
3912.725155,0.000000,-0.000000,9844.739029
3912.725470,0.000000,-74.020594,10288.862594
3912.725785,-229.828649,-0.000000,9918.759623
3912.726100,153.219100,-0.000000,9548.656652
3912.726415,76.609550,-0.000000,9474.636058
3912.726730,229.828649,-0.000000,9400.615463
3912.727045,153.219100,370.102971,9474.636058
3912.727360,0.000000,444.123565,9178.553681
3912.727675,76.609550,444.123565,9252.574275
3912.727990,383.047749,-0.000000,9326.594869
3912.728304,536.266849,-0.000000,9400.615463
3912.728619,459.657299,222.061783,9548.656652
3912.728934,-229.828649,-0.000000,9474.636058
3912.729249,0.000000,148.041188,9622.677246
3912.729564,306.438199,-0.000000,9252.574275
3912.729879,0.000000,-148.041188,9474.636058
3912.730194,0.000000,222.061783,9400.615463
3912.730509,0.000000,-0.000000,9548.656652
3912.730824,229.828649,-0.000000,9326.594869
3912.731139,0.000000,-0.000000,9474.636058
3912.731454,0.000000,370.102971,9474.636058
3912.731769,76.609550,-0.000000,9622.677246
3912.732084,229.828649,-74.020594,9844.739029
3912.732399,0.000000,-0.000000,9770.718434
3912.732713,306.438199,296.082377,9622.677246
3912.733028,0.000000,148.041188,9622.677246
3912.733343,383.047749,-0.000000,9548.656652
3912.733658,0.000000,222.061783,9400.615463
3912.733973,0.000000,222.061783,9400.615463
3912.734288,0.000000,296.082377,9844.739029
3912.734603,-229.828649,370.102971,10066.800811
3912.734918,0.000000,-0.000000,9548.656652
3912.735233,-229.828649,-0.000000,9548.656652
3912.735548,76.609550,-0.000000,9918.759623
3912.735863,0.000000,296.082377,9770.718434
3912.736178,0.000000,-0.000000,9844.739029
3912.736493,0.000000,-0.000000,10214.842000
3912.736807,0.000000,-0.000000,9548.656652
3912.737122,0.000000,148.041188,9400.615463
3912.737437,383.047749,-0.000000,9400.615463
3912.737752,229.828649,370.102971,9474.636058
3912.738067,0.000000,-0.000000,9104.533087
3912.738382,0.000000,370.102971,9400.615463
3912.738697,153.219100,370.102971,9474.636058
3912.739012,306.438199,-0.000000,9400.615463
3912.739327,229.828649,296.082377,9548.656652
3912.739642,306.438199,-0.000000,9844.739029
3912.739957,76.609550,-0.000000,9696.697840
3912.740272,153.219100,-0.000000,9548.656652
3912.740587,383.047749,-0.000000,9696.697840
3912.740902,536.266849,296.082377,9696.697840
3912.741216,459.657299,-0.000000,9474.636058
3912.741531,383.047749,370.102971,9474.636058
3912.741846,153.219100,222.061783,9548.656652
3912.742161,536.266849,518.144159,9474.636058
3912.742476,689.485948,296.082377,9326.594869
3912.742791,536.266849,370.102971,9400.615463
3912.743106,383.047749,-0.000000,9918.759623
3912.743421,0.000000,-0.000000,9548.656652
3912.743736,383.047749,-74.020594,9992.780217
3912.744051,153.219100,-222.061783,9844.739029
3912.744366,76.609550,148.041188,9548.656652
3912.744681,76.609550,296.082377,9622.677246
3912.744996,229.828649,-0.000000,9474.636058
3912.745310,689.485948,-0.000000,10066.800811
3912.745625,383.047749,148.041188,9474.636058
3912.745940,306.438199,222.061783,9326.594869
3912.746255,383.047749,370.102971,9474.636058
3912.746570,153.219100,370.102971,9474.636058
3912.746885,0.000000,222.061783,9844.739029
3912.747200,-153.219100,-0.000000,9844.739029
3912.747515,-153.219100,-0.000000,9992.780217
3912.747830,0.000000,-0.000000,9622.677246
3912.748145,-689.485948,-148.041188,9844.739029
3912.748460,0.000000,-0.000000,10288.862594
3912.748775,-536.266849,-222.061783,9548.656652
3912.749090,0.000000,370.102971,9474.636058
3912.749404,0.000000,148.041188,9474.636058
3912.749719,306.438199,370.102971,9400.615463
3912.750034,459.657299,-222.061783,9474.636058
3912.750349,306.438199,222.061783,9178.553681
3912.750664,0.000000,-0.000000,9104.533087
3912.750979,-229.828649,-74.020594,9104.533087
3912.751294,0.000000,-74.020594,9770.718434
3912.751609,-153.219100,-148.041188,10066.800811
3912.751924,-459.657299,-222.061783,9548.656652
3912.752239,-153.219100,-0.000000,9548.656652
3912.752554,-306.438199,-0.000000,9696.697840
3912.752869,0.000000,-0.000000,9844.739029
3912.753184,76.609550,222.061783,9548.656652
3912.753499,0.000000,592.164754,9178.553681
3912.753813,536.266849,518.144159,9474.636058
3912.754128,459.657299,370.102971,9326.594869
3912.754443,306.438199,592.164754,9474.636058
3912.754758,-229.828649,296.082377,9992.780217
3912.755073,0.000000,370.102971,9474.636058
3912.755388,0.000000,-0.000000,9474.636058
3912.755703,0.000000,-0.000000,9844.739029
3912.756018,0.000000,-74.020594,10362.883188
3912.756333,0.000000,-0.000000,9622.677246
3912.756648,-153.219100,-0.000000,9622.677246
3912.756963,153.219100,518.144159,9918.759623
3912.757278,383.047749,444.123565,9474.636058
3912.757593,459.657299,444.123565,9696.697840
3912.757907,383.047749,370.102971,9548.656652
3912.758222,383.047749,-0.000000,9474.636058
3912.758537,306.438199,370.102971,9326.594869
3912.758852,459.657299,296.082377,9548.656652
3912.759167,229.828649,370.102971,9770.718434
3912.759482,76.609550,296.082377,9474.636058
3912.759797,0.000000,222.061783,9474.636058
3912.760112,0.000000,296.082377,9622.677246
3912.760427,153.219100,296.082377,9696.697840
3912.760742,76.609550,518.144159,9696.697840
3912.761057,76.609550,-0.000000,9918.759623
3912.761372,0.000000,-0.000000,9622.677246
3912.761687,229.828649,-0.000000,9474.636058
3912.762002,306.438199,-0.000000,9474.636058
3912.762316,689.485948,-0.000000,9252.574275
3912.762631,229.828649,-0.000000,9030.512492
3912.762946,229.828649,222.061783,9400.615463
3912.763261,459.657299,370.102971,9400.615463
3912.763576,383.047749,148.041188,9548.656652
3912.763891,229.828649,-0.000000,9104.533087
3912.764206,-76.609550,370.102971,9178.553681
3912.764521,153.219100,-0.000000,9844.739029
3912.764836,76.609550,-0.000000,9918.759623
3912.765151,0.000000,-74.020594,9696.697840
3912.765466,306.438199,222.061783,9696.697840
3912.765781,0.000000,-0.000000,9622.677246
3912.766096,0.000000,-0.000000,9474.636058
3912.766410,-306.438199,296.082377,9622.677246
3912.766725,0.000000,-0.000000,9548.656652
3912.767040,229.828649,-0.000000,9474.636058
3912.767355,383.047749,-0.000000,9474.636058
3912.767670,153.219100,370.102971,9622.677246
3912.767985,0.000000,-0.000000,9918.759623
3912.768300,0.000000,-0.000000,9696.697840
3912.768615,-306.438199,-222.061783,9474.636058
3912.768930,0.000000,-148.041188,9548.656652
3912.769245,-229.828649,-0.000000,9474.636058
3912.769560,0.000000,-0.000000,9474.636058
3912.769875,0.000000,-0.000000,9696.697840
3912.770190,0.000000,-148.041188,9548.656652
3912.770505,76.609550,518.144159,9474.636058
3912.770819,0.000000,-0.000000,9400.615463
3912.771134,229.828649,-0.000000,9548.656652
3912.771449,76.609550,-0.000000,9474.636058
3912.771764,612.876398,-0.000000,9770.718434
3912.772079,229.828649,-0.000000,10436.903782
3912.772394,76.609550,-0.000000,9474.636058
3912.772709,0.000000,-0.000000,9178.553681
3912.773024,76.609550,-0.000000,9548.656652
3912.773339,-459.657299,222.061783,9474.636058
3912.773654,76.609550,74.020594,9548.656652
3912.773969,76.609550,-0.000000,9474.636058
3912.774284,459.657299,-74.020594,9696.697840
3912.774599,0.000000,-0.000000,9474.636058
3912.774913,459.657299,-74.020594,9252.574275
3912.775228,306.438199,-0.000000,9696.697840
3912.775543,306.438199,-0.000000,9844.739029
3912.775858,306.438199,222.061783,9696.697840
3912.776173,766.095498,222.061783,9474.636058
3912.776488,689.485948,-0.000000,9844.739029
3912.776803,76.609550,296.082377,9622.677246
3912.777118,0.000000,148.041188,9622.677246
3912.777433,229.828649,518.144159,9770.718434
3912.777748,76.609550,222.061783,9474.636058
3912.778063,306.438199,-0.000000,9548.656652
3912.778378,153.219100,-0.000000,9696.697840
3912.778693,306.438199,148.041188,10066.800811
3912.779008,0.000000,-0.000000,9770.718434
3912.779322,459.657299,-0.000000,9252.574275
3912.779637,383.047749,-148.041188,9918.759623
3912.779952,153.219100,296.082377,9918.759623
3912.780267,383.047749,518.144159,9844.739029
3912.780582,306.438199,-0.000000,9918.759623
3912.780897,459.657299,-0.000000,9474.636058
3912.781212,612.876398,-0.000000,9326.594869
3912.781527,612.876398,222.061783,9104.533087
3912.781842,536.266849,-0.000000,9474.636058
3912.782157,306.438199,74.020594,9030.512492
3912.782472,76.609550,-0.000000,9104.533087
3912.782787,0.000000,222.061783,9548.656652
3912.783102,-536.266849,-0.000000,9474.636058
3912.783416,-612.876398,-222.061783,9400.615463
3912.783731,-842.705048,-444.123565,9770.718434
3912.784046,-306.438199,-740.205942,10140.821405
3912.784361,-306.438199,-592.164754,10140.821405
3912.784676,-153.219100,-148.041188,9770.718434
3912.784991,306.438199,148.041188,9622.677246
3912.785306,612.876398,814.226536,9252.574275
3912.785621,689.485948,1036.288319,8586.388927
3912.785936,229.828649,1036.288319,8586.388927
3912.786251,229.828649,740.205942,9326.594869
3912.786566,153.219100,296.082377,9252.574275
3912.786881,-536.266849,-0.000000,9622.677246
3912.787196,0.000000,-222.061783,10066.800811
3912.787511,-612.876398,-370.102971,10288.862594
3912.787825,-766.095498,-444.123565,10362.883188
3912.788140,-459.657299,-518.144159,10140.821405
3912.788455,-536.266849,-0.000000,9622.677246
3912.788770,-383.047749,148.041188,9400.615463
3912.789085,76.609550,814.226536,9326.594869
3912.789400,383.047749,962.267725,8956.491898
3912.789715,383.047749,1110.308913,9030.512492
3912.790030,383.047749,740.205942,9104.533087
3912.790345,306.438199,666.185348,9548.656652
3912.790660,306.438199,518.144159,9770.718434
3912.790975,0.000000,222.061783,9918.759623
3912.791290,0.000000,-74.020594,10436.903782
3912.791605,76.609550,-518.144159,10362.883188
3912.791920,-306.438199,-0.000000,10288.862594
3912.792234,-153.219100,-0.000000,9696.697840
3912.792549,0.000000,-148.041188,9770.718434
3912.792864,76.609550,296.082377,9474.636058
3912.793179,383.047749,444.123565,9474.636058
3912.793494,383.047749,444.123565,9474.636058
3912.793809,612.876398,666.185348,9326.594869
3912.794124,459.657299,666.185348,9252.574275
3912.794439,612.876398,518.144159,9474.636058
3912.794754,0.000000,296.082377,9622.677246
3912.795069,383.047749,370.102971,9474.636058
3912.795384,306.438199,-0.000000,9696.697840
3912.795699,383.047749,-0.000000,9918.759623
3912.796014,76.609550,148.041188,9844.739029
3912.796328,612.876398,-0.000000,9992.780217
3912.796643,229.828649,-0.000000,9770.718434
3912.796958,229.828649,-74.020594,9844.739029
3912.797273,383.047749,222.061783,9696.697840
3912.797588,229.828649,370.102971,9474.636058
3912.797903,306.438199,222.061783,9474.636058
3912.798218,612.876398,370.102971,9548.656652
3912.798533,306.438199,222.061783,9474.636058
3912.798848,229.828649,-0.000000,9696.697840
3912.799163,229.828649,-0.000000,9548.656652
3912.799478,0.000000,-74.020594,9696.697840
3912.799793,0.000000,-0.000000,9770.718434
3912.800108,76.609550,-0.000000,10140.821405
3912.800423,-229.828649,-0.000000,9918.759623
3912.800737,153.219100,-0.000000,9696.697840
3912.801052,0.000000,-0.000000,9474.636058
3912.801367,0.000000,296.082377,9252.574275
3912.801682,0.000000,296.082377,9030.512492
3912.801997,0.000000,148.041188,9474.636058
3912.802312,229.828649,-74.020594,9770.718434
3912.802627,-229.828649,-0.000000,9474.636058
3912.802942,-459.657299,-0.000000,9622.677246
3912.803257,0.000000,-296.082377,9770.718434
3912.803572,0.000000,-0.000000,9696.697840
3912.803887,-536.266849,-222.061783,9622.677246
3912.804202,0.000000,-74.020594,9474.636058
3912.804517,0.000000,-0.000000,9474.636058
3912.804831,0.000000,222.061783,9104.533087
3912.805146,-459.657299,148.041188,9400.615463
3912.805461,0.000000,-0.000000,9326.594869
3912.805776,0.000000,-0.000000,9252.574275
3912.806091,0.000000,-0.000000,9474.636058
3912.806406,0.000000,-148.041188,9622.677246
3912.806721,76.609550,-0.000000,9918.759623
3912.807036,76.609550,148.041188,9622.677246
3912.807351,0.000000,-148.041188,9696.697840
3912.807666,76.609550,-0.000000,9548.656652
3912.807981,306.438199,148.041188,9622.677246
3912.808296,153.219100,370.102971,9474.636058
3912.808611,383.047749,296.082377,9474.636058
3912.808926,229.828649,370.102971,9474.636058
3912.809240,153.219100,222.061783,9622.677246
3912.809555,306.438199,-0.000000,9844.739029
3912.809870,0.000000,-0.000000,9474.636058
3912.810185,0.000000,-0.000000,9548.656652
3912.810500,0.000000,-148.041188,9622.677246
3912.810815,0.000000,148.041188,9844.739029
3912.811130,0.000000,-148.041188,9918.759623
3912.811445,0.000000,222.061783,9252.574275
3912.811760,76.609550,444.123565,9844.739029
3912.812075,612.876398,518.144159,9622.677246
3912.812390,459.657299,370.102971,9474.636058
3912.812705,153.219100,592.164754,9400.615463
3912.813020,229.828649,148.041188,9696.697840
3912.813335,536.266849,370.102971,9622.677246
3912.813649,153.219100,370.102971,9474.636058
3912.813964,229.828649,-0.000000,9548.656652
3912.814279,76.609550,296.082377,10140.821405
3912.814594,153.219100,-0.000000,9696.697840
3912.814909,153.219100,-74.020594,9696.697840
3912.815224,229.828649,-0.000000,9844.739029
3912.815539,612.876398,296.082377,9992.780217
3912.815854,766.095498,-0.000000,9400.615463
3912.816169,536.266849,296.082377,9252.574275
3912.816484,306.438199,296.082377,9400.615463
3912.816799,689.485948,370.102971,9252.574275
3912.817114,612.876398,444.123565,9400.615463
3912.817429,76.609550,444.123565,9770.718434
3912.817743,383.047749,592.164754,9326.594869
3912.818058,76.609550,-0.000000,9326.594869
3912.818373,0.000000,-0.000000,9770.718434
3912.818688,-306.438199,-148.041188,10066.800811
3912.819003,-306.438199,-148.041188,10066.800811
3912.819318,-459.657299,-0.000000,9622.677246
3912.819633,-229.828649,-0.000000,9918.759623
3912.819948,0.000000,-0.000000,9622.677246
3912.820263,76.609550,222.061783,9548.656652
3912.820578,0.000000,222.061783,9252.574275
3912.820893,0.000000,370.102971,9400.615463
3912.821208,76.609550,444.123565,9178.553681
3912.821523,153.219100,296.082377,9400.615463
3912.821838,0.000000,518.144159,9622.677246
3912.822152,-306.438199,222.061783,9696.697840
3912.822467,-153.219100,-222.061783,9474.636058
3912.822782,0.000000,-370.102971,9918.759623
3912.823097,-306.438199,-148.041188,9992.780217
3912.823412,-306.438199,-740.205942,9474.636058
3912.823727,0.000000,-444.123565,10288.862594
3912.824042,0.000000,296.082377,9844.739029
3912.824357,153.219100,370.102971,9400.615463
3912.824672,383.047749,444.123565,9474.636058
3912.824987,306.438199,370.102971,9548.656652
3912.825302,306.438199,592.164754,9400.615463
3912.825617,229.828649,370.102971,9252.574275
3912.825932,229.828649,222.061783,9474.636058
3912.826247,0.000000,296.082377,9992.780217
3912.826561,-459.657299,-0.000000,9548.656652
3912.826876,0.000000,-222.061783,9548.656652
3912.827191,-306.438199,-222.061783,9770.718434
3912.827506,-153.219100,-0.000000,9696.697840
3912.827821,153.219100,-0.000000,9622.677246
3912.828136,383.047749,-0.000000,9474.636058
3912.828451,383.047749,370.102971,9548.656652
3912.828766,229.828649,444.123565,9326.594869
3912.829081,536.266849,592.164754,9400.615463
3912.829396,459.657299,666.185348,9918.759623
3912.829711,306.438199,444.123565,9770.718434
3912.830026,153.219100,296.082377,9696.697840
3912.830341,383.047749,518.144159,9696.697840
3912.830655,459.657299,-0.000000,9844.739029
3912.830970,383.047749,222.061783,9844.739029
3912.831285,229.828649,-0.000000,10066.800811
3912.831600,153.219100,-0.000000,9844.739029
3912.831915,153.219100,-0.000000,9474.636058
3912.832230,383.047749,-0.000000,9548.656652
3912.832545,306.438199,-148.041188,9622.677246
3912.832860,0.000000,444.123565,9622.677246
3912.833175,153.219100,-0.000000,9400.615463
3912.833490,306.438199,-0.000000,9548.656652
3912.833805,306.438199,-0.000000,9770.718434
3912.834120,0.000000,222.061783,9474.636058
3912.834435,0.000000,-0.000000,9548.656652
3912.834750,153.219100,-0.000000,9844.739029
3912.835064,0.000000,-0.000000,9400.615463
3912.835379,153.219100,-0.000000,9622.677246
3912.835694,306.438199,-0.000000,9326.594869
3912.836009,0.000000,-0.000000,9548.656652
3912.836324,0.000000,-370.102971,9548.656652
3912.836639,0.000000,-0.000000,9548.656652
3912.836954,-153.219100,-0.000000,9696.697840
3912.837269,-306.438199,-0.000000,9548.656652
3912.837584,-229.828649,-74.020594,9326.594869
3912.837899,0.000000,-0.000000,9474.636058
3912.838214,0.000000,-74.020594,9400.615463
3912.838529,0.000000,-0.000000,9696.697840
3912.838844,153.219100,370.102971,9696.697840
3912.839158,0.000000,370.102971,9770.718434
3912.839473,0.000000,296.082377,9178.553681
3912.839788,0.000000,-0.000000,9400.615463
3912.840103,76.609550,-0.000000,9622.677246
