#time,accel_x,accel_y,accel_z
4147.475251,76.609550,222.061783,9622.677246
4147.475566,76.609550,-0.000000,9992.780217
4147.475882,536.266849,-0.000000,9622.677246
4147.476197,0.000000,-0.000000,9474.636058
4147.476513,229.828649,-0.000000,9400.615463
4147.476828,0.000000,148.041188,9622.677246
4147.477144,689.485948,296.082377,9918.759623
4147.477459,0.000000,-0.000000,9548.656652
4147.477775,76.609550,444.123565,9548.656652
4147.478090,459.657299,-0.000000,9474.636058
4147.478406,0.000000,370.102971,9696.697840
4147.478721,-153.219100,-0.000000,9770.718434
4147.479037,0.000000,148.041188,9770.718434
4147.479352,229.828649,-0.000000,9474.636058
4147.479667,0.000000,-0.000000,8956.491898
4147.479983,153.219100,296.082377,9474.636058
4147.480298,0.000000,296.082377,9992.780217
4147.480614,0.000000,222.061783,9622.677246
4147.480929,76.609550,-0.000000,9178.553681
4147.481245,153.219100,-0.000000,9474.636058
4147.481560,153.219100,148.041188,9474.636058
4147.481876,0.000000,222.061783,9400.615463
4147.482191,0.000000,148.041188,9474.636058
4147.482507,229.828649,-0.000000,9844.739029
4147.482822,612.876398,-0.000000,9400.615463
4147.483137,459.657299,-0.000000,9252.574275
4147.483453,0.000000,-0.000000,9770.718434
4147.483768,153.219100,-0.000000,9474.636058
4147.484084,76.609550,-0.000000,9474.636058
4147.484399,229.828649,296.082377,9696.697840
4147.484715,0.000000,370.102971,10140.821405
4147.485030,0.000000,-0.000000,9622.677246
4147.485346,306.438199,-0.000000,9474.636058
4147.485661,383.047749,222.061783,9696.697840
4147.485977,76.609550,148.041188,9474.636058
4147.486292,76.609550,-0.000000,9918.759623
4147.486607,76.609550,222.061783,9622.677246
4147.486923,76.609550,-0.000000,9844.739029
4147.487238,0.000000,296.082377,9474.636058
4147.487554,306.438199,-0.000000,9770.718434
4147.487869,306.438199,-74.020594,9696.697840
4147.488185,0.000000,74.020594,9696.697840
4147.488500,-229.828649,296.082377,9696.697840
4147.488816,229.828649,370.102971,9770.718434
4147.489131,306.438199,518.144159,9252.574275
4147.489447,76.609550,296.082377,9696.697840
4147.489762,0.000000,-0.000000,9696.697840
4147.490077,76.609550,-0.000000,9474.636058
4147.490393,153.219100,-0.000000,9474.636058
4147.490708,229.828649,-0.000000,9252.574275
4147.491024,536.266849,-0.000000,10214.842000
4147.491339,306.438199,296.082377,9474.636058
4147.491655,306.438199,370.102971,9474.636058
4147.491970,0.000000,-0.000000,9400.615463
4147.492286,0.000000,-0.000000,9326.594869
4147.492601,0.000000,222.061783,9474.636058
4147.492917,0.000000,-0.000000,9474.636058
4147.493232,0.000000,-0.000000,9918.759623
4147.493548,0.000000,148.041188,9104.533087
4147.493863,0.000000,222.061783,9252.574275
4147.494178,306.438199,-74.020594,9696.697840
4147.494494,0.000000,222.061783,9622.677246
4147.494809,0.000000,-0.000000,9696.697840
4147.495125,76.609550,-0.000000,9696.697840
4147.495440,306.438199,-0.000000,9770.718434
4147.495756,0.000000,296.082377,9474.636058
4147.496071,0.000000,296.082377,9474.636058
4147.496387,0.000000,-0.000000,9474.636058
4147.496702,0.000000,370.102971,9474.636058
4147.497018,0.000000,-0.000000,9844.739029
4147.497333,0.000000,444.123565,9622.677246
4147.497648,-536.266849,518.144159,9622.677246
4147.497964,-229.828649,-0.000000,9474.636058
4147.498279,-766.095498,370.102971,9844.739029
4147.498595,-459.657299,370.102971,10140.821405
4147.498910,-612.876398,444.123565,9696.697840
4147.499226,-919.314598,740.205942,9770.718434
4147.499541,-383.047749,740.205942,9622.677246
4147.499857,-459.657299,370.102971,9696.697840
4147.500172,-689.485948,666.185348,9474.636058
4147.500488,-689.485948,962.267725,9178.553681
4147.500803,-919.314598,814.226536,9030.512492
4147.501118,-383.047749,1184.329507,8882.471304
4147.501434,-1072.533697,1406.391290,8734.430116
4147.501749,-1838.629195,1184.329507,9326.594869
4147.502065,-1915.238745,1332.370696,8956.491898
4147.502380,-2374.896044,1110.308913,9326.594869
4147.502696,-2604.724693,1258.350101,9252.574275
4147.503011,-2911.162892,1184.329507,9326.594869
4147.503327,-3140.991542,1628.453072,10066.800811
4147.503642,-3140.991542,1776.494261,10214.842000
4147.503958,-2834.553343,1850.514855,9474.636058
4147.504273,-2911.162892,1998.556043,9548.656652
4147.504588,-2681.334243,2368.659014,9474.636058
4147.504904,-2834.553343,2368.659014,9474.636058
4147.505219,-2757.943793,2516.700203,9474.636058
4147.505535,-2451.505594,2960.823768,9178.553681
4147.505850,-2528.115143,3108.864956,9326.594869
4147.506166,-2374.896044,2886.803174,9770.718434
4147.506481,-2528.115143,2812.782580,9918.759623
4147.506797,-1991.848295,2516.700203,10140.821405
4147.507112,-2221.676944,2294.638420,10140.821405
4147.507428,-2298.286494,2146.597232,10362.883188
4147.507743,-1762.019645,2220.617826,10214.842000
4147.508059,-1225.752797,2664.741391,9622.677246
4147.508374,-1149.143247,2960.823768,9252.574275
4147.508689,-919.314598,3627.009116,8364.327145
4147.509005,-919.314598,4219.173869,8660.409521
4147.509320,-1149.143247,3923.091493,9474.636058
4147.509636,-1302.362347,4071.132681,9178.553681
4147.509951,-1915.238745,3330.926739,9252.574275
4147.510267,-2221.676944,3034.844362,10140.821405
4147.510582,-2604.724693,2664.741391,10732.986159
4147.510898,-2911.162892,2442.679609,11251.130318
4147.511213,-2451.505594,2368.659014,11547.212695
4147.511529,-2681.334243,2960.823768,11251.130318
4147.511844,-2145.067394,3627.009116,10362.883188
4147.512159,-1762.019645,4367.215058,9548.656652
4147.512475,-1302.362347,4589.276840,9474.636058
4147.512790,-1455.581446,4515.256246,9030.512492
4147.513106,-1378.971896,4515.256246,8512.368333
4147.513421,-1838.629195,3997.112087,8586.388927
4147.513737,-2298.286494,3256.906145,9474.636058
4147.514052,-2374.896044,2812.782580,10066.800811
4147.514368,-2451.505594,1850.514855,10807.006753
4147.514683,-2374.896044,1850.514855,11399.171507
4147.514999,-2221.676944,1628.453072,11251.130318
4147.515314,-1838.629195,1702.473667,10955.047942
4147.515629,-459.657299,2146.597232,10658.965565
4147.515945,-459.657299,2368.659014,9696.697840
4147.516260,306.438199,2812.782580,9104.533087
4147.516576,842.705048,3404.947333,8364.327145
4147.516891,842.705048,3701.029710,7772.162391
4147.517207,-229.828649,3849.070898,7402.059420
4147.517522,-842.705048,3478.967927,7624.121203
4147.517838,-1762.019645,2590.720797,8586.388927
4147.518153,-2451.505594,1924.535449,8956.491898
4147.518469,-3983.696590,1258.350101,9918.759623
4147.518784,-4519.963438,444.123565,11103.089130
4147.519099,-4673.182538,-0.000000,11769.274478
4147.519415,-4673.182538,-0.000000,10732.986159
4147.519730,-3907.087040,296.082377,11695.253884
4147.520046,-3140.991542,814.226536,11399.171507
4147.520361,-2068.457845,1332.370696,11029.068536
4147.520677,-766.095498,2442.679609,9474.636058
4147.520992,306.438199,2960.823768,9178.553681
4147.521308,766.095498,3701.029710,8438.347739
4147.521623,766.095498,3256.906145,8512.368333
4147.521939,0.000000,2368.659014,7772.162391
4147.522254,-842.705048,2220.617826,7550.100608
4147.522570,-1378.971896,1924.535449,7402.059420
4147.522885,-2911.162892,666.185348,7920.203579
4147.523200,-3830.477490,-222.061783,9178.553681
4147.523516,-5439.278036,-962.267725,10214.842000
4147.523831,-5669.106685,-1628.453072,11029.068536
4147.524147,-5669.106685,-1554.432478,10362.883188
4147.524462,-5056.230287,-1184.329507,11843.295072
4147.524778,-3907.087040,-370.102971,12213.398043
4147.525093,-2298.286494,-0.000000,11695.253884
4147.525409,459.657299,1628.453072,9992.780217
4147.525724,1838.629195,3034.844362,8808.450710
4147.526040,1838.629195,5033.400406,7402.059420
4147.526355,2604.724693,6069.688724,6513.812290
4147.526670,2221.676944,6587.832884,4885.359217
4147.526986,1225.752797,5921.647536,5477.523971
4147.527301,-1225.752797,4663.297435,5995.668130
4147.527617,-3677.258390,1998.556043,8438.347739
4147.527932,-5745.716235,-1110.308913,10955.047942
4147.528248,-6818.249932,-3404.947333,13323.706956
4147.528563,-7584.345430,-3923.091493,13693.809927
4147.528879,-7048.078582,-4515.256246,15248.242405
4147.529194,-5056.230287,-2368.659014,13545.768739
4147.529510,-3447.429741,-74.020594,11621.233289
4147.529825,0.000000,3923.091493,8808.450710
4147.530140,2068.457845,6513.812290,6365.771101
4147.530456,3140.991542,9400.615463,4737.318029
4147.530771,3370.820191,10214.842000,3849.070898
4147.531087,1532.190996,9252.574275,5033.400406
4147.531402,383.047749,6809.894666,7402.059420
4147.531718,-1455.581446,3552.988522,10658.965565
4147.532033,-3447.429741,-888.247130,13101.645173
4147.532349,-5362.668486,-3478.967927,15470.304188
4147.532664,-5286.058936,-3256.906145,15914.427753
4147.532980,-4979.620737,-3330.926739,14063.912898
4147.533295,-4060.306139,-1110.308913,11473.192101
4147.533610,-2374.896044,2072.576638,10140.821405
4147.533926,-1378.971896,4737.318029,7772.162391
4147.534241,153.219100,6587.832884,4737.318029
4147.534557,1072.533697,7550.100608,4589.276840
4147.534872,536.266849,7402.059420,5107.421000
4147.535188,-689.485948,5255.462188,7846.182985
4147.535503,-1532.190996,3256.906145,9326.594869
4147.535819,-1072.533697,1998.556043,10955.047942
4147.536134,-1608.800546,666.185348,12139.377449
4147.536450,-2145.067394,148.041188,13101.645173
4147.536765,-2834.553343,370.102971,13175.665768
4147.537081,-3294.210641,740.205942,13175.665768
4147.537396,-2681.334243,2368.659014,11103.089130
4147.537711,-2681.334243,3404.947333,9474.636058
4147.538027,-2451.505594,3627.009116,8438.347739
4147.538342,-1532.190996,3108.864956,7846.182985
4147.538658,-766.095498,3182.885551,7105.977043
4147.538973,-383.047749,3478.967927,7254.018232
4147.539289,-766.095498,3330.926739,9030.512492
4147.539604,-766.095498,2146.597232,10510.924376
4147.539920,-536.266849,1850.514855,11547.212695
4147.540235,-536.266849,518.144159,11843.295072
4147.540551,-766.095498,-518.144159,11843.295072
4147.540866,-229.828649,-888.247130,11029.068536
4147.541181,0.000000,-0.000000,9770.718434
4147.541497,-229.828649,1850.514855,9104.533087
4147.541812,-153.219100,3404.947333,7476.080014
4147.542128,0.000000,4071.132681,7105.977043
4147.542443,-229.828649,3775.050304,7846.182985
4147.542759,-1608.800546,2294.638420,8808.450710
4147.543074,-1762.019645,-222.061783,10288.862594
4147.543389,-1532.190996,-1332.370696,10955.047942
4147.543705,-1072.533697,-2294.638420,11473.192101
4147.544020,-689.485948,-1850.514855,11695.253884
4147.544335,0.000000,-1850.514855,12065.356855
4147.544651,689.485948,-962.267725,11547.212695
4147.544966,1225.752797,740.205942,9992.780217
4147.545282,1225.752797,1924.535449,9030.512492
4147.545597,1991.848295,2146.597232,7624.121203
4147.545912,2451.505594,1998.556043,6735.874072
4147.546228,1532.190996,1258.350101,6809.894666
4147.546543,306.438199,-0.000000,7920.203579
4147.546858,-153.219100,-592.164754,8882.471304
4147.547174,-995.924147,-1776.494261,9918.759623
4147.547489,-1532.190996,-2590.720797,10955.047942
4147.547804,-1378.971896,-3627.009116,11769.274478
4147.548120,-766.095498,-3775.050304,11621.233289
4147.548435,-306.438199,-3552.988522,11251.130318
4147.548750,-689.485948,-1850.514855,10066.800811
4147.549066,0.000000,-296.082377,9844.739029
4147.549381,306.438199,1258.350101,8216.285956
4147.549696,612.876398,2072.576638,7031.956449
4147.550012,919.314598,1554.432478,6957.935855
4147.550327,1149.143247,444.123565,7105.977043
4147.550642,689.485948,-0.000000,7550.100608
4147.550958,-689.485948,-1110.308913,9474.636058
4147.551273,-1378.971896,-1924.535449,11029.068536
4147.551588,-2681.334243,-1776.494261,12139.377449
4147.551904,-2604.724693,-2664.741391,12361.439231
4147.552219,-1608.800546,-3552.988522,12213.398043
4147.552535,-459.657299,-3108.864956,11325.150913
4147.552850,153.219100,-2146.597232,9474.636058
4147.553165,459.657299,-0.000000,8216.285956
4147.553481,842.705048,1406.391290,7328.038826
4147.553796,995.924147,2516.700203,7328.038826
4147.554111,766.095498,2886.803174,6217.729913
4147.554427,995.924147,1628.453072,6809.894666
4147.554742,1225.752797,-222.061783,8290.306550
4147.555057,842.705048,-888.247130,8808.450710
4147.555373,536.266849,-2368.659014,9992.780217
4147.555688,0.000000,-2368.659014,11843.295072
4147.556003,-995.924147,-1406.391290,11843.295072
4147.556319,-1149.143247,-1110.308913,11991.336260
4147.556634,-612.876398,148.041188,10510.924376
4147.556949,153.219100,740.205942,9326.594869
4147.557265,1685.410096,1184.329507,7920.203579
4147.557580,1532.190996,2146.597232,6957.935855
4147.557895,1455.581446,2368.659014,7179.997637
4147.558211,1378.971896,2146.597232,8216.285956
4147.558526,689.485948,1776.494261,9474.636058
4147.558841,229.828649,518.144159,10510.924376
4147.559157,76.609550,-296.082377,10732.986159
4147.559472,612.876398,-814.226536,11695.253884
4147.559788,612.876398,-1110.308913,11695.253884
4147.560103,383.047749,-222.061783,11325.150913
4147.560418,0.000000,666.185348,10732.986159
4147.560734,0.000000,1554.432478,10140.821405
4147.561049,306.438199,1998.556043,9252.574275
4147.561364,919.314598,1924.535449,8660.409521
4147.561680,1302.362347,1628.453072,8216.285956
4147.561995,1225.752797,1628.453072,8290.306550
4147.562310,766.095498,1554.432478,9326.594869
4147.562626,76.609550,962.267725,10658.965565
4147.562941,-689.485948,370.102971,11843.295072
4147.563256,-1302.362347,-74.020594,12361.439231
4147.563572,-1149.143247,-370.102971,11991.336260
4147.563887,-536.266849,-740.205942,11251.130318
4147.564202,153.219100,-296.082377,10658.965565
4147.564518,153.219100,740.205942,9548.656652
4147.564833,153.219100,2072.576638,9030.512492
4147.565148,306.438199,2738.761985,8438.347739
4147.565464,536.266849,3108.864956,8290.306550
4147.565779,612.876398,2294.638420,8290.306550
4147.566094,0.000000,666.185348,9400.615463
4147.566410,0.000000,-0.000000,9400.615463
4147.566725,-612.876398,-592.164754,9844.739029
4147.567041,-842.705048,-888.247130,10881.027347
4147.567356,-995.924147,-888.247130,11103.089130
4147.567671,-1225.752797,-370.102971,11103.089130
4147.567987,-842.705048,-0.000000,10436.903782
4147.568302,-306.438199,-0.000000,9474.636058
4147.568617,1225.752797,518.144159,8438.347739
4147.568933,1149.143247,740.205942,7624.121203
4147.569248,536.266849,1332.370696,7698.141797
4147.569563,306.438199,1258.350101,8290.306550
4147.569879,76.609550,1258.350101,8734.430116
4147.570194,153.219100,740.205942,9104.533087
4147.570509,0.000000,-666.185348,9844.739029
4147.570825,229.828649,-1406.391290,10214.842000
4147.571140,153.219100,-1776.494261,10140.821405
4147.571455,-459.657299,-1480.411884,10584.944971
4147.571771,0.000000,-1110.308913,10658.965565
4147.572086,-153.219100,-370.102971,10436.903782
4147.572401,-153.219100,296.082377,9178.553681
4147.572717,229.828649,-0.000000,8438.347739
4147.573032,919.314598,-0.000000,7846.182985
4147.573347,1302.362347,-0.000000,8438.347739
4147.573663,1149.143247,-0.000000,8068.244768
4147.573978,536.266849,296.082377,9622.677246
4147.574293,-229.828649,-148.041188,9770.718434
4147.574609,-612.876398,-814.226536,10732.986159
4147.574924,-383.047749,-1332.370696,10807.006753
4147.575240,536.266849,-1924.535449,10658.965565
4147.575555,842.705048,-1554.432478,9918.759623
4147.575870,689.485948,-888.247130,9400.615463
4147.576186,689.485948,-0.000000,9474.636058
4147.576501,689.485948,888.247130,8956.491898
4147.576816,766.095498,1036.288319,8956.491898
4147.577132,-153.219100,1110.308913,8882.471304
4147.577447,306.438199,-148.041188,9326.594869
4147.577762,612.876398,-592.164754,9252.574275
4147.578078,612.876398,-888.247130,9844.739029
4147.578393,0.000000,-888.247130,10881.027347
4147.578708,-459.657299,-222.061783,10955.047942
4147.579024,0.000000,-74.020594,11769.274478
4147.579339,-153.219100,296.082377,11029.068536
4147.579654,229.828649,296.082377,9400.615463
4147.579970,1225.752797,148.041188,9252.574275
4147.580285,1302.362347,518.144159,8290.306550
4147.580600,919.314598,1036.288319,8216.285956
4147.580916,689.485948,1258.350101,8660.409521
4147.581231,153.219100,888.247130,9326.594869
4147.581546,-306.438199,1184.329507,9622.677246
4147.581862,-612.876398,-0.000000,9548.656652
4147.582177,-306.438199,-1184.329507,9992.780217
4147.582493,229.828649,-1554.432478,10362.883188
4147.582808,-306.438199,-888.247130,10807.006753
4147.583123,-995.924147,-592.164754,11029.068536
4147.583439,-766.095498,740.205942,10436.903782
4147.583754,-536.266849,1184.329507,10140.821405
4147.584069,0.000000,1258.350101,9030.512492
4147.584385,842.705048,592.164754,9252.574275
4147.584700,995.924147,962.267725,8142.265362
4147.585015,229.828649,1110.308913,8068.244768
4147.585331,-459.657299,592.164754,8882.471304
4147.585646,-842.705048,666.185348,9918.759623
4147.585961,-1225.752797,222.061783,10066.800811
4147.586277,-1532.190996,-148.041188,10732.986159
4147.586592,-1455.581446,-962.267725,10066.800811
4147.586907,-842.705048,-1184.329507,9844.739029
4147.587223,-536.266849,-1110.308913,9770.718434
4147.587538,0.000000,222.061783,9918.759623
4147.587853,0.000000,1184.329507,9326.594869
4147.588169,0.000000,1924.535449,9178.553681
4147.588484,0.000000,2368.659014,8364.327145
4147.588799,766.095498,1702.473667,8290.306550
4147.589115,1302.362347,444.123565,8734.430116
4147.589430,766.095498,444.123565,8956.491898
4147.589746,612.876398,-0.000000,9844.739029
4147.590061,76.609550,-0.000000,10436.903782
4147.590376,-383.047749,592.164754,10214.842000
4147.590692,-766.095498,444.123565,10362.883188
4147.591007,0.000000,222.061783,9918.759623
4147.591322,766.095498,-74.020594,9474.636058
4147.591638,1532.190996,-0.000000,9178.553681
4147.591953,995.924147,1110.308913,8956.491898
4147.592268,536.266849,1406.391290,9326.594869
4147.592584,689.485948,1628.453072,9030.512492
4147.592899,689.485948,1776.494261,9400.615463
4147.593214,919.314598,666.185348,9548.656652
4147.593530,1532.190996,-222.061783,9992.780217
4147.593845,1532.190996,-444.123565,9622.677246
4147.594160,1072.533697,-222.061783,10140.821405
4147.594476,459.657299,296.082377,10658.965565
4147.594791,229.828649,444.123565,10362.883188
4147.595106,229.828649,740.205942,10510.924376
4147.595422,383.047749,740.205942,10140.821405
4147.595737,612.876398,-296.082377,9474.636058
4147.596052,1225.752797,-296.082377,9474.636058
4147.596368,536.266849,-0.000000,8882.471304
4147.596683,0.000000,-0.000000,9918.759623
4147.596999,153.219100,-74.020594,10288.862594
4147.597314,-306.438199,444.123565,10214.842000
4147.597629,0.000000,-148.041188,10140.821405
4147.597945,766.095498,-962.267725,10214.842000
4147.598260,383.047749,-1184.329507,10436.903782
4147.598575,1072.533697,-814.226536,9474.636058
4147.598891,76.609550,-0.000000,9548.656652
4147.599206,0.000000,444.123565,9326.594869
4147.599521,0.000000,814.226536,9548.656652
4147.599837,-229.828649,296.082377,9474.636058
4147.600152,0.000000,-518.144159,9104.533087
4147.600467,229.828649,-1036.288319,9918.759623
4147.600783,0.000000,-814.226536,9548.656652
4147.601098,-536.266849,-888.247130,9326.594869
4147.601413,-766.095498,-666.185348,10140.821405
4147.601729,-919.314598,-148.041188,10066.800811
4147.602044,-459.657299,-148.041188,10288.862594
4147.602359,0.000000,-444.123565,9622.677246
4147.602675,383.047749,-592.164754,9104.533087
4147.602990,689.485948,-74.020594,8364.327145
4147.603305,153.219100,222.061783,7994.224174
4147.603621,-383.047749,-0.000000,8956.491898
4147.603936,-306.438199,592.164754,9178.553681
4147.604252,-766.095498,-0.000000,9474.636058
4147.604567,-1149.143247,-0.000000,9326.594869
4147.604882,-766.095498,-1110.308913,9770.718434
4147.605198,-76.609550,-888.247130,9474.636058
4147.605513,-612.876398,-1702.473667,9992.780217
4147.605828,-1532.190996,-1406.391290,9992.780217
4147.606144,-1149.143247,-962.267725,10510.924376
4147.606459,-766.095498,592.164754,9992.780217
4147.606774,-306.438199,888.247130,8882.471304
4147.607090,383.047749,444.123565,8660.409521
4147.607405,1302.362347,148.041188,8216.285956
4147.607720,1455.581446,148.041188,8068.244768
4147.608036,0.000000,296.082377,8512.368333
4147.608351,-229.828649,592.164754,9474.636058
4147.608666,-383.047749,740.205942,9844.739029
4147.608982,-536.266849,444.123565,10584.944971
4147.609297,-306.438199,-592.164754,10584.944971
4147.609612,0.000000,-1184.329507,10584.944971
4147.609928,0.000000,-666.185348,10214.842000
4147.610243,-229.828649,666.185348,9770.718434
4147.610558,229.828649,592.164754,9548.656652
4147.610874,766.095498,1480.411884,9548.656652
4147.611189,689.485948,2146.597232,9178.553681
4147.611505,1378.971896,1036.288319,9474.636058
4147.611820,1225.752797,814.226536,9030.512492
4147.612135,1378.971896,1110.308913,9252.574275
4147.612451,1072.533697,962.267725,9400.615463
4147.612766,612.876398,962.267725,9918.759623
4147.613081,842.705048,666.185348,10732.986159
4147.613397,306.438199,518.144159,10881.027347
4147.613712,-153.219100,-0.000000,11029.068536
4147.614027,153.219100,-74.020594,9992.780217
4147.614343,766.095498,222.061783,9844.739029
4147.614658,766.095498,592.164754,9474.636058
4147.614973,842.705048,740.205942,10140.821405
4147.615289,612.876398,1332.370696,9770.718434
4147.615604,459.657299,1110.308913,10214.842000
4147.615919,766.095498,1406.391290,9770.718434
4147.616235,766.095498,370.102971,10066.800811
4147.616550,1378.971896,296.082377,9548.656652
4147.616865,1455.581446,222.061783,9104.533087
4147.617181,1149.143247,-74.020594,10214.842000
4147.617496,383.047749,-0.000000,10436.903782
4147.617811,0.000000,814.226536,10140.821405
4147.618127,-459.657299,444.123565,9918.759623
4147.618442,-306.438199,-74.020594,9400.615463
4147.618757,459.657299,-666.185348,8808.450710
4147.619073,153.219100,-888.247130,8512.368333
4147.619388,-153.219100,-518.144159,8882.471304
4147.619704,-919.314598,-444.123565,9252.574275
4147.620019,-536.266849,-0.000000,9918.759623
4147.620334,-1072.533697,444.123565,9770.718434
4147.620650,-612.876398,-222.061783,9548.656652
4147.620965,76.609550,-740.205942,9252.574275
4147.621280,306.438199,-814.226536,9474.636058
4147.621596,229.828649,-222.061783,9326.594869
4147.621911,-153.219100,-0.000000,9622.677246
4147.622226,0.000000,518.144159,9030.512492
4147.622542,-459.657299,740.205942,9104.533087
4147.622857,-536.266849,444.123565,8882.471304
4147.623172,-306.438199,-814.226536,8808.450710
4147.623488,153.219100,-1036.288319,8956.491898
4147.623803,-229.828649,-1036.288319,9178.553681
4147.624118,-842.705048,-962.267725,9696.697840
4147.624434,-919.314598,-296.082377,10140.821405
4147.624749,-842.705048,-0.000000,9844.739029
4147.625064,-306.438199,-370.102971,9696.697840
4147.625380,0.000000,-740.205942,9622.677246
4147.625695,689.485948,-666.185348,9252.574275
4147.626010,1149.143247,-148.041188,8734.430116
4147.626326,459.657299,666.185348,8956.491898
4147.626641,383.047749,1406.391290,9400.615463
4147.626957,0.000000,1998.556043,9252.574275
4147.627272,-229.828649,962.267725,9474.636058
4147.627587,0.000000,-148.041188,9400.615463
4147.627903,-229.828649,-1110.308913,9622.677246
4147.628218,0.000000,-814.226536,9548.656652
4147.628533,-995.924147,-1036.288319,10658.965565
4147.628849,-1455.581446,-74.020594,10955.047942
4147.629164,-1302.362347,-0.000000,10955.047942
4147.629479,-383.047749,-0.000000,10362.883188
4147.629795,0.000000,-0.000000,10214.842000
4147.630110,842.705048,222.061783,9252.574275
4147.630425,1302.362347,444.123565,8882.471304
4147.630741,1149.143247,888.247130,8808.450710
4147.631056,1072.533697,1184.329507,9474.636058
4147.631371,536.266849,1850.514855,9326.594869
4147.631687,0.000000,1110.308913,9474.636058
4147.632002,76.609550,370.102971,9918.759623
4147.632317,0.000000,-814.226536,9844.739029
4147.632633,76.609550,-1184.329507,10362.883188
4147.632948,-306.438199,-888.247130,10362.883188
4147.633263,-919.314598,-74.020594,10881.027347
4147.633579,-1072.533697,370.102971,10510.924376
4147.633894,-153.219100,592.164754,10584.944971
4147.634210,153.219100,740.205942,10066.800811
4147.634525,766.095498,296.082377,9474.636058
4147.634840,1608.800546,592.164754,9030.512492
4147.635156,1685.410096,1110.308913,9104.533087
4147.635471,1302.362347,1480.411884,9252.574275
4147.635786,919.314598,1702.473667,9400.615463
4147.636102,153.219100,1258.350101,9844.739029
4147.636417,76.609550,444.123565,10214.842000
4147.636732,0.000000,-370.102971,9992.780217
4147.637048,459.657299,-888.247130,9474.636058
4147.637363,229.828649,-444.123565,9474.636058
4147.637678,-306.438199,-148.041188,9918.759623
4147.637994,-306.438199,-0.000000,10288.862594
4147.638309,-229.828649,370.102971,9992.780217
4147.638624,0.000000,962.267725,9548.656652
4147.638940,383.047749,592.164754,9178.553681
4147.639255,1378.971896,-0.000000,8364.327145
4147.639570,1455.581446,296.082377,8660.409521
4147.639886,459.657299,370.102971,8882.471304
4147.640201,536.266849,666.185348,9400.615463
4147.640516,153.219100,1110.308913,9770.718434
4147.640832,-459.657299,962.267725,9326.594869
4147.641147,-459.657299,-74.020594,9696.697840
4147.641463,-306.438199,-1036.288319,9474.636058
4147.641778,0.000000,-962.267725,9474.636058
4147.642093,-459.657299,-740.205942,9474.636058
4147.642409,-995.924147,-370.102971,9548.656652
4147.642724,-919.314598,-0.000000,9992.780217
4147.643039,-612.876398,370.102971,9474.636058
4147.643355,-306.438199,-0.000000,9474.636058
4147.643670,306.438199,-370.102971,9326.594869
4147.643985,1225.752797,-370.102971,8808.450710
4147.644301,995.924147,-0.000000,8512.368333
4147.644616,536.266849,518.144159,9252.574275
4147.644932,153.219100,740.205942,9474.636058
4147.645247,-153.219100,1332.370696,9622.677246
4147.645562,-459.657299,814.226536,9770.718434
4147.645878,0.000000,-370.102971,10288.862594
4147.646193,76.609550,-370.102971,9326.594869
4147.646508,0.000000,-814.226536,9696.697840
4147.646824,-536.266849,-444.123565,9844.739029
4147.647139,-766.095498,-0.000000,10362.883188
4147.647455,-842.705048,444.123565,10881.027347
4147.647770,-689.485948,370.102971,10288.862594
4147.648085,0.000000,74.020594,9474.636058
4147.648401,1072.533697,296.082377,9474.636058
4147.648716,1072.533697,-0.000000,9030.512492
4147.649032,383.047749,518.144159,9474.636058
4147.649347,919.314598,814.226536,9548.656652
4147.649662,153.219100,1332.370696,8956.491898
4147.649978,0.000000,814.226536,10140.821405
4147.650293,153.219100,296.082377,9992.780217
4147.650609,153.219100,-148.041188,9474.636058
4147.650924,229.828649,-296.082377,9474.636058
4147.651239,0.000000,-666.185348,9622.677246
4147.651555,-306.438199,-148.041188,10066.800811
4147.651870,-536.266849,-370.102971,10288.862594
4147.652186,0.000000,-296.082377,10436.903782
4147.652501,-306.438199,-0.000000,9844.739029
4147.652816,459.657299,-592.164754,9400.615463
4147.653132,1225.752797,-0.000000,8734.430116
4147.653447,689.485948,370.102971,8882.471304
4147.653762,689.485948,222.061783,8586.388927
4147.654078,612.876398,296.082377,9178.553681
4147.654393,229.828649,740.205942,9104.533087
4147.654709,0.000000,-0.000000,9474.636058
4147.655024,-459.657299,-1036.288319,9400.615463
4147.655339,0.000000,-1332.370696,9918.759623
4147.655655,-153.219100,-1332.370696,9548.656652
4147.655970,-383.047749,-740.205942,9918.759623
4147.656286,-383.047749,-0.000000,9992.780217
4147.656601,-383.047749,814.226536,9844.739029
4147.656916,-689.485948,740.205942,9696.697840
4147.657232,153.219100,-148.041188,8956.491898
4147.657547,766.095498,-592.164754,9178.553681
4147.657863,1302.362347,-222.061783,9178.553681
4147.658178,689.485948,740.205942,9104.533087
4147.658493,306.438199,888.247130,8956.491898
4147.658809,0.000000,1332.370696,9622.677246
4147.659124,-459.657299,1258.350101,9844.739029
4147.659440,-229.828649,222.061783,9918.759623
4147.659755,306.438199,-296.082377,9474.636058
4147.660070,306.438199,-592.164754,9770.718434
4147.660386,-306.438199,-370.102971,9252.574275
4147.660701,-612.876398,-74.020594,10140.821405
4147.661016,-612.876398,-0.000000,10288.862594
4147.661332,-689.485948,666.185348,10140.821405
4147.661647,-153.219100,370.102971,9622.677246
4147.661963,459.657299,-0.000000,9030.512492
4147.662278,1378.971896,-0.000000,8586.388927
4147.662593,1225.752797,370.102971,8586.388927
4147.662909,919.314598,444.123565,9252.574275
4147.663224,306.438199,1480.411884,9548.656652
4147.663540,76.609550,1332.370696,9474.636058
4147.663855,76.609550,666.185348,9474.636058
4147.664170,842.705048,-370.102971,10362.883188
4147.664486,0.000000,296.082377,9252.574275
4147.664801,0.000000,-814.226536,9918.759623
4147.665117,0.000000,-296.082377,9622.677246
4147.665432,-995.924147,222.061783,10066.800811
4147.665747,-842.705048,222.061783,10436.903782
4147.666063,-459.657299,-0.000000,9992.780217
4147.666378,536.266849,-74.020594,9770.718434
4147.666694,1225.752797,-74.020594,9252.574275
4147.667009,1225.752797,-148.041188,9326.594869
4147.667324,766.095498,296.082377,9548.656652
4147.667640,919.314598,666.185348,9844.739029
4147.667955,459.657299,592.164754,9622.677246
4147.668270,306.438199,962.267725,9474.636058
4147.668586,306.438199,-0.000000,9844.739029
4147.668901,919.314598,-518.144159,9622.677246
4147.669217,1149.143247,-666.185348,8882.471304
4147.669532,153.219100,-0.000000,9326.594869
4147.669847,-153.219100,-0.000000,10510.924376
4147.670163,-536.266849,370.102971,10362.883188
4147.670478,-842.705048,740.205942,10881.027347
4147.670794,-153.219100,222.061783,10584.944971
4147.671109,766.095498,-0.000000,10140.821405
4147.671424,919.314598,-444.123565,9326.594869
4147.671740,919.314598,370.102971,9400.615463
4147.672055,459.657299,1036.288319,9400.615463
4147.672371,536.266849,1332.370696,9104.533087
4147.672686,459.657299,1332.370696,9178.553681
4147.673001,612.876398,814.226536,9030.512492
4147.673317,383.047749,-296.082377,8882.471304
4147.673632,612.876398,-962.267725,8882.471304
4147.673948,229.828649,-962.267725,9326.594869
4147.674263,-536.266849,-814.226536,9400.615463
4147.674578,-995.924147,-518.144159,9992.780217
4147.674894,-995.924147,-296.082377,9844.739029
4147.675209,-995.924147,-296.082377,9696.697840
4147.675525,153.219100,-1036.288319,9178.553681
4147.675840,766.095498,-666.185348,8808.450710
4147.676155,689.485948,-444.123565,8586.388927
4147.676471,76.609550,-0.000000,9030.512492
4147.676786,0.000000,296.082377,9474.636058
4147.677101,-459.657299,962.267725,9548.656652
4147.677417,-229.828649,370.102971,9474.636058
4147.677732,0.000000,-518.144159,9400.615463
4147.678048,76.609550,-814.226536,9326.594869
4147.678363,0.000000,-1110.308913,9104.533087
4147.678678,-229.828649,-814.226536,9326.594869
4147.678994,-689.485948,-592.164754,9918.759623
4147.679309,-842.705048,-0.000000,10214.842000
4147.679625,-612.876398,296.082377,10066.800811
4147.679940,0.000000,-222.061783,9548.656652
4147.680255,153.219100,-592.164754,9622.677246
4147.680571,766.095498,-222.061783,9474.636058
4147.680886,229.828649,296.082377,9696.697840
4147.681202,0.000000,1332.370696,9770.718434
4147.681517,229.828649,1554.432478,9992.780217
4147.681832,536.266849,1924.535449,9548.656652
4147.682148,689.485948,1332.370696,9548.656652
4147.682463,1072.533697,222.061783,9252.574275
4147.682779,995.924147,-74.020594,9178.553681
4147.683094,1225.752797,-0.000000,9030.512492
4147.683409,766.095498,-0.000000,9696.697840
4147.683725,-153.219100,370.102971,9918.759623
4147.684040,-536.266849,518.144159,10362.883188
4147.684355,-383.047749,518.144159,10288.862594
4147.684671,-153.219100,370.102971,10066.800811
4147.684986,536.266849,-222.061783,9474.636058
4147.685302,612.876398,444.123565,9326.594869
4147.685617,76.609550,666.185348,9548.656652
4147.685932,153.219100,962.267725,9992.780217
4147.686248,76.609550,1406.391290,9918.759623
4147.686563,0.000000,1258.350101,10140.821405
4147.686879,689.485948,666.185348,9918.759623
4147.687194,612.876398,222.061783,9400.615463
4147.687509,459.657299,-0.000000,9474.636058
4147.687825,229.828649,370.102971,9474.636058
4147.688140,-459.657299,222.061783,9844.739029
4147.688456,-536.266849,518.144159,10140.821405
4147.688771,-919.314598,296.082377,9992.780217
4147.689086,-842.705048,-148.041188,10140.821405
4147.689402,76.609550,-814.226536,9770.718434
4147.689717,612.876398,-740.205942,9252.574275
4147.690033,383.047749,-0.000000,9548.656652
4147.690348,0.000000,518.144159,9770.718434
4147.690663,919.314598,962.267725,9696.697840
4147.690979,0.000000,1036.288319,9844.739029
4147.691294,383.047749,370.102971,9918.759623
4147.691609,459.657299,-222.061783,9548.656652
4147.691925,766.095498,-222.061783,9252.574275
4147.692240,383.047749,-74.020594,9622.677246
4147.692556,76.609550,-74.020594,9548.656652
4147.692871,0.000000,592.164754,10584.944971
4147.693186,-766.095498,740.205942,10214.842000
4147.693502,-766.095498,-0.000000,10066.800811
4147.693817,0.000000,-592.164754,9918.759623
4147.694133,459.657299,-1184.329507,9252.574275
4147.694448,536.266849,-1036.288319,9474.636058
4147.694763,153.219100,-518.144159,9844.739029
4147.695079,0.000000,296.082377,9474.636058
4147.695394,229.828649,814.226536,9326.594869
4147.695710,612.876398,1110.308913,9030.512492
4147.696025,919.314598,370.102971,8364.327145
4147.696340,919.314598,-148.041188,8290.306550
4147.696656,842.705048,-370.102971,8586.388927
4147.696971,0.000000,-592.164754,8734.430116
4147.697287,-459.657299,-666.185348,10140.821405
4147.697602,-612.876398,-0.000000,9548.656652
4147.697917,-995.924147,-0.000000,9770.718434
4147.698233,-689.485948,-592.164754,9696.697840
4147.698548,459.657299,-1184.329507,9548.656652
4147.698863,689.485948,-740.205942,9104.533087
4147.699179,153.219100,-148.041188,8882.471304
4147.699494,0.000000,-0.000000,9474.636058
4147.699810,0.000000,740.205942,9548.656652
4147.700125,-229.828649,1036.288319,9030.512492
4147.700440,229.828649,-148.041188,9178.553681
4147.700756,612.876398,-444.123565,9326.594869
4147.701071,1149.143247,-814.226536,9548.656652
4147.701387,76.609550,-370.102971,9474.636058
4147.701702,-536.266849,-148.041188,10214.842000
4147.702017,-459.657299,-0.000000,10584.944971
4147.702333,-689.485948,296.082377,10362.883188
4147.702648,-689.485948,-0.000000,10214.842000
4147.702964,-306.438199,-444.123565,10288.862594
4147.703279,229.828649,-296.082377,9474.636058
4147.703594,689.485948,148.041188,9474.636058
4147.703910,459.657299,962.267725,9400.615463
4147.704225,0.000000,1480.411884,10140.821405
4147.704541,0.000000,2072.576638,9474.636058
4147.704856,76.609550,1776.494261,9696.697840
4147.705171,153.219100,666.185348,9474.636058
4147.705487,383.047749,-296.082377,10066.800811
4147.705802,76.609550,-592.164754,9696.697840
4147.706117,0.000000,-0.000000,9918.759623
4147.706433,0.000000,740.205942,10658.965565
4147.706748,-536.266849,1332.370696,10436.903782
4147.707064,0.000000,1110.308913,9992.780217
4147.707379,0.000000,296.082377,9918.759623
4147.707694,995.924147,74.020594,9252.574275
4147.708010,1378.971896,518.144159,8734.430116
4147.708325,995.924147,592.164754,8512.368333
4147.708641,153.219100,962.267725,9400.615463
4147.708956,-306.438199,1480.411884,9696.697840
4147.709271,-536.266849,740.205942,9696.697840
4147.709587,0.000000,-0.000000,9918.759623
4147.709902,229.828649,-518.144159,10066.800811
4147.710218,612.876398,-0.000000,9252.574275
4147.710533,0.000000,-222.061783,9992.780217
4147.710848,-536.266849,-0.000000,10066.800811
4147.711164,-383.047749,444.123565,10140.821405
4147.711479,-306.438199,592.164754,10066.800811
4147.711795,0.000000,444.123565,9696.697840
4147.712110,612.876398,-0.000000,9696.697840
4147.712425,1149.143247,296.082377,8438.347739
4147.712741,842.705048,222.061783,8586.388927
4147.713056,153.219100,296.082377,9104.533087
4147.713371,-153.219100,-0.000000,9474.636058
4147.713687,-383.047749,296.082377,9770.718434
4147.714002,-383.047749,-0.000000,9992.780217
4147.714318,-306.438199,-592.164754,9400.615463
4147.714633,153.219100,-1258.350101,9252.574275
4147.714948,536.266849,-1258.350101,9696.697840
4147.715264,0.000000,-1036.288319,9696.697840
4147.715579,-306.438199,-0.000000,10140.821405
4147.715895,0.000000,962.267725,9474.636058
4147.716210,306.438199,962.267725,9622.677246
4147.716525,306.438199,222.061783,9400.615463
4147.716841,919.314598,-148.041188,9326.594869
4147.717156,1455.581446,-370.102971,8882.471304
4147.717472,689.485948,-74.020594,9622.677246
4147.717787,536.266849,666.185348,9474.636058
4147.718102,76.609550,888.247130,9918.759623
4147.718418,-459.657299,814.226536,9696.697840
4147.718733,76.609550,-222.061783,9770.718434
4147.719049,536.266849,-740.205942,9400.615463
4147.719364,536.266849,-666.185348,9178.553681
4147.719679,0.000000,-740.205942,9770.718434
4147.719995,-306.438199,-148.041188,9992.780217
4147.720310,-306.438199,-74.020594,9770.718434
4147.720625,-229.828649,222.061783,10140.821405
4147.720941,-459.657299,444.123565,9474.636058
4147.721256,229.828649,-0.000000,9474.636058
4147.721572,766.095498,-0.000000,8882.471304
4147.721887,459.657299,-222.061783,8734.430116
4147.722202,153.219100,-0.000000,9474.636058
4147.722518,0.000000,370.102971,9548.656652
4147.722833,-919.314598,370.102971,10214.842000
4147.723149,-919.314598,-0.000000,9992.780217
4147.723464,-612.876398,-592.164754,9844.739029
4147.723779,-536.266849,-518.144159,9992.780217
4147.724095,-612.876398,-592.164754,9992.780217
4147.724410,-919.314598,-148.041188,10066.800811
4147.724726,-612.876398,74.020594,10214.842000
4147.725041,-842.705048,444.123565,9992.780217
4147.725356,-459.657299,518.144159,9548.656652
4147.725672,76.609550,148.041188,9844.739029
4147.725987,536.266849,-0.000000,9326.594869
4147.726303,995.924147,-0.000000,8808.450710
4147.726618,306.438199,148.041188,9400.615463
4147.726933,0.000000,666.185348,9696.697840
4147.727249,-229.828649,962.267725,9918.759623
4147.727564,-76.609550,962.267725,10140.821405
4147.727880,0.000000,444.123565,9622.677246
4147.728195,229.828649,-444.123565,9548.656652
4147.728510,612.876398,-222.061783,9030.512492
4147.728826,-383.047749,-296.082377,9178.553681
4147.729141,229.828649,-0.000000,9844.739029
4147.729456,383.047749,962.267725,9992.780217
4147.729772,153.219100,1258.350101,9548.656652
4147.730087,919.314598,1036.288319,9326.594869
4147.730403,995.924147,740.205942,9548.656652
4147.730718,1685.410096,222.061783,8290.306550
4147.731033,1072.533697,296.082377,8734.430116
4147.731349,995.924147,370.102971,9474.636058
4147.731664,536.266849,962.267725,9770.718434
4147.731980,0.000000,888.247130,9696.697840
4147.732295,-229.828649,740.205942,9474.636058
4147.732610,0.000000,-148.041188,9474.636058
4147.732926,612.876398,-148.041188,9918.759623
4147.733241,-153.219100,-0.000000,9770.718434
4147.733557,-383.047749,222.061783,10288.862594
4147.733872,0.000000,518.144159,10066.800811
4147.734187,0.000000,518.144159,9844.739029
4147.734503,153.219100,296.082377,9844.739029
4147.734818,536.266849,222.061783,9474.636058
4147.735134,1072.533697,-0.000000,9474.636058
4147.735449,1072.533697,518.144159,8808.450710
4147.735764,766.095498,814.226536,9030.512492
4147.736080,76.609550,370.102971,9622.677246
4147.736395,-536.266849,444.123565,9844.739029
4147.736710,-306.438199,74.020594,9696.697840
4147.737026,-76.609550,-370.102971,9622.677246
4147.737341,0.000000,-740.205942,9844.739029
4147.737657,-153.219100,-518.144159,9548.656652
4147.737972,-689.485948,-592.164754,10066.800811
4147.738287,-383.047749,-0.000000,10214.842000
4147.738603,-536.266849,814.226536,10288.862594
4147.738918,0.000000,1036.288319,10214.842000
4147.739234,306.438199,740.205942,9474.636058
4147.739549,153.219100,148.041188,9696.697840
4147.739864,842.705048,-74.020594,9104.533087
4147.740180,689.485948,296.082377,9104.533087
4147.740495,153.219100,592.164754,9844.739029
4147.740811,-229.828649,592.164754,9696.697840
4147.741126,-229.828649,1332.370696,9252.574275
4147.741441,-459.657299,-0.000000,9474.636058
4147.741757,-536.266849,-222.061783,9474.636058
4147.742072,-306.438199,-592.164754,9252.574275
4147.742388,-1532.190996,-888.247130,9696.697840
4147.742703,-919.314598,-222.061783,10214.842000
4147.743018,-842.705048,-518.144159,10066.800811
4147.743334,-995.924147,-296.082377,9844.739029
4147.743649,-612.876398,370.102971,10214.842000
4147.743964,-383.047749,-0.000000,9844.739029
4147.744280,766.095498,-74.020594,9252.574275
4147.744595,1149.143247,148.041188,8438.347739
4147.744911,766.095498,-0.000000,8956.491898
4147.745226,229.828649,148.041188,9400.615463
4147.745541,-536.266849,740.205942,9400.615463
4147.745857,-919.314598,370.102971,9918.759623
4147.746172,-995.924147,-888.247130,9918.759623
4147.746488,-383.047749,-814.226536,9918.759623
4147.746803,-612.876398,-888.247130,9548.656652
4147.747118,-842.705048,-1258.350101,9696.697840
4147.747434,-842.705048,-666.185348,10436.903782
4147.747749,-306.438199,296.082377,10066.800811
4147.748064,-229.828649,666.185348,9844.739029
4147.748380,383.047749,296.082377,9474.636058
4147.748695,1455.581446,-0.000000,9326.594869
4147.749010,1838.629195,-0.000000,8808.450710
4147.749326,1378.971896,444.123565,8808.450710
4147.749641,1072.533697,1036.288319,9400.615463
4147.749956,76.609550,1258.350101,9474.636058
4147.750271,76.609550,1628.453072,9400.615463
4147.750587,76.609550,-0.000000,9770.718434
4147.750902,383.047749,-814.226536,9548.656652
4147.751217,536.266849,-1036.288319,10214.842000
4147.751532,306.438199,-1036.288319,9474.636058
4147.751848,0.000000,-0.000000,10066.800811
4147.752163,0.000000,370.102971,9992.780217
4147.752478,153.219100,888.247130,9844.739029
4147.752793,536.266849,1258.350101,9548.656652
4147.753109,1072.533697,296.082377,9474.636058
4147.753424,2145.067394,518.144159,8956.491898
4147.753739,1532.190996,666.185348,8512.368333
4147.754055,1149.143247,962.267725,8660.409521
4147.754370,766.095498,814.226536,9474.636058
4147.754685,0.000000,962.267725,9992.780217
4147.755000,0.000000,370.102971,10066.800811
4147.755316,-229.828649,-0.000000,10140.821405
4147.755631,153.219100,-666.185348,9622.677246
4147.755946,153.219100,-666.185348,9474.636058
4147.756261,-612.876398,-444.123565,10066.800811
4147.756577,-766.095498,-74.020594,10140.821405
4147.756892,-842.705048,518.144159,9918.759623
4147.757207,-306.438199,740.205942,9548.656652
4147.757522,0.000000,444.123565,9770.718434
4147.757838,306.438199,-0.000000,9400.615463
4147.758153,995.924147,148.041188,9474.636058
4147.758468,383.047749,370.102971,9252.574275
4147.758784,76.609550,518.144159,9918.759623
4147.759099,0.000000,666.185348,9918.759623
4147.759414,0.000000,666.185348,9474.636058
4147.759729,-536.266849,296.082377,9918.759623
4147.760045,-229.828649,-148.041188,9770.718434
4147.760360,0.000000,-370.102971,9696.697840
4147.760675,0.000000,-296.082377,9844.739029
4147.760990,-306.438199,-222.061783,9844.739029
4147.761306,-459.657299,-0.000000,10140.821405
4147.761621,-383.047749,888.247130,9992.780217
4147.761936,-306.438199,592.164754,9992.780217
4147.762252,76.609550,-0.000000,9548.656652
4147.762567,536.266849,-0.000000,9622.677246
4147.762882,995.924147,-296.082377,9178.553681
4147.763197,536.266849,-0.000000,9178.553681
4147.763513,383.047749,592.164754,9548.656652
4147.763828,536.266849,1036.288319,9474.636058
4147.764143,-229.828649,888.247130,9178.553681
4147.764458,0.000000,-148.041188,9252.574275
4147.764774,0.000000,-814.226536,9326.594869
4147.765089,0.000000,-814.226536,9474.636058
4147.765404,-689.485948,-814.226536,9622.677246
4147.765719,-766.095498,-0.000000,9918.759623
4147.766035,-1072.533697,222.061783,9548.656652
4147.766350,-536.266849,-148.041188,9622.677246
4147.766665,-383.047749,-222.061783,9918.759623
4147.766981,0.000000,-222.061783,9474.636058
4147.767296,766.095498,-518.144159,9104.533087
4147.767611,536.266849,-74.020594,8586.388927
4147.767926,76.609550,-296.082377,9326.594869
4147.768242,0.000000,370.102971,9178.553681
4147.768557,0.000000,148.041188,9252.574275
4147.768872,-383.047749,-444.123565,9474.636058
4147.769187,0.000000,-592.164754,9030.512492
4147.769503,689.485948,-518.144159,8882.471304
4147.769818,153.219100,-370.102971,9030.512492
4147.770133,-229.828649,-444.123565,9548.656652
4147.770448,-383.047749,-0.000000,10288.862594
4147.770764,-459.657299,-0.000000,10510.924376
4147.771079,-306.438199,962.267725,9918.759623
4147.771394,383.047749,-222.061783,9844.739029
4147.771710,1455.581446,-0.000000,9548.656652
4147.772025,1225.752797,370.102971,8808.450710
4147.772340,1225.752797,592.164754,9474.636058
4147.772655,612.876398,1406.391290,10066.800811
4147.772971,229.828649,1110.308913,9992.780217
4147.773286,0.000000,1036.288319,9844.739029
4147.773601,76.609550,-0.000000,9696.697840
4147.773916,536.266849,-444.123565,9548.656652
4147.774232,536.266849,-444.123565,9622.677246
4147.774547,-229.828649,-370.102971,9844.739029
4147.774862,-383.047749,-0.000000,9992.780217
4147.775177,-229.828649,1110.308913,10584.944971
4147.775493,0.000000,1184.329507,9474.636058
4147.775808,459.657299,592.164754,9696.697840
4147.776123,1302.362347,-74.020594,9474.636058
4147.776439,1532.190996,370.102971,9474.636058
4147.776754,995.924147,962.267725,9252.574275
4147.777069,459.657299,1184.329507,9696.697840
4147.777384,766.095498,1554.432478,9844.739029
4147.777700,612.876398,1184.329507,9992.780217
4147.778015,229.828649,-0.000000,9622.677246
4147.778330,383.047749,-518.144159,9548.656652
4147.778645,153.219100,-444.123565,9770.718434
4147.778961,-306.438199,-296.082377,9474.636058
4147.779276,-919.314598,-148.041188,9918.759623
4147.779591,-612.876398,-0.000000,10362.883188
4147.779907,-612.876398,296.082377,10140.821405
4147.780222,-229.828649,296.082377,9696.697840
4147.780537,153.219100,-0.000000,9844.739029
4147.780852,689.485948,222.061783,8882.471304
4147.781168,842.705048,444.123565,8660.409521
4147.781483,612.876398,370.102971,8734.430116
4147.781798,612.876398,444.123565,9770.718434
4147.782113,229.828649,666.185348,9918.759623
4147.782429,229.828649,370.102971,9622.677246
4147.782744,459.657299,-0.000000,9178.553681
4147.783059,459.657299,-74.020594,8808.450710
4147.783374,0.000000,-666.185348,9622.677246
4147.783690,-229.828649,-740.205942,9918.759623
4147.784005,-766.095498,-444.123565,10362.883188
4147.784320,-689.485948,-74.020594,9918.759623
4147.784636,-536.266849,-148.041188,9918.759623
4147.784951,459.657299,-0.000000,9770.718434
4147.785266,1378.971896,-222.061783,9474.636058
4147.785581,1608.800546,370.102971,8660.409521
4147.785897,1455.581446,518.144159,8734.430116
4147.786212,1302.362347,1036.288319,8734.430116
4147.786527,1225.752797,814.226536,8660.409521
4147.786842,306.438199,888.247130,9400.615463
4147.787158,-306.438199,-0.000000,9474.636058
4147.787473,0.000000,-518.144159,9030.512492
4147.787788,0.000000,-888.247130,9104.533087
4147.788103,-995.924147,-1036.288319,9696.697840
4147.788419,-1149.143247,-1258.350101,10955.047942
4147.788734,-1608.800546,-222.061783,10658.965565
4147.789049,-1455.581446,370.102971,10584.944971
4147.789365,-766.095498,-0.000000,9844.739029
4147.789680,-229.828649,-74.020594,9326.594869
4147.789995,229.828649,-0.000000,9178.553681
4147.790310,383.047749,222.061783,8808.450710
4147.790626,0.000000,370.102971,8956.491898
4147.790941,153.219100,666.185348,9474.636058
4147.791256,-536.266849,1480.411884,9252.574275
4147.791571,-689.485948,666.185348,9326.594869
4147.791887,-689.485948,-74.020594,9474.636058
4147.792202,-229.828649,-592.164754,9400.615463
4147.792517,-383.047749,-1184.329507,9474.636058
4147.792833,-842.705048,-888.247130,10140.821405
4147.793148,-919.314598,-296.082377,10510.924376
4147.793463,-842.705048,666.185348,10140.821405
4147.793778,0.000000,666.185348,9400.615463
4147.794094,76.609550,-0.000000,9622.677246
4147.794409,995.924147,-0.000000,9178.553681
4147.794724,1149.143247,518.144159,9326.594869
4147.795039,459.657299,1036.288319,9178.553681
4147.795355,612.876398,1258.350101,9548.656652
4147.795670,536.266849,1554.432478,9844.739029
4147.795985,229.828649,1184.329507,10214.842000
4147.796300,0.000000,-0.000000,10362.883188
4147.796616,612.876398,-296.082377,9844.739029
4147.796931,919.314598,-518.144159,10140.821405
4147.797246,842.705048,-0.000000,9696.697840
4147.797562,76.609550,666.185348,10436.903782
4147.797877,229.828649,962.267725,10066.800811
4147.798192,0.000000,1110.308913,9992.780217
4147.798507,306.438199,888.247130,9326.594869
4147.798823,689.485948,222.061783,9326.594869
4147.799138,1149.143247,-0.000000,9252.574275
4147.799453,766.095498,222.061783,9104.533087
4147.799768,0.000000,296.082377,9474.636058
4147.800084,76.609550,444.123565,10214.842000
4147.800399,-383.047749,888.247130,10140.821405
4147.800714,-229.828649,370.102971,9770.718434
4147.801029,-76.609550,-148.041188,9474.636058
4147.801345,459.657299,-740.205942,9474.636058
4147.801660,612.876398,-1036.288319,9104.533087
4147.801975,0.000000,-666.185348,9474.636058
4147.802291,-229.828649,444.123565,9992.780217
4147.802606,0.000000,888.247130,9474.636058
4147.802921,306.438199,740.205942,9104.533087
4147.803236,459.657299,-0.000000,9030.512492
4147.803552,1378.971896,-296.082377,8808.450710
4147.803867,919.314598,-592.164754,8882.471304
4147.804182,229.828649,-0.000000,9104.533087
4147.804497,0.000000,148.041188,9918.759623
4147.804813,383.047749,-148.041188,9770.718434
4147.805128,0.000000,444.123565,9622.677246
4147.805443,0.000000,-148.041188,9474.636058
4147.805758,612.876398,-370.102971,9474.636058
4147.806074,689.485948,-444.123565,9252.574275
4147.806389,153.219100,-0.000000,9400.615463
4147.806704,76.609550,-0.000000,10288.862594
4147.807020,0.000000,1184.329507,9548.656652
4147.807335,-306.438199,666.185348,9918.759623
4147.807650,153.219100,-0.000000,9918.759623
4147.807965,689.485948,-666.185348,9474.636058
4147.808281,536.266849,-222.061783,9622.677246
4147.808596,0.000000,444.123565,9326.594869
4147.808911,0.000000,-0.000000,9844.739029
4147.809226,0.000000,370.102971,9252.574275
4147.809542,-995.924147,518.144159,9696.697840
4147.809857,-766.095498,222.061783,10140.821405
4147.810172,-536.266849,-296.082377,9696.697840
4147.810488,76.609550,-444.123565,9474.636058
4147.810803,-229.828649,-370.102971,9474.636058
4147.811118,-459.657299,-518.144159,9844.739029
4147.811433,-459.657299,-0.000000,10658.965565
4147.811749,-766.095498,592.164754,9696.697840
4147.812064,-536.266849,148.041188,9770.718434
4147.812379,76.609550,-370.102971,9474.636058
4147.812694,383.047749,-222.061783,9400.615463
4147.813010,459.657299,-74.020594,9252.574275
4147.813325,-229.828649,-0.000000,9474.636058
4147.813640,0.000000,-0.000000,9696.697840
4147.813955,-229.828649,666.185348,9548.656652
4147.814271,-459.657299,666.185348,9474.636058
4147.814586,-153.219100,-0.000000,9178.553681
4147.814901,0.000000,-592.164754,9474.636058
4147.815217,153.219100,-814.226536,9474.636058
4147.815532,153.219100,-666.185348,9252.574275
4147.815847,0.000000,-148.041188,10288.862594
4147.816162,-536.266849,592.164754,10214.842000
4147.816478,-383.047749,888.247130,9918.759623
4147.816793,229.828649,592.164754,9474.636058
4147.817108,612.876398,-74.020594,9400.615463
4147.817423,1302.362347,-0.000000,9104.533087
4147.817739,536.266849,592.164754,8882.471304
4147.818054,459.657299,518.144159,9548.656652
4147.818369,459.657299,1258.350101,9548.656652
4147.818684,383.047749,1258.350101,9548.656652
4147.819000,153.219100,592.164754,9696.697840
4147.819315,153.219100,-296.082377,10140.821405
4147.819630,459.657299,-518.144159,9770.718434
4147.819946,612.876398,-74.020594,9400.615463
4147.820261,536.266849,370.102971,9548.656652
4147.820576,76.609550,592.164754,10288.862594
4147.820891,229.828649,1036.288319,9548.656652
4147.821207,459.657299,296.082377,9400.615463
4147.821522,995.924147,444.123565,9474.636058
4147.821837,1225.752797,296.082377,8808.450710
4147.822152,1378.971896,-0.000000,8808.450710
4147.822468,536.266849,-74.020594,9474.636058
4147.822783,0.000000,666.185348,9474.636058
4147.823098,0.000000,370.102971,9178.553681
4147.823414,-306.438199,-0.000000,9770.718434
4147.823729,-536.266849,-148.041188,10140.821405
4147.824044,0.000000,-814.226536,9400.615463
4147.824359,0.000000,-666.185348,9326.594869
4147.824675,-229.828649,-444.123565,9918.759623
4147.824990,-383.047749,-0.000000,9918.759623
4147.825305,-229.828649,1110.308913,9844.739029
4147.825620,-689.485948,1036.288319,10214.842000
4147.825936,0.000000,444.123565,9548.656652
4147.826251,459.657299,-0.000000,9548.656652
4147.826566,842.705048,-0.000000,8808.450710
4147.826881,536.266849,444.123565,9178.553681
4147.827197,153.219100,518.144159,9400.615463
4147.827512,-229.828649,-0.000000,9918.759623
4147.827827,-229.828649,444.123565,9918.759623
4147.828143,-459.657299,-74.020594,10584.944971
4147.828458,0.000000,-148.041188,9844.739029
4147.828773,153.219100,-0.000000,9622.677246
4147.829088,76.609550,-0.000000,9844.739029
4147.829404,0.000000,-74.020594,9918.759623
4147.829719,-76.609550,666.185348,9992.780217
4147.830034,-153.219100,1036.288319,10066.800811
4147.830349,229.828649,1036.288319,9696.697840
4147.830665,1072.533697,592.164754,9474.636058
4147.830980,1072.533697,444.123565,9104.533087
4147.831295,1072.533697,-0.000000,9696.697840
4147.831610,153.219100,370.102971,9548.656652
4147.831926,229.828649,518.144159,10140.821405
4147.832241,-153.219100,740.205942,10066.800811
4147.832556,76.609550,666.185348,9474.636058
4147.832872,0.000000,-296.082377,9622.677246
4147.833187,229.828649,-666.185348,9622.677246
4147.833502,229.828649,-814.226536,9474.636058
4147.833817,-536.266849,-444.123565,9474.636058
4147.834133,-689.485948,-74.020594,9696.697840
4147.834448,-383.047749,-0.000000,9844.739029
4147.834763,-229.828649,-370.102971,9770.718434
4147.835078,536.266849,-222.061783,9622.677246
4147.835394,383.047749,-814.226536,8956.491898
4147.835709,766.095498,-370.102971,8808.450710
4147.836024,459.657299,-0.000000,9104.533087
4147.836340,536.266849,296.082377,9400.615463
4147.836655,383.047749,444.123565,9474.636058
4147.836970,-383.047749,740.205942,9104.533087
4147.837285,0.000000,-0.000000,9474.636058
4147.837601,153.219100,-740.205942,9548.656652
4147.837916,229.828649,-814.226536,9252.574275
4147.838231,-459.657299,-444.123565,9548.656652
4147.838546,-306.438199,-592.164754,10066.800811
4147.838862,-536.266849,-0.000000,10510.924376
4147.839177,-689.485948,296.082377,9622.677246
4147.839492,-383.047749,666.185348,9474.636058
4147.839807,229.828649,-148.041188,9622.677246
4147.840123,766.095498,-74.020594,9400.615463
4147.840438,766.095498,-0.000000,9400.615463
4147.840753,0.000000,740.205942,9474.636058
4147.841069,0.000000,1110.308913,9622.677246
4147.841384,153.219100,1480.411884,9696.697840
4147.841699,153.219100,1258.350101,9474.636058
4147.842014,76.609550,222.061783,9992.780217
4147.842330,383.047749,-444.123565,9178.553681
4147.842645,459.657299,-148.041188,9326.594869
4147.842960,-306.438199,222.061783,9844.739029
4147.843275,-153.219100,666.185348,10214.842000
4147.843591,-689.485948,888.247130,9918.759623
4147.843906,-229.828649,592.164754,9770.718434
4147.844221,536.266849,-370.102971,9400.615463
4147.844536,1072.533697,-296.082377,9326.594869
4147.844852,536.266849,-0.000000,9030.512492
4147.845167,383.047749,666.185348,9104.533087
4147.845482,153.219100,518.144159,9474.636058
4147.845798,76.609550,962.267725,9844.739029
4147.846113,-536.266849,1036.288319,9696.697840
4147.846428,0.000000,-148.041188,9770.718434
4147.846743,0.000000,-666.185348,9696.697840
4147.847059,459.657299,-740.205942,9770.718434
4147.847374,459.657299,-444.123565,10288.862594
4147.847689,-459.657299,-148.041188,9918.759623
4147.848005,-229.828649,592.164754,10288.862594
4147.848320,-536.266849,1036.288319,10066.800811
4147.848635,-229.828649,592.164754,9992.780217
4147.848950,919.314598,-518.144159,9474.636058
4147.849266,1608.800546,-518.144159,9474.636058
4147.849581,1225.752797,-0.000000,9326.594869
4147.849896,766.095498,370.102971,9548.656652
4147.850212,383.047749,1184.329507,9548.656652
4147.850527,383.047749,888.247130,10140.821405
4147.850842,459.657299,-0.000000,9992.780217
4147.851157,536.266849,-74.020594,9918.759623
4147.851473,612.876398,-296.082377,9326.594869
4147.851788,612.876398,-0.000000,9474.636058
4147.852103,-76.609550,74.020594,9622.677246
4147.852419,-153.219100,-0.000000,10214.842000
4147.852734,0.000000,-0.000000,10510.924376
4147.853049,0.000000,518.144159,9992.780217
4147.853364,536.266849,-0.000000,9474.636058
4147.853680,1378.971896,-0.000000,9178.553681
4147.853995,1532.190996,518.144159,8808.450710
4147.854310,612.876398,592.164754,8734.430116
4147.854626,459.657299,444.123565,9252.574275
4147.854941,229.828649,740.205942,9252.574275
4147.855256,-229.828649,592.164754,9252.574275
4147.855572,-383.047749,-148.041188,9178.553681
4147.855887,-306.438199,-740.205942,9178.553681
4147.856202,0.000000,-814.226536,9400.615463
4147.856517,-612.876398,-592.164754,9030.512492
4147.856833,-1225.752797,-888.247130,9622.677246
4147.857148,-995.924147,-444.123565,9918.759623
4147.857463,-1072.533697,-296.082377,10066.800811
4147.857779,-689.485948,-74.020594,9696.697840
4147.858094,0.000000,-592.164754,9844.739029
4147.858409,766.095498,-296.082377,8808.450710
4147.858724,459.657299,296.082377,8290.306550
4147.859040,306.438199,444.123565,9326.594869
4147.859355,76.609550,518.144159,9548.656652
4147.859670,0.000000,1110.308913,9104.533087
4147.859986,-612.876398,-0.000000,9474.636058
4147.860301,-536.266849,-370.102971,9400.615463
4147.860616,-383.047749,-814.226536,9548.656652
4147.860931,-536.266849,-740.205942,9696.697840
4147.861247,-766.095498,-592.164754,10732.986159
4147.861562,-919.314598,-148.041188,10658.965565
4147.861877,-612.876398,296.082377,10955.047942
4147.862193,-536.266849,1110.308913,10288.862594
4147.862508,-229.828649,740.205942,9622.677246
4147.862823,1149.143247,444.123565,9474.636058
4147.863138,1149.143247,814.226536,8808.450710
4147.863454,919.314598,888.247130,9326.594869
4147.863769,536.266849,1332.370696,9474.636058
4147.864084,0.000000,1924.535449,9400.615463
4147.864400,0.000000,1480.411884,9696.697840
4147.864715,0.000000,-0.000000,10140.821405
4147.865030,0.000000,-296.082377,9622.677246
4147.865345,-153.219100,-666.185348,10214.842000
4147.865661,-459.657299,-0.000000,9770.718434
4147.865976,-919.314598,148.041188,10436.903782
4147.866291,-459.657299,814.226536,10214.842000
4147.866607,0.000000,814.226536,10362.883188
4147.866922,459.657299,592.164754,9622.677246
4147.867237,842.705048,814.226536,9770.718434
4147.867552,1991.848295,1110.308913,8586.388927
4147.867868,1455.581446,814.226536,8512.368333
4147.868183,1072.533697,1110.308913,9104.533087
4147.868498,919.314598,1036.288319,9696.697840
4147.868814,536.266849,592.164754,9844.739029
4147.869129,306.438199,-0.000000,9548.656652
4147.869444,0.000000,-296.082377,9474.636058
4147.869759,0.000000,-1184.329507,9474.636058
4147.870075,-536.266849,-1406.391290,10066.800811
4147.870390,-612.876398,-1184.329507,9992.780217
4147.870705,-459.657299,-370.102971,9918.759623
4147.871021,-306.438199,-0.000000,10140.821405
4147.871336,76.609550,592.164754,9844.739029
4147.871651,842.705048,370.102971,9252.574275
4147.871966,1149.143247,-0.000000,8956.491898
4147.872282,1378.971896,-74.020594,9252.574275
4147.872597,766.095498,296.082377,9252.574275
4147.872912,766.095498,814.226536,9400.615463
4147.873228,0.000000,814.226536,10066.800811
4147.873543,0.000000,518.144159,9696.697840
4147.873858,76.609550,-592.164754,9696.697840
4147.874174,-229.828649,-1036.288319,9696.697840
4147.874489,-383.047749,-1332.370696,10362.883188
4147.874804,-459.657299,-370.102971,9918.759623
4147.875119,-766.095498,-740.205942,9918.759623
4147.875435,-459.657299,-0.000000,9992.780217
4147.875750,-612.876398,518.144159,9696.697840
4147.876065,0.000000,222.061783,9400.615463
4147.876381,76.609550,-148.041188,9326.594869
4147.876696,995.924147,-0.000000,9030.512492
4147.877011,1072.533697,518.144159,8882.471304
4147.877326,536.266849,740.205942,9030.512492
4147.877642,0.000000,666.185348,10066.800811
4147.877957,-383.047749,814.226536,9918.759623
4147.878272,-536.266849,518.144159,9696.697840
4147.878588,-536.266849,-444.123565,9622.677246
4147.878903,0.000000,-888.247130,9400.615463
4147.879218,0.000000,-296.082377,9252.574275
4147.879533,-766.095498,-740.205942,9918.759623
4147.879849,-689.485948,-148.041188,10362.883188
4147.880164,-1072.533697,-0.000000,9548.656652
4147.880479,-689.485948,222.061783,9622.677246
4147.880795,-229.828649,148.041188,9474.636058
4147.881110,689.485948,-296.082377,8660.409521
4147.881425,842.705048,-74.020594,8882.471304
4147.881740,536.266849,-0.000000,9326.594869
4147.882056,229.828649,592.164754,9992.780217
4147.882371,0.000000,666.185348,10288.862594
4147.882686,0.000000,592.164754,9622.677246
4147.883002,-459.657299,-0.000000,9770.718434
4147.883317,0.000000,-370.102971,10214.842000
4147.883632,76.609550,-296.082377,9474.636058
4147.883947,-229.828649,-0.000000,9844.739029
4147.884263,-536.266849,-0.000000,10510.924376
4147.884578,-459.657299,592.164754,10362.883188
4147.884893,-612.876398,666.185348,9992.780217
4147.885209,0.000000,-0.000000,10362.883188
4147.885524,1072.533697,-444.123565,10140.821405
4147.885839,1149.143247,-370.102971,9622.677246
4147.886154,995.924147,740.205942,9104.533087
4147.886470,459.657299,1258.350101,9696.697840
4147.886785,612.876398,1184.329507,9992.780217
4147.887100,995.924147,1480.411884,9326.594869
4147.887416,1072.533697,814.226536,9474.636058
4147.887731,1455.581446,296.082377,8882.471304
4147.888046,1378.971896,-222.061783,8882.471304
4147.888361,1302.362347,-0.000000,8956.491898
4147.888677,612.876398,-74.020594,9918.759623
4147.888992,612.876398,222.061783,9622.677246
4147.889307,153.219100,-74.020594,10510.924376
4147.889623,383.047749,592.164754,9992.780217
4147.889938,383.047749,-370.102971,9474.636058
4147.890253,612.876398,-296.082377,9104.533087
4147.890568,766.095498,-222.061783,9474.636058
4147.890884,459.657299,444.123565,9030.512492
4147.891199,306.438199,592.164754,9400.615463
4147.891514,0.000000,1258.350101,9474.636058
4147.891830,0.000000,814.226536,9252.574275
4147.892145,383.047749,370.102971,9178.553681
4147.892460,459.657299,-296.082377,9252.574275
4147.892776,153.219100,-444.123565,9104.533087
4147.893091,0.000000,-888.247130,9326.594869
4147.893406,-766.095498,-666.185348,9844.739029
4147.893721,-689.485948,-0.000000,9474.636058
4147.894037,-919.314598,148.041188,10066.800811
4147.894352,-995.924147,-74.020594,9474.636058
4147.894667,-459.657299,-666.185348,9918.759623
4147.894983,459.657299,-222.061783,8956.491898
4147.895298,-153.219100,-74.020594,9474.636058
4147.895613,-306.438199,-0.000000,9474.636058
4147.895928,-383.047749,666.185348,10288.862594
4147.896244,-919.314598,1110.308913,9844.739029
4147.896559,-229.828649,296.082377,9696.697840
4147.896874,153.219100,-222.061783,9252.574275
4147.897190,459.657299,-74.020594,9622.677246
4147.897505,229.828649,444.123565,9400.615463
4147.897820,0.000000,-148.041188,9844.739029
4147.898135,-536.266849,296.082377,10510.924376
4147.898451,-612.876398,222.061783,10288.862594
4147.898766,-459.657299,-74.020594,10140.821405
4147.899081,-383.047749,-222.061783,9474.636058
4147.899397,536.266849,-518.144159,9770.718434
4147.899712,612.876398,-0.000000,9400.615463
4147.900027,459.657299,296.082377,9474.636058
4147.900342,76.609550,814.226536,9918.759623
4147.900658,76.609550,962.267725,9770.718434
4147.900973,153.219100,962.267725,9844.739029
4147.901288,919.314598,296.082377,9030.512492
4147.901604,766.095498,-0.000000,9770.718434
4147.901919,383.047749,-296.082377,8586.388927
4147.902234,0.000000,-444.123565,9252.574275
4147.902549,-229.828649,-0.000000,9696.697840
4147.902865,-612.876398,-0.000000,9770.718434
4147.903180,-306.438199,-0.000000,9844.739029
4147.903495,0.000000,-74.020594,9474.636058
4147.903811,383.047749,-444.123565,9474.636058
4147.904126,689.485948,-666.185348,8808.450710
4147.904441,229.828649,-370.102971,9326.594869
4147.904756,229.828649,-0.000000,9622.677246
4147.905072,0.000000,740.205942,9844.739029
4147.905387,0.000000,888.247130,9400.615463
4147.905702,383.047749,-0.000000,9474.636058
4147.906018,689.485948,-296.082377,8956.491898
4147.906333,995.924147,-370.102971,9400.615463
4147.906648,229.828649,-148.041188,9474.636058
4147.906963,-383.047749,370.102971,9918.759623
4147.907279,-229.828649,-0.000000,9844.739029
4147.907594,0.000000,296.082377,9696.697840
4147.907909,0.000000,296.082377,9918.759623
4147.908225,76.609550,-74.020594,9770.718434
4147.908540,0.000000,-148.041188,9548.656652
4147.908855,383.047749,-0.000000,9400.615463
4147.909171,0.000000,296.082377,9844.739029
4147.909486,-153.219100,592.164754,9474.636058
4147.909801,-153.219100,814.226536,9696.697840
4147.910116,229.828649,666.185348,10066.800811
4147.910432,0.000000,592.164754,9474.636058
4147.910747,766.095498,592.164754,9030.512492
4147.911062,842.705048,-74.020594,9104.533087
4147.911378,459.657299,740.205942,9548.656652
4147.911693,306.438199,518.144159,9474.636058
4147.912008,153.219100,962.267725,9548.656652
4147.912323,0.000000,740.205942,10140.821405
4147.912639,0.000000,222.061783,9474.636058
4147.912954,919.314598,-222.061783,9326.594869
4147.913269,612.876398,-222.061783,9104.533087
4147.913585,0.000000,-0.000000,9030.512492
4147.913900,-229.828649,222.061783,9844.739029
4147.914215,-612.876398,740.205942,10140.821405
4147.914530,-536.266849,444.123565,10140.821405
4147.914846,0.000000,518.144159,9622.677246
4147.915161,76.609550,-0.000000,9474.636058
4147.915476,612.876398,-296.082377,9474.636058
4147.915792,76.609550,592.164754,9474.636058
4147.916107,76.609550,296.082377,9770.718434
4147.916422,153.219100,740.205942,9844.739029
4147.916737,-459.657299,814.226536,9548.656652
4147.917053,0.000000,-0.000000,9548.656652
4147.917368,0.000000,-148.041188,10066.800811
4147.917683,76.609550,-74.020594,9474.636058
4147.917999,153.219100,-592.164754,9178.553681
4147.918314,0.000000,-74.020594,9622.677246
4147.918629,0.000000,-0.000000,10436.903782
4147.918944,-383.047749,814.226536,9844.739029
4147.919260,76.609550,370.102971,9844.739029
4147.919575,306.438199,296.082377,9474.636058
4147.919890,919.314598,-592.164754,9474.636058
4147.920206,842.705048,-0.000000,9178.553681
4147.920521,306.438199,222.061783,9474.636058
4147.920836,153.219100,296.082377,9770.718434
4147.921151,0.000000,1036.288319,9992.780217
4147.921467,0.000000,740.205942,9622.677246
4147.921782,229.828649,-222.061783,10066.800811
4147.922097,612.876398,-518.144159,9548.656652
4147.922413,1149.143247,-444.123565,9178.553681
4147.922728,766.095498,-0.000000,8660.409521
4147.923043,306.438199,-74.020594,10066.800811
4147.923358,0.000000,444.123565,9696.697840
4147.923674,229.828649,962.267725,9474.636058
4147.923989,153.219100,296.082377,9178.553681
4147.924304,842.705048,-444.123565,8956.491898
4147.924620,842.705048,-740.205942,9104.533087
4147.924935,383.047749,-296.082377,9252.574275
4147.925250,-229.828649,-296.082377,9992.780217
4147.925565,-459.657299,592.164754,9918.759623
4147.925881,-459.657299,296.082377,9474.636058
4147.926196,0.000000,-222.061783,9770.718434
4147.926511,0.000000,-962.267725,9992.780217
4147.926827,306.438199,-296.082377,9178.553681
4147.927142,-306.438199,-592.164754,8808.450710
4147.927457,-153.219100,-148.041188,9252.574275
4147.927773,-229.828649,-0.000000,10066.800811
4147.928088,-1149.143247,740.205942,9622.677246
4147.928403,-536.266849,-0.000000,10066.800811
4147.928718,-612.876398,-222.061783,8586.388927
4147.929034,0.000000,-740.205942,9252.574275
4147.929349,0.000000,-444.123565,9474.636058
4147.929664,-842.705048,-0.000000,9474.636058
4147.929980,-766.095498,148.041188,9918.759623
4147.930295,-689.485948,666.185348,9770.718434
4147.930610,-459.657299,666.185348,10066.800811
4147.930925,-306.438199,370.102971,9696.697840
4147.931241,306.438199,-0.000000,9622.677246
4147.931556,153.219100,370.102971,9252.574275
4147.931871,0.000000,814.226536,9474.636058
4147.932187,0.000000,1110.308913,9548.656652
4147.932502,76.609550,1258.350101,9918.759623
4147.932817,-459.657299,1110.308913,9992.780217
4147.933132,0.000000,222.061783,9918.759623
4147.933448,306.438199,370.102971,9252.574275
4147.933763,766.095498,-222.061783,10066.800811
4147.934078,76.609550,296.082377,9622.677246
4147.934394,-153.219100,444.123565,9696.697840
4147.934709,0.000000,1036.288319,9548.656652
4147.935024,306.438199,666.185348,9770.718434
4147.935339,536.266849,592.164754,9696.697840
4147.935655,1378.971896,518.144159,9548.656652
4147.935970,1608.800546,-148.041188,9178.553681
4147.936285,1302.362347,592.164754,8882.471304
4147.936601,536.266849,518.144159,9178.553681
4147.936916,383.047749,370.102971,9844.739029
4147.937231,0.000000,962.267725,10584.944971
4147.937546,-229.828649,296.082377,10362.883188
4147.937862,0.000000,-592.164754,10140.821405
4147.938177,536.266849,-1110.308913,9770.718434
4147.938492,459.657299,-370.102971,9548.656652
4147.938808,383.047749,-222.061783,10140.821405
4147.939123,459.657299,296.082377,10436.903782
4147.939438,842.705048,888.247130,9474.636058
4147.939753,995.924147,444.123565,9326.594869
4147.940069,1225.752797,370.102971,8956.491898
4147.940384,1685.410096,-0.000000,8808.450710
4147.940699,1685.410096,148.041188,8438.347739
4147.941015,919.314598,-0.000000,8438.347739
4147.941330,383.047749,-370.102971,9474.636058
4147.941645,0.000000,-0.000000,9844.739029
4147.941960,-919.314598,-444.123565,9992.780217
4147.942276,-766.095498,-740.205942,9474.636058
4147.942591,-842.705048,-1184.329507,10140.821405
4147.942906,0.000000,-1110.308913,9696.697840
4147.943222,0.000000,-74.020594,9474.636058
4147.943537,153.219100,296.082377,9770.718434
4147.943852,76.609550,1184.329507,9918.759623
4147.944167,229.828649,1406.391290,9844.739029
4147.944483,612.876398,740.205942,9326.594869
4147.944798,842.705048,296.082377,9252.574275
4147.945113,1072.533697,-0.000000,8956.491898
4147.945429,0.000000,-222.061783,8808.450710
4147.945744,-153.219100,-0.000000,9252.574275
4147.946059,-766.095498,-296.082377,9770.718434
4147.946375,-1225.752797,-222.061783,9696.697840
4147.946690,-1302.362347,-592.164754,9770.718434
4147.947005,-1072.533697,-740.205942,9622.677246
4147.947320,-612.876398,-1184.329507,9252.574275
4147.947636,-612.876398,-1036.288319,9326.594869
4147.947951,-536.266849,-592.164754,9844.739029
4147.948266,-689.485948,-148.041188,10066.800811
4147.948582,-995.924147,518.144159,10214.842000
4147.948897,-459.657299,740.205942,9178.553681
4147.949212,76.609550,518.144159,8808.450710
4147.949527,536.266849,222.061783,9030.512492
4147.949843,153.219100,-222.061783,9030.512492
4147.950158,-306.438199,-0.000000,9474.636058
4147.950473,-612.876398,-296.082377,10362.883188
4147.950789,-1225.752797,-74.020594,10362.883188
4147.951104,-1455.581446,-74.020594,10140.821405
4147.951419,-1455.581446,-518.144159,10140.821405
4147.951735,-229.828649,-1332.370696,10066.800811
4147.952050,0.000000,-1258.350101,9696.697840
4147.952365,-229.828649,-444.123565,9474.636058
4147.952681,0.000000,148.041188,9548.656652
4147.952996,459.657299,1110.308913,9548.656652
4147.953311,689.485948,1480.411884,9696.697840
4147.953627,1072.533697,888.247130,9104.533087
4147.953942,1608.800546,592.164754,9400.615463
4147.954257,1762.019645,444.123565,9326.594869
4147.954572,1302.362347,814.226536,9622.677246
4147.954888,1149.143247,814.226536,9474.636058
4147.955203,383.047749,666.185348,10214.842000
4147.955518,153.219100,888.247130,10066.800811
4147.955834,0.000000,518.144159,9992.780217
4147.956149,459.657299,-74.020594,9696.697840
4147.956464,919.314598,-444.123565,9992.780217
4147.956780,1072.533697,-0.000000,9474.636058
4147.957095,919.314598,444.123565,9770.718434
4147.957410,766.095498,1110.308913,9992.780217
4147.957726,1072.533697,2294.638420,9770.718434
4147.958041,919.314598,1776.494261,9400.615463
4147.958356,1302.362347,1332.370696,9252.574275
4147.958672,1838.629195,740.205942,9252.574275
4147.958987,1762.019645,518.144159,9030.512492
4147.959302,306.438199,-0.000000,9548.656652
4147.959618,76.609550,518.144159,10214.842000
4147.959933,-459.657299,666.185348,9992.780217
4147.960248,-919.314598,592.164754,10214.842000
4147.960564,-842.705048,-74.020594,10066.800811
4147.960879,-459.657299,-740.205942,9918.759623
4147.961194,-383.047749,-518.144159,9844.739029
4147.961509,-689.485948,-296.082377,9474.636058
4147.961825,-612.876398,-0.000000,9992.780217
4147.962140,-689.485948,518.144159,9918.759623
4147.962455,-229.828649,888.247130,9400.615463
4147.962771,76.609550,296.082377,9326.594869
4147.963086,459.657299,-0.000000,8956.491898
4147.963401,536.266849,370.102971,9252.574275
4147.963717,0.000000,296.082377,8882.471304
4147.964032,-153.219100,296.082377,9474.636058
4147.964347,-995.924147,-74.020594,9992.780217
4147.964663,-1149.143247,-222.061783,9992.780217
4147.964978,-1072.533697,-370.102971,9992.780217
4147.965293,-842.705048,-370.102971,9622.677246
4147.965609,0.000000,-962.267725,9474.636058
4147.965924,-306.438199,-74.020594,9178.553681
4147.966239,-689.485948,-74.020594,9770.718434
4147.966555,-383.047749,444.123565,9548.656652
4147.966870,76.609550,666.185348,10140.821405
4147.967185,459.657299,222.061783,9474.636058
4147.967501,689.485948,296.082377,9696.697840
4147.967816,1378.971896,-0.000000,9104.533087
4147.968131,766.095498,296.082377,8956.491898
4147.968446,306.438199,666.185348,9104.533087
4147.968762,383.047749,-148.041188,10214.842000
4147.969077,383.047749,592.164754,9474.636058
4147.969392,0.000000,-0.000000,9770.718434
4147.969708,-306.438199,-74.020594,9178.553681
4147.970023,153.219100,-740.205942,9696.697840
4147.970338,-153.219100,-666.185348,9030.512492
4147.970654,-153.219100,-592.164754,9622.677246
4147.970969,-306.438199,-740.205942,10066.800811
4147.971284,-306.438199,-222.061783,10288.862594
4147.971600,-229.828649,444.123565,9622.677246
4147.971915,459.657299,-0.000000,9474.636058
4147.972230,842.705048,-148.041188,9030.512492
4147.972546,1072.533697,-296.082377,8956.491898
4147.972861,842.705048,-74.020594,8734.430116
4147.973176,459.657299,-148.041188,9252.574275
4147.973492,0.000000,-0.000000,9252.574275
4147.973807,0.000000,444.123565,9400.615463
4147.974122,-689.485948,-222.061783,10214.842000
4147.974438,-229.828649,-666.185348,9770.718434
4147.974753,229.828649,-1258.350101,9548.656652
4147.975068,76.609550,-814.226536,9252.574275
4147.975383,-229.828649,-444.123565,10066.800811
4147.975699,-383.047749,222.061783,10288.862594
4147.976014,0.000000,814.226536,9918.759623
4147.976329,383.047749,444.123565,9770.718434
4147.976645,842.705048,-0.000000,9400.615463
4147.976960,1762.019645,296.082377,9178.553681
4147.977275,1225.752797,888.247130,8882.471304
4147.977591,459.657299,1184.329507,9622.677246
4147.977906,0.000000,1258.350101,9474.636058
4147.978221,0.000000,1184.329507,9918.759623
4147.978537,0.000000,666.185348,10140.821405
4147.978852,-153.219100,296.082377,9992.780217
4147.979167,0.000000,-222.061783,9696.697840
4147.979483,-306.438199,-0.000000,10140.821405
4147.979798,-612.876398,-0.000000,10288.862594
4147.980113,-306.438199,222.061783,10732.986159
4147.980429,0.000000,814.226536,10584.944971
4147.980744,-459.657299,888.247130,9770.718434
4147.981059,536.266849,1036.288319,9474.636058
4147.981375,919.314598,148.041188,9104.533087
4147.981690,842.705048,592.164754,8808.450710
4147.982005,229.828649,518.144159,8734.430116
4147.982320,153.219100,296.082377,9104.533087
4147.982636,-306.438199,370.102971,10066.800811
4147.982951,-306.438199,444.123565,9992.780217
4147.983266,-612.876398,-518.144159,9992.780217
4147.983582,-689.485948,-740.205942,9992.780217
4147.983897,0.000000,-1332.370696,10140.821405
4147.984212,-383.047749,-814.226536,9622.677246
4147.984528,0.000000,-148.041188,9992.780217
4147.984843,-229.828649,518.144159,10288.862594
4147.985158,306.438199,888.247130,9844.739029
4147.985474,76.609550,518.144159,9400.615463
4147.985789,689.485948,148.041188,9326.594869
4147.986104,1302.362347,222.061783,8882.471304
4147.986420,1149.143247,222.061783,8660.409521
4147.986735,995.924147,740.205942,9474.636058
4147.987050,306.438199,-0.000000,9770.718434
4147.987366,0.000000,296.082377,9622.677246
4147.987681,0.000000,-222.061783,9992.780217
4147.987996,0.000000,-592.164754,9770.718434
4147.988312,459.657299,-740.205942,9252.574275
4147.988627,689.485948,-74.020594,9252.574275
4147.988942,306.438199,-296.082377,10066.800811
4147.989257,0.000000,222.061783,9770.718434
4147.989573,0.000000,666.185348,10436.903782
4147.989888,383.047749,1110.308913,9622.677246
4147.990203,536.266849,888.247130,9326.594869
4147.990519,1302.362347,814.226536,9400.615463
4147.990834,1838.629195,296.082377,9178.553681
4147.991149,995.924147,518.144159,8882.471304
4147.991465,612.876398,148.041188,9844.739029
4147.991780,536.266849,740.205942,10214.842000
4147.992095,153.219100,740.205942,9548.656652
4147.992411,76.609550,-518.144159,10214.842000
4147.992726,306.438199,-962.267725,9474.636058
4147.993041,153.219100,-962.267725,9104.533087
4147.993357,-536.266849,-370.102971,9474.636058
4147.993672,-766.095498,-666.185348,9992.780217
4147.993987,-766.095498,-74.020594,9918.759623
4147.994303,-919.314598,518.144159,9918.759623
4147.994618,-612.876398,-0.000000,9696.697840
4147.994933,0.000000,-444.123565,9548.656652
4147.995249,689.485948,-444.123565,9178.553681
4147.995564,0.000000,-296.082377,8882.471304
4147.995879,-612.876398,148.041188,9252.574275
4147.996194,0.000000,518.144159,9400.615463
4147.996510,-612.876398,1110.308913,9400.615463
4147.996825,-306.438199,148.041188,9252.574275
4147.997140,-536.266849,-0.000000,9400.615463
4147.997456,0.000000,-740.205942,9548.656652
4147.997771,-229.828649,-444.123565,9104.533087
4147.998086,-842.705048,-444.123565,9622.677246
4147.998402,-1149.143247,-74.020594,10214.842000
4147.998717,-1455.581446,370.102971,9992.780217
4147.999032,-766.095498,444.123565,9992.780217
4147.999348,0.000000,370.102971,10288.862594
4147.999663,536.266849,592.164754,9030.512492
4147.999978,1072.533697,592.164754,9474.636058
4148.000294,536.266849,1406.391290,9104.533087
4148.000609,459.657299,2072.576638,9548.656652
4148.000924,612.876398,2294.638420,9474.636058
4148.001240,612.876398,2072.576638,9844.739029
4148.001555,689.485948,1332.370696,10140.821405
4148.001870,536.266849,1110.308913,9474.636058
4148.002186,459.657299,-148.041188,9622.677246
4148.002501,-153.219100,-0.000000,9844.739029
4148.002816,-612.876398,-0.000000,10732.986159
4148.003131,-612.876398,148.041188,10807.006753
4148.003447,-229.828649,444.123565,10881.027347
4148.003762,-229.828649,666.185348,10066.800811
4148.004077,383.047749,370.102971,9474.636058
4148.004393,1072.533697,296.082377,8882.471304
4148.004708,1378.971896,518.144159,9400.615463
4148.005023,306.438199,666.185348,9400.615463
4148.005339,1072.533697,740.205942,9770.718434
4148.005654,919.314598,1036.288319,9622.677246
4148.005969,229.828649,370.102971,9696.697840
4148.006285,306.438199,-444.123565,9548.656652
4148.006600,229.828649,-1036.288319,9104.533087
4148.006915,0.000000,-1110.308913,9326.594869
4148.007231,-229.828649,-962.267725,9326.594869
4148.007546,-459.657299,-740.205942,10066.800811
4148.007861,-536.266849,-370.102971,9992.780217
4148.008177,-536.266849,-222.061783,10066.800811
4148.008492,0.000000,-740.205942,9548.656652
4148.008807,1608.800546,-888.247130,9178.553681
4148.009123,1532.190996,-518.144159,8808.450710
4148.009438,766.095498,-592.164754,9252.574275
4148.009753,536.266849,-0.000000,9178.553681
4148.010068,612.876398,814.226536,9622.677246
4148.010384,536.266849,1036.288319,9178.553681
4148.010699,766.095498,296.082377,9104.533087
4148.011014,536.266849,-74.020594,9178.553681
4148.011330,229.828649,-444.123565,9178.553681
4148.011645,0.000000,-814.226536,9474.636058
4148.011960,-459.657299,-962.267725,10214.842000
4148.012276,-689.485948,-222.061783,10807.006753
4148.012591,-919.314598,-0.000000,10362.883188
4148.012906,-536.266849,-148.041188,9918.759623
4148.013222,229.828649,-296.082377,9770.718434
4148.013537,1072.533697,-296.082377,9252.574275
4148.013852,689.485948,370.102971,8882.471304
4148.014168,689.485948,740.205942,9474.636058
4148.014483,153.219100,814.226536,9474.636058
4148.014798,0.000000,1036.288319,9400.615463
4148.015114,306.438199,592.164754,9326.594869
4148.015429,0.000000,-444.123565,9104.533087
4148.015744,-459.657299,-1110.308913,9474.636058
4148.016060,-842.705048,-1258.350101,9844.739029
4148.016375,-1532.190996,-962.267725,10214.842000
4148.016690,-1455.581446,-740.205942,10362.883188
4148.017005,-1532.190996,-74.020594,10732.986159
4148.017321,-1302.362347,-74.020594,9918.759623
4148.017636,-995.924147,-666.185348,9770.718434
4148.017951,306.438199,-1184.329507,9326.594869
4148.018267,612.876398,-0.000000,9104.533087
4148.018582,383.047749,592.164754,8956.491898
4148.018897,383.047749,962.267725,9548.656652
4148.019213,383.047749,1036.288319,9030.512492
4148.019528,0.000000,1184.329507,9252.574275
4148.019843,0.000000,296.082377,9178.553681
4148.020159,229.828649,-592.164754,9548.656652
4148.020474,0.000000,-814.226536,9770.718434
4148.020789,-76.609550,-1036.288319,9770.718434
4148.021105,0.000000,-296.082377,10140.821405
4148.021420,-153.219100,518.144159,10658.965565
4148.021735,-612.876398,1702.473667,10362.883188
4148.022051,0.000000,1184.329507,10214.842000
4148.022366,459.657299,1184.329507,9104.533087
4148.022681,1149.143247,1332.370696,8956.491898
4148.022997,842.705048,1850.514855,9178.553681
4148.023312,689.485948,1406.391290,9622.677246
4148.023627,536.266849,1480.411884,10066.800811
4148.023942,536.266849,2072.576638,10288.862594
4148.024258,229.828649,1406.391290,9992.780217
4148.024573,229.828649,814.226536,9844.739029
4148.024888,766.095498,740.205942,9992.780217
4148.025204,-76.609550,666.185348,9548.656652
4148.025519,229.828649,592.164754,9918.759623
4148.025834,0.000000,740.205942,10436.903782
4148.026150,-153.219100,962.267725,10066.800811
4148.026465,76.609550,814.226536,9622.677246
4148.026780,689.485948,296.082377,9474.636058
4148.027096,1532.190996,296.082377,8882.471304
4148.027411,1149.143247,444.123565,9326.594869
4148.027726,766.095498,518.144159,9178.553681
4148.028042,383.047749,296.082377,10214.842000
4148.028357,536.266849,592.164754,9696.697840
4148.028672,0.000000,444.123565,9178.553681
4148.028988,153.219100,-592.164754,9622.677246
4148.029303,306.438199,-1036.288319,9770.718434
4148.029618,689.485948,-1184.329507,9474.636058
4148.029933,0.000000,-814.226536,9474.636058
4148.030249,-459.657299,-296.082377,9918.759623
4148.030564,-153.219100,-0.000000,10288.862594
4148.030879,-306.438199,-74.020594,9548.656652
4148.031195,0.000000,-370.102971,9252.574275
4148.031510,459.657299,-962.267725,9178.553681
4148.031825,919.314598,-444.123565,8808.450710
4148.032141,689.485948,-0.000000,8882.471304
4148.032456,306.438199,148.041188,9400.615463
4148.032771,0.000000,370.102971,10436.903782
4148.033087,0.000000,518.144159,9326.594869
4148.033402,-229.828649,222.061783,9326.594869
4148.033717,-459.657299,-296.082377,9548.656652
4148.034033,0.000000,-592.164754,9474.636058
4148.034348,0.000000,-222.061783,9104.533087
4148.034663,-612.876398,-444.123565,10214.842000
4148.034979,-919.314598,-148.041188,10288.862594
4148.035294,-459.657299,222.061783,10584.944971
4148.035609,-689.485948,222.061783,9844.739029
4148.035925,-229.828649,-0.000000,9474.636058
4148.036240,612.876398,-222.061783,9178.553681
4148.036555,766.095498,-148.041188,9252.574275
4148.036870,612.876398,-0.000000,9104.533087
4148.037186,383.047749,-0.000000,9474.636058
4148.037501,153.219100,444.123565,9104.533087
4148.037816,-229.828649,666.185348,9030.512492
4148.038132,153.219100,-222.061783,8956.491898
4148.038447,153.219100,-1110.308913,9030.512492
4148.038762,459.657299,-1850.514855,8586.388927
4148.039078,0.000000,-1406.391290,9918.759623
4148.039393,-1072.533697,-962.267725,9992.780217
4148.039708,-1149.143247,-148.041188,10510.924376
4148.040024,-612.876398,-0.000000,9992.780217
4148.040339,-229.828649,-592.164754,9770.718434
4148.040654,229.828649,-1332.370696,9400.615463
4148.040970,919.314598,-814.226536,9252.574275
4148.041285,995.924147,-0.000000,9622.677246
4148.041600,459.657299,-0.000000,9252.574275
4148.041916,306.438199,518.144159,8956.491898
4148.042231,459.657299,1406.391290,9030.512492
4148.042546,536.266849,222.061783,9104.533087
4148.042862,612.876398,-0.000000,9104.533087
4148.043177,1225.752797,-518.144159,9474.636058
4148.043492,0.000000,-74.020594,9622.677246
4148.043807,0.000000,-0.000000,9770.718434
4148.044123,0.000000,-0.000000,9474.636058
4148.044438,-459.657299,1036.288319,10584.944971
4148.044753,0.000000,592.164754,9992.780217
4148.045069,153.219100,370.102971,9696.697840
4148.045384,459.657299,592.164754,9622.677246
4148.045699,536.266849,962.267725,8956.491898
4148.046015,306.438199,1406.391290,9548.656652
4148.046330,-383.047749,1776.494261,9992.780217
4148.046645,-306.438199,1924.535449,10288.862594
4148.046961,0.000000,1776.494261,9992.780217
4148.047276,0.000000,1258.350101,9770.718434
4148.047591,459.657299,740.205942,10066.800811
4148.047907,536.266849,814.226536,9844.739029
4148.048222,0.000000,592.164754,9622.677246
4148.048537,-383.047749,666.185348,10362.883188
4148.048853,-612.876398,1110.308913,10288.862594
4148.049168,0.000000,1184.329507,9548.656652
4148.049483,76.609550,370.102971,9030.512492
4148.049799,383.047749,148.041188,9548.656652
4148.050114,842.705048,148.041188,9104.533087
4148.050429,766.095498,370.102971,9474.636058
4148.050744,153.219100,666.185348,9918.759623
4148.051060,536.266849,1184.329507,9844.739029
4148.051375,76.609550,1184.329507,10140.821405
4148.051690,0.000000,740.205942,9622.677246
4148.052006,459.657299,-222.061783,10214.842000
4148.052321,612.876398,-814.226536,9844.739029
4148.052636,612.876398,-518.144159,9474.636058
4148.052952,0.000000,-222.061783,9696.697840
4148.053267,-459.657299,-0.000000,10140.821405
4148.053582,0.000000,592.164754,9770.718434
4148.053898,0.000000,-0.000000,9548.656652
4148.054213,153.219100,-370.102971,9622.677246
4148.054528,766.095498,-888.247130,9104.533087
4148.054844,612.876398,-222.061783,9474.636058
4148.055159,0.000000,-74.020594,9326.594869
4148.055474,153.219100,-0.000000,10066.800811
4148.055790,0.000000,740.205942,9844.739029
4148.056105,0.000000,-0.000000,9770.718434
4148.056420,-153.219100,-148.041188,9992.780217
4148.056736,229.828649,-222.061783,9844.739029
4148.057051,306.438199,-0.000000,9696.697840
4148.057366,-306.438199,370.102971,9844.739029
4148.057682,-229.828649,814.226536,9548.656652
4148.057997,0.000000,370.102971,9548.656652
4148.058313,0.000000,370.102971,9400.615463
4148.058628,229.828649,-0.000000,9326.594869
4148.058943,995.924147,-222.061783,9104.533087
4148.059259,612.876398,-888.247130,8734.430116
4148.059574,306.438199,-370.102971,9178.553681
4148.059890,153.219100,-666.185348,9400.615463
4148.060205,-459.657299,-222.061783,9326.594869
4148.060520,-153.219100,-0.000000,9548.656652
4148.060836,0.000000,-296.082377,9104.533087
4148.061151,306.438199,-814.226536,8660.409521
4148.061467,536.266849,-1036.288319,8808.450710
4148.061782,229.828649,-518.144159,8808.450710
4148.062097,0.000000,-518.144159,9548.656652
4148.062413,0.000000,-0.000000,9770.718434
4148.062728,-229.828649,370.102971,9918.759623
4148.063044,0.000000,-222.061783,9844.739029
4148.063359,306.438199,-666.185348,9474.636058
4148.063674,612.876398,-1110.308913,9474.636058
4148.063990,383.047749,-962.267725,9326.594869
4148.064305,153.219100,-444.123565,9400.615463
4148.064621,0.000000,-222.061783,9770.718434
4148.064936,-689.485948,518.144159,9474.636058
4148.065251,-229.828649,-148.041188,9400.615463
4148.065567,-383.047749,-592.164754,9104.533087
4148.065882,459.657299,-740.205942,9474.636058
4148.066198,76.609550,-592.164754,9474.636058
4148.066513,0.000000,-370.102971,10214.842000
4148.066828,0.000000,518.144159,10436.903782
4148.067144,-306.438199,1110.308913,10584.944971
4148.067459,-229.828649,1554.432478,10140.821405
4148.067775,229.828649,1036.288319,10140.821405
4148.068090,536.266849,518.144159,9548.656652
4148.068406,689.485948,592.164754,9400.615463
4148.068721,536.266849,1628.453072,9178.553681
4148.069036,0.000000,1258.350101,9844.739029
4148.069352,0.000000,1628.453072,10436.903782
4148.069667,-229.828649,1110.308913,9622.677246
4148.069983,-153.219100,444.123565,9770.718434
4148.070298,76.609550,-0.000000,9474.636058
4148.070613,306.438199,-74.020594,9548.656652
4148.070929,153.219100,296.082377,9548.656652
4148.071244,-383.047749,296.082377,9548.656652
4148.071560,383.047749,1258.350101,9696.697840
4148.071875,229.828649,1554.432478,9178.553681
4148.072190,536.266849,962.267725,9178.553681
4148.072506,1072.533697,740.205942,9178.553681
4148.072821,1072.533697,888.247130,8956.491898
4148.073137,1072.533697,740.205942,8586.388927
4148.073452,229.828649,592.164754,9918.759623
4148.073767,76.609550,148.041188,9844.739029
4148.074083,-306.438199,518.144159,10288.862594
4148.074398,0.000000,-0.000000,9104.533087
4148.074714,-383.047749,-740.205942,10584.944971
4148.075029,306.438199,-74.020594,9474.636058
4148.075344,0.000000,-814.226536,9918.759623
4148.075660,0.000000,-0.000000,9474.636058
4148.075975,76.609550,-296.082377,9400.615463
4148.076291,0.000000,666.185348,9622.677246
4148.076606,383.047749,592.164754,9400.615463
4148.076921,383.047749,592.164754,9326.594869
4148.077237,1378.971896,-0.000000,9474.636058
4148.077552,842.705048,-444.123565,8808.450710
4148.077868,612.876398,222.061783,9252.574275
4148.078183,842.705048,296.082377,9548.656652
4148.078498,0.000000,518.144159,10214.842000
4148.078814,-689.485948,444.123565,10214.842000
4148.079129,-383.047749,-370.102971,9548.656652
4148.079445,76.609550,-0.000000,9992.780217
4148.079760,0.000000,-74.020594,9252.574275
4148.080075,-306.438199,222.061783,9474.636058
4148.080391,-459.657299,296.082377,9992.780217
4148.080706,-383.047749,-0.000000,9696.697840
4148.081022,0.000000,222.061783,10066.800811
4148.081337,306.438199,-0.000000,9770.718434
4148.081653,0.000000,74.020594,9696.697840
4148.081968,689.485948,-0.000000,8660.409521
4148.082283,612.876398,-0.000000,9178.553681
4148.082599,153.219100,-0.000000,8956.491898
4148.082914,229.828649,-0.000000,9770.718434
4148.083230,-306.438199,888.247130,9548.656652
4148.083545,-459.657299,-0.000000,9400.615463
4148.083860,-383.047749,-518.144159,9178.553681
4148.084176,153.219100,-1184.329507,9474.636058
4148.084491,-689.485948,-1332.370696,9474.636058
4148.084807,-689.485948,-888.247130,9992.780217
4148.085122,-1378.971896,-666.185348,10807.006753
4148.085437,-536.266849,-148.041188,10140.821405
4148.085753,76.609550,222.061783,9696.697840
4148.086068,0.000000,-370.102971,9696.697840
4148.086384,766.095498,-444.123565,9400.615463
4148.086699,995.924147,-222.061783,8586.388927
4148.087014,306.438199,370.102971,8956.491898
4148.087330,536.266849,-74.020594,9326.594869
4148.087645,459.657299,592.164754,9474.636058
4148.087961,-229.828649,148.041188,9104.533087
4148.088276,-612.876398,-666.185348,9104.533087
4148.088591,0.000000,-1036.288319,9474.636058
4148.088907,-306.438199,-1628.453072,9474.636058
4148.089222,-842.705048,-740.205942,9770.718434
4148.089538,-1225.752797,-0.000000,10288.862594
4148.089853,-1072.533697,-296.082377,10288.862594
4148.090168,-153.219100,888.247130,10288.862594
4148.090484,0.000000,962.267725,9696.697840
4148.090799,536.266849,592.164754,9844.739029
4148.091115,1302.362347,666.185348,8882.471304
4148.091430,689.485948,1258.350101,9178.553681
4148.091745,459.657299,1332.370696,8956.491898
4148.092061,229.828649,1406.391290,9770.718434
4148.092376,0.000000,1850.514855,9992.780217
4148.092692,-229.828649,-0.000000,10140.821405
4148.093007,0.000000,-0.000000,9474.636058
4148.093322,1072.533697,-370.102971,9548.656652
4148.093638,536.266849,-370.102971,9178.553681
4148.093953,306.438199,-0.000000,9992.780217
4148.094269,459.657299,370.102971,10288.862594
4148.094584,995.924147,1258.350101,9400.615463
4148.094900,995.924147,962.267725,8882.471304
4148.095215,1685.410096,592.164754,8586.388927
4148.095530,2068.457845,222.061783,8512.368333
4148.095846,2221.676944,444.123565,8882.471304
4148.096161,1762.019645,1036.288319,8956.491898
4148.096477,766.095498,370.102971,9696.697840
4148.096792,306.438199,666.185348,10510.924376
4148.097107,0.000000,444.123565,10436.903782
4148.097423,153.219100,-148.041188,10807.006753
4148.097738,0.000000,-370.102971,10362.883188
4148.098054,0.000000,-592.164754,10066.800811
4148.098369,-306.438199,-0.000000,10066.800811
4148.098684,-536.266849,296.082377,10436.903782
4148.099000,-766.095498,296.082377,10288.862594
4148.099315,0.000000,666.185348,10214.842000
4148.099631,76.609550,592.164754,9770.718434
4148.099946,76.609550,-0.000000,9696.697840
4148.100261,766.095498,370.102971,8882.471304
4148.100577,0.000000,814.226536,8808.450710
4148.100892,76.609550,-0.000000,9474.636058
4148.101208,-459.657299,370.102971,9844.739029
4148.101523,-842.705048,444.123565,10140.821405
4148.101838,-1225.752797,-0.000000,9918.759623
4148.102154,-766.095498,-222.061783,9992.780217
4148.102469,-229.828649,-518.144159,8956.491898
4148.102785,-536.266849,-74.020594,9326.594869
4148.103100,-1072.533697,-148.041188,10362.883188
4148.103415,-1072.533697,296.082377,10436.903782
4148.103731,-689.485948,1036.288319,9918.759623
4148.104046,-612.876398,444.123565,9548.656652
4148.104362,0.000000,370.102971,9104.533087
4148.104677,689.485948,666.185348,8882.471304
4148.104992,842.705048,-0.000000,8660.409521
4148.105308,306.438199,-0.000000,9548.656652
4148.105623,229.828649,-370.102971,9696.697840
4148.105939,-536.266849,148.041188,9474.636058
4148.106254,-766.095498,-222.061783,9622.677246
4148.106569,-459.657299,-666.185348,9400.615463
4148.106885,383.047749,-1258.350101,9178.553681
4148.107200,76.609550,-1184.329507,8734.430116
4148.107516,0.000000,-740.205942,8882.471304
4148.107831,-536.266849,-370.102971,9696.697840
4148.108147,-842.705048,296.082377,9696.697840
4148.108462,-536.266849,-0.000000,9918.759623
4148.108777,0.000000,-296.082377,9326.594869
4148.109093,383.047749,-666.185348,9696.697840
4148.109408,612.876398,-814.226536,9474.636058
4148.109724,459.657299,-222.061783,9326.594869
4148.110039,76.609550,-148.041188,9622.677246
4148.110354,306.438199,444.123565,9474.636058
4148.110670,229.828649,814.226536,9474.636058
4148.110985,76.609550,-0.000000,9474.636058
4148.111301,536.266849,-444.123565,8808.450710
4148.111616,919.314598,-1110.308913,9252.574275
4148.111931,229.828649,-592.164754,9474.636058
4148.112247,0.000000,-148.041188,9770.718434
4148.112562,-229.828649,-0.000000,9918.759623
4148.112878,306.438199,148.041188,10362.883188
4148.113193,76.609550,296.082377,9770.718434
4148.113508,689.485948,296.082377,9252.574275
4148.113824,1302.362347,74.020594,9474.636058
4148.114139,766.095498,-0.000000,9178.553681
4148.114455,842.705048,740.205942,9844.739029
4148.114770,842.705048,1776.494261,9474.636058
4148.115085,153.219100,1776.494261,9548.656652
4148.115401,229.828649,1554.432478,10140.821405
4148.115716,383.047749,370.102971,9992.780217
4148.116032,919.314598,518.144159,9474.636058
4148.116347,536.266849,222.061783,9474.636058
4148.116662,153.219100,222.061783,9548.656652
4148.116978,0.000000,296.082377,10584.944971
4148.117293,-229.828649,296.082377,10140.821405
4148.117609,0.000000,740.205942,9696.697840
4148.117924,0.000000,148.041188,9622.677246
4148.118239,766.095498,-74.020594,9696.697840
4148.118555,1378.971896,296.082377,9104.533087
4148.118870,229.828649,814.226536,8956.491898
4148.119186,76.609550,444.123565,9548.656652
4148.119501,229.828649,444.123565,10510.924376
4148.119816,-306.438199,814.226536,10362.883188
4148.120132,0.000000,-74.020594,9844.739029
4148.120447,0.000000,-222.061783,10362.883188
4148.120763,76.609550,-888.247130,9548.656652
4148.121078,0.000000,-518.144159,9474.636058
4148.121394,-536.266849,-0.000000,9696.697840
4148.121709,-383.047749,222.061783,9992.780217
4148.122024,-612.876398,370.102971,10214.842000
4148.122340,0.000000,370.102971,9178.553681
4148.122655,0.000000,-518.144159,8956.491898
4148.122971,153.219100,-814.226536,8956.491898
4148.123286,0.000000,-444.123565,9326.594869
4148.123601,-612.876398,-0.000000,9178.553681
4148.123917,-383.047749,222.061783,9474.636058
4148.124232,-306.438199,1110.308913,9844.739029
4148.124548,-306.438199,444.123565,9474.636058
4148.124863,0.000000,-0.000000,9400.615463
4148.125178,153.219100,-74.020594,9474.636058
4148.125494,383.047749,-0.000000,9326.594869
4148.125809,-536.266849,296.082377,9326.594869
4148.126125,-229.828649,592.164754,9844.739029
4148.126440,-306.438199,814.226536,10066.800811
4148.126755,0.000000,888.247130,9622.677246
4148.127071,153.219100,-0.000000,9474.636058
4148.127386,689.485948,-222.061783,9178.553681
4148.127702,995.924147,-222.061783,9252.574275
4148.128017,842.705048,296.082377,9400.615463
4148.128332,229.828649,-0.000000,9400.615463
4148.128648,76.609550,1110.308913,9622.677246
4148.128963,459.657299,740.205942,9622.677246
4148.129279,153.219100,-0.000000,9252.574275
4148.129594,459.657299,-296.082377,9474.636058
4148.129909,306.438199,-814.226536,9178.553681
4148.130225,76.609550,-518.144159,9844.739029
4148.130540,-229.828649,-444.123565,10732.986159
4148.130856,-536.266849,-370.102971,10658.965565
4148.131171,-306.438199,-0.000000,11103.089130
4148.131486,-306.438199,-222.061783,9992.780217
4148.131802,459.657299,-666.185348,10140.821405
4148.132117,1072.533697,-1036.288319,9252.574275
4148.132433,766.095498,222.061783,9030.512492
4148.132748,306.438199,444.123565,9104.533087
4148.133063,0.000000,444.123565,9178.553681
4148.133379,-153.219100,1110.308913,9696.697840
4148.133694,0.000000,-74.020594,9474.636058
4148.134010,0.000000,-444.123565,9548.656652
4148.134325,0.000000,-888.247130,9474.636058
4148.134641,-383.047749,-1110.308913,9400.615463
4148.134956,-459.657299,-370.102971,9918.759623
4148.135271,-612.876398,-222.061783,10436.903782
4148.135587,-459.657299,296.082377,10140.821405
4148.135902,0.000000,666.185348,9474.636058
4148.136218,383.047749,518.144159,9474.636058
4148.136533,766.095498,518.144159,9030.512492
4148.136848,536.266849,666.185348,8734.430116
4148.137164,536.266849,962.267725,9178.553681
4148.137479,383.047749,962.267725,9696.697840
4148.137795,0.000000,1036.288319,9548.656652
4148.138110,0.000000,1110.308913,10066.800811
4148.138425,-229.828649,-0.000000,9474.636058
4148.138741,-229.828649,-222.061783,9622.677246
4148.139056,153.219100,-296.082377,9474.636058
4148.139372,0.000000,-0.000000,9770.718434
4148.139687,0.000000,518.144159,9474.636058
4148.140002,-229.828649,814.226536,9770.718434
4148.140318,0.000000,1258.350101,9548.656652
4148.140633,-229.828649,888.247130,9178.553681
4148.140949,766.095498,592.164754,8808.450710
4148.141264,1149.143247,148.041188,8956.491898
4148.141579,306.438199,444.123565,9252.574275
4148.141895,0.000000,444.123565,9474.636058
4148.142210,-306.438199,-0.000000,10288.862594
4148.142526,-383.047749,370.102971,10510.924376
4148.142841,-766.095498,-74.020594,10362.883188
4148.143156,-306.438199,-0.000000,9992.780217
4148.143472,383.047749,-296.082377,10140.821405
4148.143787,153.219100,-222.061783,9992.780217
4148.144103,-76.609550,296.082377,9474.636058
4148.144418,-306.438199,222.061783,9918.759623
4148.144733,-459.657299,740.205942,9918.759623
4148.145049,0.000000,740.205942,9474.636058
4148.145364,689.485948,-444.123565,9104.533087
4148.145680,1302.362347,-74.020594,9400.615463
4148.145995,1685.410096,-0.000000,9252.574275
4148.146311,995.924147,296.082377,9030.512492
4148.146626,919.314598,666.185348,9474.636058
4148.146941,1302.362347,888.247130,9918.759623
4148.147257,306.438199,888.247130,9844.739029
4148.147572,229.828649,222.061783,9326.594869
4148.147888,689.485948,-0.000000,9326.594869
4148.148203,612.876398,-0.000000,9252.574275
4148.148518,76.609550,-0.000000,9844.739029
4148.148834,-536.266849,-0.000000,10436.903782
4148.149149,-612.876398,592.164754,10658.965565
4148.149465,-536.266849,1110.308913,10288.862594
4148.149780,0.000000,-0.000000,9918.759623
4148.150095,842.705048,296.082377,10510.924376
4148.150411,995.924147,148.041188,9178.553681
4148.150726,995.924147,222.061783,9178.553681
4148.151042,612.876398,592.164754,9696.697840
4148.151357,383.047749,370.102971,9474.636058
4148.151672,459.657299,740.205942,8956.491898
4148.151988,76.609550,222.061783,9474.636058
4148.152303,0.000000,-74.020594,9326.594869
4148.152619,0.000000,-1258.350101,9178.553681
4148.152934,-842.705048,-1702.473667,9622.677246
4148.153249,-995.924147,-1332.370696,9548.656652
4148.153565,-1225.752797,-1332.370696,10362.883188
4148.153880,-1225.752797,-518.144159,10140.821405
4148.154196,-1302.362347,-518.144159,10140.821405
4148.154511,-383.047749,-740.205942,9918.759623
4148.154826,0.000000,-1036.288319,9178.553681
4148.155142,383.047749,-370.102971,8808.450710
4148.155457,153.219100,-0.000000,8660.409521
4148.155773,0.000000,296.082377,8956.491898
4148.156088,0.000000,370.102971,9178.553681
4148.156403,0.000000,518.144159,9178.553681
4148.156719,-536.266849,-1110.308913,9326.594869
4148.157034,-459.657299,-1258.350101,9474.636058
4148.157349,-842.705048,-1184.329507,9326.594869
4148.157665,-1149.143247,-962.267725,9844.739029
4148.157980,-1225.752797,-666.185348,9918.759623
4148.158296,-1378.971896,-0.000000,10066.800811
4148.158611,-842.705048,592.164754,9844.739029
4148.158926,-153.219100,222.061783,9400.615463
4148.159242,229.828649,370.102971,8660.409521
4148.159557,1608.800546,1110.308913,9178.553681
4148.159872,766.095498,1332.370696,8734.430116
4148.160188,383.047749,1998.556043,8956.491898
4148.160503,536.266849,1628.453072,9622.677246
4148.160819,306.438199,1628.453072,9474.636058
4148.161134,153.219100,592.164754,9622.677246
4148.161449,306.438199,444.123565,9770.718434
4148.161765,612.876398,-296.082377,10140.821405
4148.162080,0.000000,-148.041188,9622.677246
4148.162395,-229.828649,-74.020594,9770.718434
4148.162711,689.485948,222.061783,9992.780217
4148.163026,229.828649,888.247130,10510.924376
4148.163342,689.485948,1184.329507,10214.842000
4148.163657,1455.581446,592.164754,9474.636058
4148.163972,2298.286494,814.226536,9178.553681
4148.164288,1532.190996,1036.288319,9030.512492
4148.164603,1149.143247,1332.370696,9622.677246
4148.164918,919.314598,962.267725,9992.780217
4148.165234,766.095498,1184.329507,10066.800811
4148.165549,306.438199,592.164754,9918.759623
4148.165865,0.000000,-0.000000,10288.862594
4148.166180,0.000000,-888.247130,9992.780217
4148.166495,229.828649,-888.247130,10214.842000
4148.166811,-536.266849,-740.205942,10140.821405
4148.167126,0.000000,-592.164754,10066.800811
4148.167441,-306.438199,-0.000000,10436.903782
4148.167757,0.000000,518.144159,9918.759623
4148.168072,459.657299,222.061783,9474.636058
4148.168387,842.705048,444.123565,8734.430116
4148.168703,995.924147,296.082377,8438.347739
4148.169018,689.485948,-0.000000,8142.265362
4148.169334,612.876398,518.144159,9178.553681
4148.169649,383.047749,1110.308913,9474.636058
4148.169964,-229.828649,1258.350101,9104.533087
4148.170280,0.000000,-0.000000,9992.780217
4148.170595,-383.047749,-222.061783,10214.842000
4148.170910,0.000000,-370.102971,9622.677246
4148.171226,-689.485948,-148.041188,9400.615463
4148.171541,-766.095498,-0.000000,9770.718434
4148.171857,-612.876398,222.061783,10140.821405
4148.172172,-766.095498,888.247130,10214.842000
4148.172487,0.000000,740.205942,9770.718434
4148.172803,229.828649,518.144159,9252.574275
4148.173118,842.705048,444.123565,8290.306550
4148.173433,766.095498,444.123565,8956.491898
4148.173749,383.047749,814.226536,9474.636058
4148.174064,-229.828649,592.164754,9474.636058
4148.174380,-459.657299,740.205942,9548.656652
4148.174695,-766.095498,222.061783,9622.677246
4148.175010,-383.047749,-296.082377,9918.759623
4148.175326,-536.266849,-888.247130,9622.677246
4148.175641,-1149.143247,-1554.432478,9696.697840
4148.175956,-1455.581446,-962.267725,9770.718434
4148.176272,-1455.581446,-740.205942,10140.821405
4148.176587,-1378.971896,-444.123565,10658.965565
4148.176903,-612.876398,-888.247130,10362.883188
4148.177218,-536.266849,-370.102971,9918.759623
4148.177533,0.000000,-370.102971,8882.471304
4148.177849,842.705048,-592.164754,8586.388927
4148.178164,0.000000,-74.020594,8586.388927
4148.178479,0.000000,-148.041188,8882.471304
4148.178795,-689.485948,-370.102971,9326.594869
4148.179110,-459.657299,666.185348,9918.759623
4148.179426,-766.095498,-74.020594,9548.656652
4148.179741,-612.876398,-740.205942,9252.574275
4148.180056,0.000000,-1406.391290,9770.718434
4148.180372,-153.219100,-666.185348,9474.636058
4148.180687,0.000000,-222.061783,9326.594869
4148.181002,0.000000,222.061783,9992.780217
4148.181318,0.000000,888.247130,10362.883188
4148.181633,766.095498,962.267725,9474.636058
4148.181949,1302.362347,1036.288319,8956.491898
4148.182264,1915.238745,888.247130,8734.430116
4148.182579,2068.457845,1110.308913,8808.450710
4148.182895,1225.752797,1702.473667,9178.553681
4148.183210,842.705048,1036.288319,9474.636058
4148.183525,306.438199,1258.350101,9844.739029
4148.183841,383.047749,1184.329507,9918.759623
4148.184156,229.828649,148.041188,9622.677246
4148.184472,383.047749,-0.000000,10288.862594
4148.184787,383.047749,-148.041188,10362.883188
4148.185102,536.266849,-74.020594,10066.800811
4148.185418,459.657299,666.185348,9844.739029
4148.185733,689.485948,814.226536,10140.821405
4148.186048,1149.143247,1628.453072,9844.739029
4148.186364,1149.143247,814.226536,9770.718434
4148.186679,1608.800546,370.102971,9104.533087
4148.186995,1532.190996,-0.000000,9178.553681
4148.187310,995.924147,222.061783,9474.636058
4148.187625,536.266849,-0.000000,10362.883188
4148.187941,0.000000,-0.000000,9918.759623
4148.188256,0.000000,-0.000000,10066.800811
4148.188571,-459.657299,-1036.288319,10066.800811
4148.188887,-229.828649,-962.267725,9918.759623
4148.189202,-76.609550,-1406.391290,9622.677246
4148.189518,-536.266849,-740.205942,9548.656652
4148.189833,-919.314598,-296.082377,9548.656652
4148.190148,-842.705048,-148.041188,9770.718434
4148.190464,-229.828649,1036.288319,9770.718434
4148.190779,0.000000,296.082377,9326.594869
4148.191094,0.000000,-0.000000,9326.594869
4148.191410,689.485948,-0.000000,8808.450710
4148.191725,459.657299,-148.041188,8734.430116
4148.192041,-306.438199,370.102971,9474.636058
4148.192356,-459.657299,518.144159,9992.780217
4148.192671,-919.314598,888.247130,9770.718434
4148.192987,-919.314598,444.123565,9326.594869
4148.193302,-536.266849,-0.000000,9548.656652
4148.193617,-612.876398,-0.000000,9104.533087
4148.193933,-306.438199,148.041188,8882.471304
4148.194248,-919.314598,740.205942,9770.718434
4148.194564,-689.485948,888.247130,9992.780217
4148.194879,-612.876398,666.185348,9992.780217
4148.195194,-229.828649,740.205942,9992.780217
4148.195510,-229.828649,370.102971,10140.821405
4148.195825,536.266849,370.102971,9474.636058
4148.196140,919.314598,222.061783,8956.491898
4148.196456,766.095498,222.061783,9474.636058
4148.196771,612.876398,740.205942,9770.718434
4148.197087,153.219100,1110.308913,9844.739029
4148.197402,229.828649,1184.329507,9178.553681
4148.197717,229.828649,-0.000000,9178.553681
4148.198033,612.876398,-0.000000,9326.594869
4148.198348,919.314598,-666.185348,9252.574275
4148.198663,383.047749,-444.123565,9548.656652
4148.198979,76.609550,-814.226536,9918.759623
4148.199294,0.000000,-1036.288319,10362.883188
4148.199610,0.000000,-370.102971,10955.047942
4148.199925,0.000000,-444.123565,10807.006753
4148.200240,459.657299,-444.123565,9918.759623
4148.200556,919.314598,-592.164754,9252.574275
4148.200871,1149.143247,-962.267725,8956.491898
4148.201186,689.485948,-370.102971,9178.553681
4148.201502,383.047749,-148.041188,9474.636058
4148.201817,0.000000,518.144159,9326.594869
4148.202133,153.219100,518.144159,9474.636058
4148.202448,229.828649,-296.082377,9104.533087
4148.202763,459.657299,-888.247130,8956.491898
4148.203079,229.828649,-740.205942,9104.533087
4148.203394,-459.657299,-444.123565,9474.636058
4148.203709,76.609550,-0.000000,9918.759623
4148.204025,-459.657299,814.226536,10140.821405
4148.204340,-536.266849,814.226536,9696.697840
4148.204656,-153.219100,814.226536,9104.533087
4148.204971,459.657299,1036.288319,8882.471304
4148.205286,1149.143247,1110.308913,8956.491898
4148.205602,229.828649,1628.453072,9178.553681
4148.205917,76.609550,1480.411884,9252.574275
4148.206232,-306.438199,1258.350101,9696.697840
4148.206548,-536.266849,1258.350101,9770.718434
4148.206863,-459.657299,666.185348,9696.697840
4148.207179,76.609550,-0.000000,9696.697840
4148.207494,153.219100,-296.082377,10140.821405
4148.207809,-306.438199,-0.000000,9918.759623
4148.208125,-229.828649,-0.000000,10288.862594
4148.208440,-306.438199,518.144159,9844.739029
4148.208755,0.000000,814.226536,9844.739029
4148.209071,229.828649,370.102971,9622.677246
4148.209386,459.657299,-0.000000,9918.759623
4148.209702,842.705048,-0.000000,8808.450710
4148.210017,995.924147,-296.082377,9030.512492
4148.210332,229.828649,-296.082377,10732.986159
4148.210648,-383.047749,444.123565,10658.965565
4148.210963,-1225.752797,222.061783,10288.862594
4148.211278,-229.828649,-518.144159,10214.842000
4148.211594,-229.828649,-592.164754,9844.739029
4148.211909,0.000000,-1332.370696,9400.615463
4148.212225,0.000000,-1184.329507,9474.636058
4148.212540,-612.876398,-444.123565,10214.842000
4148.212855,-612.876398,-74.020594,10362.883188
4148.213171,-459.657299,666.185348,10214.842000
4148.213486,306.438199,148.041188,8956.491898
4148.213801,766.095498,-0.000000,9326.594869
4148.214117,766.095498,-444.123565,8808.450710
4148.214432,1532.190996,-370.102971,9104.533087
4148.214748,995.924147,444.123565,9252.574275
4148.215063,536.266849,592.164754,9178.553681
4148.215378,383.047749,962.267725,9474.636058
4148.215694,536.266849,962.267725,9178.553681
4148.216009,459.657299,518.144159,9474.636058
4148.216324,995.924147,296.082377,9030.512492
4148.216640,536.266849,370.102971,9030.512492
4148.216955,-153.219100,444.123565,9252.574275
4148.217271,0.000000,-0.000000,9622.677246
4148.217586,0.000000,1036.288319,9696.697840
4148.217901,0.000000,444.123565,9696.697840
4148.218217,76.609550,-0.000000,9696.697840
4148.218532,459.657299,370.102971,9474.636058
4148.218847,766.095498,222.061783,9030.512492
4148.219163,995.924147,814.226536,9104.533087
4148.219478,689.485948,888.247130,9326.594869
4148.219794,459.657299,-0.000000,9622.677246
4148.220109,153.219100,518.144159,9622.677246
4148.220424,0.000000,-148.041188,9400.615463
4148.220740,0.000000,-666.185348,9178.553681
4148.221055,536.266849,-518.144159,9030.512492
4148.221370,153.219100,-888.247130,9696.697840
4148.221686,-689.485948,-518.144159,9918.759623
4148.222001,-1378.971896,-666.185348,10214.842000
4148.222316,-1149.143247,-444.123565,10584.944971
4148.222632,-995.924147,-666.185348,10436.903782
4148.222947,-536.266849,-370.102971,10288.862594
4148.223263,383.047749,-740.205942,9622.677246
4148.223578,689.485948,-740.205942,9770.718434
4148.223893,0.000000,-74.020594,9400.615463
4148.224209,0.000000,-0.000000,9474.636058
4148.224524,-229.828649,814.226536,9844.739029
4148.224839,-689.485948,666.185348,9474.636058
4148.225155,0.000000,-0.000000,9400.615463
4148.225470,153.219100,-296.082377,9252.574275
4148.225786,-229.828649,-666.185348,9178.553681
4148.226101,-153.219100,-222.061783,9474.636058
4148.226416,-919.314598,-0.000000,9696.697840
4148.226732,-1072.533697,222.061783,10362.883188
4148.227047,-766.095498,1184.329507,10066.800811
4148.227362,-383.047749,1110.308913,9992.780217
4148.227678,0.000000,740.205942,9474.636058
4148.227993,689.485948,592.164754,9178.553681
4148.228309,459.657299,1110.308913,8808.450710
4148.228624,76.609550,1702.473667,9622.677246
4148.228939,153.219100,1406.391290,10066.800811
4148.229255,612.876398,2072.576638,9178.553681
4148.229570,306.438199,1110.308913,8956.491898
4148.229885,459.657299,814.226536,9770.718434
4148.230201,689.485948,-0.000000,9474.636058
4148.230516,459.657299,296.082377,9622.677246
4148.230832,0.000000,-0.000000,9992.780217
4148.231147,-76.609550,-74.020594,9992.780217
4148.231462,0.000000,-0.000000,9992.780217
4148.231778,0.000000,-0.000000,9548.656652
4148.232093,383.047749,-444.123565,10214.842000
4148.232408,995.924147,-814.226536,9326.594869
4148.232724,1302.362347,-148.041188,9252.574275
4148.233039,1072.533697,444.123565,9400.615463
4148.233355,1149.143247,-0.000000,9918.759623
4148.233670,1072.533697,-0.000000,10288.862594
4148.233985,1072.533697,-0.000000,9844.739029
4148.234301,1072.533697,-666.185348,9696.697840
4148.234616,1302.362347,-1184.329507,9474.636058
4148.234931,1149.143247,-1110.308913,9178.553681
4148.235247,0.000000,-1184.329507,9622.677246
4148.235562,-153.219100,-666.185348,9992.780217
4148.235878,-229.828649,-666.185348,10436.903782
4148.236193,-306.438199,-370.102971,9844.739029
4148.236508,0.000000,-740.205942,9918.759623
4148.236824,383.047749,-592.164754,9400.615463
4148.237139,995.924147,-740.205942,8956.491898
4148.237454,1149.143247,-0.000000,9104.533087
4148.237770,689.485948,-0.000000,9178.553681
4148.238085,459.657299,666.185348,9474.636058
4148.238401,306.438199,1480.411884,9696.697840
4148.238716,0.000000,1258.350101,8882.471304
4148.239031,229.828649,444.123565,8808.450710
4148.239347,383.047749,-0.000000,9030.512492
4148.239662,-612.876398,-148.041188,9030.512492
4148.239977,-995.924147,370.102971,9622.677246
4148.240293,-1608.800546,814.226536,9918.759623
4148.240608,-1302.362347,740.205942,10140.821405
4148.240924,-1072.533697,296.082377,10066.800811
4148.241239,-842.705048,-296.082377,10066.800811
4148.241554,-459.657299,-0.000000,9400.615463
4148.241870,-306.438199,-0.000000,9252.574275
4148.242185,0.000000,814.226536,9474.636058
4148.242500,0.000000,592.164754,9474.636058
4148.242816,0.000000,1258.350101,9474.636058
4148.243131,-153.219100,666.185348,9474.636058
4148.243447,-536.266849,222.061783,9474.636058
4148.243762,0.000000,-444.123565,9474.636058
4148.244077,0.000000,-1036.288319,9696.697840
4148.244393,-842.705048,-740.205942,9844.739029
4148.244708,-1532.190996,-962.267725,10436.903782
4148.245023,-1302.362347,-666.185348,11251.130318
4148.245339,-995.924147,-148.041188,10288.862594
4148.245654,-842.705048,-814.226536,10214.842000
4148.245970,-459.657299,-666.185348,9918.759623
4148.246285,229.828649,-518.144159,9474.636058
4148.246600,76.609550,-0.000000,9104.533087
4148.246916,229.828649,148.041188,9474.636058
4148.247231,383.047749,518.144159,9696.697840
4148.247546,0.000000,1628.453072,9770.718434
4148.247862,229.828649,814.226536,9326.594869
4148.248177,76.609550,-74.020594,9474.636058
4148.248493,536.266849,-296.082377,9400.615463
4148.248808,229.828649,-444.123565,9400.615463
4148.249123,0.000000,148.041188,10214.842000
4148.249439,-383.047749,370.102971,10362.883188
4148.249754,0.000000,888.247130,9844.739029
4148.250069,612.876398,666.185348,9474.636058
4148.250385,536.266849,592.164754,8882.471304
4148.250700,1455.581446,740.205942,8438.347739
4148.251016,1685.410096,1110.308913,8660.409521
4148.251331,1225.752797,1480.411884,9030.512492
4148.251646,1149.143247,1554.432478,8808.450710
4148.251962,766.095498,1628.453072,9548.656652
4148.252277,536.266849,1184.329507,9548.656652
4148.252592,995.924147,222.061783,9770.718434
4148.252908,1302.362347,-74.020594,9474.636058
4148.253223,1072.533697,-296.082377,9252.574275
4148.253539,229.828649,-0.000000,9400.615463
4148.253854,383.047749,518.144159,9696.697840
4148.254169,153.219100,370.102971,9548.656652
4148.254485,612.876398,370.102971,9252.574275
4148.254800,306.438199,-0.000000,9400.615463
4148.255115,689.485948,-0.000000,8882.471304
4148.255431,1225.752797,-296.082377,9178.553681
4148.255746,689.485948,-222.061783,9400.615463
4148.256062,459.657299,-444.123565,9474.636058
4148.256377,153.219100,-222.061783,10436.903782
4148.256692,0.000000,222.061783,10066.800811
4148.257008,0.000000,-148.041188,9992.780217
4148.257323,229.828649,-888.247130,9992.780217
4148.257638,459.657299,-1332.370696,9104.533087
4148.257954,383.047749,-962.267725,9326.594869
4148.258269,-383.047749,-74.020594,10214.842000
4148.258585,-919.314598,-222.061783,10288.862594
4148.258900,-995.924147,148.041188,9992.780217
4148.259215,-766.095498,-0.000000,9326.594869
4148.259530,-459.657299,-296.082377,9918.759623
4148.259846,0.000000,-148.041188,9474.636058
4148.260161,0.000000,-148.041188,9400.615463
4148.260476,-459.657299,222.061783,9474.636058
4148.260792,-459.657299,-74.020594,9992.780217
4148.261107,-459.657299,1258.350101,9474.636058
4148.261422,-766.095498,888.247130,9696.697840
4148.261738,-612.876398,370.102971,9918.759623
4148.262053,0.000000,-0.000000,9400.615463
4148.262368,-306.438199,-0.000000,9252.574275
4148.262684,-995.924147,-0.000000,9474.636058
4148.262999,-1378.971896,-0.000000,9992.780217
4148.263314,-1225.752797,814.226536,9770.718434
4148.263630,-919.314598,222.061783,9622.677246
4148.263945,229.828649,-74.020594,9474.636058
4148.264260,459.657299,-222.061783,9474.636058
4148.264576,995.924147,-296.082377,8734.430116
4148.264891,612.876398,444.123565,8808.450710
4148.265206,459.657299,888.247130,8956.491898
4148.265521,612.876398,1036.288319,9326.594869
4148.265837,306.438199,1036.288319,9178.553681
4148.266152,383.047749,296.082377,9474.636058
4148.266467,612.876398,-518.144159,9178.553681
4148.266783,995.924147,-518.144159,9400.615463
4148.267098,76.609550,-962.267725,9696.697840
4148.267413,-383.047749,-222.061783,10288.862594
4148.267729,-536.266849,-444.123565,10436.903782
4148.268044,-459.657299,-518.144159,10955.047942
4148.268359,229.828649,-592.164754,9844.739029
4148.268675,306.438199,-592.164754,10362.883188
4148.268990,842.705048,-370.102971,9326.594869
4148.269305,919.314598,-222.061783,9548.656652
4148.269621,612.876398,814.226536,9474.636058
4148.269936,536.266849,-0.000000,9474.636058
4148.270251,536.266849,444.123565,9696.697840
4148.270566,459.657299,740.205942,9918.759623
4148.270882,306.438199,-148.041188,9474.636058
4148.271197,383.047749,-148.041188,9474.636058
4148.271512,-153.219100,-740.205942,9400.615463
4148.271828,-536.266849,-0.000000,10066.800811
4148.272143,-842.705048,148.041188,10362.883188
4148.272458,-842.705048,518.144159,10807.006753
4148.272774,-612.876398,740.205942,9992.780217
4148.273089,0.000000,666.185348,9104.533087
4148.273404,459.657299,962.267725,8956.491898
4148.273720,1072.533697,592.164754,8808.450710
4148.274035,612.876398,1258.350101,9104.533087
4148.274350,306.438199,1480.411884,9252.574275
4148.274666,76.609550,1258.350101,9548.656652
4148.274981,-229.828649,1480.411884,9474.636058
4148.275296,-306.438199,740.205942,9400.615463
4148.275612,0.000000,-148.041188,9474.636058
4148.275927,536.266849,-370.102971,9178.553681
4148.276242,0.000000,-296.082377,9104.533087
4148.276557,-459.657299,-74.020594,9474.636058
4148.276873,-306.438199,370.102971,9474.636058
4148.277188,-306.438199,222.061783,9918.759623
4148.277503,229.828649,296.082377,9474.636058
4148.277819,995.924147,-0.000000,9326.594869
4148.278134,1149.143247,-0.000000,8956.491898
4148.278449,689.485948,222.061783,8956.491898
4148.278765,153.219100,888.247130,9622.677246
4148.279080,229.828649,444.123565,10066.800811
4148.279395,0.000000,370.102971,10658.965565
4148.279711,-229.828649,-0.000000,10362.883188
4148.280026,-306.438199,-370.102971,10362.883188
4148.280341,0.000000,-1110.308913,10066.800811
4148.280657,0.000000,-888.247130,9548.656652
4148.280972,-536.266849,-962.267725,10288.862594
4148.281287,-536.266849,-444.123565,10214.842000
4148.281602,-766.095498,-148.041188,10732.986159
4148.281918,-306.438199,222.061783,10066.800811
4148.282233,612.876398,-0.000000,9548.656652
4148.282548,689.485948,-296.082377,9770.718434
4148.282864,842.705048,-0.000000,8882.471304
4148.283179,766.095498,444.123565,9474.636058
4148.283494,229.828649,518.144159,9622.677246
4148.283810,76.609550,814.226536,9622.677246
4148.284125,0.000000,814.226536,9548.656652
4148.284440,-306.438199,-0.000000,9548.656652
4148.284756,0.000000,-148.041188,9992.780217
4148.285071,459.657299,-148.041188,9400.615463
