#time,accel_x,accel_y,accel_z
4011.995915,-2298.286494,-148.041188,10658.965565
4011.996230,-2221.676944,-666.185348,10288.862594
4011.996544,-2068.457845,-296.082377,10214.842000
4011.996859,-1838.629195,-444.123565,9548.656652
4011.997174,-1072.533697,-0.000000,9400.615463
4011.997489,-1378.971896,-0.000000,8660.409521
4011.997804,-536.266849,666.185348,8438.347739
4011.998119,0.000000,518.144159,7994.224174
4011.998434,0.000000,518.144159,7846.182985
4011.998749,-229.828649,148.041188,8512.368333
4011.999064,-153.219100,-370.102971,9400.615463
4011.999379,-766.095498,-814.226536,9252.574275
4011.999694,-612.876398,-1480.411884,9696.697840
4012.000009,-383.047749,-1776.494261,9474.636058
4012.000324,0.000000,-1480.411884,9474.636058
4012.000639,0.000000,-1110.308913,9474.636058
4012.000954,76.609550,-1332.370696,9252.574275
4012.001269,0.000000,-888.247130,8734.430116
4012.001584,76.609550,-740.205942,8438.347739
4012.001899,-153.219100,-592.164754,7772.162391
4012.002214,76.609550,-962.267725,8142.265362
4012.002529,0.000000,-740.205942,8438.347739
4012.002844,0.000000,-1184.329507,8660.409521
4012.003158,0.000000,-1184.329507,9474.636058
4012.003473,-306.438199,-1258.350101,9844.739029
4012.003788,-383.047749,-1258.350101,10362.883188
4012.004103,-306.438199,-1184.329507,9844.739029
4012.004418,-306.438199,-814.226536,9918.759623
4012.004733,76.609550,-666.185348,9844.739029
4012.005048,153.219100,-148.041188,9696.697840
4012.005363,-153.219100,-148.041188,9400.615463
4012.005678,-383.047749,-0.000000,8882.471304
4012.005993,-459.657299,444.123565,9104.533087
4012.006308,-383.047749,296.082377,9992.780217
4012.006623,-383.047749,-296.082377,9992.780217
4012.006938,0.000000,-592.164754,10362.883188
4012.007253,0.000000,-74.020594,10140.821405
4012.007568,0.000000,-0.000000,9770.718434
4012.007883,612.876398,444.123565,9474.636058
4012.008198,1072.533697,814.226536,9252.574275
4012.008513,1072.533697,888.247130,8882.471304
4012.008828,1225.752797,1480.411884,8660.409521
4012.009143,612.876398,1702.473667,8956.491898
4012.009457,459.657299,1554.432478,9252.574275
4012.009772,0.000000,1332.370696,9622.677246
4012.010087,-153.219100,1036.288319,9844.739029
4012.010402,0.000000,1110.308913,9548.656652
4012.010717,0.000000,1036.288319,9918.759623
4012.011032,459.657299,1332.370696,9844.739029
4012.011347,76.609550,1258.350101,9548.656652
4012.011662,153.219100,1332.370696,9770.718434
4012.011977,306.438199,1480.411884,9622.677246
4012.012292,153.219100,2146.597232,9992.780217
4012.012607,0.000000,1480.411884,9696.697840
4012.012922,-383.047749,1924.535449,9770.718434
4012.013237,-459.657299,1628.453072,10140.821405
4012.013552,-383.047749,1332.370696,9992.780217
4012.013867,0.000000,1258.350101,10362.883188
4012.014182,229.828649,814.226536,10658.965565
4012.014497,306.438199,962.267725,10436.903782
4012.014812,919.314598,1184.329507,10140.821405
4012.015127,459.657299,666.185348,10066.800811
4012.015442,689.485948,296.082377,10288.862594
4012.015756,689.485948,592.164754,10584.944971
4012.016071,612.876398,666.185348,9918.759623
4012.016386,689.485948,370.102971,9844.739029
4012.016701,459.657299,370.102971,9770.718434
4012.017016,689.485948,-222.061783,10066.800811
4012.017331,459.657299,-148.041188,9770.718434
4012.017646,306.438199,148.041188,9548.656652
4012.017961,612.876398,-0.000000,9770.718434
4012.018276,689.485948,-0.000000,9474.636058
4012.018591,1302.362347,-222.061783,9770.718434
4012.018906,919.314598,-222.061783,9474.636058
4012.019221,383.047749,-444.123565,9548.656652
4012.019536,459.657299,-444.123565,9326.594869
4012.019851,76.609550,-148.041188,9474.636058
4012.020166,0.000000,-296.082377,9400.615463
4012.020481,-229.828649,-444.123565,9474.636058
4012.020796,-229.828649,-666.185348,9252.574275
4012.021111,-306.438199,-592.164754,9104.533087
4012.021426,0.000000,-666.185348,9030.512492
4012.021741,0.000000,-888.247130,9474.636058
4012.022055,0.000000,-888.247130,9178.553681
4012.022370,-306.438199,-962.267725,9326.594869
4012.022685,0.000000,-1036.288319,9030.512492
4012.023000,0.000000,-592.164754,9400.615463
4012.023315,0.000000,-888.247130,8956.491898
4012.023630,0.000000,-888.247130,8734.430116
4012.023945,-306.438199,-592.164754,8956.491898
4012.024260,229.828649,-666.185348,8882.471304
4012.024575,0.000000,-370.102971,9104.533087
4012.024890,0.000000,-296.082377,9178.553681
4012.025205,0.000000,-444.123565,8956.491898
4012.025520,0.000000,-740.205942,9178.553681
4012.025835,383.047749,-666.185348,9474.636058
4012.026150,0.000000,-888.247130,9622.677246
4012.026465,229.828649,-518.144159,9696.697840
4012.026780,229.828649,-222.061783,9474.636058
4012.027095,0.000000,-148.041188,9474.636058
4012.027410,0.000000,-370.102971,9474.636058
4012.027725,0.000000,-444.123565,9696.697840
4012.028040,306.438199,-370.102971,10066.800811
4012.028354,-306.438199,-296.082377,9696.697840
4012.028669,76.609550,296.082377,9696.697840
4012.028984,0.000000,-0.000000,9918.759623
4012.029299,0.000000,296.082377,10140.821405
4012.029614,0.000000,148.041188,10584.944971
4012.029929,76.609550,222.061783,10140.821405
4012.030244,229.828649,444.123565,10214.842000
4012.030559,0.000000,592.164754,9844.739029
4012.030874,229.828649,666.185348,10436.903782
4012.031189,306.438199,666.185348,9844.739029
4012.031504,0.000000,666.185348,9918.759623
4012.031819,0.000000,888.247130,9844.739029
4012.032134,153.219100,740.205942,9992.780217
4012.032449,153.219100,740.205942,10066.800811
4012.032764,76.609550,814.226536,10436.903782
4012.033079,76.609550,740.205942,9770.718434
4012.033394,229.828649,888.247130,9770.718434
4012.033709,153.219100,1110.308913,9992.780217
4012.034024,383.047749,1184.329507,10140.821405
4012.034339,383.047749,1554.432478,9696.697840
4012.034653,0.000000,962.267725,9918.759623
4012.034968,0.000000,888.247130,9474.636058
4012.035283,0.000000,962.267725,9918.759623
4012.035598,153.219100,1184.329507,9992.780217
4012.035913,-306.438199,888.247130,9770.718434
4012.036228,0.000000,1036.288319,9770.718434
4012.036543,0.000000,666.185348,9474.636058
4012.036858,0.000000,740.205942,9770.718434
4012.037173,0.000000,518.144159,9918.759623
4012.037488,-153.219100,592.164754,9696.697840
4012.037803,0.000000,666.185348,9770.718434
4012.038118,0.000000,-0.000000,9622.677246
4012.038433,0.000000,148.041188,9548.656652
4012.038748,0.000000,296.082377,9474.636058
4012.039063,76.609550,296.082377,9548.656652
4012.039378,0.000000,296.082377,9622.677246
4012.039693,306.438199,-0.000000,9326.594869
4012.040008,459.657299,-0.000000,9474.636058
4012.040323,76.609550,-0.000000,9474.636058
4012.040638,0.000000,-148.041188,9030.512492
4012.040952,76.609550,-148.041188,9474.636058
4012.041267,0.000000,-296.082377,9104.533087
4012.041582,76.609550,-444.123565,9696.697840
4012.041897,0.000000,-370.102971,9252.574275
4012.042212,-306.438199,-444.123565,9400.615463
4012.042527,153.219100,-444.123565,9252.574275
4012.042842,153.219100,-592.164754,9178.553681
4012.043157,306.438199,-370.102971,9474.636058
4012.043472,229.828649,-444.123565,9548.656652
4012.043787,229.828649,-518.144159,9474.636058
4012.044102,229.828649,-666.185348,9178.553681
4012.044417,76.609550,-444.123565,9326.594869
4012.044732,459.657299,-666.185348,9770.718434
4012.045047,0.000000,-666.185348,9326.594869
4012.045362,0.000000,-962.267725,9104.533087
4012.045677,0.000000,-740.205942,9030.512492
4012.045992,153.219100,-296.082377,8956.491898
4012.046307,0.000000,-0.000000,9474.636058
4012.046622,0.000000,-222.061783,9252.574275
4012.046937,459.657299,-370.102971,9400.615463
4012.047252,0.000000,-0.000000,9178.553681
4012.047567,0.000000,-148.041188,9030.512492
4012.047882,0.000000,-0.000000,9400.615463
4012.048197,0.000000,-0.000000,9474.636058
4012.048512,-383.047749,-74.020594,9252.574275
4012.048827,0.000000,-0.000000,9474.636058
4012.049142,0.000000,-0.000000,9622.677246
4012.049457,0.000000,222.061783,9622.677246
4012.049772,0.000000,222.061783,9696.697840
4012.050087,76.609550,370.102971,9548.656652
4012.050402,76.609550,296.082377,9400.615463
4012.050717,229.828649,740.205942,9696.697840
4012.051032,76.609550,666.185348,9548.656652
4012.051347,0.000000,666.185348,9918.759623
4012.051662,153.219100,370.102971,10066.800811
4012.051977,0.000000,666.185348,9844.739029
4012.052292,153.219100,296.082377,10066.800811
4012.052607,153.219100,370.102971,10066.800811
4012.052922,0.000000,592.164754,9770.718434
4012.053237,919.314598,888.247130,10362.883188
4012.053552,0.000000,814.226536,10214.842000
4012.053867,153.219100,888.247130,10066.800811
4012.054182,612.876398,814.226536,10214.842000
4012.054497,306.438199,740.205942,10066.800811
4012.054812,536.266849,296.082377,9770.718434
4012.055127,229.828649,740.205942,9548.656652
4012.055442,383.047749,666.185348,10288.862594
4012.055757,229.828649,370.102971,9992.780217
4012.056072,383.047749,740.205942,9918.759623
4012.056387,383.047749,962.267725,9918.759623
4012.056702,306.438199,666.185348,9918.759623
4012.057017,689.485948,814.226536,10066.800811
4012.057332,229.828649,518.144159,9992.780217
4012.057647,0.000000,444.123565,9918.759623
4012.057962,153.219100,592.164754,9696.697840
4012.058277,0.000000,592.164754,9696.697840
4012.058592,0.000000,592.164754,9918.759623
4012.058907,0.000000,592.164754,9992.780217
4012.059222,76.609550,592.164754,9770.718434
4012.059537,612.876398,-148.041188,9474.636058
4012.059852,153.219100,-0.000000,9622.677246
4012.060167,536.266849,592.164754,9400.615463
4012.060482,153.219100,592.164754,9622.677246
4012.060797,-76.609550,222.061783,9622.677246
4012.061112,0.000000,-74.020594,9622.677246
4012.061427,153.219100,296.082377,9622.677246
4012.061742,0.000000,-0.000000,9326.594869
4012.062057,0.000000,-222.061783,9400.615463
4012.062372,-536.266849,-74.020594,9252.574275
4012.062687,76.609550,-0.000000,9548.656652
4012.063002,0.000000,-518.144159,9696.697840
4012.063317,0.000000,-148.041188,9400.615463
4012.063632,0.000000,-0.000000,8956.491898
4012.063947,383.047749,-0.000000,9474.636058
4012.064262,842.705048,-518.144159,9030.512492
4012.064577,76.609550,-444.123565,9252.574275
4012.064892,76.609550,-74.020594,9474.636058
4012.065207,0.000000,-296.082377,9326.594869
4012.065522,0.000000,-222.061783,9474.636058
4012.065837,-229.828649,-296.082377,9622.677246
4012.066152,383.047749,-370.102971,9696.697840
4012.066467,306.438199,-370.102971,9252.574275
4012.066782,76.609550,-444.123565,9326.594869
4012.067097,76.609550,-222.061783,9474.636058
4012.067412,153.219100,-592.164754,9326.594869
4012.067727,229.828649,-296.082377,9770.718434
4012.068042,76.609550,-148.041188,9548.656652
4012.068357,76.609550,-148.041188,9622.677246
4012.068672,229.828649,-148.041188,9326.594869
4012.068987,383.047749,-74.020594,9474.636058
4012.069302,0.000000,-296.082377,9622.677246
4012.069617,0.000000,-0.000000,9770.718434
4012.069932,229.828649,-0.000000,9474.636058
4012.070247,153.219100,148.041188,9474.636058
4012.070562,229.828649,-0.000000,9770.718434
4012.070877,153.219100,74.020594,9400.615463
4012.071192,0.000000,296.082377,9844.739029
4012.071507,0.000000,222.061783,9548.656652
4012.071822,0.000000,296.082377,9622.677246
4012.072137,-306.438199,296.082377,9622.677246
4012.072452,0.000000,444.123565,9548.656652
4012.072767,-229.828649,370.102971,9622.677246
4012.073082,0.000000,222.061783,9548.656652
4012.073397,383.047749,518.144159,9918.759623
4012.073712,0.000000,222.061783,9696.697840
4012.074027,0.000000,592.164754,9622.677246
4012.074342,-229.828649,518.144159,9400.615463
4012.074657,0.000000,592.164754,9400.615463
4012.074972,153.219100,814.226536,9622.677246
4012.075287,229.828649,-0.000000,9696.697840
4012.075602,306.438199,370.102971,9696.697840
4012.075917,153.219100,370.102971,9474.636058
4012.076232,0.000000,518.144159,9770.718434
4012.076547,536.266849,666.185348,9622.677246
4012.076862,383.047749,296.082377,9918.759623
4012.077177,0.000000,-0.000000,9696.697840
4012.077492,0.000000,370.102971,9770.718434
4012.077807,0.000000,222.061783,9918.759623
4012.078122,459.657299,592.164754,9918.759623
4012.078437,459.657299,296.082377,10140.821405
4012.078752,153.219100,518.144159,9844.739029
4012.079067,153.219100,296.082377,9918.759623
4012.079382,0.000000,518.144159,9696.697840
4012.079697,153.219100,518.144159,9770.718434
4012.080012,229.828649,222.061783,9918.759623
4012.080327,76.609550,518.144159,9696.697840
4012.080642,153.219100,222.061783,9992.780217
4012.080957,76.609550,222.061783,9844.739029
4012.081272,459.657299,-0.000000,9622.677246
4012.081587,0.000000,296.082377,9992.780217
4012.081902,0.000000,444.123565,9696.697840
4012.082217,153.219100,296.082377,9252.574275
4012.082532,229.828649,222.061783,9622.677246
4012.082847,76.609550,-0.000000,9770.718434
4012.083162,0.000000,-0.000000,9474.636058
4012.083477,76.609550,-0.000000,9474.636058
4012.083792,0.000000,-0.000000,9252.574275
4012.084107,-229.828649,-0.000000,9326.594869
4012.084422,229.828649,-74.020594,9252.574275
4012.084737,0.000000,-222.061783,9474.636058
4012.085052,0.000000,148.041188,9548.656652
4012.085367,0.000000,-148.041188,9030.512492
4012.085682,0.000000,-0.000000,9030.512492
4012.085997,0.000000,-444.123565,9474.636058
4012.086312,0.000000,-148.041188,9548.656652
4012.086627,0.000000,-0.000000,9178.553681
4012.086942,153.219100,-148.041188,9252.574275
4012.087257,383.047749,-0.000000,9474.636058
4012.087572,76.609550,-222.061783,9326.594869
4012.087887,536.266849,-74.020594,9326.594869
4012.088202,0.000000,-0.000000,9696.697840
4012.088517,229.828649,-74.020594,9548.656652
4012.088832,306.438199,-0.000000,9474.636058
4012.089147,229.828649,-296.082377,9622.677246
4012.089462,459.657299,-370.102971,9474.636058
4012.089777,383.047749,-0.000000,9474.636058
4012.090092,0.000000,-370.102971,9548.656652
4012.090407,0.000000,-0.000000,9696.697840
4012.090722,76.609550,-0.000000,9474.636058
4012.091037,0.000000,-0.000000,9918.759623
4012.091352,0.000000,-0.000000,9622.677246
4012.091667,153.219100,148.041188,9622.677246
4012.091982,76.609550,148.041188,9622.677246
4012.092297,153.219100,296.082377,9548.656652
4012.092612,76.609550,296.082377,9992.780217
4012.092927,153.219100,370.102971,9548.656652
4012.093242,0.000000,296.082377,9696.697840
4012.093557,229.828649,296.082377,9770.718434
4012.093872,383.047749,444.123565,9918.759623
4012.094187,0.000000,222.061783,9622.677246
4012.094502,0.000000,370.102971,9696.697840
4012.094817,76.609550,222.061783,9548.656652
4012.095132,0.000000,296.082377,9548.656652
4012.095447,0.000000,148.041188,9474.636058
4012.095762,0.000000,444.123565,9548.656652
4012.096077,0.000000,666.185348,9252.574275
4012.096392,153.219100,592.164754,9548.656652
4012.096707,76.609550,444.123565,9400.615463
4012.097022,76.609550,444.123565,9474.636058
4012.097337,0.000000,444.123565,9918.759623
4012.097652,0.000000,592.164754,9622.677246
4012.097967,153.219100,518.144159,9548.656652
4012.098282,306.438199,296.082377,9548.656652
4012.098597,0.000000,296.082377,9696.697840
4012.098912,229.828649,-0.000000,9548.656652
4012.099227,76.609550,296.082377,9548.656652
4012.099542,536.266849,518.144159,9696.697840
4012.099857,306.438199,370.102971,9696.697840
4012.100172,459.657299,444.123565,9918.759623
4012.100487,76.609550,-0.000000,9326.594869
4012.100802,0.000000,296.082377,9400.615463
4012.101117,153.219100,370.102971,10140.821405
4012.101432,383.047749,148.041188,9474.636058
4012.101747,612.876398,-0.000000,9770.718434
4012.102062,383.047749,296.082377,10066.800811
4012.102377,153.219100,-0.000000,9474.636058
4012.102692,229.828649,-0.000000,9622.677246
4012.103007,229.828649,-0.000000,9696.697840
4012.103322,229.828649,-296.082377,9918.759623
4012.103637,0.000000,-0.000000,9622.677246
4012.103952,0.000000,222.061783,9474.636058
4012.104267,0.000000,-0.000000,9844.739029
4012.104582,0.000000,370.102971,9770.718434
4012.104897,0.000000,-0.000000,9918.759623
4012.105212,-383.047749,-0.000000,9696.697840
4012.105527,76.609550,-0.000000,9474.636058
4012.105842,76.609550,-0.000000,9326.594869
4012.106157,383.047749,-0.000000,9474.636058
4012.106472,306.438199,-74.020594,9622.677246
4012.106787,229.828649,-0.000000,9252.574275
4012.107102,0.000000,-0.000000,9252.574275
4012.107417,0.000000,-0.000000,9474.636058
4012.107732,0.000000,-0.000000,9326.594869
4012.108047,0.000000,-148.041188,9474.636058
4012.108362,0.000000,-0.000000,9400.615463
4012.108677,0.000000,-0.000000,9400.615463
4012.108991,153.219100,-74.020594,9252.574275
4012.109306,0.000000,-444.123565,9548.656652
4012.109621,153.219100,-222.061783,9696.697840
4012.109936,0.000000,-444.123565,9252.574275
4012.110251,229.828649,-0.000000,9548.656652
4012.110566,153.219100,-0.000000,9622.677246
4012.110881,459.657299,-148.041188,9844.739029
4012.111196,76.609550,-0.000000,9474.636058
4012.111511,229.828649,222.061783,9400.615463
4012.111826,229.828649,-0.000000,9918.759623
4012.112141,383.047749,-0.000000,9770.718434
4012.112456,229.828649,-0.000000,9844.739029
4012.112771,383.047749,-0.000000,9622.677246
4012.113086,306.438199,-0.000000,9696.697840
4012.113401,0.000000,148.041188,9770.718434
4012.113716,0.000000,296.082377,10066.800811
4012.114031,0.000000,-0.000000,10510.924376
4012.114346,0.000000,-0.000000,9696.697840
4012.114661,0.000000,222.061783,9474.636058
4012.114976,306.438199,296.082377,9844.739029
4012.115291,76.609550,444.123565,9918.759623
4012.115606,0.000000,296.082377,9844.739029
4012.115921,-229.828649,296.082377,9474.636058
4012.116236,0.000000,-0.000000,9696.697840
4012.116551,153.219100,296.082377,9474.636058
4012.116866,0.000000,222.061783,9474.636058
4012.117181,229.828649,-0.000000,9696.697840
4012.117496,0.000000,370.102971,9400.615463
4012.117811,0.000000,518.144159,9622.677246
4012.118126,153.219100,296.082377,9474.636058
4012.118441,306.438199,-0.000000,9696.697840
4012.118756,229.828649,-0.000000,9474.636058
4012.119071,0.000000,-0.000000,9548.656652
4012.119386,76.609550,296.082377,9622.677246
4012.119701,76.609550,296.082377,9474.636058
4012.120016,153.219100,-0.000000,9548.656652
4012.120331,0.000000,222.061783,9474.636058
4012.120646,306.438199,296.082377,9770.718434
4012.120961,383.047749,296.082377,9696.697840
4012.121276,229.828649,-0.000000,9548.656652
4012.121591,383.047749,-0.000000,9622.677246
4012.121906,0.000000,296.082377,9252.574275
4012.122221,76.609550,-0.000000,9326.594869
4012.122536,229.828649,518.144159,9918.759623
4012.122851,0.000000,-0.000000,9844.739029
4012.123166,153.219100,-0.000000,9844.739029
4012.123481,0.000000,-0.000000,9622.677246
4012.123796,0.000000,74.020594,9622.677246
4012.124111,76.609550,222.061783,9696.697840
4012.124426,76.609550,222.061783,9548.656652
4012.124741,76.609550,-296.082377,10066.800811
4012.125056,0.000000,-0.000000,9548.656652
4012.125371,0.000000,222.061783,9474.636058
4012.125686,0.000000,296.082377,9474.636058
4012.126001,229.828649,-0.000000,9696.697840
4012.126316,76.609550,-74.020594,9696.697840
4012.126631,0.000000,-0.000000,9474.636058
4012.126946,0.000000,-0.000000,9326.594869
4012.127261,0.000000,-0.000000,9474.636058
4012.127576,0.000000,-0.000000,9400.615463
4012.127891,0.000000,-0.000000,9696.697840
4012.128206,0.000000,-74.020594,9326.594869
4012.128521,0.000000,-0.000000,9400.615463
4012.128836,306.438199,370.102971,9326.594869
4012.129151,306.438199,-74.020594,9474.636058
4012.129466,-229.828649,-0.000000,9770.718434
4012.129781,76.609550,-0.000000,9474.636058
4012.130096,153.219100,-0.000000,9326.594869
4012.130411,76.609550,-0.000000,9326.594869
4012.130726,459.657299,-0.000000,9622.677246
4012.131041,0.000000,-148.041188,9474.636058
4012.131356,306.438199,-0.000000,9474.636058
4012.131671,153.219100,-0.000000,9474.636058
4012.131986,153.219100,-0.000000,9622.677246
4012.132301,306.438199,148.041188,9696.697840
4012.132616,153.219100,-0.000000,9474.636058
4012.132931,153.219100,148.041188,9474.636058
4012.133246,153.219100,-0.000000,9696.697840
4012.133561,153.219100,-0.000000,9844.739029
4012.133876,0.000000,-0.000000,9918.759623
4012.134191,383.047749,370.102971,9918.759623
4012.134506,229.828649,296.082377,9696.697840
4012.134821,0.000000,370.102971,9844.739029
4012.135136,-383.047749,-0.000000,9548.656652
4012.135451,229.828649,-0.000000,9548.656652
4012.135766,0.000000,444.123565,9696.697840
4012.136081,0.000000,296.082377,9622.677246
4012.136396,229.828649,296.082377,9696.697840
4012.136711,0.000000,296.082377,9844.739029
4012.137026,0.000000,222.061783,9696.697840
4012.137341,-229.828649,518.144159,9622.677246
4012.137656,0.000000,296.082377,9696.697840
4012.137971,0.000000,148.041188,10066.800811
4012.138286,153.219100,-0.000000,9918.759623
4012.138601,0.000000,296.082377,9844.739029
4012.138916,0.000000,370.102971,9548.656652
4012.139231,0.000000,518.144159,9548.656652
4012.139546,76.609550,370.102971,9622.677246
4012.139861,0.000000,370.102971,9770.718434
4012.140176,0.000000,518.144159,9770.718434
4012.140491,153.219100,370.102971,9548.656652
4012.140806,0.000000,-0.000000,9696.697840
4012.141121,383.047749,-0.000000,9696.697840
4012.141436,459.657299,-0.000000,9178.553681
4012.141751,459.657299,-0.000000,9252.574275
4012.142066,76.609550,-0.000000,9622.677246
4012.142381,229.828649,-0.000000,9770.718434
4012.142696,306.438199,-0.000000,9844.739029
4012.143011,383.047749,222.061783,9844.739029
4012.143326,0.000000,296.082377,9622.677246
4012.143641,153.219100,222.061783,9474.636058
4012.143956,153.219100,-0.000000,9622.677246
4012.144271,383.047749,-0.000000,9844.739029
4012.144586,0.000000,-0.000000,10140.821405
4012.144901,-612.876398,-0.000000,9548.656652
4012.145216,-229.828649,-0.000000,9696.697840
4012.145531,-153.219100,296.082377,9696.697840
4012.145846,-536.266849,666.185348,9696.697840
4012.146161,-459.657299,222.061783,9696.697840
4012.146476,-1149.143247,444.123565,10140.821405
4012.146791,-842.705048,592.164754,9770.718434
4012.147106,-612.876398,518.144159,9548.656652
4012.147421,-689.485948,518.144159,9770.718434
4012.147736,-766.095498,444.123565,9622.677246
4012.148051,-766.095498,666.185348,9622.677246
4012.148366,-383.047749,962.267725,9326.594869
4012.148681,-689.485948,1480.411884,9030.512492
4012.148996,-306.438199,1258.350101,8808.450710
4012.149311,-766.095498,1480.411884,8660.409521
4012.149626,-1302.362347,1480.411884,8882.471304
4012.149941,-1838.629195,1406.391290,8808.450710
4012.150256,-2528.115143,1554.432478,8808.450710
4012.150571,-1685.410096,1110.308913,9474.636058
4012.150886,-2911.162892,962.267725,9844.739029
4012.151202,-2987.772442,1184.329507,10066.800811
4012.151517,-2911.162892,1184.329507,9548.656652
4012.151832,-2757.943793,1776.494261,9622.677246
4012.152147,-2834.553343,2368.659014,9474.636058
4012.152462,-2451.505594,2516.700203,9178.553681
4012.152777,-2451.505594,2664.741391,8882.471304
4012.153092,-2451.505594,3034.844362,8808.450710
4012.153407,-2757.943793,3404.947333,8956.491898
4012.153722,-2374.896044,2960.823768,9400.615463
4012.154037,-2834.553343,3108.864956,9696.697840
4012.154352,-2987.772442,3108.864956,9918.759623
4012.154667,-3064.381992,3108.864956,9918.759623
4012.154982,-3217.601092,2664.741391,10510.924376
4012.155297,-2834.553343,2590.720797,10955.047942
4012.155612,-2834.553343,2664.741391,10807.006753
4012.155927,-2374.896044,2664.741391,10732.986159
4012.156242,-1762.019645,3108.864956,10732.986159
4012.156557,-1225.752797,3404.947333,10362.883188
4012.156872,-383.047749,3701.029710,10288.862594
4012.157187,459.657299,4071.132681,9474.636058
4012.157502,766.095498,4071.132681,9104.533087
4012.157817,842.705048,3849.070898,8882.471304
4012.158132,612.876398,3849.070898,9104.533087
4012.158447,-153.219100,3182.885551,9770.718434
4012.158762,-383.047749,2664.741391,9770.718434
4012.159077,-919.314598,2220.617826,10510.924376
4012.159392,-995.924147,1850.514855,10955.047942
4012.159707,-919.314598,1406.391290,11029.068536
4012.160022,-1302.362347,1702.473667,10881.027347
4012.160337,-536.266849,1998.556043,10658.965565
4012.160652,-383.047749,2590.720797,10288.862594
4012.160967,76.609550,2886.803174,9622.677246
4012.161282,-76.609550,2590.720797,9104.533087
4012.161597,383.047749,2590.720797,9474.636058
4012.161912,153.219100,2368.659014,9104.533087
4012.162227,0.000000,1850.514855,9326.594869
4012.162542,0.000000,1554.432478,9992.780217
4012.162857,153.219100,888.247130,10214.842000
4012.163172,-919.314598,444.123565,9918.759623
4012.163487,-842.705048,518.144159,9918.759623
4012.163802,-689.485948,-148.041188,9770.718434
4012.164117,-229.828649,-148.041188,9844.739029
4012.164432,0.000000,-222.061783,9696.697840
4012.164747,-153.219100,296.082377,9696.697840
4012.165062,229.828649,-0.000000,9548.656652
4012.165377,842.705048,-74.020594,8956.491898
4012.165692,1149.143247,-0.000000,9252.574275
4012.166007,1378.971896,-0.000000,9548.656652
4012.166322,1149.143247,-0.000000,9104.533087
4012.166637,1149.143247,-74.020594,8882.471304
4012.166952,766.095498,-444.123565,8660.409521
4012.167267,306.438199,-222.061783,8734.430116
4012.167582,-459.657299,-814.226536,8068.244768
4012.167897,-459.657299,-814.226536,8586.388927
4012.168212,-1455.581446,-1036.288319,8734.430116
4012.168527,-2068.457845,-1480.411884,8882.471304
4012.168842,-2681.334243,-1628.453072,9474.636058
4012.169157,-3217.601092,-1850.514855,9844.739029
4012.169472,-2604.724693,-1850.514855,9918.759623
4012.169787,-2451.505594,-1406.391290,9696.697840
4012.170102,-2451.505594,-1036.288319,9992.780217
4012.170418,-1838.629195,-1110.308913,10436.903782
4012.170733,-1532.190996,-962.267725,9474.636058
4012.171048,-919.314598,-444.123565,9474.636058
4012.171363,0.000000,-518.144159,9770.718434
4012.171678,-153.219100,-74.020594,9474.636058
4012.171993,0.000000,-148.041188,9622.677246
4012.172308,0.000000,-666.185348,9770.718434
4012.172623,306.438199,-962.267725,9622.677246
4012.172938,383.047749,-1406.391290,9400.615463
4012.173253,306.438199,-1776.494261,9252.574275
4012.173568,536.266849,-2146.597232,9918.759623
4012.173883,536.266849,-2220.617826,9548.656652
4012.174198,612.876398,-1924.535449,8808.450710
4012.174513,612.876398,-1258.350101,8512.368333
4012.174828,995.924147,-592.164754,8586.388927
4012.175143,766.095498,-0.000000,8290.306550
4012.175458,689.485948,296.082377,8438.347739
4012.175773,689.485948,-0.000000,8512.368333
4012.176088,306.438199,-296.082377,8290.306550
4012.176403,0.000000,-370.102971,8734.430116
4012.176718,0.000000,-962.267725,9474.636058
4012.177033,0.000000,-518.144159,9844.739029
4012.177348,0.000000,-74.020594,9770.718434
4012.177663,0.000000,-0.000000,9844.739029
4012.177978,153.219100,666.185348,9770.718434
4012.178293,459.657299,1184.329507,9696.697840
4012.178608,536.266849,1554.432478,9770.718434
4012.178923,689.485948,1480.411884,9622.677246
4012.179238,536.266849,1258.350101,9770.718434
4012.179553,842.705048,1036.288319,9992.780217
4012.179868,919.314598,444.123565,10362.883188
4012.180183,1608.800546,592.164754,10510.924376
4012.180498,1762.019645,592.164754,9992.780217
4012.180813,1685.410096,592.164754,9622.677246
4012.181128,1762.019645,888.247130,9918.759623
4012.181443,1608.800546,1036.288319,9326.594869
4012.181758,1302.362347,1110.308913,8512.368333
4012.182073,1378.971896,1776.494261,9178.553681
4012.182388,689.485948,1702.473667,8734.430116
4012.182703,0.000000,1554.432478,9252.574275
4012.183018,-689.485948,1258.350101,9474.636058
4012.183333,-995.924147,1258.350101,10510.924376
4012.183648,-1225.752797,888.247130,10807.006753
4012.183963,-1378.971896,888.247130,11621.233289
4012.184278,-1378.971896,962.267725,11769.274478
4012.184593,-995.924147,666.185348,11547.212695
4012.184908,-612.876398,1406.391290,10955.047942
4012.185223,76.609550,1776.494261,9992.780217
4012.185538,536.266849,2294.638420,9770.718434
4012.185853,689.485948,2368.659014,9400.615463
4012.186168,689.485948,2368.659014,9326.594869
4012.186483,842.705048,2072.576638,9400.615463
4012.186798,383.047749,1036.288319,9178.553681
4012.187113,229.828649,296.082377,9622.677246
4012.187428,-153.219100,-740.205942,10362.883188
4012.187743,-536.266849,-1332.370696,10732.986159
4012.188058,-612.876398,-1628.453072,10362.883188
4012.188373,-459.657299,-1480.411884,9844.739029
4012.188688,-153.219100,-740.205942,9622.677246
4012.189003,0.000000,-0.000000,9400.615463
4012.189318,0.000000,888.247130,9178.553681
4012.189633,0.000000,1036.288319,8734.430116
4012.189949,-306.438199,888.247130,8660.409521
4012.190264,-842.705048,888.247130,8808.450710
4012.190579,-995.924147,296.082377,9622.677246
4012.190894,-919.314598,-0.000000,10584.944971
4012.191209,-1532.190996,-592.164754,10066.800811
4012.191524,-1302.362347,-814.226536,10436.903782
4012.191839,-995.924147,-1036.288319,10955.047942
4012.192154,-1149.143247,-148.041188,10658.965565
4012.192469,-383.047749,-592.164754,9622.677246
4012.192784,76.609550,-518.144159,8956.491898
4012.193099,459.657299,-74.020594,8586.388927
4012.193414,612.876398,-222.061783,8512.368333
4012.193729,612.876398,-888.247130,8512.368333
4012.194044,919.314598,-814.226536,8364.327145
4012.194359,1225.752797,-814.226536,8438.347739
4012.194674,1455.581446,-888.247130,8290.306550
4012.194989,1532.190996,-1850.514855,9696.697840
4012.195304,1838.629195,-1998.556043,9474.636058
4012.195619,1302.362347,-1332.370696,9252.574275
4012.195934,1149.143247,-962.267725,8956.491898
4012.196249,842.705048,-370.102971,9104.533087
4012.196564,689.485948,-0.000000,8734.430116
4012.196879,0.000000,-666.185348,8660.409521
4012.197194,-536.266849,-296.082377,9474.636058
4012.197509,-536.266849,-296.082377,9474.636058
4012.197824,-995.924147,-370.102971,9770.718434
4012.198139,-1149.143247,-962.267725,10584.944971
4012.198454,-1149.143247,-1110.308913,10807.006753
4012.198769,-919.314598,-1184.329507,11029.068536
4012.199084,-306.438199,-814.226536,10510.924376
4012.199399,459.657299,-222.061783,10140.821405
4012.199714,995.924147,148.041188,9696.697840
4012.200029,1225.752797,518.144159,9474.636058
4012.200344,1302.362347,814.226536,9030.512492
4012.200659,1149.143247,592.164754,9030.512492
4012.200974,1072.533697,296.082377,8808.450710
4012.201289,689.485948,-296.082377,9252.574275
4012.201604,995.924147,-296.082377,9326.594869
4012.201919,459.657299,-1036.288319,9474.636058
4012.202234,306.438199,-1036.288319,9770.718434
4012.202549,842.705048,-962.267725,10214.842000
4012.202864,459.657299,-444.123565,9992.780217
4012.203179,383.047749,-0.000000,9474.636058
4012.203494,0.000000,814.226536,9030.512492
4012.203809,-229.828649,1554.432478,9030.512492
4012.204124,-229.828649,1702.473667,9178.553681
4012.204439,-995.924147,1924.535449,9474.636058
4012.204754,-842.705048,1406.391290,9844.739029
4012.205069,-919.314598,1258.350101,10066.800811
4012.205384,-1455.581446,1184.329507,10214.842000
4012.205699,-1225.752797,666.185348,10658.965565
4012.206014,-1149.143247,740.205942,11029.068536
4012.206329,-766.095498,740.205942,10510.924376
4012.206644,-459.657299,962.267725,9992.780217
4012.206959,0.000000,962.267725,9548.656652
4012.207274,0.000000,1554.432478,9474.636058
4012.207589,76.609550,1702.473667,9178.553681
4012.207904,0.000000,1480.411884,9326.594869
4012.208219,383.047749,1258.350101,9178.553681
4012.208534,766.095498,740.205942,9400.615463
4012.208849,842.705048,370.102971,9400.615463
4012.209165,842.705048,296.082377,9918.759623
4012.209480,612.876398,592.164754,9696.697840
4012.209795,612.876398,740.205942,9326.594869
4012.210110,766.095498,1184.329507,9474.636058
4012.210425,76.609550,1406.391290,9474.636058
4012.210740,76.609550,1480.411884,8882.471304
4012.211055,-383.047749,1554.432478,8956.491898
4012.211370,-842.705048,1184.329507,9622.677246
4012.211685,-1302.362347,962.267725,9992.780217
4012.212000,-1608.800546,592.164754,10362.883188
4012.212315,-1608.800546,-0.000000,10732.986159
4012.212630,-1378.971896,-0.000000,10955.047942
4012.212945,-842.705048,222.061783,10510.924376
4012.213260,76.609550,222.061783,10066.800811
4012.213575,842.705048,814.226536,10140.821405
4012.213890,766.095498,1036.288319,9474.636058
4012.214205,766.095498,1258.350101,8586.388927
4012.214520,1149.143247,1258.350101,8586.388927
4012.214835,1225.752797,740.205942,8882.471304
4012.215150,1072.533697,370.102971,8808.450710
4012.215465,1378.971896,-0.000000,9326.594869
4012.215780,1072.533697,-222.061783,9548.656652
4012.216095,766.095498,-962.267725,9622.677246
4012.216410,689.485948,-1036.288319,9696.697840
4012.216725,689.485948,-888.247130,9844.739029
4012.217040,842.705048,-370.102971,9178.553681
4012.217355,536.266849,-370.102971,9252.574275
4012.217670,689.485948,148.041188,9030.512492
4012.217985,995.924147,296.082377,9400.615463
4012.218300,0.000000,666.185348,9326.594869
4012.218615,-153.219100,-0.000000,9252.574275
4012.218930,-459.657299,296.082377,9696.697840
4012.219245,-612.876398,-148.041188,9992.780217
4012.219560,-842.705048,-592.164754,10584.944971
4012.219875,-1302.362347,-592.164754,10807.006753
4012.220190,-536.266849,-370.102971,10288.862594
4012.220505,-459.657299,-592.164754,9992.780217
4012.220820,229.828649,-962.267725,10140.821405
4012.221135,459.657299,-814.226536,9992.780217
4012.221450,229.828649,-296.082377,9770.718434
4012.221765,229.828649,-370.102971,9178.553681
4012.222080,153.219100,-592.164754,9252.574275
4012.222395,1072.533697,-444.123565,9696.697840
4012.222710,842.705048,-1110.308913,9178.553681
4012.223025,919.314598,-1184.329507,9178.553681
4012.223340,612.876398,-1406.391290,9696.697840
4012.223655,689.485948,-1258.350101,9474.636058
4012.223970,919.314598,-1480.411884,8882.471304
4012.224285,766.095498,-888.247130,8956.491898
4012.224600,383.047749,-518.144159,9400.615463
4012.224915,-459.657299,-518.144159,8734.430116
4012.225230,-842.705048,-222.061783,9104.533087
4012.225545,-1072.533697,-370.102971,9548.656652
4012.225860,-1378.971896,-518.144159,9474.636058
4012.226175,-1225.752797,-370.102971,10066.800811
4012.226490,-1838.629195,-444.123565,10066.800811
4012.226805,-1302.362347,-518.144159,10584.944971
4012.227120,-995.924147,-1036.288319,10362.883188
4012.227435,-459.657299,-148.041188,10140.821405
4012.227750,0.000000,148.041188,9622.677246
4012.228065,536.266849,518.144159,8956.491898
4012.228381,612.876398,1036.288319,8808.450710
4012.228696,919.314598,1258.350101,8734.430116
4012.229011,995.924147,888.247130,8882.471304
4012.229326,766.095498,296.082377,8660.409521
4012.229641,919.314598,-148.041188,8882.471304
4012.229956,842.705048,-222.061783,9326.594869
4012.230271,842.705048,-444.123565,9400.615463
4012.230586,919.314598,-296.082377,9696.697840
4012.230901,842.705048,-0.000000,9474.636058
4012.231216,1072.533697,666.185348,9104.533087
4012.231531,1225.752797,740.205942,9178.553681
4012.231846,689.485948,1258.350101,9104.533087
4012.232161,459.657299,1628.453072,9474.636058
4012.232476,-229.828649,1702.473667,9474.636058
4012.232791,-612.876398,1258.350101,9844.739029
4012.233106,-459.657299,740.205942,10288.862594
4012.233421,-766.095498,1036.288319,10807.006753
4012.233736,-689.485948,888.247130,11251.130318
4012.234051,-612.876398,962.267725,11177.109724
4012.234366,-306.438199,962.267725,10732.986159
4012.234681,306.438199,814.226536,10066.800811
4012.234996,306.438199,962.267725,10140.821405
4012.235311,842.705048,1332.370696,10214.842000
4012.235626,612.876398,1110.308913,9252.574275
4012.235941,766.095498,1184.329507,9030.512492
4012.236256,612.876398,888.247130,9474.636058
4012.236571,766.095498,518.144159,9252.574275
4012.236886,842.705048,222.061783,9474.636058
4012.237201,1072.533697,-148.041188,10066.800811
4012.237516,842.705048,-370.102971,10066.800811
4012.237831,919.314598,-0.000000,9548.656652
4012.238146,842.705048,296.082377,9474.636058
4012.238461,766.095498,444.123565,9696.697840
4012.238776,306.438199,592.164754,9326.594869
4012.239091,306.438199,1036.288319,9104.533087
4012.239406,0.000000,1258.350101,9178.553681
4012.239721,-919.314598,1258.350101,9622.677246
4012.240036,-1149.143247,888.247130,9622.677246
4012.240351,-1072.533697,222.061783,9770.718434
4012.240666,-1378.971896,222.061783,10436.903782
4012.240981,-1532.190996,-222.061783,10584.944971
4012.241296,-1302.362347,-222.061783,10362.883188
4012.241611,-689.485948,-296.082377,9844.739029
4012.241926,-459.657299,-0.000000,9918.759623
4012.242241,0.000000,-74.020594,9178.553681
4012.242556,76.609550,592.164754,9178.553681
4012.242871,0.000000,518.144159,9178.553681
4012.243186,76.609550,296.082377,8438.347739
4012.243490,229.828649,-74.020594,8438.347739
4012.243805,76.609550,-370.102971,9178.553681
4012.244120,229.828649,-740.205942,9178.553681
4012.244435,306.438199,-1036.288319,9622.677246
4012.244750,229.828649,-1184.329507,9622.677246
4012.245065,459.657299,-888.247130,9474.636058
4012.245380,383.047749,-814.226536,9326.594869
4012.245695,766.095498,-592.164754,9104.533087
4012.246010,306.438199,-222.061783,9178.553681
4012.246326,-459.657299,-222.061783,8808.450710
4012.246641,-612.876398,-0.000000,8808.450710
4012.246956,-612.876398,-222.061783,9548.656652
4012.247271,-995.924147,-444.123565,9770.718434
4012.247586,-995.924147,-370.102971,9918.759623
4012.247901,-1072.533697,-592.164754,10362.883188
4012.248216,-536.266849,-814.226536,10732.986159
4012.248531,-995.924147,-814.226536,10066.800811
4012.248846,0.000000,-666.185348,9992.780217
4012.249161,383.047749,-518.144159,9770.718434
4012.249476,689.485948,-148.041188,9474.636058
4012.249792,766.095498,-0.000000,9252.574275
4012.250107,1149.143247,-0.000000,9474.636058
4012.250422,1072.533697,-0.000000,9400.615463
4012.250737,1455.581446,-148.041188,8660.409521
4012.251052,1378.971896,-148.041188,9030.512492
4012.251367,1225.752797,-666.185348,9474.636058
4012.251682,1762.019645,-1184.329507,9474.636058
4012.251997,1378.971896,-444.123565,9622.677246
4012.252312,1149.143247,-222.061783,9326.594869
4012.252627,995.924147,-0.000000,9474.636058
4012.252943,689.485948,370.102971,9178.553681
4012.253258,306.438199,592.164754,9400.615463
4012.253573,-459.657299,814.226536,9474.636058
4012.253888,-842.705048,1036.288319,9474.636058
4012.254203,-1149.143247,814.226536,9474.636058
4012.254518,-995.924147,444.123565,10140.821405
4012.254833,-1149.143247,592.164754,10362.883188
4012.255148,-459.657299,148.041188,10436.903782
4012.255463,-995.924147,370.102971,10436.903782
4012.255778,0.000000,666.185348,9770.718434
4012.256093,459.657299,888.247130,9400.615463
4012.256409,919.314598,1110.308913,9474.636058
4012.256724,766.095498,1110.308913,9178.553681
4012.257039,459.657299,1184.329507,8512.368333
4012.257354,459.657299,1110.308913,8882.471304
4012.257669,842.705048,518.144159,9252.574275
4012.257984,842.705048,-296.082377,9474.636058
4012.258299,0.000000,-444.123565,9474.636058
4012.258614,383.047749,-666.185348,9918.759623
4012.258929,459.657299,-370.102971,9992.780217
4012.259244,689.485948,-74.020594,9696.697840
4012.259560,689.485948,518.144159,9696.697840
4012.259875,612.876398,592.164754,9178.553681
4012.260190,306.438199,1332.370696,9178.553681
4012.260505,229.828649,1332.370696,8956.491898
4012.260820,-459.657299,1258.350101,9696.697840
4012.261135,-536.266849,666.185348,9622.677246
4012.261450,-1302.362347,518.144159,9992.780217
4012.261765,-1532.190996,666.185348,10584.944971
4012.262080,-1225.752797,-0.000000,10510.924376
4012.262395,-1302.362347,-0.000000,10807.006753
4012.262710,-1072.533697,296.082377,10584.944971
4012.263026,-383.047749,370.102971,10140.821405
4012.263341,76.609550,370.102971,9770.718434
4012.263656,153.219100,814.226536,9474.636058
4012.263971,306.438199,1258.350101,9400.615463
4012.264286,383.047749,370.102971,9178.553681
4012.264601,306.438199,518.144159,9104.533087
4012.264916,919.314598,666.185348,9326.594869
4012.265231,995.924147,-0.000000,9178.553681
4012.265546,689.485948,-148.041188,9474.636058
4012.265861,919.314598,-370.102971,9548.656652
4012.266177,842.705048,-222.061783,9474.636058
4012.266492,1072.533697,-0.000000,9252.574275
4012.266807,1149.143247,-74.020594,9326.594869
4012.267122,612.876398,222.061783,9104.533087
4012.267437,383.047749,296.082377,9104.533087
4012.267752,-306.438199,518.144159,9030.512492
4012.268067,-842.705048,296.082377,9252.574275
4012.268382,-766.095498,-0.000000,9548.656652
4012.268697,-842.705048,-444.123565,10066.800811
4012.269012,-1149.143247,-370.102971,10362.883188
4012.269327,-919.314598,-444.123565,10584.944971
4012.269643,-536.266849,-592.164754,10288.862594
4012.269958,76.609550,-148.041188,10066.800811
4012.270273,842.705048,-0.000000,9770.718434
4012.270588,842.705048,148.041188,9548.656652
4012.270903,689.485948,444.123565,9326.594869
4012.271218,919.314598,-0.000000,8660.409521
4012.271533,1149.143247,-0.000000,8882.471304
4012.271848,766.095498,-222.061783,8882.471304
4012.272163,842.705048,-444.123565,9178.553681
4012.272478,842.705048,-962.267725,9474.636058
4012.272794,919.314598,-1480.411884,9548.656652
4012.273109,612.876398,-1554.432478,9770.718434
4012.273424,919.314598,-1258.350101,9696.697840
4012.273739,766.095498,-592.164754,9622.677246
4012.274054,766.095498,-148.041188,9474.636058
4012.274369,459.657299,-0.000000,9178.553681
4012.274684,229.828649,518.144159,9178.553681
4012.274999,-306.438199,296.082377,9252.574275
4012.275314,-459.657299,222.061783,9474.636058
4012.275629,-689.485948,148.041188,9992.780217
4012.275944,-1072.533697,-0.000000,9770.718434
4012.276260,-1072.533697,-222.061783,10362.883188
4012.276575,-842.705048,-740.205942,10140.821405
4012.276890,-842.705048,-296.082377,9696.697840
4012.277205,-76.609550,-0.000000,9622.677246
4012.277520,0.000000,-0.000000,9622.677246
4012.277835,76.609550,222.061783,9474.636058
4012.278150,0.000000,222.061783,9326.594869
4012.278465,0.000000,-0.000000,9252.574275
4012.278780,153.219100,222.061783,9104.533087
4012.279095,689.485948,-0.000000,9252.574275
4012.279410,766.095498,-0.000000,9474.636058
4012.279726,612.876398,-518.144159,9400.615463
4012.280041,459.657299,-518.144159,9474.636058
4012.280356,689.485948,-222.061783,9548.656652
4012.280671,536.266849,518.144159,9104.533087
4012.280986,766.095498,370.102971,9104.533087
4012.281301,0.000000,148.041188,9030.512492
4012.281616,-229.828649,962.267725,9178.553681
4012.281931,-689.485948,814.226536,9326.594869
4012.282246,-1225.752797,814.226536,9696.697840
4012.282561,-1072.533697,888.247130,10288.862594
4012.282877,-1225.752797,518.144159,10658.965565
4012.283192,-1302.362347,370.102971,10732.986159
4012.283507,-919.314598,148.041188,10658.965565
4012.283822,-536.266849,592.164754,10214.842000
4012.284137,383.047749,740.205942,10214.842000
4012.284452,383.047749,1110.308913,9918.759623
4012.284767,919.314598,1184.329507,9474.636058
4012.285082,1072.533697,1258.350101,9104.533087
4012.285397,995.924147,1258.350101,9178.553681
4012.285712,612.876398,888.247130,9474.636058
4012.286027,1072.533697,444.123565,9474.636058
4012.286343,383.047749,-74.020594,9992.780217
4012.286658,459.657299,-592.164754,10140.821405
4012.286973,459.657299,-592.164754,9918.759623
4012.287288,689.485948,-370.102971,9992.780217
4012.287603,1455.581446,222.061783,9918.759623
4012.287918,1149.143247,370.102971,9400.615463
4012.288233,766.095498,814.226536,9178.553681
4012.288548,612.876398,1110.308913,9326.594869
4012.288863,383.047749,888.247130,8882.471304
4012.289178,0.000000,888.247130,9326.594869
4012.289494,-383.047749,814.226536,9622.677246
4012.289809,-612.876398,666.185348,9844.739029
4012.290124,-842.705048,-0.000000,10510.924376
4012.290439,-995.924147,-444.123565,10510.924376
4012.290754,-919.314598,-666.185348,10288.862594
4012.291069,-612.876398,-148.041188,10066.800811
4012.291384,153.219100,-74.020594,9548.656652
4012.291699,383.047749,222.061783,9622.677246
4012.292014,766.095498,444.123565,9252.574275
4012.292329,689.485948,592.164754,8882.471304
4012.292644,766.095498,-0.000000,8660.409521
4012.292960,1149.143247,-0.000000,8808.450710
4012.293275,1302.362347,-0.000000,8808.450710
4012.293590,1302.362347,-296.082377,9474.636058
4012.293905,1149.143247,-814.226536,9844.739029
4012.294220,766.095498,-666.185348,9326.594869
4012.294535,766.095498,-666.185348,9178.553681
4012.294850,766.095498,-518.144159,9252.574275
4012.295165,229.828649,-370.102971,9326.594869
4012.295480,-153.219100,-148.041188,9252.574275
4012.295795,0.000000,370.102971,9178.553681
4012.296111,-689.485948,296.082377,9104.533087
4012.296426,-1302.362347,-0.000000,9770.718434
4012.296741,-1455.581446,-148.041188,9844.739029
4012.297056,-1302.362347,-222.061783,9992.780217
4012.297371,-1225.752797,-592.164754,10510.924376
4012.297686,-1302.362347,-592.164754,10732.986159
4012.298001,-919.314598,-222.061783,10140.821405
4012.298316,-689.485948,-148.041188,9622.677246
4012.298631,153.219100,-370.102971,9622.677246
4012.298946,153.219100,-0.000000,9326.594869
4012.299261,459.657299,592.164754,8882.471304
4012.299577,536.266849,222.061783,8808.450710
4012.299892,459.657299,-296.082377,8734.430116
4012.300207,306.438199,-222.061783,9030.512492
4012.300522,306.438199,-592.164754,9252.574275
4012.300837,306.438199,-888.247130,9696.697840
4012.301152,383.047749,-1258.350101,9696.697840
4012.301467,459.657299,-814.226536,9400.615463
4012.301782,766.095498,-592.164754,9030.512492
4012.302097,1072.533697,148.041188,9400.615463
4012.302412,995.924147,518.144159,9474.636058
4012.302728,459.657299,592.164754,9252.574275
4012.303043,-229.828649,1184.329507,9178.553681
4012.303358,-842.705048,962.267725,9178.553681
4012.303673,-766.095498,888.247130,9622.677246
4012.303988,-536.266849,592.164754,10510.924376
4012.304303,-1072.533697,296.082377,10658.965565
4012.304618,-1072.533697,-518.144159,11029.068536
4012.304933,-689.485948,-74.020594,10732.986159
4012.305248,-383.047749,370.102971,10510.924376
4012.305563,0.000000,592.164754,10066.800811
4012.305878,459.657299,1036.288319,9844.739029
4012.306194,536.266849,962.267725,9474.636058
4012.306509,689.485948,1110.308913,8882.471304
4012.306824,1072.533697,1184.329507,8734.430116
4012.307139,1072.533697,962.267725,8956.491898
4012.307454,1608.800546,666.185348,9326.594869
4012.307769,919.314598,-0.000000,9400.615463
4012.308084,766.095498,-370.102971,9622.677246
4012.308399,459.657299,-222.061783,9992.780217
4012.308714,459.657299,-0.000000,9770.718434
4012.309029,689.485948,222.061783,10066.800811
4012.309345,76.609550,-0.000000,9622.677246
4012.309660,-229.828649,518.144159,9474.636058
4012.309975,-459.657299,814.226536,9548.656652
4012.310290,-842.705048,1184.329507,9622.677246
4012.310605,-919.314598,1036.288319,9696.697840
4012.310920,-1455.581446,592.164754,9992.780217
4012.311235,-1072.533697,962.267725,10066.800811
4012.311550,-995.924147,444.123565,10214.842000
4012.311865,-459.657299,518.144159,10510.924376
4012.312180,-229.828649,296.082377,10140.821405
4012.312495,0.000000,518.144159,9548.656652
4012.312811,306.438199,740.205942,9696.697840
4012.313126,383.047749,740.205942,9548.656652
4012.313441,229.828649,444.123565,9400.615463
4012.313756,153.219100,222.061783,9030.512492
4012.314071,76.609550,-0.000000,8808.450710
4012.314386,612.876398,-222.061783,9252.574275
4012.314701,689.485948,-148.041188,9474.636058
4012.315016,229.828649,-74.020594,9622.677246
4012.315331,536.266849,-518.144159,9548.656652
4012.315646,842.705048,-222.061783,9400.615463
4012.315962,1302.362347,-0.000000,9326.594869
4012.316277,842.705048,740.205942,9400.615463
4012.316592,842.705048,592.164754,9030.512492
4012.316907,76.609550,740.205942,9326.594869
4012.317222,-306.438199,740.205942,9178.553681
4012.317537,-919.314598,740.205942,9622.677246
4012.317852,-689.485948,444.123565,9992.780217
4012.318167,-1302.362347,-74.020594,10658.965565
4012.318482,-1608.800546,-296.082377,10658.965565
4012.318797,-1532.190996,-518.144159,10584.944971
4012.319112,-919.314598,-592.164754,10362.883188
4012.319428,-383.047749,-222.061783,9992.780217
4012.319743,0.000000,-148.041188,9918.759623
4012.320058,919.314598,-0.000000,9548.656652
4012.320373,842.705048,370.102971,9474.636058
4012.320688,919.314598,-0.000000,8586.388927
4012.321003,995.924147,444.123565,9030.512492
4012.321318,1149.143247,-0.000000,9400.615463
4012.321633,1225.752797,-370.102971,8956.491898
4012.321948,995.924147,-666.185348,9400.615463
4012.322263,1072.533697,-1258.350101,9548.656652
4012.322578,995.924147,-1258.350101,9622.677246
4012.322894,842.705048,-962.267725,9252.574275
4012.323209,995.924147,-666.185348,9474.636058
4012.323524,766.095498,-370.102971,9400.615463
4012.323839,459.657299,-148.041188,9326.594869
4012.324154,153.219100,-0.000000,9252.574275
4012.324469,-153.219100,-0.000000,9400.615463
4012.324784,-306.438199,-518.144159,9622.677246
4012.325099,-459.657299,-0.000000,9622.677246
4012.325414,-536.266849,-74.020594,10066.800811
4012.325729,-766.095498,-222.061783,10436.903782
4012.326045,0.000000,-370.102971,10066.800811
4012.326360,-229.828649,-148.041188,9918.759623
4012.326675,0.000000,296.082377,9844.739029
4012.326990,459.657299,222.061783,9474.636058
4012.327305,612.876398,444.123565,9474.636058
4012.327620,459.657299,592.164754,9104.533087
4012.327935,459.657299,444.123565,9104.533087
4012.328250,536.266849,-0.000000,9326.594869
4012.328565,536.266849,-0.000000,9474.636058
4012.328880,459.657299,-222.061783,9474.636058
4012.329195,766.095498,-444.123565,9844.739029
4012.329511,536.266849,-444.123565,9326.594869
4012.329826,766.095498,-74.020594,9252.574275
4012.330141,919.314598,370.102971,9178.553681
4012.330456,689.485948,-0.000000,9178.553681
4012.330771,0.000000,518.144159,9030.512492
4012.331086,-383.047749,814.226536,9178.553681
4012.331401,-766.095498,962.267725,8956.491898
4012.331716,-995.924147,740.205942,9622.677246
4012.332031,-995.924147,518.144159,10807.006753
4012.332346,-1378.971896,296.082377,10288.862594
4012.332662,-1302.362347,592.164754,10362.883188
4012.332977,-1225.752797,-0.000000,10658.965565
4012.333292,-766.095498,222.061783,10436.903782
4012.333607,-153.219100,518.144159,10288.862594
4012.333922,536.266849,740.205942,9844.739029
4012.334237,842.705048,962.267725,9696.697840
4012.334552,919.314598,1036.288319,9104.533087
4012.334867,919.314598,962.267725,9030.512492
4012.335182,1302.362347,814.226536,9844.739029
4012.335497,1072.533697,592.164754,9252.574275
4012.335812,1302.362347,222.061783,9474.636058
4012.336128,766.095498,-148.041188,9696.697840
4012.336443,995.924147,-444.123565,10140.821405
4012.336758,766.095498,-222.061783,9918.759623
4012.337073,612.876398,-222.061783,9474.636058
4012.337388,689.485948,296.082377,9696.697840
4012.337703,459.657299,740.205942,9696.697840
4012.338018,383.047749,962.267725,9622.677246
4012.338333,306.438199,888.247130,9252.574275
4012.338648,-383.047749,1332.370696,9474.636058
4012.338963,-689.485948,1036.288319,9844.739029
4012.339279,-919.314598,666.185348,10510.924376
4012.339594,-1302.362347,370.102971,10658.965565
4012.339909,-1149.143247,-148.041188,10288.862594
4012.340224,-995.924147,-148.041188,10214.842000
4012.340539,-459.657299,74.020594,10214.842000
4012.340854,0.000000,370.102971,10140.821405
4012.341169,612.876398,370.102971,9696.697840
4012.341484,306.438199,592.164754,9474.636058
4012.341799,383.047749,518.144159,9104.533087
4012.342114,612.876398,-0.000000,8512.368333
4012.342429,766.095498,-0.000000,8882.471304
4012.342745,919.314598,-518.144159,9400.615463
4012.343060,995.924147,-518.144159,9326.594869
4012.343375,612.876398,-666.185348,9104.533087
4012.343690,766.095498,-814.226536,9474.636058
4012.344005,1072.533697,-444.123565,9252.574275
4012.344320,995.924147,-148.041188,9104.533087
4012.344635,459.657299,-74.020594,9178.553681
4012.344950,459.657299,-0.000000,9326.594869
4012.345265,0.000000,296.082377,9178.553681
4012.345580,-459.657299,370.102971,8734.430116
4012.345896,-1149.143247,148.041188,9696.697840
4012.346211,-459.657299,-74.020594,9992.780217
4012.346526,-995.924147,-0.000000,9992.780217
4012.346841,-1149.143247,-0.000000,10510.924376
4012.347156,-842.705048,-444.123565,10732.986159
4012.347471,-536.266849,-296.082377,10214.842000
4012.347786,-153.219100,-0.000000,9844.739029
4012.348101,153.219100,-0.000000,9844.739029
4012.348416,689.485948,148.041188,9400.615463
4012.348732,536.266849,666.185348,9326.594869
4012.349047,536.266849,296.082377,8808.450710
4012.349362,689.485948,148.041188,9104.533087
4012.349677,612.876398,-0.000000,9252.574275
4012.349992,919.314598,-0.000000,9696.697840
4012.350307,536.266849,-592.164754,9918.759623
4012.350622,536.266849,-740.205942,9696.697840
4012.350937,306.438199,-370.102971,9326.594869
4012.351252,383.047749,-148.041188,9326.594869
4012.351567,536.266849,-74.020594,9474.636058
4012.351883,229.828649,296.082377,9548.656652
4012.352198,-383.047749,592.164754,9178.553681
4012.352513,-766.095498,740.205942,9548.656652
4012.352828,-919.314598,518.144159,9474.636058
4012.353143,-919.314598,740.205942,9844.739029
4012.353458,-995.924147,370.102971,10436.903782
4012.353773,-842.705048,222.061783,10732.986159
4012.354088,-689.485948,148.041188,10584.944971
4012.354403,-689.485948,296.082377,10362.883188
4012.354719,0.000000,518.144159,9992.780217
4012.355034,229.828649,592.164754,9992.780217
4012.355349,459.657299,518.144159,9548.656652
4012.355664,995.924147,592.164754,9178.553681
4012.355979,689.485948,592.164754,9030.512492
4012.356294,919.314598,592.164754,9104.533087
4012.356609,842.705048,222.061783,9104.533087
4012.356924,995.924147,-222.061783,9326.594869
4012.357239,919.314598,-296.082377,9474.636058
4012.357554,919.314598,-444.123565,9474.636058
4012.357870,1455.581446,-296.082377,9622.677246
4012.358185,842.705048,-296.082377,9548.656652
4012.358500,995.924147,444.123565,9326.594869
4012.358815,995.924147,592.164754,9104.533087
4012.359130,536.266849,962.267725,9030.512492
4012.359445,306.438199,888.247130,9474.636058
4012.359760,-459.657299,814.226536,9474.636058
4012.360075,0.000000,-0.000000,9918.759623
4012.360390,-919.314598,296.082377,10214.842000
4012.360706,-1302.362347,-0.000000,10436.903782
4012.361021,-1149.143247,-148.041188,10510.924376
4012.361336,-383.047749,-74.020594,10881.027347
4012.361651,-306.438199,-0.000000,10214.842000
4012.361966,153.219100,518.144159,9844.739029
4012.362281,459.657299,592.164754,9548.656652
4012.362596,766.095498,592.164754,9252.574275
4012.362911,459.657299,740.205942,8808.450710
4012.363226,612.876398,740.205942,8734.430116
4012.363541,766.095498,444.123565,8956.491898
4012.363857,995.924147,370.102971,9178.553681
4012.364172,842.705048,-222.061783,9252.574275
4012.364487,689.485948,-1184.329507,9474.636058
4012.364802,383.047749,-740.205942,9918.759623
4012.365117,76.609550,-592.164754,9992.780217
4012.365432,459.657299,-592.164754,9474.636058
4012.365747,612.876398,-444.123565,9548.656652
4012.366062,383.047749,296.082377,9030.512492
4012.366377,76.609550,740.205942,9030.512492
4012.366692,-536.266849,666.185348,9030.512492
4012.367008,-995.924147,962.267725,9252.574275
4012.367323,-995.924147,444.123565,9474.636058
4012.367638,-995.924147,-0.000000,9770.718434
4012.367953,-1149.143247,-0.000000,10214.842000
4012.368268,-995.924147,-296.082377,10510.924376
4012.368583,-842.705048,-370.102971,10510.924376
4012.368898,-229.828649,-222.061783,10288.862594
4012.369213,76.609550,-0.000000,9992.780217
4012.369528,76.609550,-0.000000,10066.800811
4012.369844,536.266849,444.123565,9252.574275
4012.370159,842.705048,370.102971,9400.615463
4012.370474,689.485948,444.123565,9030.512492
4012.370789,612.876398,-74.020594,9400.615463
4012.371104,1149.143247,-370.102971,9622.677246
4012.371419,995.924147,-592.164754,9548.656652
4012.371734,689.485948,-888.247130,9992.780217
4012.372049,919.314598,-592.164754,9844.739029
4012.372364,1149.143247,-370.102971,9696.697840
4012.372679,995.924147,-592.164754,9178.553681
4012.372995,995.924147,-0.000000,9178.553681
4012.373310,459.657299,-0.000000,9400.615463
4012.373625,-306.438199,518.144159,9178.553681
4012.373940,-612.876398,370.102971,8956.491898
4012.374255,-1149.143247,592.164754,9548.656652
4012.374570,-1225.752797,-0.000000,10288.862594
4012.374885,-1532.190996,-0.000000,10066.800811
4012.375200,-1532.190996,-444.123565,10510.924376
4012.375515,-1149.143247,-148.041188,10658.965565
4012.375831,-689.485948,-74.020594,10066.800811
4012.376146,153.219100,-0.000000,9770.718434
4012.376461,536.266849,-0.000000,9474.636058
4012.376776,919.314598,814.226536,9104.533087
4012.377091,766.095498,814.226536,8586.388927
4012.377406,689.485948,518.144159,8512.368333
4012.377721,689.485948,888.247130,8956.491898
4012.378036,995.924147,-148.041188,8956.491898
4012.378351,536.266849,-370.102971,9030.512492
4012.378666,536.266849,-740.205942,9474.636058
4012.378982,383.047749,-1110.308913,9770.718434
4012.379297,612.876398,-814.226536,9844.739029
4012.379612,383.047749,-74.020594,9474.636058
4012.379927,459.657299,-0.000000,9400.615463
4012.380242,766.095498,444.123565,8808.450710
4012.380557,459.657299,962.267725,9400.615463
4012.380872,0.000000,1332.370696,9696.697840
4012.381187,-689.485948,1184.329507,9326.594869
4012.381502,-689.485948,962.267725,9696.697840
4012.381818,-842.705048,518.144159,10214.842000
4012.382133,-1302.362347,518.144159,10584.944971
4012.382448,-1302.362347,148.041188,10807.006753
4012.382763,-1455.581446,-0.000000,10584.944971
4012.383078,-766.095498,296.082377,10658.965565
4012.383393,-229.828649,444.123565,10288.862594
4012.383708,0.000000,592.164754,9918.759623
4012.384023,229.828649,814.226536,9622.677246
4012.384338,76.609550,666.185348,9178.553681
4012.384653,306.438199,888.247130,9104.533087
4012.384969,766.095498,592.164754,9326.594869
4012.385284,842.705048,222.061783,9474.636058
4012.385599,536.266849,-0.000000,9622.677246
4012.385914,612.876398,-296.082377,9548.656652
4012.386229,689.485948,-74.020594,9696.697840
4012.386544,995.924147,222.061783,9252.574275
4012.386859,919.314598,-74.020594,9178.553681
4012.387174,306.438199,296.082377,9474.636058
4012.387489,229.828649,666.185348,9178.553681
4012.387805,-459.657299,740.205942,9178.553681
4012.388120,-689.485948,518.144159,9104.533087
4012.388435,-1072.533697,518.144159,9992.780217
4012.388750,-1072.533697,222.061783,10140.821405
4012.389065,-1149.143247,-148.041188,10214.842000
4012.389380,-995.924147,-222.061783,10140.821405
4012.389695,-536.266849,-296.082377,10658.965565
4012.390010,0.000000,148.041188,10214.842000
4012.390325,383.047749,370.102971,10066.800811
4012.390640,919.314598,592.164754,9400.615463
4012.390956,919.314598,740.205942,8586.388927
4012.391271,842.705048,888.247130,8512.368333
4012.391586,1225.752797,592.164754,9030.512492
4012.391901,995.924147,222.061783,9178.553681
4012.392216,1072.533697,-222.061783,9252.574275
4012.392531,919.314598,-444.123565,9474.636058
4012.392846,536.266849,-1110.308913,9992.780217
4012.393161,536.266849,-1036.288319,9844.739029
4012.393476,919.314598,-592.164754,9548.656652
4012.393792,1072.533697,-296.082377,9326.594869
4012.394107,1149.143247,-0.000000,9400.615463
4012.394422,919.314598,592.164754,9104.533087
4012.394737,306.438199,592.164754,9178.553681
4012.395052,0.000000,518.144159,9104.533087
4012.395367,-459.657299,222.061783,9400.615463
4012.395682,-919.314598,-0.000000,9770.718434
4012.395997,-842.705048,-296.082377,10436.903782
4012.396312,-995.924147,-296.082377,10510.924376
4012.396627,-1072.533697,-518.144159,10584.944971
4012.396943,-995.924147,-666.185348,10362.883188
4012.397258,-459.657299,-296.082377,9918.759623
4012.397573,0.000000,-148.041188,9844.739029
4012.397888,459.657299,222.061783,9622.677246
4012.398203,536.266849,148.041188,9178.553681
4012.398518,536.266849,370.102971,9326.594869
4012.398833,842.705048,222.061783,8956.491898
4012.399148,919.314598,-148.041188,9178.553681
4012.399463,842.705048,-592.164754,9104.533087
4012.399779,919.314598,-370.102971,9474.636058
4012.400094,1072.533697,-740.205942,9474.636058
4012.400409,842.705048,-444.123565,9326.594869
4012.400724,766.095498,-296.082377,8956.491898
4012.401039,919.314598,-148.041188,9326.594869
4012.401354,306.438199,222.061783,9548.656652
4012.401669,-306.438199,296.082377,8956.491898
4012.401984,-536.266849,592.164754,9104.533087
4012.402299,-995.924147,370.102971,9474.636058
4012.402614,-1302.362347,148.041188,9918.759623
4012.402930,-1762.019645,-222.061783,9918.759623
4012.403245,-1685.410096,-0.000000,10436.903782
4012.403560,-1225.752797,-0.000000,10881.027347
4012.403875,-689.485948,-0.000000,10658.965565
4012.404190,0.000000,518.144159,10066.800811
4012.404505,459.657299,-0.000000,9918.759623
4012.404820,383.047749,518.144159,9548.656652
4012.405135,459.657299,888.247130,9178.553681
4012.405450,459.657299,962.267725,8956.491898
4012.405765,689.485948,444.123565,9326.594869
4012.406081,536.266849,-0.000000,9178.553681
4012.406396,766.095498,-0.000000,9696.697840
4012.406711,689.485948,-666.185348,9548.656652
4012.407026,459.657299,-888.247130,9770.718434
4012.407341,689.485948,-444.123565,9474.636058
4012.407656,919.314598,-74.020594,9474.636058
4012.407971,919.314598,-0.000000,9178.553681
4012.408286,919.314598,518.144159,9400.615463
4012.408601,612.876398,962.267725,8956.491898
4012.408917,459.657299,1036.288319,9030.512492
4012.409232,-229.828649,1110.308913,9030.512492
4012.409547,-459.657299,1110.308913,9548.656652
4012.409862,-459.657299,518.144159,10214.842000
4012.410177,-842.705048,222.061783,10510.924376
4012.410492,-1072.533697,-0.000000,10510.924376
4012.410807,-536.266849,-444.123565,10807.006753
4012.411122,-459.657299,-0.000000,10658.965565
4012.411437,306.438199,222.061783,10066.800811
4012.411752,536.266849,666.185348,9622.677246
4012.412068,842.705048,592.164754,9252.574275
4012.412383,766.095498,1332.370696,9178.553681
4012.412698,1149.143247,592.164754,8808.450710
4012.413013,995.924147,444.123565,8808.450710
4012.413328,1149.143247,-0.000000,9400.615463
4012.413643,1225.752797,-148.041188,9400.615463
4012.413958,612.876398,-370.102971,9474.636058
4012.414273,689.485948,-518.144159,9622.677246
4012.414588,612.876398,-370.102971,9770.718434
4012.414904,612.876398,-0.000000,9696.697840
4012.415219,459.657299,148.041188,9474.636058
4012.415534,306.438199,-0.000000,9474.636058
4012.415849,-306.438199,666.185348,9326.594869
4012.416164,-689.485948,518.144159,9400.615463
4012.416479,-842.705048,740.205942,9622.677246
4012.416794,-536.266849,444.123565,9770.718434
4012.417109,-919.314598,74.020594,9992.780217
4012.417424,-1149.143247,-148.041188,10214.842000
4012.417739,-1225.752797,-222.061783,10436.903782
4012.418055,-842.705048,-148.041188,10288.862594
4012.418370,0.000000,-74.020594,9548.656652
4012.418685,0.000000,148.041188,9474.636058
4012.419000,689.485948,370.102971,9252.574275
4012.419315,383.047749,592.164754,8882.471304
4012.419630,689.485948,740.205942,9030.512492
4012.419945,383.047749,444.123565,8882.471304
4012.420260,536.266849,222.061783,9030.512492
4012.420575,459.657299,-222.061783,9252.574275
4012.420891,306.438199,-740.205942,9474.636058
4012.421206,459.657299,-1110.308913,9696.697840
4012.421521,306.438199,-666.185348,9548.656652
4012.421836,153.219100,-666.185348,9622.677246
4012.422151,536.266849,-148.041188,9548.656652
4012.422466,536.266849,148.041188,9474.636058
4012.422781,76.609550,518.144159,8956.491898
4012.423096,-306.438199,814.226536,8956.491898
4012.423411,-612.876398,888.247130,9622.677246
4012.423726,-995.924147,444.123565,9844.739029
4012.424042,-1302.362347,222.061783,10214.842000
4012.424357,-1608.800546,-148.041188,10510.924376
4012.424672,-1532.190996,-148.041188,10658.965565
4012.424987,-766.095498,-222.061783,10362.883188
4012.425302,-995.924147,-0.000000,10214.842000
4012.425617,0.000000,148.041188,10140.821405
4012.425932,306.438199,222.061783,9548.656652
4012.426247,766.095498,444.123565,9252.574275
4012.426562,842.705048,888.247130,9030.512492
4012.426878,995.924147,888.247130,8956.491898
4012.427193,1072.533697,444.123565,9178.553681
4012.427508,1149.143247,-0.000000,8956.491898
4012.427823,1149.143247,-296.082377,9104.533087
4012.428138,536.266849,-444.123565,9770.718434
4012.428453,842.705048,-962.267725,9844.739029
4012.428768,842.705048,-666.185348,9696.697840
4012.429083,383.047749,-148.041188,9326.594869
4012.429398,766.095498,148.041188,9178.553681
4012.429713,536.266849,518.144159,9178.553681
4012.430029,229.828649,666.185348,9178.553681
4012.430344,-229.828649,740.205942,9178.553681
4012.430659,-459.657299,814.226536,9400.615463
4012.430974,-689.485948,666.185348,9548.656652
4012.431289,-536.266849,444.123565,9918.759623
4012.431604,-1149.143247,-74.020594,10510.924376
4012.431919,-995.924147,-0.000000,10807.006753
4012.432234,-612.876398,-74.020594,10066.800811
4012.432549,0.000000,148.041188,9992.780217
4012.432865,153.219100,444.123565,9770.718434
4012.433180,536.266849,444.123565,9622.677246
4012.433495,306.438199,740.205942,8734.430116
4012.433810,612.876398,740.205942,8660.409521
4012.434125,919.314598,296.082377,9326.594869
4012.434440,919.314598,518.144159,9178.553681
4012.434755,995.924147,-0.000000,9326.594869
4012.435070,766.095498,-370.102971,9622.677246
4012.435385,612.876398,-592.164754,9548.656652
4012.435700,689.485948,-592.164754,10066.800811
4012.436016,459.657299,-148.041188,9770.718434
4012.436331,536.266849,-0.000000,9474.636058
4012.436646,383.047749,370.102971,9326.594869
4012.436961,76.609550,740.205942,8882.471304
4012.437276,-612.876398,962.267725,9400.615463
4012.437591,-766.095498,814.226536,9770.718434
4012.437906,-1225.752797,518.144159,9918.759623
4012.438221,-1378.971896,-0.000000,10066.800811
4012.438536,-1149.143247,-0.000000,10436.903782
4012.438852,-1608.800546,-296.082377,10510.924376
4012.439167,-1072.533697,-370.102971,10807.006753
4012.439482,-766.095498,-222.061783,10584.944971
4012.439797,-383.047749,-0.000000,9770.718434
4012.440112,229.828649,-0.000000,9770.718434
4012.440427,229.828649,592.164754,9252.574275
4012.440742,612.876398,444.123565,8808.450710
4012.441057,612.876398,370.102971,8882.471304
4012.441372,612.876398,296.082377,8956.491898
4012.441687,1378.971896,-0.000000,9400.615463
4012.442003,919.314598,-296.082377,9326.594869
4012.442318,612.876398,-666.185348,9474.636058
4012.442633,766.095498,-962.267725,9622.677246
4012.442948,536.266849,-592.164754,9474.636058
4012.443263,1149.143247,-518.144159,9178.553681
4012.443578,842.705048,-0.000000,9918.759623
4012.443893,766.095498,592.164754,9178.553681
4012.444208,153.219100,740.205942,8882.471304
4012.444523,0.000000,962.267725,8882.471304
4012.444838,-306.438199,592.164754,9548.656652
4012.445154,-536.266849,444.123565,9844.739029
4012.445469,-612.876398,-0.000000,10288.862594
4012.445784,-1149.143247,-74.020594,10436.903782
4012.446099,-995.924147,-296.082377,10510.924376
4012.446414,-76.609550,-444.123565,10584.944971
4012.446729,0.000000,-74.020594,10140.821405
4012.447044,-229.828649,-74.020594,9844.739029
4012.447359,306.438199,296.082377,9548.656652
4012.447674,612.876398,666.185348,9030.512492
4012.447989,612.876398,1036.288319,9474.636058
4012.448304,689.485948,592.164754,8956.491898
4012.448619,766.095498,296.082377,9104.533087
4012.448934,1072.533697,-148.041188,9030.512492
4012.449249,689.485948,-666.185348,9326.594869
4012.449565,1149.143247,-666.185348,9622.677246
4012.449880,689.485948,-666.185348,9844.739029
4012.450195,536.266849,-370.102971,9622.677246
4012.450510,459.657299,-296.082377,9178.553681
4012.450825,153.219100,-74.020594,9696.697840
4012.451140,0.000000,370.102971,9030.512492
4012.451455,-459.657299,666.185348,9252.574275
4012.451770,-766.095498,592.164754,9474.636058
4012.452085,-995.924147,666.185348,9770.718434
4012.452400,-995.924147,370.102971,9992.780217
4012.452715,-1532.190996,-0.000000,10214.842000
4012.453030,-1149.143247,-74.020594,10214.842000
4012.453345,-995.924147,-0.000000,10658.965565
4012.453660,-766.095498,222.061783,10066.800811
4012.453975,306.438199,370.102971,9770.718434
4012.454291,76.609550,444.123565,9770.718434
4012.454606,689.485948,814.226536,9474.636058
4012.454921,689.485948,1184.329507,8956.491898
4012.455236,842.705048,1036.288319,8438.347739
4012.455551,689.485948,814.226536,9326.594869
4012.455866,842.705048,-0.000000,9474.636058
4012.456181,536.266849,296.082377,9548.656652
4012.456496,459.657299,-444.123565,9548.656652
4012.456811,459.657299,-518.144159,9918.759623
4012.457126,612.876398,-296.082377,10066.800811
4012.457441,536.266849,-0.000000,9770.718434
4012.457756,306.438199,148.041188,9548.656652
4012.458071,76.609550,740.205942,9474.636058
4012.458386,0.000000,1332.370696,9474.636058
4012.458702,-1072.533697,962.267725,9178.553681
4012.459017,-842.705048,814.226536,9770.718434
4012.459332,-689.485948,962.267725,10214.842000
4012.459647,-919.314598,370.102971,10288.862594
4012.459962,-842.705048,-222.061783,10362.883188
4012.460277,-689.485948,-0.000000,10066.800811
4012.460592,0.000000,-0.000000,10288.862594
4012.460907,0.000000,370.102971,9770.718434
4012.461222,536.266849,296.082377,9622.677246
4012.461537,842.705048,592.164754,9474.636058
4012.461852,689.485948,740.205942,9104.533087
4012.462167,995.924147,592.164754,8586.388927
4012.462482,1072.533697,222.061783,8882.471304
4012.462797,1225.752797,-296.082377,9178.553681
4012.463112,1378.971896,-444.123565,9400.615463
4012.463428,766.095498,-666.185348,9622.677246
4012.463743,766.095498,-666.185348,9474.636058
4012.464058,842.705048,-740.205942,9844.739029
4012.464373,1149.143247,-370.102971,9474.636058
4012.464688,1072.533697,-0.000000,9474.636058
4012.465003,766.095498,296.082377,9178.553681
4012.465318,536.266849,814.226536,9252.574275
4012.465633,76.609550,666.185348,9252.574275
4012.465948,0.000000,962.267725,9474.636058
4012.466263,-383.047749,666.185348,9696.697840
4012.466578,-919.314598,-0.000000,9844.739029
4012.466893,-1072.533697,-222.061783,10584.944971
4012.467208,-1378.971896,-296.082377,10732.986159
4012.467523,-995.924147,-740.205942,10510.924376
4012.467839,-612.876398,-148.041188,10362.883188
4012.468154,-306.438199,-0.000000,10066.800811
4012.468469,0.000000,148.041188,9696.697840
4012.468784,306.438199,444.123565,9474.636058
4012.469099,76.609550,666.185348,9400.615463
4012.469414,383.047749,222.061783,8808.450710
4012.469729,612.876398,148.041188,9030.512492
4012.470044,766.095498,-222.061783,9252.574275
4012.470359,536.266849,-666.185348,9400.615463
4012.470674,612.876398,-888.247130,8956.491898
4012.470989,536.266849,-444.123565,9326.594869
4012.471304,306.438199,-592.164754,9548.656652
4012.471619,383.047749,-666.185348,9326.594869
4012.471934,153.219100,-592.164754,9474.636058
4012.472249,229.828649,-370.102971,9326.594869
4012.472565,-842.705048,-0.000000,9400.615463
4012.472880,-1149.143247,-0.000000,9548.656652
4012.473195,-1225.752797,222.061783,9696.697840
4012.473510,-995.924147,-0.000000,9918.759623
4012.473825,-1072.533697,-222.061783,10066.800811
4012.474140,-1149.143247,-74.020594,10436.903782
4012.474455,-842.705048,-74.020594,10362.883188
4012.474770,-459.657299,-0.000000,10066.800811
4012.475085,153.219100,-0.000000,9918.759623
4012.475400,612.876398,-74.020594,9474.636058
4012.475715,459.657299,148.041188,9548.656652
4012.476030,766.095498,888.247130,9326.594869
4012.476345,766.095498,370.102971,9326.594869
4012.476660,536.266849,296.082377,9178.553681
4012.476975,919.314598,-222.061783,9252.574275
4012.477291,995.924147,-296.082377,9474.636058
4012.477606,842.705048,-518.144159,9770.718434
4012.477921,1072.533697,-592.164754,9696.697840
4012.478236,1302.362347,-0.000000,9770.718434
4012.478551,1225.752797,-0.000000,9252.574275
4012.478866,1302.362347,666.185348,9104.533087
4012.479181,919.314598,814.226536,8956.491898
4012.479496,689.485948,1036.288319,9030.512492
4012.479811,229.828649,1258.350101,9178.553681
4012.480126,-383.047749,888.247130,9474.636058
4012.480441,-995.924147,740.205942,9918.759623
4012.480756,-995.924147,370.102971,10214.842000
4012.481071,-1455.581446,222.061783,10807.006753
4012.481386,-1072.533697,-74.020594,10658.965565
4012.481702,-1149.143247,518.144159,10955.047942
4012.482017,0.000000,518.144159,10436.903782
4012.482332,0.000000,444.123565,9992.780217
4012.482647,383.047749,444.123565,9474.636058
4012.482962,459.657299,962.267725,9326.594869
4012.483277,383.047749,962.267725,8882.471304
4012.483592,919.314598,666.185348,9104.533087
4012.483907,919.314598,518.144159,9178.553681
4012.484222,919.314598,222.061783,9252.574275
4012.484537,995.924147,-370.102971,9400.615463
4012.484852,383.047749,-814.226536,9474.636058
4012.485167,0.000000,-444.123565,10362.883188
4012.485482,306.438199,-444.123565,9622.677246
4012.485797,383.047749,-74.020594,9474.636058
4012.486112,-229.828649,-148.041188,9178.553681
4012.486428,0.000000,666.185348,9178.553681
4012.486743,-153.219100,666.185348,9252.574275
4012.487058,-612.876398,740.205942,9548.656652
4012.487373,-842.705048,666.185348,9770.718434
4012.487688,-842.705048,-0.000000,10066.800811
4012.488003,-1072.533697,-0.000000,10288.862594
4012.488318,-1072.533697,-0.000000,10881.027347
4012.488633,-1149.143247,-0.000000,10362.883188
4012.488948,-689.485948,222.061783,9992.780217
4012.489263,-153.219100,222.061783,9770.718434
4012.489578,153.219100,222.061783,9696.697840
4012.489893,153.219100,148.041188,9178.553681
4012.490208,0.000000,592.164754,9400.615463
4012.490523,76.609550,592.164754,9030.512492
4012.490839,383.047749,-0.000000,9030.512492
4012.491154,383.047749,-370.102971,9104.533087
4012.491469,153.219100,-592.164754,9326.594869
4012.491784,383.047749,-592.164754,9622.677246
4012.492099,459.657299,-888.247130,9696.697840
4012.492414,766.095498,-222.061783,9178.553681
4012.492729,842.705048,-370.102971,9400.615463
4012.493044,1149.143247,-0.000000,9030.512492
4012.493359,612.876398,296.082377,8512.368333
4012.493674,153.219100,518.144159,9104.533087
4012.493989,-919.314598,518.144159,9030.512492
4012.494304,-689.485948,518.144159,9474.636058
4012.494619,-1225.752797,-0.000000,9622.677246
4012.494934,-766.095498,-148.041188,10066.800811
4012.495249,-1302.362347,-296.082377,10214.842000
4012.495565,-995.924147,-370.102971,10288.862594
4012.495880,-459.657299,-148.041188,10658.965565
4012.496195,0.000000,-444.123565,10214.842000
4012.496510,383.047749,296.082377,9622.677246
4012.496825,1149.143247,222.061783,9178.553681
4012.497140,1072.533697,1036.288319,9400.615463
4012.497455,1072.533697,740.205942,9030.512492
4012.497770,1225.752797,592.164754,9252.574275
4012.498085,1149.143247,296.082377,9400.615463
4012.498400,1149.143247,-148.041188,9252.574275
4012.498715,995.924147,-296.082377,9696.697840
4012.499030,766.095498,-814.226536,9992.780217
4012.499345,842.705048,-592.164754,9992.780217
4012.499660,536.266849,-74.020594,9992.780217
4012.499976,306.438199,-74.020594,9770.718434
4012.500291,0.000000,222.061783,9696.697840
4012.500606,0.000000,814.226536,9548.656652
4012.500921,-383.047749,962.267725,9622.677246
4012.501236,-612.876398,814.226536,9770.718434
4012.501551,-229.828649,444.123565,9992.780217
4012.501866,-766.095498,666.185348,10140.821405
4012.502181,-995.924147,518.144159,10436.903782
4012.502496,-1225.752797,-0.000000,10510.924376
4012.502811,-1378.971896,-0.000000,10362.883188
4012.503126,-689.485948,-0.000000,10140.821405
4012.503441,-153.219100,148.041188,9844.739029
4012.503756,76.609550,-0.000000,9326.594869
4012.504071,153.219100,666.185348,9104.533087
4012.504386,229.828649,814.226536,9252.574275
4012.504702,153.219100,814.226536,9104.533087
4012.505017,536.266849,370.102971,9030.512492
4012.505332,766.095498,-222.061783,9104.533087
4012.505647,995.924147,-444.123565,9326.594869
4012.505962,536.266849,-518.144159,9474.636058
4012.506277,536.266849,-370.102971,9474.636058
4012.506592,689.485948,-296.082377,9400.615463
4012.506907,1149.143247,-222.061783,9104.533087
4012.507222,766.095498,148.041188,8956.491898
4012.507537,306.438199,296.082377,8660.409521
4012.507852,-153.219100,444.123565,8956.491898
4012.508167,-459.657299,666.185348,9400.615463
4012.508482,-1072.533697,592.164754,9770.718434
4012.508797,-1378.971896,296.082377,10140.821405
4012.509112,-1302.362347,-0.000000,10510.924376
4012.509428,-995.924147,-0.000000,10436.903782
4012.509743,-1302.362347,-148.041188,10658.965565
4012.510058,-1072.533697,-0.000000,10658.965565
4012.510373,-229.828649,148.041188,9992.780217
4012.510688,0.000000,444.123565,9992.780217
4012.511003,842.705048,888.247130,9252.574275
4012.511318,919.314598,1110.308913,9178.553681
4012.511633,842.705048,1110.308913,9104.533087
4012.511948,689.485948,666.185348,9104.533087
4012.512263,919.314598,-0.000000,9474.636058
4012.512578,842.705048,-148.041188,9622.677246
4012.512893,766.095498,-444.123565,9622.677246
4012.513208,612.876398,-1036.288319,9918.759623
4012.513523,842.705048,-592.164754,9696.697840
4012.513839,689.485948,-444.123565,9474.636058
4012.514154,766.095498,-296.082377,9548.656652
4012.514469,459.657299,-0.000000,9548.656652
4012.514784,76.609550,814.226536,8882.471304
4012.515099,-383.047749,666.185348,9178.553681
4012.515414,-306.438199,962.267725,9474.636058
4012.515729,-229.828649,592.164754,9770.718434
4012.516044,-383.047749,444.123565,9918.759623
4012.516359,-383.047749,296.082377,10140.821405
4012.516674,-306.438199,-0.000000,10140.821405
4012.516989,-383.047749,-74.020594,10140.821405
4012.517304,-459.657299,-74.020594,10066.800811
4012.517619,0.000000,-74.020594,9918.759623
4012.517934,383.047749,-0.000000,9548.656652
4012.518249,153.219100,222.061783,8956.491898
4012.518565,459.657299,444.123565,9326.594869
4012.518880,536.266849,222.061783,9474.636058
4012.519195,689.485948,296.082377,9474.636058
4012.519510,612.876398,-370.102971,9474.636058
4012.519825,689.485948,-370.102971,9400.615463
4012.520140,919.314598,-222.061783,9622.677246
4012.520455,842.705048,-518.144159,9400.615463
4012.520770,766.095498,-296.082377,9474.636058
4012.521085,1072.533697,-0.000000,9474.636058
4012.521400,612.876398,-0.000000,9104.533087
4012.521715,459.657299,592.164754,8882.471304
4012.522030,-229.828649,592.164754,9326.594869
4012.522345,-459.657299,444.123565,9474.636058
4012.522660,-1149.143247,296.082377,9548.656652
4012.522976,-1455.581446,-148.041188,10066.800811
4012.523291,-1532.190996,-74.020594,10584.944971
4012.523606,-1685.410096,-296.082377,10732.986159
4012.523921,-1225.752797,-592.164754,10955.047942
4012.524236,-1072.533697,-0.000000,10436.903782
4012.524551,-306.438199,148.041188,9992.780217
4012.524866,153.219100,370.102971,9622.677246
4012.525181,612.876398,666.185348,9474.636058
4012.525496,612.876398,962.267725,8956.491898
4012.525811,536.266849,740.205942,8734.430116
4012.526126,766.095498,740.205942,8660.409521
4012.526441,919.314598,-0.000000,8956.491898
4012.526756,919.314598,-296.082377,9252.574275
4012.527071,536.266849,-740.205942,9474.636058
4012.527386,612.876398,-814.226536,9548.656652
4012.527702,459.657299,-740.205942,9696.697840
4012.528017,612.876398,-444.123565,9474.636058
4012.528332,383.047749,-222.061783,9474.636058
4012.528647,536.266849,-0.000000,9030.512492
4012.528962,0.000000,370.102971,9030.512492
4012.529277,0.000000,1110.308913,9252.574275
4012.529592,-383.047749,1258.350101,9400.615463
4012.529907,-459.657299,962.267725,9770.718434
4012.530222,-1072.533697,296.082377,9844.739029
4012.530537,-766.095498,740.205942,10214.842000
4012.530852,-766.095498,518.144159,10955.047942
4012.531167,-536.266849,296.082377,10362.883188
4012.531482,-689.485948,444.123565,10436.903782
4012.531797,153.219100,-0.000000,9918.759623
4012.532112,229.828649,296.082377,9696.697840
4012.532428,306.438199,444.123565,9474.636058
4012.532743,459.657299,740.205942,9326.594869
4012.533058,459.657299,666.185348,9622.677246
4012.533373,1072.533697,222.061783,9326.594869
4012.533688,689.485948,-296.082377,9178.553681
4012.534003,842.705048,-74.020594,9770.718434
4012.534318,842.705048,-518.144159,9844.739029
4012.534633,1072.533697,-518.144159,9844.739029
4012.534948,842.705048,-666.185348,9696.697840
4012.535263,612.876398,-0.000000,9548.656652
4012.535578,612.876398,-0.000000,9326.594869
4012.535893,459.657299,814.226536,9178.553681
4012.536208,-153.219100,962.267725,9548.656652
4012.536523,-612.876398,296.082377,9104.533087
4012.536839,-1225.752797,592.164754,9622.677246
4012.537154,-1378.971896,-0.000000,9844.739029
4012.537469,-1455.581446,-74.020594,10214.842000
4012.537784,-1225.752797,-296.082377,10362.883188
4012.538099,-689.485948,-518.144159,10510.924376
4012.538414,-306.438199,-74.020594,10214.842000
4012.538729,0.000000,-74.020594,9770.718434
4012.539044,229.828649,-0.000000,9400.615463
4012.539359,536.266849,444.123565,9104.533087
4012.539674,842.705048,814.226536,8660.409521
4012.539989,919.314598,444.123565,8808.450710
4012.540304,919.314598,296.082377,8808.450710
4012.540619,1302.362347,-0.000000,9030.512492
4012.540934,919.314598,-518.144159,8808.450710
4012.541249,766.095498,-666.185348,9326.594869
4012.541565,612.876398,-814.226536,9844.739029
4012.541880,383.047749,-962.267725,9622.677246
4012.542195,536.266849,-518.144159,9474.636058
4012.542510,459.657299,-296.082377,9548.656652
4012.542825,76.609550,-0.000000,9326.594869
4012.543140,0.000000,666.185348,9326.594869
4012.543455,-229.828649,962.267725,9474.636058
4012.543770,-459.657299,666.185348,9918.759623
4012.544085,-229.828649,1258.350101,9622.677246
4012.544400,-995.924147,370.102971,9696.697840
4012.544715,-1072.533697,222.061783,10732.986159
4012.545030,-1225.752797,-0.000000,10584.944971
4012.545345,-766.095498,-74.020594,10436.903782
4012.545660,-842.705048,-148.041188,10510.924376
4012.545976,0.000000,148.041188,9770.718434
4012.546291,229.828649,222.061783,9474.636058
4012.546606,612.876398,444.123565,9252.574275
4012.546921,612.876398,666.185348,9400.615463
4012.547236,536.266849,592.164754,9178.553681
4012.547551,766.095498,370.102971,9030.512492
4012.547866,766.095498,-296.082377,9400.615463
4012.548181,1072.533697,-370.102971,9548.656652
4012.548497,995.924147,-518.144159,9844.739029
4012.548812,1149.143247,-148.041188,9548.656652
4012.549127,1455.581446,-74.020594,9178.553681
4012.549442,1072.533697,-0.000000,9252.574275
4012.549757,842.705048,370.102971,9326.594869
4012.550072,76.609550,148.041188,9474.636058
4012.550387,153.219100,666.185348,9474.636058
4012.550703,-383.047749,666.185348,9400.615463
4012.551018,-995.924147,444.123565,9844.739029
4012.551333,-1149.143247,-0.000000,10436.903782
4012.551648,-1302.362347,148.041188,10436.903782
4012.551963,-919.314598,-0.000000,10510.924376
4012.552278,-689.485948,-148.041188,10807.006753
4012.552593,0.000000,222.061783,10214.842000
4012.552908,459.657299,444.123565,9844.739029
4012.553224,842.705048,592.164754,9622.677246
4012.553539,1149.143247,814.226536,9030.512492
4012.553854,1225.752797,1110.308913,8956.491898
4012.554169,766.095498,814.226536,9178.553681
4012.554484,536.266849,518.144159,9474.636058
4012.554799,919.314598,-222.061783,9326.594869
4012.555114,306.438199,-222.061783,9030.512492
4012.555429,459.657299,-518.144159,9696.697840
4012.555745,383.047749,-518.144159,9844.739029
4012.556060,229.828649,-814.226536,9844.739029
4012.556375,383.047749,-370.102971,9696.697840
4012.556690,306.438199,-0.000000,9474.636058
4012.557005,153.219100,592.164754,9030.512492
4012.557320,229.828649,1036.288319,9178.553681
4012.557635,-229.828649,962.267725,9474.636058
4012.557951,-536.266849,814.226536,9400.615463
4012.558266,-536.266849,666.185348,9474.636058
4012.558581,-766.095498,370.102971,9770.718434
4012.558896,-842.705048,-0.000000,10288.862594
4012.559211,-689.485948,-148.041188,10510.924376
4012.559526,-919.314598,-0.000000,10362.883188
4012.559841,-536.266849,-222.061783,10214.842000
4012.560156,0.000000,-0.000000,9696.697840
4012.560472,459.657299,-0.000000,9474.636058
4012.560787,76.609550,444.123565,9474.636058
4012.561102,229.828649,592.164754,9104.533087
4012.561417,383.047749,444.123565,9104.533087
4012.561732,842.705048,-0.000000,9104.533087
4012.562047,995.924147,-222.061783,9474.636058
4012.562362,689.485948,-148.041188,9326.594869
4012.562677,1072.533697,-222.061783,9400.615463
4012.562993,842.705048,-222.061783,9474.636058
4012.563308,995.924147,-518.144159,9548.656652
4012.563623,1225.752797,-148.041188,9474.636058
4012.563938,229.828649,74.020594,9400.615463
4012.564253,-229.828649,444.123565,9030.512492
4012.564568,-612.876398,666.185348,9474.636058
4012.564883,-1149.143247,592.164754,9696.697840
4012.565198,-1378.971896,296.082377,10140.821405
4012.565514,-1225.752797,296.082377,10436.903782
4012.565829,-1532.190996,370.102971,10362.883188
4012.566144,-1225.752797,-0.000000,10658.965565
4012.566459,-766.095498,-0.000000,10807.006753
4012.566774,-459.657299,222.061783,10436.903782
4012.567089,153.219100,296.082377,9770.718434
4012.567404,1072.533697,592.164754,9178.553681
4012.567720,766.095498,962.267725,9030.512492
4012.568035,919.314598,962.267725,9030.512492
4012.568350,842.705048,444.123565,9178.553681
4012.568665,689.485948,222.061783,9178.553681
4012.568980,842.705048,-370.102971,9474.636058
4012.569295,612.876398,-370.102971,9400.615463
4012.569610,536.266849,-888.247130,9770.718434
4012.569925,766.095498,-1184.329507,9548.656652
4012.570241,842.705048,-888.247130,9326.594869
4012.570556,1302.362347,-296.082377,9548.656652
4012.570871,919.314598,-0.000000,9474.636058
4012.571186,536.266849,296.082377,8734.430116
4012.571501,76.609550,592.164754,9178.553681
4012.571816,0.000000,888.247130,9030.512492
4012.572131,0.000000,740.205942,9622.677246
4012.572446,-306.438199,296.082377,9918.759623
4012.572762,-536.266849,-0.000000,10658.965565
4012.573077,-689.485948,-0.000000,10732.986159
4012.573392,-536.266849,-74.020594,10140.821405
4012.573707,-306.438199,-296.082377,10288.862594
4012.574022,0.000000,-222.061783,10140.821405
4012.574337,383.047749,-0.000000,10658.965565
4012.574652,383.047749,-0.000000,9400.615463
4012.574968,766.095498,370.102971,9252.574275
4012.575283,536.266849,444.123565,9400.615463
4012.575598,689.485948,222.061783,8956.491898
4012.575913,919.314598,-148.041188,9326.594869
4012.576228,1378.971896,-222.061783,9474.636058
4012.576543,689.485948,-444.123565,9326.594869
4012.576858,1302.362347,-814.226536,9400.615463
4012.577173,1149.143247,-518.144159,9474.636058
4012.577489,766.095498,-0.000000,9400.615463
4012.577804,842.705048,-0.000000,9178.553681
4012.578119,383.047749,148.041188,8882.471304
4012.578434,76.609550,518.144159,9030.512492
4012.578749,-612.876398,444.123565,9252.574275
4012.579064,-1072.533697,222.061783,9696.697840
4012.579379,-1838.629195,666.185348,9770.718434
4012.579694,-1532.190996,-0.000000,10140.821405
4012.580010,-1608.800546,-74.020594,10436.903782
4012.580325,-1072.533697,-74.020594,10732.986159
4012.580640,-919.314598,-0.000000,10362.883188
4012.580955,-383.047749,222.061783,9696.697840
4012.581270,0.000000,222.061783,9474.636058
4012.581585,612.876398,666.185348,9474.636058
4012.581900,383.047749,1110.308913,8882.471304
4012.582216,306.438199,814.226536,8438.347739
4012.582531,536.266849,592.164754,8956.491898
4012.582846,612.876398,-0.000000,9178.553681
4012.583161,536.266849,-518.144159,9400.615463
4012.583476,536.266849,-814.226536,9474.636058
4012.583791,536.266849,-1258.350101,9696.697840
4012.584106,383.047749,-666.185348,9844.739029
4012.584421,612.876398,-518.144159,9474.636058
4012.584737,842.705048,-222.061783,9326.594869
4012.585052,689.485948,296.082377,9548.656652
4012.585367,459.657299,888.247130,9104.533087
4012.585682,76.609550,1036.288319,9326.594869
4012.585997,-383.047749,1332.370696,9326.594869
4012.586312,-612.876398,962.267725,9622.677246
4012.586627,-766.095498,666.185348,9992.780217
4012.586942,-766.095498,518.144159,10584.944971
4012.587258,-842.705048,-0.000000,10584.944971
4012.587573,-766.095498,-148.041188,10436.903782
4012.587888,-842.705048,-0.000000,10510.924376
4012.588203,-383.047749,222.061783,10140.821405
4012.588518,0.000000,370.102971,9696.697840
4012.588833,229.828649,444.123565,9104.533087
4012.589148,306.438199,666.185348,9030.512492
4012.589463,612.876398,444.123565,8882.471304
4012.589779,536.266849,370.102971,8734.430116
4012.590094,919.314598,-74.020594,9178.553681
4012.590409,842.705048,-74.020594,9474.636058
4012.590724,919.314598,-222.061783,9326.594869
4012.591039,919.314598,-444.123565,9696.697840
4012.591354,1225.752797,-370.102971,9622.677246
4012.591669,1149.143247,296.082377,9474.636058
4012.591985,689.485948,-74.020594,9104.533087
4012.592300,766.095498,444.123565,9104.533087
4012.592615,306.438199,740.205942,9252.574275
4012.592930,0.000000,666.185348,8956.491898
4012.593245,-689.485948,592.164754,9326.594869
4012.593560,-919.314598,-0.000000,9844.739029
4012.593875,-1149.143247,148.041188,10140.821405
4012.594190,-1072.533697,-148.041188,10140.821405
4012.594506,-689.485948,-296.082377,10288.862594
4012.594821,-383.047749,-74.020594,10362.883188
4012.595136,0.000000,148.041188,9770.718434
4012.595451,153.219100,222.061783,9474.636058
4012.595766,612.876398,296.082377,9844.739029
4012.596081,1149.143247,444.123565,9104.533087
4012.596396,689.485948,740.205942,9178.553681
4012.596711,766.095498,666.185348,9178.553681
4012.597027,766.095498,296.082377,9178.553681
4012.597342,536.266849,-0.000000,9622.677246
4012.597657,383.047749,-444.123565,9696.697840
4012.597972,0.000000,-888.247130,10140.821405
4012.598287,153.219100,-962.267725,9474.636058
4012.598602,383.047749,-296.082377,9770.718434
4012.598917,306.438199,-0.000000,9770.718434
4012.599233,383.047749,-222.061783,9622.677246
4012.599548,76.609550,592.164754,9178.553681
4012.599863,0.000000,814.226536,9326.594869
4012.600178,-459.657299,888.247130,9474.636058
4012.600493,-842.705048,592.164754,9400.615463
4012.600808,-766.095498,222.061783,9696.697840
4012.601123,-995.924147,222.061783,10066.800811
4012.601438,-1072.533697,-222.061783,9992.780217
4012.601754,-689.485948,-0.000000,10362.883188
4012.602069,-459.657299,-148.041188,10288.862594
4012.602384,-153.219100,-0.000000,9844.739029
4012.602699,306.438199,-0.000000,9326.594869
4012.603014,383.047749,518.144159,9030.512492
4012.603329,612.876398,592.164754,9474.636058
4012.603644,-76.609550,370.102971,9474.636058
4012.603959,612.876398,222.061783,8956.491898
4012.604275,689.485948,-296.082377,9326.594869
4012.604590,842.705048,-592.164754,9252.574275
4012.604905,842.705048,-370.102971,9696.697840
4012.605220,612.876398,-1036.288319,9844.739029
4012.605535,842.705048,-296.082377,9548.656652
4012.605850,842.705048,-0.000000,8882.471304
4012.606165,919.314598,222.061783,9030.512492
4012.606481,383.047749,592.164754,9326.594869
4012.606796,383.047749,518.144159,9326.594869
4012.607111,-459.657299,740.205942,9474.636058
4012.607426,-689.485948,814.226536,9474.636058
4012.607741,-995.924147,370.102971,9992.780217
4012.608056,-995.924147,296.082377,10436.903782
4012.608371,-995.924147,296.082377,10881.027347
4012.608686,-1149.143247,-0.000000,10807.006753
4012.609002,-612.876398,-0.000000,10214.842000
4012.609317,0.000000,-0.000000,9770.718434
4012.609632,306.438199,518.144159,9548.656652
4012.609947,459.657299,740.205942,9474.636058
4012.610262,919.314598,1184.329507,8956.491898
4012.610577,766.095498,1110.308913,9030.512492
4012.610892,842.705048,962.267725,9474.636058
4012.611207,536.266849,296.082377,9252.574275
4012.611523,689.485948,-370.102971,9252.574275
4012.611838,306.438199,-518.144159,9770.718434
4012.612153,76.609550,-740.205942,9844.739029
4012.612468,306.438199,-592.164754,9918.759623
4012.612783,383.047749,-370.102971,9918.759623
4012.613098,766.095498,148.041188,9770.718434
4012.613413,383.047749,370.102971,9030.512492
4012.613728,536.266849,1036.288319,8512.368333
4012.614044,76.609550,1036.288319,9770.718434
4012.614359,0.000000,814.226536,9474.636058
4012.614674,-766.095498,666.185348,9622.677246
4012.614989,-766.095498,666.185348,9918.759623
4012.615304,-842.705048,-222.061783,10436.903782
4012.615619,-919.314598,-444.123565,10584.944971
4012.615934,-842.705048,-222.061783,10584.944971
4012.616250,-306.438199,-74.020594,10510.924376
4012.616565,-229.828649,-0.000000,9474.636058
4012.616880,536.266849,-0.000000,9548.656652
4012.617195,919.314598,296.082377,9548.656652
4012.617510,689.485948,814.226536,9326.594869
4012.617825,536.266849,222.061783,9252.574275
4012.618140,459.657299,148.041188,9252.574275
4012.618455,1072.533697,-74.020594,9548.656652
4012.618771,1149.143247,-296.082377,9326.594869
4012.619086,842.705048,-592.164754,9992.780217
4012.619401,766.095498,-444.123565,9696.697840
4012.619716,919.314598,-222.061783,9326.594869
4012.620031,1072.533697,-296.082377,9252.574275
4012.620346,536.266849,-148.041188,9326.594869
4012.620661,612.876398,296.082377,8734.430116
4012.620976,0.000000,444.123565,8586.388927
4012.621292,-306.438199,518.144159,9104.533087
4012.621607,-536.266849,148.041188,9548.656652
4012.621922,-842.705048,-0.000000,9918.759623
4012.622237,-1149.143247,-74.020594,9770.718434
4012.622552,-1302.362347,-444.123565,10140.821405
4012.622867,-1302.362347,-370.102971,10436.903782
4012.623182,-842.705048,-444.123565,10214.842000
4012.623498,0.000000,-370.102971,10066.800811
4012.623813,153.219100,-0.000000,9400.615463
4012.624128,459.657299,666.185348,9104.533087
4012.624443,842.705048,1258.350101,8734.430116
4012.624758,766.095498,740.205942,9030.512492
4012.625073,766.095498,592.164754,8882.471304
4012.625388,919.314598,444.123565,9178.553681
4012.625703,766.095498,-222.061783,9326.594869
4012.626019,842.705048,-666.185348,9326.594869
4012.626334,842.705048,-962.267725,9844.739029
4012.626649,536.266849,-518.144159,9622.677246
4012.626964,842.705048,-518.144159,9474.636058
4012.627279,536.266849,-0.000000,9326.594869
4012.627594,689.485948,518.144159,9104.533087
4012.627909,689.485948,518.144159,9622.677246
4012.628224,153.219100,962.267725,9326.594869
4012.628540,-306.438199,1036.288319,9474.636058
4012.628855,-689.485948,888.247130,9622.677246
4012.629170,-536.266849,592.164754,10214.842000
4012.629485,-766.095498,296.082377,10362.883188
4012.629800,-919.314598,-74.020594,10807.006753
4012.630115,-995.924147,-370.102971,11103.089130
4012.630430,-612.876398,-0.000000,10362.883188
4012.630746,-383.047749,370.102971,9918.759623
4012.631061,0.000000,518.144159,9992.780217
4012.631376,842.705048,296.082377,9548.656652
4012.631691,229.828649,444.123565,9326.594869
4012.632006,306.438199,666.185348,9104.533087
4012.632321,689.485948,296.082377,9326.594869
4012.632636,919.314598,296.082377,9548.656652
4012.632951,1302.362347,-74.020594,9178.553681
4012.633267,766.095498,-222.061783,9252.574275
4012.633582,536.266849,-296.082377,9622.677246
4012.633897,612.876398,-518.144159,9474.636058
4012.634212,1225.752797,-74.020594,9252.574275
4012.634527,459.657299,-0.000000,9326.594869
4012.634842,153.219100,592.164754,9030.512492
4012.635157,-153.219100,740.205942,9252.574275
4012.635472,-842.705048,518.144159,9400.615463
4012.635788,-1302.362347,-0.000000,10214.842000
4012.636103,-1838.629195,-0.000000,10066.800811
4012.636418,-1378.971896,-0.000000,10288.862594
4012.636733,-1149.143247,-0.000000,10362.883188
4012.637048,-842.705048,-148.041188,10510.924376
4012.637363,-229.828649,-0.000000,10362.883188
4012.637678,76.609550,370.102971,9844.739029
4012.637993,612.876398,814.226536,9474.636058
4012.638309,536.266849,814.226536,9030.512492
4012.638624,766.095498,962.267725,8882.471304
4012.638939,842.705048,592.164754,9326.594869
4012.639254,842.705048,444.123565,8956.491898
4012.639569,536.266849,-444.123565,9104.533087
4012.639884,919.314598,-370.102971,9252.574275
4012.640199,612.876398,-592.164754,9178.553681
4012.640515,995.924147,-1110.308913,10066.800811
4012.640830,919.314598,-444.123565,9918.759623
4012.641145,995.924147,-444.123565,9474.636058
4012.641460,1225.752797,-0.000000,9400.615463
4012.641775,842.705048,370.102971,9252.574275
4012.642090,306.438199,962.267725,9400.615463
4012.642405,0.000000,888.247130,9030.512492
4012.642720,-689.485948,592.164754,9104.533087
4012.643036,-842.705048,-0.000000,9474.636058
4012.643351,-842.705048,-0.000000,10214.842000
4012.643666,-1149.143247,-74.020594,10658.965565
4012.643981,-1302.362347,-444.123565,10510.924376
4012.644296,-766.095498,-296.082377,10584.944971
4012.644611,-459.657299,-0.000000,9992.780217
4012.644926,0.000000,-0.000000,9548.656652
4012.645241,383.047749,148.041188,9622.677246
4012.645557,612.876398,518.144159,9252.574275
4012.645872,919.314598,888.247130,8882.471304
4012.646187,766.095498,370.102971,9178.553681
4012.646502,766.095498,222.061783,9104.533087
4012.646817,1302.362347,-148.041188,9548.656652
4012.647132,766.095498,-296.082377,9474.636058
4012.647448,689.485948,-814.226536,9770.718434
4012.647763,842.705048,-666.185348,9918.759623
4012.648078,536.266849,-296.082377,9696.697840
4012.648393,919.314598,-222.061783,9474.636058
4012.648708,459.657299,222.061783,9178.553681
4012.649023,229.828649,666.185348,8882.471304
4012.649339,0.000000,814.226536,8956.491898
4012.649654,-383.047749,962.267725,9474.636058
4012.649969,-766.095498,666.185348,9844.739029
4012.650284,-1225.752797,296.082377,9918.759623
4012.650599,-1225.752797,-0.000000,10732.986159
4012.650915,-1225.752797,-0.000000,10658.965565
4012.651230,-842.705048,-592.164754,10362.883188
4012.651545,-383.047749,222.061783,9844.739029
4012.651860,0.000000,296.082377,9474.636058
4012.652175,383.047749,666.185348,9400.615463
4012.652490,842.705048,814.226536,9030.512492
4012.652806,1149.143247,888.247130,8808.450710
4012.653121,766.095498,666.185348,8882.471304
4012.653436,383.047749,444.123565,8882.471304
4012.653751,842.705048,-296.082377,9104.533087
4012.654066,536.266849,-518.144159,9696.697840
4012.654382,383.047749,-888.247130,10140.821405
4012.654697,383.047749,-962.267725,9622.677246
4012.655012,766.095498,-592.164754,9696.697840
4012.655327,995.924147,-222.061783,9474.636058
4012.655642,1072.533697,-0.000000,9104.533087
4012.655958,1225.752797,518.144159,9326.594869
4012.656273,536.266849,814.226536,9178.553681
4012.656588,0.000000,1258.350101,9030.512492
4012.656903,-229.828649,740.205942,9178.553681
4012.657218,0.000000,296.082377,9622.677246
4012.657533,-995.924147,148.041188,10510.924376
4012.657849,-1072.533697,-0.000000,10288.862594
4012.658164,-842.705048,-518.144159,10288.862594
4012.658479,-612.876398,-74.020594,10807.006753
4012.658794,-153.219100,-0.000000,10288.862594
4012.659109,0.000000,-0.000000,9696.697840
4012.659425,459.657299,518.144159,9474.636058
4012.659740,919.314598,666.185348,9178.553681
4012.660055,766.095498,740.205942,9252.574275
4012.660370,842.705048,370.102971,9474.636058
4012.660685,842.705048,518.144159,8956.491898
4012.661000,919.314598,-74.020594,9252.574275
4012.661316,612.876398,-296.082377,9474.636058
4012.661631,689.485948,-296.082377,9918.759623
4012.661946,766.095498,-814.226536,10362.883188
4012.662261,383.047749,-444.123565,9326.594869
4012.662576,459.657299,-148.041188,9178.553681
4012.662892,76.609550,-0.000000,9548.656652
4012.663207,0.000000,370.102971,9030.512492
4012.663522,-536.266849,444.123565,9326.594869
4012.663837,-766.095498,666.185348,9400.615463
4012.664152,-1225.752797,296.082377,9696.697840
4012.664468,-1378.971896,222.061783,9622.677246
4012.664783,-1455.581446,222.061783,10140.821405
4012.665098,-1378.971896,-74.020594,10584.944971
4012.665413,-1149.143247,-0.000000,10288.862594
4012.665728,-383.047749,-222.061783,9992.780217
4012.666043,0.000000,296.082377,9548.656652
4012.666359,0.000000,370.102971,9622.677246
4012.666674,612.876398,370.102971,9178.553681
4012.666989,612.876398,888.247130,9030.512492
4012.667304,689.485948,740.205942,9326.594869
4012.667619,995.924147,370.102971,8882.471304
4012.667935,766.095498,-222.061783,9400.615463
4012.668250,995.924147,-444.123565,9622.677246
4012.668565,766.095498,-888.247130,9622.677246
4012.668880,995.924147,-888.247130,9770.718434
4012.669195,1149.143247,-592.164754,9770.718434
4012.669510,1378.971896,-444.123565,9474.636058
4012.669826,1149.143247,222.061783,8882.471304
4012.670141,995.924147,518.144159,8882.471304
4012.670456,383.047749,814.226536,8956.491898
4012.670771,0.000000,740.205942,9178.553681
4012.671086,-383.047749,518.144159,9696.697840
4012.671402,-766.095498,296.082377,9844.739029
4012.671717,-1072.533697,-0.000000,10288.862594
4012.672032,-1455.581446,-0.000000,10658.965565
4012.672347,-1378.971896,-0.000000,10658.965565
4012.672662,-612.876398,-370.102971,11251.130318
4012.672977,-383.047749,148.041188,9844.739029
4012.673293,-306.438199,518.144159,9474.636058
4012.673608,0.000000,666.185348,9252.574275
4012.673923,383.047749,666.185348,9178.553681
4012.674238,536.266849,740.205942,9030.512492
4012.674553,536.266849,444.123565,9104.533087
4012.674869,919.314598,370.102971,9474.636058
4012.675184,995.924147,-0.000000,9326.594869
4012.675499,842.705048,-74.020594,9474.636058
4012.675814,1072.533697,-518.144159,9474.636058
4012.676129,842.705048,-74.020594,9548.656652
4012.676445,1072.533697,-222.061783,9474.636058
4012.676760,919.314598,296.082377,9178.553681
4012.677075,536.266849,518.144159,9474.636058
4012.677390,383.047749,666.185348,9104.533087
4012.677705,-229.828649,1036.288319,9474.636058
4012.678020,-383.047749,740.205942,9548.656652
4012.678336,-689.485948,888.247130,9770.718434
4012.678651,-766.095498,296.082377,10436.903782
4012.678966,-1149.143247,296.082377,10510.924376
4012.679281,-919.314598,-0.000000,10807.006753
4012.679596,-919.314598,-0.000000,10510.924376
4012.679912,-229.828649,-0.000000,10288.862594
4012.680227,0.000000,-0.000000,9844.739029
4012.680542,306.438199,814.226536,9770.718434
4012.680857,766.095498,518.144159,9326.594869
4012.681172,306.438199,518.144159,9400.615463
4012.681487,459.657299,370.102971,9474.636058
4012.681803,842.705048,-0.000000,9548.656652
4012.682118,612.876398,-370.102971,9548.656652
4012.682433,306.438199,-666.185348,9770.718434
4012.682748,612.876398,-962.267725,9622.677246
4012.683063,612.876398,-888.247130,10066.800811
4012.683379,612.876398,-1036.288319,9992.780217
4012.683694,995.924147,-444.123565,9326.594869
4012.684009,689.485948,-74.020594,9104.533087
4012.684324,459.657299,370.102971,9104.533087
4012.684639,153.219100,518.144159,9326.594869
4012.684954,0.000000,222.061783,9178.553681
4012.685270,-766.095498,148.041188,9474.636058
4012.685585,-995.924147,-74.020594,9474.636058
4012.685900,-766.095498,-370.102971,9548.656652
4012.686215,-689.485948,-370.102971,10214.842000
4012.686530,-383.047749,-74.020594,10584.944971
4012.686846,-612.876398,-222.061783,9770.718434
4012.687161,0.000000,-296.082377,9326.594869
4012.687476,536.266849,-0.000000,9252.574275
4012.687791,766.095498,-0.000000,9178.553681
4012.688106,842.705048,-74.020594,8882.471304
4012.688422,919.314598,296.082377,8660.409521
4012.688737,842.705048,-0.000000,8882.471304
4012.689052,919.314598,-74.020594,8882.471304
4012.689367,1225.752797,-370.102971,9252.574275
4012.689682,919.314598,-962.267725,9326.594869
4012.689997,689.485948,-592.164754,9770.718434
4012.690313,842.705048,-814.226536,9474.636058
4012.690628,842.705048,-296.082377,9770.718434
4012.690943,919.314598,-74.020594,9474.636058
4012.691258,459.657299,-0.000000,9474.636058
4012.691573,153.219100,666.185348,9252.574275
4012.691889,-229.828649,814.226536,9400.615463
4012.692204,-306.438199,666.185348,9622.677246
4012.692519,-1072.533697,444.123565,10362.883188
4012.692834,-919.314598,-0.000000,10214.842000
4012.693149,-995.924147,-0.000000,10510.924376
4012.693464,-1072.533697,-74.020594,10732.986159
4012.693780,-842.705048,-74.020594,10584.944971
4012.694095,-306.438199,-0.000000,10584.944971
4012.694410,76.609550,-0.000000,10140.821405
4012.694725,459.657299,592.164754,9400.615463
4012.695040,383.047749,740.205942,9030.512492
4012.695356,459.657299,1036.288319,8956.491898
4012.695671,0.000000,518.144159,9252.574275
4012.695986,1072.533697,370.102971,9474.636058
4012.696301,689.485948,-0.000000,9178.553681
4012.696616,306.438199,-148.041188,9474.636058
4012.696931,306.438199,-518.144159,9844.739029
4012.697247,459.657299,-814.226536,10066.800811
4012.697562,459.657299,-222.061783,9474.636058
4012.697877,383.047749,-0.000000,9474.636058
4012.698192,536.266849,592.164754,9326.594869
4012.698507,306.438199,666.185348,9104.533087
4012.698823,153.219100,740.205942,8660.409521
4012.699138,0.000000,1110.308913,9400.615463
4012.699453,-612.876398,740.205942,9770.718434
4012.699768,-612.876398,740.205942,9622.677246
4012.700083,-766.095498,444.123565,10140.821405
4012.700399,-1072.533697,-0.000000,10288.862594
4012.700714,-995.924147,-0.000000,10288.862594
4012.701029,-766.095498,-0.000000,9918.759623
4012.701344,-229.828649,370.102971,9992.780217
4012.701659,459.657299,370.102971,9844.739029
4012.701974,306.438199,518.144159,9178.553681
4012.702290,536.266849,592.164754,9030.512492
4012.702605,536.266849,666.185348,9178.553681
4012.702920,842.705048,444.123565,9400.615463
4012.703235,842.705048,74.020594,9474.636058
4012.703550,995.924147,-74.020594,9326.594869
4012.703866,766.095498,-444.123565,9400.615463
4012.704181,689.485948,-370.102971,9770.718434
4012.704496,766.095498,-370.102971,9770.718434
4012.704811,766.095498,-444.123565,9696.697840
4012.705126,306.438199,-148.041188,9252.574275
4012.705441,383.047749,370.102971,9178.553681
4012.705757,0.000000,444.123565,9252.574275
4012.706072,-229.828649,814.226536,9326.594869
4012.706387,-919.314598,518.144159,9474.636058
4012.706702,-1302.362347,296.082377,9918.759623
4012.707017,-1225.752797,-0.000000,9918.759623
4012.707333,-1149.143247,-0.000000,10510.924376
4012.707648,-1072.533697,-74.020594,10436.903782
4012.707963,-842.705048,-74.020594,10362.883188
4012.708278,-229.828649,74.020594,9844.739029
4012.708593,0.000000,296.082377,9474.636058
4012.708908,76.609550,592.164754,9474.636058
4012.709224,459.657299,962.267725,9326.594869
4012.709539,995.924147,666.185348,9030.512492
4012.709854,842.705048,296.082377,8734.430116
4012.710169,766.095498,296.082377,9178.553681
4012.710484,919.314598,-0.000000,9474.636058
4012.710800,995.924147,-296.082377,9548.656652
4012.711115,842.705048,-592.164754,9474.636058
4012.711430,1072.533697,-296.082377,9326.594869
4012.711745,1225.752797,-296.082377,9474.636058
4012.712060,1378.971896,-0.000000,9252.574275
4012.712376,995.924147,148.041188,9622.677246
4012.712691,689.485948,370.102971,9252.574275
4012.713006,383.047749,592.164754,9400.615463
4012.713321,-383.047749,814.226536,9030.512492
4012.713636,-612.876398,296.082377,9696.697840
4012.713951,-689.485948,592.164754,10510.924376
4012.714267,-995.924147,-0.000000,10510.924376
4012.714582,-1149.143247,-222.061783,10658.965565
4012.714897,-1072.533697,-518.144159,10807.006753
4012.715212,0.000000,-222.061783,11029.068536
4012.715527,153.219100,-0.000000,10288.862594
4012.715843,612.876398,148.041188,9696.697840
4012.716158,459.657299,518.144159,9400.615463
4012.716473,1149.143247,518.144159,8956.491898
4012.716788,689.485948,222.061783,8808.450710
4012.717103,689.485948,-0.000000,8956.491898
4012.717418,536.266849,-74.020594,9326.594869
4012.717734,612.876398,-444.123565,9252.574275
4012.718049,536.266849,-444.123565,9474.636058
4012.718364,459.657299,-1184.329507,9844.739029
4012.718679,383.047749,-888.247130,9844.739029
4012.718994,229.828649,-444.123565,9400.615463
4012.719310,76.609550,-0.000000,9474.636058
4012.719625,76.609550,444.123565,9030.512492
4012.719940,-153.219100,592.164754,8882.471304
4012.720255,-689.485948,888.247130,8808.450710
4012.720570,-766.095498,740.205942,9400.615463
4012.720885,-995.924147,370.102971,9918.759623
4012.721201,-919.314598,222.061783,9770.718434
4012.721516,-919.314598,-0.000000,10214.842000
4012.721831,-1225.752797,-222.061783,9992.780217
4012.722146,-842.705048,-0.000000,10066.800811
4012.722461,0.000000,-148.041188,9918.759623
4012.722777,0.000000,222.061783,9326.594869
4012.723092,459.657299,518.144159,9474.636058
4012.723407,536.266849,814.226536,8956.491898
4012.723722,459.657299,962.267725,9178.553681
4012.724037,459.657299,296.082377,9030.512492
4012.724353,612.876398,296.082377,9030.512492
4012.724668,766.095498,-74.020594,9844.739029
4012.724983,459.657299,-222.061783,9918.759623
4012.725298,536.266849,-592.164754,10214.842000
4012.725613,536.266849,-1110.308913,9992.780217
4012.725928,842.705048,-148.041188,9844.739029
4012.726244,919.314598,-0.000000,9696.697840
4012.726559,612.876398,518.144159,9474.636058
4012.726874,689.485948,888.247130,9400.615463
4012.727189,229.828649,740.205942,9400.615463
4012.727504,-459.657299,814.226536,9400.615463
4012.727820,-995.924147,444.123565,9696.697840
4012.728135,-842.705048,444.123565,9770.718434
4012.728450,-995.924147,-74.020594,10362.883188
4012.728765,-1149.143247,-0.000000,10732.986159
4012.729080,-766.095498,-222.061783,10732.986159
4012.729395,-459.657299,-148.041188,10288.862594
4012.729711,153.219100,222.061783,9992.780217
4012.730026,536.266849,296.082377,9474.636058
4012.730341,995.924147,888.247130,9326.594869
4012.730656,919.314598,1036.288319,9400.615463
4012.730971,689.485948,814.226536,8956.491898
4012.731287,842.705048,444.123565,8956.491898
4012.731602,995.924147,-0.000000,9474.636058
4012.731917,766.095498,-74.020594,9326.594869
4012.732232,766.095498,-740.205942,9992.780217
4012.732547,536.266849,-518.144159,9548.656652
4012.732863,689.485948,-592.164754,9474.636058
4012.733178,689.485948,-444.123565,9622.677246
4012.733493,229.828649,222.061783,9622.677246
4012.733808,459.657299,666.185348,8882.471304
4012.734123,153.219100,814.226536,9326.594869
4012.734438,0.000000,888.247130,9474.636058
4012.734754,-459.657299,444.123565,9326.594869
4012.735069,-919.314598,518.144159,9326.594869
4012.735384,-995.924147,-0.000000,10214.842000
4012.735699,-1455.581446,-74.020594,10362.883188
4012.736014,-995.924147,-222.061783,10881.027347
4012.736330,-766.095498,-222.061783,10362.883188
4012.736645,-153.219100,-0.000000,9918.759623
4012.736960,306.438199,296.082377,9844.739029
4012.737275,383.047749,296.082377,9770.718434
4012.737590,229.828649,666.185348,9252.574275
4012.737905,919.314598,592.164754,8956.491898
4012.738221,612.876398,444.123565,9178.553681
4012.738536,689.485948,222.061783,9252.574275
4012.738851,766.095498,-148.041188,9178.553681
4012.739166,612.876398,-444.123565,9400.615463
4012.739481,383.047749,-962.267725,9474.636058
4012.739797,612.876398,-888.247130,9548.656652
4012.740112,383.047749,-740.205942,9622.677246
4012.740427,383.047749,-444.123565,9474.636058
4012.740742,76.609550,-0.000000,9326.594869
4012.741057,-306.438199,666.185348,9178.553681
4012.741372,-689.485948,592.164754,9400.615463
4012.741688,-1149.143247,888.247130,9178.553681
4012.742003,-1072.533697,666.185348,9844.739029
4012.742318,-1149.143247,370.102971,9844.739029
4012.742633,-1072.533697,-0.000000,10288.862594
4012.742948,-1302.362347,-222.061783,11029.068536
4012.743264,-1149.143247,-148.041188,10807.006753
4012.743579,-459.657299,222.061783,10362.883188
4012.743894,689.485948,-74.020594,9918.759623
4012.744209,383.047749,444.123565,9622.677246
4012.744524,612.876398,666.185348,9104.533087
4012.744840,766.095498,962.267725,9030.512492
4012.745155,1072.533697,296.082377,9104.533087
4012.745470,919.314598,370.102971,9030.512492
4012.745785,1072.533697,148.041188,8882.471304
4012.746100,919.314598,-222.061783,9326.594869
4012.746415,766.095498,-518.144159,9696.697840
4012.746731,842.705048,-740.205942,9696.697840
4012.747046,689.485948,-518.144159,9770.718434
4012.747361,995.924147,-0.000000,9474.636058
4012.747676,766.095498,370.102971,9622.677246
4012.747991,459.657299,666.185348,9474.636058
4012.748307,0.000000,814.226536,9252.574275
4012.748622,0.000000,740.205942,9178.553681
4012.748937,-766.095498,814.226536,9696.697840
4012.749252,-1149.143247,444.123565,10288.862594
4012.749567,-1149.143247,296.082377,10214.842000
4012.749882,-995.924147,74.020594,10881.027347
4012.750198,-995.924147,-74.020594,10732.986159
4012.750513,-459.657299,-370.102971,10584.944971
4012.750828,0.000000,-0.000000,10140.821405
4012.751143,229.828649,148.041188,9474.636058
4012.751458,459.657299,296.082377,9252.574275
4012.751774,536.266849,666.185348,8882.471304
4012.752089,842.705048,370.102971,8882.471304
4012.752404,689.485948,222.061783,9252.574275
4012.752719,1455.581446,-444.123565,9178.553681
4012.753034,1072.533697,-296.082377,9030.512492
4012.753350,766.095498,-148.041188,9178.553681
4012.753665,842.705048,-592.164754,9992.780217
4012.753980,612.876398,-370.102971,9622.677246
4012.754295,842.705048,-444.123565,9400.615463
4012.754610,689.485948,-0.000000,9178.553681
4012.754925,536.266849,-0.000000,9030.512492
4012.755241,0.000000,592.164754,9326.594869
4012.755556,-153.219100,370.102971,9326.594869
4012.755871,-842.705048,444.123565,9326.594869
4012.756186,-919.314598,592.164754,9844.739029
4012.756501,-1149.143247,444.123565,9696.697840
4012.756817,-995.924147,-74.020594,10066.800811
4012.757132,-1149.143247,-0.000000,10584.944971
4012.757447,-383.047749,-74.020594,10140.821405
4012.757762,-459.657299,-0.000000,9844.739029
4012.758077,76.609550,370.102971,9548.656652
4012.758393,306.438199,518.144159,9474.636058
4012.758708,229.828649,592.164754,9326.594869
4012.759023,383.047749,444.123565,9104.533087
4012.759338,536.266849,-0.000000,9178.553681
4012.759653,383.047749,-0.000000,9252.574275
4012.759968,306.438199,-222.061783,9474.636058
4012.760284,842.705048,-518.144159,9474.636058
4012.760599,229.828649,-814.226536,10214.842000
4012.760914,459.657299,-740.205942,10066.800811
4012.761229,612.876398,-666.185348,9696.697840
4012.761544,842.705048,-74.020594,9622.677246
4012.761860,612.876398,518.144159,9474.636058
4012.762175,612.876398,592.164754,8660.409521
4012.762490,0.000000,666.185348,9178.553681
4012.762805,0.000000,666.185348,9252.574275
4012.763120,-689.485948,814.226536,9622.677246
4012.763436,-842.705048,518.144159,9622.677246
4012.763751,-995.924147,-0.000000,9770.718434
4012.764066,-766.095498,222.061783,10436.903782
4012.764381,-995.924147,-518.144159,10510.924376
4012.764696,-536.266849,-518.144159,10658.965565
4012.765011,0.000000,-0.000000,10066.800811
4012.765327,76.609550,296.082377,9918.759623
4012.765642,842.705048,666.185348,9178.553681
4012.765957,995.924147,740.205942,9326.594869
4012.766272,995.924147,1036.288319,9030.512492
4012.766587,1149.143247,592.164754,8882.471304
4012.766903,1072.533697,-0.000000,9104.533087
4012.767218,919.314598,-0.000000,9474.636058
4012.767533,919.314598,-222.061783,9770.718434
4012.767848,842.705048,-592.164754,9844.739029
4012.768163,995.924147,-888.247130,9474.636058
4012.768478,689.485948,-370.102971,9548.656652
4012.768794,766.095498,-0.000000,9400.615463
4012.769109,459.657299,444.123565,9474.636058
4012.769424,0.000000,518.144159,9474.636058
4012.769739,-459.657299,666.185348,9400.615463
4012.770054,-842.705048,592.164754,9548.656652
4012.770370,-842.705048,592.164754,9918.759623
4012.770685,-919.314598,222.061783,10362.883188
4012.771000,-766.095498,-0.000000,10510.924376
4012.771315,-1072.533697,-148.041188,10288.862594
4012.771630,-459.657299,-296.082377,10066.800811
4012.771946,-383.047749,-0.000000,9770.718434
4012.772261,76.609550,222.061783,9770.718434
4012.772576,459.657299,592.164754,9548.656652
4012.772891,536.266849,740.205942,8882.471304
4012.773206,229.828649,962.267725,9178.553681
4012.773521,459.657299,222.061783,8956.491898
4012.773837,306.438199,-0.000000,9252.574275
4012.774152,459.657299,-370.102971,9104.533087
4012.774467,306.438199,-370.102971,9400.615463
4012.774782,689.485948,-666.185348,9770.718434
4012.775097,766.095498,-296.082377,9548.656652
4012.775413,459.657299,-592.164754,9696.697840
4012.775728,459.657299,-0.000000,9252.574275
4012.776043,612.876398,222.061783,8956.491898
4012.776358,306.438199,888.247130,8808.450710
4012.776673,0.000000,1110.308913,9104.533087
4012.776989,-612.876398,888.247130,9178.553681
4012.777304,-995.924147,666.185348,9400.615463
4012.777619,-1302.362347,518.144159,9844.739029
4012.777934,-995.924147,370.102971,10288.862594
4012.778249,-1378.971896,-0.000000,10584.944971
4012.778564,-842.705048,-0.000000,10807.006753
4012.778880,-766.095498,-0.000000,10510.924376
4012.779195,0.000000,370.102971,9696.697840
4012.779510,0.000000,666.185348,9622.677246
4012.779825,612.876398,1110.308913,9474.636058
4012.780140,612.876398,1332.370696,9326.594869
4012.780456,766.095498,1110.308913,9104.533087
4012.780771,995.924147,740.205942,9178.553681
4012.781086,842.705048,-0.000000,9326.594869
4012.781401,689.485948,-296.082377,9548.656652
4012.781716,766.095498,-444.123565,9844.739029
4012.782032,612.876398,-592.164754,10288.862594
4012.782347,459.657299,-296.082377,10066.800811
4012.782662,995.924147,-592.164754,9696.697840
4012.782977,842.705048,-0.000000,9696.697840
4012.783292,842.705048,518.144159,9622.677246
4012.783607,306.438199,740.205942,9326.594869
4012.783923,76.609550,740.205942,9326.594869
4012.784238,-459.657299,666.185348,9252.574275
4012.784553,-459.657299,444.123565,9918.759623
4012.784868,-229.828649,370.102971,10140.821405
4012.785183,-842.705048,-74.020594,10214.842000
4012.785499,-612.876398,-370.102971,10807.006753
4012.785814,-306.438199,-148.041188,10214.842000
4012.786129,0.000000,-0.000000,9992.780217
4012.786444,306.438199,-0.000000,9696.697840
4012.786759,919.314598,-0.000000,9400.615463
4012.787075,766.095498,-0.000000,9252.574275
4012.787390,536.266849,222.061783,8956.491898
4012.787705,459.657299,296.082377,9030.512492
4012.788020,612.876398,-0.000000,8956.491898
4012.788335,842.705048,-222.061783,9252.574275
4012.788650,536.266849,-296.082377,9474.636058
4012.788966,383.047749,-888.247130,9548.656652
4012.789281,306.438199,-666.185348,9622.677246
4012.789596,536.266849,-370.102971,9548.656652
4012.789911,153.219100,-74.020594,9326.594869
4012.790226,842.705048,518.144159,9252.574275
4012.790542,229.828649,666.185348,9104.533087
4012.790857,-459.657299,296.082377,9622.677246
4012.791172,-689.485948,666.185348,9252.574275
4012.791487,-689.485948,296.082377,9400.615463
4012.791802,-995.924147,222.061783,9992.780217
4012.792117,-1072.533697,-0.000000,10140.821405
4012.792433,-1225.752797,-444.123565,10362.883188
4012.792748,-919.314598,-592.164754,10140.821405
4012.793063,-383.047749,-370.102971,10214.842000
4012.793378,-153.219100,-148.041188,9474.636058
4012.793693,383.047749,-0.000000,9474.636058
4012.794009,459.657299,296.082377,9474.636058
4012.794324,306.438199,666.185348,9030.512492
4012.794639,383.047749,-0.000000,9326.594869
4012.794954,766.095498,444.123565,9104.533087
4012.795269,919.314598,-148.041188,9474.636058
4012.795585,995.924147,-148.041188,9326.594869
4012.795900,459.657299,-444.123565,9474.636058
4012.796215,689.485948,-666.185348,9918.759623
4012.796530,536.266849,-296.082377,9622.677246
4012.796845,689.485948,-74.020594,9548.656652
4012.797160,306.438199,-222.061783,9622.677246
4012.797476,612.876398,518.144159,9326.594869
4012.797791,0.000000,962.267725,9326.594869
4012.798106,-153.219100,962.267725,9400.615463
4012.798421,-459.657299,666.185348,9474.636058
4012.798736,-612.876398,740.205942,9696.697840
4012.799052,-766.095498,296.082377,10288.862594
4012.799367,-919.314598,222.061783,10140.821405
4012.799682,-766.095498,-0.000000,10362.883188
4012.799997,-459.657299,-148.041188,10362.883188
4012.800312,0.000000,296.082377,9548.656652
4012.800628,0.000000,518.144159,10066.800811
4012.800943,689.485948,740.205942,9548.656652
4012.801258,612.876398,888.247130,9104.533087
4012.801573,919.314598,814.226536,9474.636058
4012.801888,306.438199,592.164754,8808.450710
4012.802203,1302.362347,518.144159,8882.471304
4012.802519,995.924147,-0.000000,9474.636058
4012.802834,612.876398,-222.061783,9548.656652
4012.803149,536.266849,-740.205942,9992.780217
4012.803464,229.828649,-592.164754,9770.718434
4012.803779,459.657299,-444.123565,9548.656652
4012.804095,612.876398,-0.000000,9474.636058
4012.804410,536.266849,444.123565,9178.553681
4012.804725,76.609550,666.185348,9400.615463
4012.805040,76.609550,814.226536,9400.615463
4012.805355,-306.438199,814.226536,9474.636058
4012.805671,-766.095498,740.205942,9400.615463
4012.805986,-919.314598,444.123565,9548.656652
4012.806301,-995.924147,-0.000000,10140.821405
4012.806616,-1532.190996,-0.000000,10066.800811
