#time,accel_x,accel_y,accel_z
3773.789986,0.000000,-74.020594,9400.615463
3773.790300,153.219100,222.061783,9622.677246
3773.790615,306.438199,-0.000000,9548.656652
3773.790930,153.219100,148.041188,9400.615463
3773.791244,229.828649,-0.000000,9548.656652
3773.791559,459.657299,-0.000000,9474.636058
3773.791873,306.438199,-0.000000,9548.656652
3773.792188,76.609550,-0.000000,9918.759623
3773.792503,0.000000,148.041188,9992.780217
3773.792817,153.219100,-0.000000,9844.739029
3773.793132,229.828649,222.061783,9696.697840
3773.793446,76.609550,296.082377,9622.677246
3773.793761,153.219100,-0.000000,9696.697840
3773.794076,76.609550,296.082377,9918.759623
3773.794390,76.609550,518.144159,9696.697840
3773.794705,76.609550,444.123565,9474.636058
3773.795019,76.609550,222.061783,9696.697840
3773.795334,0.000000,-0.000000,9770.718434
3773.795649,-383.047749,-0.000000,9474.636058
3773.795963,0.000000,-0.000000,9326.594869
3773.796278,0.000000,-0.000000,9548.656652
3773.796592,0.000000,222.061783,9844.739029
3773.796907,76.609550,-148.041188,9400.615463
3773.797222,0.000000,222.061783,9770.718434
3773.797536,76.609550,-222.061783,9474.636058
3773.797851,383.047749,-0.000000,9474.636058
3773.798165,76.609550,-0.000000,9696.697840
3773.798480,-229.828649,222.061783,9622.677246
3773.798795,76.609550,-0.000000,9474.636058
3773.799109,153.219100,-148.041188,9326.594869
3773.799424,153.219100,296.082377,9474.636058
3773.799738,459.657299,-0.000000,9548.656652
3773.800053,0.000000,-0.000000,9474.636058
3773.800368,0.000000,-0.000000,9474.636058
3773.800682,76.609550,-0.000000,9622.677246
3773.800997,76.609550,-0.000000,9770.718434
3773.801311,0.000000,222.061783,9770.718434
3773.801626,76.609550,148.041188,9844.739029
3773.801941,0.000000,222.061783,9548.656652
3773.802255,0.000000,-0.000000,9400.615463
3773.802570,153.219100,-0.000000,9548.656652
3773.802884,536.266849,-0.000000,9474.636058
3773.803199,229.828649,222.061783,9548.656652
3773.803514,0.000000,222.061783,9770.718434
3773.803828,76.609550,-0.000000,9770.718434
3773.804143,459.657299,296.082377,9696.697840
3773.804457,459.657299,-74.020594,9918.759623
3773.804772,76.609550,-0.000000,9400.615463
3773.805087,0.000000,148.041188,10140.821405
3773.805401,0.000000,296.082377,9548.656652
3773.805716,306.438199,370.102971,9474.636058
3773.806030,0.000000,148.041188,10140.821405
3773.806345,0.000000,-0.000000,9622.677246
3773.806660,0.000000,148.041188,9474.636058
3773.806974,0.000000,-0.000000,9548.656652
3773.807289,229.828649,222.061783,9992.780217
3773.807603,0.000000,-370.102971,9622.677246
3773.807918,0.000000,-0.000000,9104.533087
3773.808233,0.000000,-148.041188,9474.636058
3773.808547,229.828649,296.082377,9474.636058
3773.808862,536.266849,222.061783,9622.677246
3773.809176,-153.219100,222.061783,9622.677246
3773.809491,229.828649,370.102971,9474.636058
3773.809806,153.219100,370.102971,9326.594869
3773.810120,229.828649,-0.000000,9252.574275
3773.810435,229.828649,148.041188,9770.718434
3773.810749,689.485948,-0.000000,9696.697840
3773.811064,153.219100,-0.000000,9474.636058
3773.811379,0.000000,-148.041188,9474.636058
3773.811693,229.828649,222.061783,9622.677246
3773.812008,76.609550,-0.000000,9474.636058
3773.812322,76.609550,-0.000000,9696.697840
3773.812637,76.609550,-0.000000,9622.677246
3773.812952,76.609550,-0.000000,9178.553681
3773.813266,459.657299,222.061783,9326.594869
3773.813581,76.609550,296.082377,9918.759623
3773.813895,76.609550,148.041188,9622.677246
3773.814210,76.609550,-0.000000,9474.636058
3773.814525,76.609550,148.041188,9622.677246
3773.814839,153.219100,222.061783,9696.697840
3773.815154,383.047749,-0.000000,9992.780217
3773.815468,0.000000,222.061783,9622.677246
3773.815783,229.828649,-0.000000,9844.739029
3773.816098,153.219100,-0.000000,9844.739029
3773.816412,153.219100,296.082377,9696.697840
3773.816727,0.000000,296.082377,9622.677246
3773.817042,0.000000,-0.000000,9474.636058
3773.817356,229.828649,-0.000000,9400.615463
3773.817671,0.000000,148.041188,9474.636058
3773.817985,0.000000,-0.000000,9770.718434
3773.818300,-306.438199,444.123565,9770.718434
3773.818615,0.000000,222.061783,9178.553681
3773.818929,0.000000,370.102971,9400.615463
3773.819244,229.828649,296.082377,9770.718434
3773.819558,229.828649,-0.000000,9622.677246
3773.819873,0.000000,-74.020594,9622.677246
3773.820188,76.609550,-0.000000,9400.615463
3773.820502,0.000000,74.020594,9400.615463
3773.820817,229.828649,370.102971,9548.656652
3773.821131,153.219100,-0.000000,9474.636058
3773.821446,0.000000,-0.000000,9622.677246
3773.821761,0.000000,-0.000000,9548.656652
3773.822075,153.219100,-0.000000,9474.636058
3773.822390,459.657299,-0.000000,9844.739029
3773.822704,459.657299,-0.000000,9992.780217
3773.823019,612.876398,-0.000000,10066.800811
3773.823334,153.219100,222.061783,9770.718434
3773.823648,612.876398,592.164754,9252.574275
3773.823963,459.657299,666.185348,9400.615463
3773.824277,612.876398,740.205942,9252.574275
3773.824592,766.095498,444.123565,8956.491898
3773.824907,766.095498,222.061783,9178.553681
3773.825221,766.095498,148.041188,9326.594869
3773.825536,689.485948,370.102971,9474.636058
3773.825850,383.047749,-0.000000,9622.677246
3773.826165,689.485948,370.102971,10214.842000
3773.826480,612.876398,296.082377,9918.759623
3773.826794,306.438199,444.123565,9770.718434
3773.827109,766.095498,962.267725,9696.697840
3773.827423,1149.143247,740.205942,9474.636058
3773.827738,1302.362347,814.226536,9992.780217
3773.828053,1302.362347,592.164754,9622.677246
3773.828367,1915.238745,1110.308913,9770.718434
3773.828682,1991.848295,962.267725,9622.677246
3773.828996,3064.381992,1850.514855,9844.739029
3773.829311,3064.381992,2368.659014,9844.739029
3773.829626,3294.210641,2294.638420,8734.430116
3773.829940,3447.429741,2664.741391,8586.388927
3773.830255,3447.429741,2368.659014,8290.306550
3773.830569,3524.039291,2146.597232,8660.409521
3773.830884,4060.306139,2368.659014,8660.409521
3773.831199,3677.258390,2368.659014,8808.450710
3773.831513,3524.039291,2220.617826,8882.471304
3773.831828,3677.258390,2368.659014,9178.553681
3773.832142,3064.381992,2368.659014,9474.636058
3773.832457,3370.820191,2812.782580,9400.615463
3773.832772,2987.772442,3182.885551,9178.553681
3773.833086,2987.772442,3478.967927,9400.615463
3773.833401,3140.991542,3404.947333,9400.615463
3773.833715,2757.943793,3552.988522,9326.594869
3773.834030,2451.505594,3404.947333,9474.636058
3773.834345,2528.115143,3478.967927,9622.677246
3773.834659,2451.505594,3478.967927,10584.944971
3773.834974,1991.848295,3701.029710,10807.006753
3773.835288,2145.067394,3701.029710,10881.027347
3773.835603,1378.971896,3701.029710,11103.089130
3773.835918,1608.800546,3849.070898,10584.944971
3773.836232,1762.019645,3923.091493,11029.068536
3773.836547,1915.238745,4071.132681,10955.047942
3773.836861,1838.629195,3923.091493,10955.047942
3773.837176,2145.067394,3923.091493,10510.924376
3773.837491,2145.067394,3849.070898,9622.677246
3773.837805,2145.067394,3997.112087,10140.821405
3773.838120,2374.896044,3701.029710,9992.780217
3773.838434,2145.067394,3404.947333,10140.821405
3773.838749,1991.848295,3256.906145,10140.821405
3773.839064,1991.848295,3108.864956,9696.697840
3773.839378,1915.238745,2960.823768,9622.677246
3773.839693,1915.238745,2812.782580,10066.800811
3773.840007,1838.629195,2886.803174,10214.842000
3773.840322,1685.410096,2812.782580,9844.739029
3773.840637,1532.190996,3182.885551,9696.697840
3773.840951,1608.800546,3182.885551,9474.636058
3773.841266,1838.629195,2886.803174,9474.636058
3773.841580,1915.238745,2738.761985,9178.553681
3773.841895,1762.019645,2516.700203,9548.656652
3773.842210,1455.581446,2516.700203,9474.636058
3773.842524,1378.971896,1998.556043,9474.636058
3773.842839,1302.362347,1480.411884,10066.800811
3773.843153,1685.410096,1184.329507,10288.862594
3773.843468,1149.143247,1110.308913,9992.780217
3773.843783,1302.362347,1406.391290,10214.842000
3773.844097,1378.971896,1628.453072,10066.800811
3773.844412,1762.019645,1776.494261,9770.718434
3773.844726,2145.067394,2220.617826,8808.450710
3773.845041,2681.334243,2220.617826,8586.388927
3773.845356,3217.601092,1998.556043,8512.368333
3773.845670,3524.039291,1850.514855,8660.409521
3773.845985,3677.258390,1924.535449,8586.388927
3773.846299,3064.381992,1776.494261,8660.409521
3773.846614,2834.553343,1332.370696,8882.471304
3773.846929,2834.553343,1258.350101,8956.491898
3773.847243,2451.505594,1110.308913,9104.533087
3773.847558,1991.848295,666.185348,9252.574275
3773.847873,1838.629195,592.164754,9548.656652
3773.848187,1149.143247,296.082377,9622.677246
3773.848502,1685.410096,-0.000000,10288.862594
3773.848816,1991.848295,296.082377,10658.965565
3773.849131,2068.457845,888.247130,10658.965565
3773.849446,2528.115143,1406.391290,9918.759623
3773.849760,3447.429741,2368.659014,9474.636058
3773.850075,4060.306139,2590.720797,8660.409521
3773.850389,4443.353888,3034.844362,8290.306550
3773.850704,4213.525239,2590.720797,7994.224174
3773.851019,3600.648841,1998.556043,7698.141797
3773.851333,3524.039291,1628.453072,8290.306550
3773.851648,2298.286494,1036.288319,8660.409521
3773.851962,1225.752797,222.061783,9844.739029
3773.852277,459.657299,-444.123565,10955.047942
3773.852592,0.000000,-1036.288319,11843.295072
3773.852906,-536.266849,-518.144159,12361.439231
3773.853221,0.000000,296.082377,12213.398043
3773.853535,689.485948,1554.432478,11843.295072
3773.853850,1991.848295,2442.679609,10732.986159
3773.854165,3370.820191,3775.050304,9400.615463
3773.854479,4519.963438,4885.359217,7772.162391
3773.854794,4903.011187,4885.359217,7179.997637
3773.855108,5286.058936,4959.379811,6735.874072
3773.855423,4903.011187,3775.050304,7402.059420
3773.855738,4060.306139,2590.720797,8512.368333
3773.856052,2145.067394,1480.411884,9474.636058
3773.856367,612.876398,814.226536,11029.068536
3773.856681,-612.876398,222.061783,12731.542202
3773.856996,-1225.752797,-0.000000,12583.501014
3773.857311,-1302.362347,1110.308913,11991.336260
3773.857625,-612.876398,2516.700203,10807.006753
3773.857940,689.485948,3182.885551,9474.636058
3773.858254,1991.848295,3997.112087,8290.306550
3773.858569,3524.039291,4367.215058,7624.121203
3773.858884,4673.182538,4737.318029,7846.182985
3773.859198,4519.963438,4737.318029,8364.327145
3773.859513,4060.306139,4589.276840,9178.553681
3773.859827,3140.991542,4293.194464,10288.862594
3773.860142,2298.286494,3404.947333,11325.150913
3773.860457,1072.533697,3182.885551,11325.150913
3773.860771,153.219100,3182.885551,10732.986159
3773.861086,919.314598,2442.679609,10510.924376
3773.861400,1149.143247,1850.514855,10362.883188
3773.861715,1378.971896,1998.556043,9622.677246
3773.862030,1838.629195,1998.556043,8882.471304
3773.862344,2068.457845,2516.700203,8216.285956
3773.862659,3140.991542,3034.844362,8660.409521
3773.862973,3524.039291,3552.988522,8512.368333
3773.863288,3524.039291,3701.029710,8216.285956
3773.863603,2987.772442,3256.906145,8734.430116
3773.863917,2604.724693,2590.720797,9918.759623
3773.864232,1608.800546,2072.576638,11843.295072
3773.864546,919.314598,1776.494261,11399.171507
3773.864861,995.924147,2294.638420,11177.109724
3773.865176,1762.019645,2886.803174,10881.027347
3773.865490,1838.629195,3034.844362,9844.739029
3773.865805,2451.505594,3627.009116,9104.533087
3773.866119,2757.943793,3552.988522,8364.327145
3773.866434,3524.039291,2812.782580,8364.327145
3773.866749,3064.381992,2368.659014,8142.265362
3773.867063,2451.505594,1036.288319,8512.368333
3773.867378,2221.676944,148.041188,9696.697840
3773.867692,1302.362347,222.061783,10955.047942
3773.868007,0.000000,592.164754,10658.965565
3773.868322,-536.266849,814.226536,10510.924376
3773.868636,-383.047749,1036.288319,10510.924376
3773.868951,-383.047749,1332.370696,10362.883188
3773.869266,0.000000,1036.288319,10362.883188
3773.869581,766.095498,1184.329507,10362.883188
3773.869895,1072.533697,1702.473667,9400.615463
3773.870210,995.924147,1776.494261,9844.739029
3773.870525,1532.190996,1924.535449,8956.491898
3773.870840,1378.971896,1110.308913,8808.450710
3773.871155,1532.190996,518.144159,9400.615463
3773.871469,612.876398,-0.000000,9918.759623
3773.871784,0.000000,-962.267725,10584.944971
3773.872099,-919.314598,-888.247130,10807.006753
3773.872414,-1608.800546,-740.205942,10288.862594
3773.872728,-1532.190996,-740.205942,9474.636058
3773.873043,-1072.533697,-1480.411884,9548.656652
3773.873358,-153.219100,-1332.370696,9474.636058
3773.873673,0.000000,-1184.329507,9252.574275
3773.873987,536.266849,-740.205942,8808.450710
3773.874302,842.705048,-296.082377,8438.347739
3773.874617,842.705048,444.123565,8290.306550
3773.874932,842.705048,-0.000000,8734.430116
3773.875246,612.876398,-888.247130,9474.636058
3773.875561,536.266849,-1702.473667,9548.656652
3773.875876,-383.047749,-1628.453072,9844.739029
3773.876191,-766.095498,-1110.308913,9992.780217
3773.876505,-995.924147,-888.247130,10362.883188
3773.876820,-1455.581446,-888.247130,9696.697840
3773.877135,-1225.752797,-814.226536,9474.636058
3773.877450,-459.657299,-1554.432478,8882.471304
3773.877765,306.438199,-1480.411884,9252.574275
3773.878079,919.314598,-1258.350101,9400.615463
3773.878394,306.438199,-1184.329507,9252.574275
3773.878709,689.485948,-1184.329507,9178.553681
3773.879024,612.876398,-740.205942,8734.430116
3773.879338,1225.752797,-296.082377,8512.368333
3773.879653,1608.800546,-814.226536,8956.491898
3773.879968,1072.533697,-370.102971,9252.574275
3773.880283,306.438199,-592.164754,9178.553681
3773.880597,0.000000,-222.061783,9178.553681
3773.880912,76.609550,-74.020594,8956.491898
3773.881227,229.828649,-0.000000,8956.491898
3773.881542,459.657299,-592.164754,7994.224174
3773.881856,689.485948,-962.267725,8512.368333
3773.882171,842.705048,-888.247130,9178.553681
3773.882486,76.609550,-518.144159,9696.697840
3773.882801,153.219100,-518.144159,9992.780217
3773.883115,-383.047749,-296.082377,10066.800811
3773.883430,-536.266849,296.082377,9622.677246
3773.883745,0.000000,666.185348,9474.636058
3773.884060,229.828649,296.082377,9622.677246
3773.884375,306.438199,296.082377,9918.759623
3773.884689,153.219100,666.185348,9622.677246
3773.885004,306.438199,888.247130,9474.636058
3773.885319,842.705048,1406.391290,9474.636058
3773.885634,536.266849,1258.350101,8808.450710
3773.885948,689.485948,1110.308913,9252.574275
3773.886263,612.876398,74.020594,9548.656652
3773.886578,153.219100,-0.000000,10362.883188
3773.886893,-153.219100,148.041188,10288.862594
3773.887207,-306.438199,592.164754,10362.883188
3773.887522,0.000000,888.247130,10214.842000
3773.887837,-1072.533697,1628.453072,9918.759623
3773.888152,-689.485948,1628.453072,10066.800811
3773.888466,0.000000,1406.391290,10584.944971
3773.888781,0.000000,1036.288319,10288.862594
3773.889096,0.000000,1332.370696,9918.759623
3773.889411,383.047749,1480.411884,9770.718434
3773.889725,459.657299,2146.597232,9474.636058
3773.890040,459.657299,2368.659014,9474.636058
3773.890355,689.485948,1850.514855,9992.780217
3773.890670,306.438199,814.226536,10732.986159
3773.890985,0.000000,1036.288319,10510.924376
3773.891299,-689.485948,1184.329507,10658.965565
3773.891614,-689.485948,1110.308913,10658.965565
3773.891929,-1225.752797,962.267725,10140.821405
3773.892244,-919.314598,814.226536,9696.697840
3773.892558,-459.657299,592.164754,9474.636058
3773.892873,0.000000,-74.020594,9696.697840
3773.893188,0.000000,-0.000000,9474.636058
3773.893503,0.000000,592.164754,9474.636058
3773.893817,153.219100,814.226536,9622.677246
3773.894132,459.657299,666.185348,8808.450710
3773.894447,306.438199,666.185348,9030.512492
3773.894762,536.266849,444.123565,9030.512492
3773.895076,306.438199,-74.020594,9474.636058
3773.895391,153.219100,518.144159,10066.800811
3773.895706,-536.266849,148.041188,9474.636058
3773.896021,-612.876398,296.082377,9992.780217
3773.896335,-459.657299,-0.000000,9474.636058
3773.896650,-306.438199,-296.082377,9030.512492
3773.896965,0.000000,-814.226536,9548.656652
3773.897280,153.219100,-740.205942,9770.718434
3773.897595,459.657299,-370.102971,9622.677246
3773.897909,459.657299,-518.144159,9474.636058
3773.898224,459.657299,-740.205942,9326.594869
3773.898539,536.266849,-370.102971,8586.388927
3773.898854,1072.533697,-0.000000,8068.244768
3773.899168,689.485948,-0.000000,8586.388927
3773.899483,459.657299,-148.041188,8734.430116
3773.899798,229.828649,-444.123565,9474.636058
3773.900113,0.000000,-1110.308913,9844.739029
3773.900427,153.219100,-1184.329507,10066.800811
3773.900742,0.000000,-740.205942,9696.697840
3773.901057,0.000000,-518.144159,9548.656652
3773.901372,0.000000,-1036.288319,10362.883188
3773.901686,536.266849,-740.205942,10066.800811
3773.902001,383.047749,-444.123565,9622.677246
3773.902316,153.219100,-370.102971,9474.636058
3773.902631,459.657299,-444.123565,9992.780217
3773.902945,689.485948,-0.000000,9696.697840
3773.903260,383.047749,296.082377,9030.512492
3773.903575,536.266849,-0.000000,9252.574275
3773.903890,459.657299,-592.164754,9844.739029
3773.904205,76.609550,-740.205942,9622.677246
3773.904519,229.828649,-1406.391290,10658.965565
3773.904834,-229.828649,-1110.308913,10362.883188
3773.905149,-383.047749,-518.144159,9622.677246
3773.905464,-229.828649,-296.082377,9474.636058
3773.905778,229.828649,-592.164754,9474.636058
3773.906093,76.609550,-592.164754,9918.759623
3773.906408,-306.438199,-296.082377,9474.636058
3773.906723,-76.609550,-444.123565,9474.636058
3773.907037,229.828649,-0.000000,9474.636058
3773.907352,76.609550,-148.041188,9474.636058
3773.907667,0.000000,-0.000000,9548.656652
3773.907982,0.000000,-222.061783,9548.656652
3773.908296,153.219100,-0.000000,9844.739029
3773.908611,-383.047749,222.061783,9474.636058
3773.908926,0.000000,-0.000000,9696.697840
3773.909241,-383.047749,1406.391290,8660.409521
3773.909555,306.438199,-740.205942,8586.388927
3773.909870,153.219100,740.205942,9104.533087
3773.910185,-229.828649,296.082377,9696.697840
3773.910500,0.000000,-222.061783,9696.697840
3773.910815,-766.095498,518.144159,9696.697840
3773.911129,0.000000,592.164754,9770.718434
3773.911444,0.000000,296.082377,9696.697840
3773.911759,-229.828649,1110.308913,9474.636058
3773.912074,229.828649,592.164754,9918.759623
3773.912388,306.438199,1110.308913,9474.636058
3773.912703,383.047749,1184.329507,9400.615463
3773.913018,459.657299,1110.308913,9104.533087
3773.913333,306.438199,814.226536,10140.821405
3773.913647,383.047749,1628.453072,9178.553681
3773.913962,76.609550,1184.329507,8882.471304
3773.914277,0.000000,1258.350101,8882.471304
3773.914592,306.438199,1036.288319,9696.697840
3773.914906,0.000000,518.144159,9696.697840
3773.915221,-536.266849,-0.000000,9696.697840
3773.915536,-766.095498,-0.000000,10732.986159
3773.915851,-306.438199,370.102971,10658.965565
3773.916165,0.000000,1480.411884,10066.800811
3773.916480,459.657299,1554.432478,9622.677246
3773.916795,1378.971896,1258.350101,9622.677246
3773.917110,842.705048,1628.453072,9104.533087
3773.917425,1072.533697,1036.288319,9252.574275
3773.917739,1302.362347,1184.329507,9030.512492
3773.918054,1072.533697,1554.432478,9178.553681
3773.918369,383.047749,1628.453072,8660.409521
3773.918684,383.047749,740.205942,9326.594869
3773.918998,459.657299,-148.041188,9844.739029
3773.919313,0.000000,-0.000000,10807.006753
3773.919628,-383.047749,-0.000000,10362.883188
3773.919943,-612.876398,370.102971,10510.924376
3773.920257,-536.266849,592.164754,10807.006753
3773.920572,-229.828649,444.123565,10140.821405
3773.920887,459.657299,666.185348,9844.739029
3773.921202,1072.533697,518.144159,10066.800811
3773.921516,919.314598,1184.329507,9844.739029
3773.921831,1149.143247,1776.494261,8882.471304
3773.922146,1302.362347,1628.453072,8808.450710
3773.922461,1532.190996,1258.350101,8734.430116
3773.922775,766.095498,444.123565,8956.491898
3773.923090,995.924147,-222.061783,9622.677246
3773.923405,0.000000,-444.123565,9918.759623
3773.923720,-459.657299,-1184.329507,10584.944971
3773.924035,-1378.971896,-1258.350101,10658.965565
3773.924349,-1455.581446,-1332.370696,11029.068536
3773.924664,-1149.143247,-962.267725,10584.944971
3773.924979,-383.047749,-518.144159,10066.800811
3773.925294,229.828649,-222.061783,9696.697840
3773.925608,1149.143247,-0.000000,9474.636058
3773.925923,536.266849,-74.020594,8956.491898
3773.926238,766.095498,518.144159,8734.430116
3773.926553,766.095498,-370.102971,9252.574275
3773.926867,689.485948,-0.000000,9104.533087
3773.927182,842.705048,-74.020594,9030.512492
3773.927497,0.000000,-888.247130,9326.594869
3773.927812,0.000000,-1332.370696,9696.697840
3773.928126,-995.924147,-1850.514855,9992.780217
3773.928441,-1149.143247,-2072.576638,10362.883188
3773.928756,-1225.752797,-1924.535449,10510.924376
3773.929071,-1762.019645,-1702.473667,9992.780217
3773.929385,-766.095498,-1036.288319,9696.697840
3773.929700,-306.438199,-1406.391290,9178.553681
3773.930015,76.609550,-740.205942,8882.471304
3773.930330,0.000000,-74.020594,9104.533087
3773.930645,689.485948,-148.041188,9104.533087
3773.930959,1149.143247,222.061783,8438.347739
3773.931274,536.266849,666.185348,7994.224174
3773.931589,536.266849,444.123565,8216.285956
3773.931904,459.657299,-740.205942,8438.347739
3773.932218,-229.828649,-814.226536,9844.739029
3773.932533,-1072.533697,-740.205942,10140.821405
3773.932848,-1378.971896,-1332.370696,10288.862594
3773.933163,-1455.581446,-518.144159,10436.903782
3773.933477,-1072.533697,-444.123565,10140.821405
3773.933792,-995.924147,-518.144159,9326.594869
3773.934107,0.000000,-666.185348,9992.780217
3773.934422,153.219100,-222.061783,9400.615463
3773.934736,229.828649,518.144159,8882.471304
3773.935051,536.266849,1036.288319,9178.553681
3773.935366,919.314598,1036.288319,8956.491898
3773.935681,995.924147,1332.370696,8438.347739
3773.935995,995.924147,1036.288319,8438.347739
3773.936310,919.314598,370.102971,9178.553681
3773.936625,459.657299,-74.020594,9992.780217
3773.936940,-842.705048,444.123565,9548.656652
3773.937255,-689.485948,-0.000000,10214.842000
3773.937569,-459.657299,666.185348,10066.800811
3773.937884,-536.266849,814.226536,10436.903782
3773.938199,-306.438199,444.123565,10066.800811
3773.938514,229.828649,518.144159,9622.677246
3773.938828,612.876398,814.226536,9918.759623
3773.939143,229.828649,1036.288319,10288.862594
3773.939458,1302.362347,1554.432478,9844.739029
3773.939773,1072.533697,2146.597232,9918.759623
3773.940087,1225.752797,2294.638420,8734.430116
3773.940402,1608.800546,1998.556043,9326.594869
3773.940717,1378.971896,1554.432478,9400.615463
3773.941032,1225.752797,1332.370696,9770.718434
3773.941346,383.047749,740.205942,10140.821405
3773.941661,0.000000,518.144159,10658.965565
3773.941976,-229.828649,444.123565,10955.047942
3773.942291,-229.828649,518.144159,10807.006753
3773.942605,0.000000,888.247130,10658.965565
3773.942920,0.000000,-296.082377,10510.924376
3773.943235,0.000000,888.247130,10288.862594
3773.943550,76.609550,740.205942,10362.883188
3773.943865,1225.752797,1110.308913,10288.862594
3773.944179,995.924147,1480.411884,9178.553681
3773.944494,1072.533697,1998.556043,8586.388927
3773.944809,1302.362347,1110.308913,8734.430116
3773.945124,1455.581446,1184.329507,9104.533087
3773.945438,919.314598,444.123565,9548.656652
3773.945753,-153.219100,-0.000000,9696.697840
3773.946068,0.000000,-370.102971,10066.800811
3773.946383,-612.876398,-296.082377,10066.800811
3773.946697,-1225.752797,-296.082377,9844.739029
3773.947012,-842.705048,-888.247130,9992.780217
3773.947327,-919.314598,-962.267725,10362.883188
3773.947642,-919.314598,-444.123565,10288.862594
3773.947956,-612.876398,-296.082377,9548.656652
3773.948271,229.828649,222.061783,9178.553681
3773.948586,536.266849,592.164754,8364.327145
3773.948901,459.657299,1258.350101,7698.141797
3773.949215,919.314598,1184.329507,7254.018232
3773.949530,1225.752797,-148.041188,8068.244768
3773.949845,919.314598,-666.185348,8734.430116
3773.950160,0.000000,-1406.391290,9474.636058
3773.950475,-612.876398,-1184.329507,9696.697840
3773.950789,-1225.752797,-1110.308913,10140.821405
3773.951104,-1455.581446,-1036.288319,9770.718434
3773.951419,-689.485948,-1258.350101,10140.821405
3773.951734,-536.266849,-1258.350101,9992.780217
3773.952048,-459.657299,-814.226536,9770.718434
3773.952363,229.828649,-592.164754,8882.471304
3773.952678,306.438199,-148.041188,8660.409521
3773.952993,536.266849,296.082377,8364.327145
3773.953307,306.438199,814.226536,7920.203579
3773.953622,1225.752797,-0.000000,8438.347739
3773.953937,842.705048,-370.102971,8956.491898
3773.954252,76.609550,-518.144159,9326.594869
3773.954566,-536.266849,-962.267725,10066.800811
3773.954881,-766.095498,-962.267725,10807.006753
3773.955196,-1455.581446,-740.205942,11177.109724
3773.955511,-1225.752797,-296.082377,10362.883188
3773.955825,-536.266849,-740.205942,10140.821405
3773.956140,0.000000,-666.185348,10807.006753
3773.956455,-306.438199,-370.102971,9696.697840
3773.956770,459.657299,222.061783,9252.574275
3773.957085,766.095498,740.205942,9104.533087
3773.957399,995.924147,592.164754,8882.471304
3773.957714,1225.752797,1110.308913,8438.347739
3773.958029,1532.190996,222.061783,8660.409521
3773.958344,229.828649,296.082377,9992.780217
3773.958658,-306.438199,-592.164754,10214.842000
3773.958973,0.000000,-518.144159,10214.842000
3773.959288,-766.095498,-148.041188,10584.944971
3773.959603,-995.924147,-296.082377,10584.944971
3773.959917,-459.657299,74.020594,10584.944971
3773.960232,-229.828649,222.061783,10288.862594
3773.960547,76.609550,148.041188,9696.697840
3773.960862,306.438199,592.164754,9918.759623
3773.961176,766.095498,518.144159,9474.636058
3773.961491,1225.752797,962.267725,9178.553681
3773.961806,1072.533697,1850.514855,8734.430116
3773.962121,1149.143247,1480.411884,8808.450710
3773.962435,766.095498,1036.288319,9474.636058
3773.962750,689.485948,444.123565,10362.883188
3773.963065,-153.219100,444.123565,9844.739029
3773.963380,-536.266849,-74.020594,10066.800811
3773.963695,-612.876398,-0.000000,10436.903782
3773.964009,-612.876398,-0.000000,10436.903782
3773.964324,-459.657299,444.123565,10140.821405
3773.964639,-229.828649,148.041188,10066.800811
3773.964954,153.219100,518.144159,9844.739029
3773.965268,536.266849,666.185348,9548.656652
3773.965583,1072.533697,740.205942,9474.636058
3773.965898,689.485948,1036.288319,9696.697840
3773.966213,459.657299,1332.370696,8734.430116
3773.966527,842.705048,1332.370696,8660.409521
3773.966842,842.705048,740.205942,9104.533087
3773.967157,229.828649,222.061783,9844.739029
3773.967472,0.000000,222.061783,9696.697840
3773.967786,-383.047749,-0.000000,9622.677246
3773.968101,-536.266849,222.061783,9622.677246
3773.968416,-459.657299,-0.000000,9474.636058
3773.968731,-383.047749,-296.082377,9696.697840
3773.969045,383.047749,-444.123565,9992.780217
3773.969360,-383.047749,-0.000000,9696.697840
3773.969675,-229.828649,296.082377,9548.656652
3773.969989,306.438199,740.205942,9474.636058
3773.970304,306.438199,888.247130,9548.656652
3773.970619,919.314598,888.247130,8734.430116
3773.970933,995.924147,666.185348,9104.533087
3773.971248,612.876398,518.144159,9400.615463
3773.971563,689.485948,592.164754,8882.471304
3773.971877,306.438199,-0.000000,9400.615463
3773.972192,-306.438199,-518.144159,9400.615463
3773.972506,-536.266849,-1036.288319,9400.615463
3773.972821,-229.828649,-518.144159,9400.615463
3773.973136,0.000000,-1184.329507,9770.718434
3773.973450,-536.266849,-592.164754,10214.842000
3773.973765,-612.876398,-814.226536,9770.718434
3773.974080,-612.876398,-444.123565,9844.739029
3773.974394,0.000000,-444.123565,10288.862594
3773.974709,536.266849,222.061783,9326.594869
3773.975024,1149.143247,518.144159,9178.553681
3773.975338,1378.971896,592.164754,8808.450710
3773.975653,1225.752797,518.144159,9030.512492
3773.975968,842.705048,888.247130,9104.533087
3773.976282,842.705048,518.144159,9474.636058
3773.976597,536.266849,-0.000000,9696.697840
3773.976911,383.047749,-0.000000,9622.677246
3773.977226,0.000000,-222.061783,9326.594869
3773.977541,-842.705048,-1110.308913,9844.739029
3773.977855,-536.266849,-1110.308913,11029.068536
3773.978170,-919.314598,-1776.494261,10510.924376
3773.978485,-1302.362347,-1036.288319,10510.924376
3773.978799,-766.095498,-666.185348,9992.780217
3773.979114,-459.657299,296.082377,9474.636058
3773.979429,153.219100,666.185348,8734.430116
3773.979743,1838.629195,444.123565,8808.450710
3773.980058,1455.581446,888.247130,8438.347739
3773.980372,1149.143247,888.247130,8808.450710
3773.980687,612.876398,296.082377,9400.615463
3773.981002,229.828649,-0.000000,9622.677246
3773.981316,76.609550,296.082377,9622.677246
3773.981631,-612.876398,-0.000000,9474.636058
3773.981946,-766.095498,-148.041188,10288.862594
3773.982260,-995.924147,-740.205942,10807.006753
3773.982575,-1225.752797,-888.247130,11251.130318
3773.982890,-1149.143247,-592.164754,10436.903782
3773.983204,-229.828649,-0.000000,9992.780217
3773.983519,-229.828649,370.102971,9400.615463
3773.983833,919.314598,962.267725,9400.615463
3773.984148,1378.971896,592.164754,9178.553681
3773.984463,1532.190996,666.185348,8882.471304
3773.984777,1378.971896,962.267725,8956.491898
3773.985092,766.095498,962.267725,8808.450710
3773.985407,383.047749,740.205942,8734.430116
3773.985721,229.828649,518.144159,9622.677246
3773.986036,-229.828649,-0.000000,9400.615463
3773.986351,-383.047749,-814.226536,9918.759623
3773.986665,-689.485948,-1110.308913,10658.965565
3773.986980,-1149.143247,-962.267725,10881.027347
3773.987295,-995.924147,-444.123565,10658.965565
3773.987609,-612.876398,592.164754,9622.677246
3773.987924,0.000000,1332.370696,9474.636058
3773.988238,1072.533697,1258.350101,9178.553681
3773.988553,1762.019645,666.185348,7846.182985
3773.988868,1302.362347,888.247130,8956.491898
3773.989182,689.485948,740.205942,9178.553681
3773.989497,76.609550,592.164754,9474.636058
3773.989812,229.828649,296.082377,9548.656652
3773.990126,0.000000,370.102971,9918.759623
3773.990441,0.000000,-74.020594,9474.636058
3773.990756,-306.438199,-814.226536,9992.780217
3773.991070,-383.047749,-518.144159,10362.883188
3773.991385,-536.266849,-0.000000,10066.800811
3773.991699,0.000000,296.082377,9992.780217
3773.992014,229.828649,296.082377,9548.656652
3773.992329,459.657299,1036.288319,8882.471304
3773.992643,1302.362347,740.205942,8734.430116
3773.992958,1685.410096,592.164754,9400.615463
3773.993273,842.705048,740.205942,9548.656652
3773.993587,612.876398,1036.288319,9622.677246
3773.993902,153.219100,814.226536,10066.800811
3773.994217,153.219100,296.082377,9696.697840
3773.994531,0.000000,-0.000000,10288.862594
3773.994846,153.219100,-0.000000,9992.780217
3773.995160,0.000000,-0.000000,9918.759623
3773.995475,0.000000,-148.041188,10658.965565
3773.995790,-229.828649,-0.000000,9844.739029
3773.996104,229.828649,-0.000000,9844.739029
3773.996419,383.047749,222.061783,9622.677246
3773.996734,306.438199,592.164754,9252.574275
3773.997048,383.047749,518.144159,9030.512492
3773.997363,459.657299,-148.041188,9622.677246
3773.997678,306.438199,296.082377,9918.759623
3773.997992,383.047749,370.102971,9770.718434
3773.998307,0.000000,592.164754,9548.656652
3773.998622,0.000000,-0.000000,10140.821405
3773.998936,76.609550,444.123565,9474.636058
3773.999251,459.657299,-222.061783,9696.697840
3773.999565,153.219100,-148.041188,9474.636058
3773.999880,-306.438199,-0.000000,9400.615463
3774.000195,-306.438199,-222.061783,9548.656652
3774.000509,76.609550,-222.061783,9622.677246
3774.000824,-229.828649,-0.000000,9252.574275
3774.001139,0.000000,-0.000000,9104.533087
3774.001453,-229.828649,-0.000000,8882.471304
3774.001768,0.000000,-444.123565,9474.636058
3774.002083,-229.828649,-370.102971,9770.718434
3774.002397,0.000000,-0.000000,9622.677246
3774.002712,0.000000,-74.020594,9400.615463
3774.003026,-153.219100,-0.000000,9104.533087
3774.003341,0.000000,-0.000000,8882.471304
3774.003656,536.266849,-0.000000,8512.368333
3774.003970,153.219100,-0.000000,9252.574275
3774.004285,-536.266849,-148.041188,9770.718434
3774.004600,-229.828649,-148.041188,9622.677246
3774.004914,-306.438199,-518.144159,9918.759623
3774.005229,-459.657299,-222.061783,9770.718434
3774.005544,-229.828649,-370.102971,10140.821405
3774.005858,0.000000,-0.000000,9918.759623
3774.006173,0.000000,-148.041188,10214.842000
3774.006487,0.000000,148.041188,10066.800811
3774.006802,0.000000,666.185348,9622.677246
3774.007117,689.485948,814.226536,9030.512492
3774.007431,766.095498,962.267725,9178.553681
3774.007746,459.657299,370.102971,9178.553681
3774.008061,689.485948,148.041188,9104.533087
3774.008375,459.657299,-0.000000,9474.636058
3774.008690,76.609550,-0.000000,10214.842000
3774.009005,-76.609550,370.102971,10955.047942
3774.009319,76.609550,296.082377,10214.842000
3774.009634,0.000000,370.102971,9770.718434
3774.009949,0.000000,518.144159,9696.697840
3774.010263,229.828649,-0.000000,9992.780217
3774.010578,153.219100,-296.082377,9918.759623
3774.010892,306.438199,-148.041188,9622.677246
3774.011207,76.609550,666.185348,9030.512492
3774.011522,1072.533697,148.041188,9252.574275
3774.011836,153.219100,1258.350101,9104.533087
3774.012151,459.657299,888.247130,9104.533087
3774.012466,919.314598,-0.000000,9178.553681
3774.012780,76.609550,-0.000000,9474.636058
3774.013095,0.000000,222.061783,9992.780217
3774.013410,153.219100,-148.041188,10288.862594
3774.013724,-306.438199,-0.000000,9770.718434
3774.014039,-383.047749,-0.000000,10066.800811
3774.014353,0.000000,444.123565,9400.615463
3774.014668,0.000000,-296.082377,9696.697840
3774.014983,76.609550,-444.123565,10214.842000
3774.015297,-383.047749,-0.000000,9918.759623
3774.015612,-383.047749,296.082377,9030.512492
3774.015927,459.657299,444.123565,9696.697840
3774.016241,229.828649,888.247130,9474.636058
3774.016556,766.095498,518.144159,9622.677246
3774.016871,612.876398,-0.000000,9178.553681
3774.017185,612.876398,296.082377,9548.656652
3774.017500,76.609550,518.144159,10140.821405
3774.017814,76.609550,444.123565,9622.677246
3774.018129,-536.266849,444.123565,10066.800811
3774.018444,-306.438199,592.164754,9622.677246
3774.018758,0.000000,222.061783,9326.594869
3774.019073,76.609550,-296.082377,9252.574275
3774.019388,-229.828649,-148.041188,9992.780217
3774.019702,-536.266849,-370.102971,10584.944971
3774.020017,-383.047749,-148.041188,9844.739029
3774.020332,-459.657299,444.123565,9992.780217
3774.020646,-229.828649,1036.288319,9474.636058
3774.020961,306.438199,666.185348,9696.697840
3774.021276,383.047749,592.164754,9844.739029
3774.021590,153.219100,74.020594,9696.697840
3774.021905,0.000000,518.144159,9178.553681
3774.022219,306.438199,-0.000000,9252.574275
3774.022534,536.266849,222.061783,9104.533087
3774.022849,153.219100,370.102971,9252.574275
3774.023163,459.657299,-0.000000,8512.368333
3774.023478,-229.828649,-740.205942,9474.636058
3774.023793,-383.047749,-666.185348,9992.780217
3774.024107,-766.095498,-296.082377,9992.780217
3774.024422,-766.095498,-444.123565,10066.800811
3774.024737,-1149.143247,-296.082377,10510.924376
3774.025051,-306.438199,-148.041188,10214.842000
3774.025366,229.828649,-148.041188,9844.739029
3774.025680,919.314598,-0.000000,9474.636058
3774.025995,536.266849,296.082377,9918.759623
3774.026310,612.876398,1258.350101,8808.450710
3774.026624,919.314598,1184.329507,9178.553681
3774.026939,842.705048,1406.391290,8734.430116
3774.027254,1072.533697,370.102971,8660.409521
3774.027568,1072.533697,-222.061783,8956.491898
3774.027883,0.000000,-1258.350101,9622.677246
3774.028198,-153.219100,-888.247130,10955.047942
3774.028512,-766.095498,-740.205942,10510.924376
3774.028827,-383.047749,-370.102971,11103.089130
3774.029141,-919.314598,-518.144159,10362.883188
3774.029456,-459.657299,-148.041188,10066.800811
3774.029771,612.876398,-0.000000,9770.718434
3774.030085,1072.533697,592.164754,9548.656652
3774.030400,995.924147,1332.370696,9326.594869
3774.030715,1532.190996,1554.432478,8808.450710
3774.031029,1072.533697,1332.370696,8586.388927
3774.031344,1072.533697,888.247130,9104.533087
3774.031659,842.705048,370.102971,9252.574275
3774.031973,153.219100,-370.102971,9844.739029
3774.032288,-689.485948,-1110.308913,10362.883188
3774.032602,-1072.533697,-740.205942,10658.965565
3774.032917,-1915.238745,-1258.350101,10658.965565
3774.033232,-1302.362347,-2220.617826,10807.006753
3774.033546,-995.924147,-1406.391290,10658.965565
3774.033861,-995.924147,-444.123565,9474.636058
3774.034176,153.219100,-444.123565,9030.512492
3774.034490,612.876398,592.164754,8734.430116
3774.034805,1915.238745,592.164754,8586.388927
3774.035120,1608.800546,592.164754,8290.306550
3774.035434,1685.410096,444.123565,8364.327145
3774.035749,1302.362347,666.185348,8660.409521
3774.036064,995.924147,296.082377,8438.347739
3774.036378,306.438199,-592.164754,8882.471304
3774.036693,-459.657299,-1184.329507,10140.821405
3774.037007,-1685.410096,-1258.350101,10584.944971
3774.037322,-1838.629195,-740.205942,10214.842000
3774.037637,-1608.800546,-888.247130,10584.944971
3774.037951,-1378.971896,-814.226536,10066.800811
3774.038266,-995.924147,-0.000000,10066.800811
3774.038581,0.000000,-444.123565,9770.718434
3774.038895,229.828649,370.102971,9474.636058
3774.039210,995.924147,962.267725,9252.574275
3774.039525,1685.410096,1258.350101,9400.615463
3774.039839,1302.362347,1998.556043,8882.471304
3774.040154,1149.143247,1998.556043,8142.265362
3774.040468,1072.533697,1110.308913,8512.368333
3774.040783,76.609550,888.247130,9326.594869
3774.041098,0.000000,-148.041188,10214.842000
3774.041412,-612.876398,-518.144159,10140.821405
3774.041727,-1072.533697,-518.144159,10510.924376
3774.042042,-1378.971896,-444.123565,10066.800811
3774.042356,-1302.362347,-222.061783,10066.800811
3774.042671,-459.657299,-74.020594,9696.697840
3774.042986,0.000000,-444.123565,9992.780217
3774.043300,383.047749,222.061783,9696.697840
3774.043615,383.047749,1184.329507,9252.574275
3774.043929,1149.143247,1554.432478,9178.553681
3774.044244,1455.581446,1702.473667,8956.491898
3774.044559,995.924147,1554.432478,8882.471304
3774.044873,1302.362347,1258.350101,9178.553681
3774.045188,1149.143247,1110.308913,9474.636058
3774.045503,459.657299,592.164754,9992.780217
3774.045817,-383.047749,444.123565,10214.842000
3774.046132,-842.705048,-148.041188,10362.883188
3774.046447,-842.705048,-370.102971,9918.759623
3774.046761,-995.924147,-592.164754,10066.800811
3774.047076,-383.047749,-740.205942,10658.965565
3774.047391,0.000000,-592.164754,9622.677246
3774.047705,-229.828649,-0.000000,9474.636058
3774.048020,0.000000,444.123565,9474.636058
3774.048334,766.095498,1258.350101,9474.636058
3774.048649,689.485948,1332.370696,9400.615463
3774.048964,1378.971896,1850.514855,9104.533087
3774.049278,1378.971896,1184.329507,9326.594869
3774.049593,1225.752797,740.205942,8956.491898
3774.049908,536.266849,444.123565,9474.636058
3774.050222,0.000000,-0.000000,10140.821405
3774.050537,-229.828649,-222.061783,10288.862594
3774.050852,-383.047749,-444.123565,10436.903782
3774.051166,-919.314598,-148.041188,10436.903782
3774.051481,-536.266849,-296.082377,10066.800811
3774.051795,-229.828649,-370.102971,10362.883188
3774.052110,-995.924147,-222.061783,10140.821405
3774.052425,-229.828649,-0.000000,9770.718434
3774.052739,689.485948,296.082377,9474.636058
3774.053054,842.705048,888.247130,8882.471304
3774.053369,919.314598,1184.329507,8512.368333
3774.053683,1378.971896,1184.329507,7920.203579
3774.053998,919.314598,592.164754,8734.430116
3774.054313,306.438199,-0.000000,9474.636058
3774.054627,-229.828649,-592.164754,10066.800811
3774.054942,-459.657299,-888.247130,9844.739029
3774.055256,-995.924147,-962.267725,9770.718434
3774.055571,-1302.362347,-740.205942,10288.862594
3774.055886,-1149.143247,-1480.411884,10140.821405
3774.056200,-766.095498,-962.267725,10140.821405
3774.056515,-995.924147,-814.226536,9844.739029
3774.056830,-153.219100,-296.082377,9622.677246
3774.057144,612.876398,-148.041188,8660.409521
3774.057459,995.924147,-0.000000,8142.265362
3774.057774,1608.800546,814.226536,8290.306550
3774.058088,1225.752797,148.041188,7994.224174
3774.058403,919.314598,-148.041188,8512.368333
3774.058718,459.657299,-814.226536,9400.615463
3774.059032,76.609550,-962.267725,9918.759623
3774.059347,-536.266849,-888.247130,10288.862594
3774.059661,-919.314598,-1110.308913,10881.027347
3774.059976,-995.924147,-444.123565,10288.862594
3774.060291,-383.047749,-888.247130,10288.862594
3774.060605,-459.657299,-444.123565,10214.842000
3774.060920,0.000000,-148.041188,9992.780217
3774.061235,612.876398,888.247130,9696.697840
3774.061549,1072.533697,1480.411884,8512.368333
3774.061864,1532.190996,1258.350101,7920.203579
3774.062179,2451.505594,1332.370696,7994.224174
3774.062493,1225.752797,888.247130,8068.244768
3774.062808,536.266849,296.082377,9696.697840
3774.063122,76.609550,-0.000000,9770.718434
3774.063437,-766.095498,-222.061783,10140.821405
3774.063752,-766.095498,-444.123565,10658.965565
3774.064066,-1455.581446,-444.123565,10732.986159
3774.064381,-1302.362347,-370.102971,10584.944971
3774.064696,-612.876398,-74.020594,10436.903782
3774.065010,229.828649,518.144159,10436.903782
3774.065325,459.657299,666.185348,9696.697840
3774.065640,1149.143247,1406.391290,9104.533087
3774.065954,1072.533697,1702.473667,8364.327145
3774.066269,1225.752797,1776.494261,8438.347739
3774.066583,1608.800546,1184.329507,8882.471304
3774.066898,1455.581446,814.226536,8734.430116
3774.067213,612.876398,444.123565,9770.718434
3774.067527,-383.047749,-0.000000,9918.759623
3774.067842,-1149.143247,-0.000000,9918.759623
3774.068157,-766.095498,-370.102971,9992.780217
3774.068471,-1608.800546,-592.164754,10584.944971
3774.068786,-842.705048,-592.164754,10658.965565
3774.069101,-306.438199,-444.123565,10066.800811
3774.069415,-306.438199,222.061783,9622.677246
3774.069730,459.657299,592.164754,9696.697840
3774.070045,1225.752797,1036.288319,9326.594869
3774.070359,1072.533697,1184.329507,8882.471304
3774.070674,995.924147,1110.308913,8734.430116
3774.070988,1149.143247,592.164754,8512.368333
3774.071303,995.924147,592.164754,9326.594869
3774.071618,306.438199,370.102971,9918.759623
3774.071932,-842.705048,370.102971,10436.903782
3774.072247,-1225.752797,-148.041188,10436.903782
3774.072562,-919.314598,-444.123565,10807.006753
3774.072876,-842.705048,-0.000000,10214.842000
3774.073191,-459.657299,-0.000000,10140.821405
3774.073506,0.000000,-0.000000,10732.986159
3774.073820,-76.609550,-0.000000,10288.862594
3774.074135,229.828649,518.144159,9918.759623
3774.074450,919.314598,814.226536,9474.636058
3774.074764,1072.533697,962.267725,9030.512492
3774.075079,919.314598,1480.411884,8808.450710
3774.075393,995.924147,1036.288319,8956.491898
3774.075708,1149.143247,296.082377,9178.553681
3774.076023,153.219100,-74.020594,9178.553681
3774.076337,-306.438199,-444.123565,9622.677246
3774.076652,-459.657299,-962.267725,9770.718434
3774.076967,-995.924147,-1184.329507,9622.677246
3774.077281,-1302.362347,-962.267725,9844.739029
3774.077596,-919.314598,-1036.288319,9844.739029
3774.077911,-766.095498,-1036.288319,9992.780217
3774.078225,-306.438199,-666.185348,9770.718434
3774.078540,76.609550,222.061783,8956.491898
3774.078854,612.876398,-0.000000,9548.656652
3774.079169,995.924147,370.102971,8956.491898
3774.079484,842.705048,666.185348,8438.347739
3774.079798,1072.533697,370.102971,8586.388927
3774.080113,842.705048,-148.041188,9326.594869
3774.080428,689.485948,74.020594,9400.615463
3774.080742,0.000000,-148.041188,9178.553681
3774.081057,-383.047749,-444.123565,9622.677246
3774.081372,-536.266849,-962.267725,9918.759623
3774.081686,-1149.143247,-1406.391290,9548.656652
3774.082001,-842.705048,-1554.432478,10288.862594
3774.082316,-919.314598,-1406.391290,10510.924376
3774.082630,-689.485948,-1036.288319,10510.924376
3774.082945,-306.438199,-370.102971,10140.821405
3774.083259,153.219100,370.102971,9548.656652
3774.083574,842.705048,1332.370696,9474.636058
3774.083889,1455.581446,1628.453072,8956.491898
3774.084203,2068.457845,1110.308913,8882.471304
3774.084518,1532.190996,592.164754,8808.450710
3774.084833,1149.143247,1258.350101,8882.471304
3774.085147,842.705048,740.205942,8956.491898
3774.085462,0.000000,148.041188,9400.615463
3774.085777,-229.828649,-0.000000,9770.718434
3774.086091,-1149.143247,-666.185348,10288.862594
3774.086406,-1149.143247,-1036.288319,10140.821405
3774.086721,-1608.800546,-962.267725,10362.883188
3774.087035,-1838.629195,-296.082377,10658.965565
3774.087350,-1072.533697,-296.082377,11103.089130
3774.087664,-536.266849,-0.000000,10288.862594
3774.087979,0.000000,1110.308913,9252.574275
3774.088294,842.705048,1702.473667,8512.368333
3774.088608,1532.190996,1628.453072,8512.368333
3774.088923,1608.800546,1998.556043,8512.368333
3774.089238,1378.971896,1850.514855,8512.368333
3774.089552,842.705048,1480.411884,8882.471304
3774.089867,689.485948,1110.308913,9474.636058
3774.090182,76.609550,666.185348,9400.615463
3774.090496,-842.705048,-148.041188,9918.759623
3774.090811,-1608.800546,-814.226536,10584.944971
3774.091126,-1532.190996,-962.267725,11325.150913
3774.091440,-1225.752797,-1036.288319,11399.171507
3774.091755,-1149.143247,-518.144159,10658.965565
3774.092069,-306.438199,666.185348,10362.883188
3774.092384,459.657299,1258.350101,9178.553681
3774.092699,1378.971896,1628.453072,8512.368333
3774.093013,2221.676944,1554.432478,8586.388927
3774.093328,1838.629195,1702.473667,8808.450710
3774.093643,1685.410096,1480.411884,8660.409521
3774.093957,1455.581446,592.164754,9030.512492
3774.094272,766.095498,370.102971,9918.759623
3774.094587,0.000000,444.123565,9992.780217
3774.094901,-383.047749,-148.041188,10955.047942
3774.095216,-766.095498,-740.205942,11103.089130
3774.095531,-689.485948,-444.123565,10732.986159
3774.095845,-689.485948,-0.000000,10584.944971
3774.096160,-612.876398,-0.000000,10140.821405
3774.096474,0.000000,148.041188,9548.656652
3774.096789,612.876398,666.185348,8882.471304
3774.097104,1378.971896,592.164754,8216.285956
3774.097418,1608.800546,814.226536,8956.491898
3774.097733,1225.752797,888.247130,8438.347739
3774.098048,766.095498,444.123565,9178.553681
3774.098362,536.266849,-0.000000,9548.656652
3774.098677,76.609550,-0.000000,9918.759623
3774.098992,-229.828649,-0.000000,9770.718434
3774.099306,0.000000,-592.164754,9770.718434
3774.099621,-766.095498,-814.226536,9918.759623
3774.099936,-536.266849,-962.267725,9918.759623
3774.100250,-612.876398,-1480.411884,9844.739029
3774.100565,-306.438199,-888.247130,9548.656652
3774.100879,153.219100,-74.020594,9178.553681
3774.101194,689.485948,148.041188,8438.347739
3774.101509,1225.752797,-0.000000,8290.306550
3774.101823,1302.362347,-222.061783,8660.409521
3774.102138,766.095498,-370.102971,9030.512492
3774.102453,383.047749,-740.205942,9622.677246
3774.102767,-229.828649,-444.123565,9844.739029
3774.103082,0.000000,-370.102971,9844.739029
3774.103397,-536.266849,-370.102971,9104.533087
3774.103711,-459.657299,-592.164754,9696.697840
3774.104026,76.609550,-592.164754,9696.697840
3774.104341,-766.095498,-518.144159,9548.656652
3774.104655,0.000000,-814.226536,9992.780217
3774.104970,-153.219100,-222.061783,9548.656652
3774.105284,-229.828649,370.102971,9474.636058
3774.105599,0.000000,222.061783,9178.553681
3774.105914,0.000000,-0.000000,9474.636058
3774.106228,153.219100,-222.061783,10066.800811
3774.106543,-383.047749,-0.000000,10066.800811
3774.106858,-689.485948,592.164754,9918.759623
3774.107172,0.000000,592.164754,10288.862594
3774.107487,-459.657299,592.164754,9622.677246
3774.107802,153.219100,592.164754,9326.594869
3774.108116,153.219100,-0.000000,9474.636058
3774.108431,0.000000,296.082377,9696.697840
3774.108746,-229.828649,-0.000000,9696.697840
3774.109060,-306.438199,-0.000000,9770.718434
3774.109375,0.000000,-296.082377,9992.780217
3774.109689,-229.828649,814.226536,9548.656652
3774.110004,0.000000,222.061783,9474.636058
3774.110319,229.828649,-0.000000,9770.718434
3774.110633,229.828649,-0.000000,10214.842000
3774.110948,0.000000,740.205942,9992.780217
3774.111263,0.000000,1258.350101,9918.759623
3774.111577,383.047749,1332.370696,9400.615463
3774.111892,459.657299,1628.453072,8956.491898
3774.112207,689.485948,962.267725,8660.409521
3774.112521,689.485948,-0.000000,9474.636058
3774.112836,383.047749,148.041188,9622.677246
3774.113151,229.828649,-0.000000,9844.739029
3774.113465,0.000000,-0.000000,9844.739029
3774.113780,-229.828649,148.041188,10584.944971
3774.114094,-153.219100,592.164754,9696.697840
3774.114409,-306.438199,444.123565,9474.636058
3774.114724,229.828649,-0.000000,10214.842000
3774.115038,0.000000,-0.000000,10140.821405
3774.115353,153.219100,666.185348,9622.677246
3774.115668,0.000000,740.205942,9030.512492
3774.115982,689.485948,296.082377,9696.697840
3774.116297,689.485948,296.082377,9400.615463
3774.116612,536.266849,666.185348,8882.471304
3774.116926,1685.410096,-0.000000,9844.739029
3774.117241,383.047749,592.164754,9696.697840
3774.117556,-229.828649,740.205942,9696.697840
3774.117870,153.219100,148.041188,10510.924376
3774.118185,0.000000,296.082377,10436.903782
3774.118499,-229.828649,592.164754,9770.718434
3774.118814,0.000000,-0.000000,9548.656652
3774.119129,76.609550,-148.041188,10140.821405
3774.119443,229.828649,-0.000000,9918.759623
3774.119758,306.438199,-0.000000,9400.615463
3774.120073,229.828649,-0.000000,9178.553681
3774.120387,612.876398,370.102971,9474.636058
3774.120702,536.266849,814.226536,8512.368333
3774.121017,842.705048,-0.000000,8586.388927
3774.121331,1225.752797,-518.144159,9252.574275
3774.121646,612.876398,-518.144159,8808.450710
3774.121961,0.000000,-888.247130,9622.677246
3774.122275,-1072.533697,-740.205942,10066.800811
3774.122590,-842.705048,-518.144159,10066.800811
3774.122904,-612.876398,-0.000000,9474.636058
3774.123219,-229.828649,-0.000000,9400.615463
3774.123534,383.047749,-74.020594,9622.677246
3774.123848,0.000000,-370.102971,9770.718434
3774.124163,229.828649,-296.082377,9474.636058
3774.124478,306.438199,-370.102971,9918.759623
3774.124792,459.657299,-0.000000,9252.574275
3774.125107,689.485948,-222.061783,9178.553681
3774.125422,536.266849,-148.041188,9622.677246
3774.125736,306.438199,-370.102971,9474.636058
3774.126051,-229.828649,-666.185348,9844.739029
3774.126366,-459.657299,-962.267725,9622.677246
3774.126680,-612.876398,-518.144159,9918.759623
3774.126995,0.000000,74.020594,9400.615463
3774.127309,-459.657299,-0.000000,9252.574275
3774.127624,-229.828649,-222.061783,9474.636058
3774.127939,229.828649,-370.102971,10066.800811
3774.128253,153.219100,-370.102971,9696.697840
3774.128568,0.000000,148.041188,10288.862594
3774.128883,153.219100,888.247130,9474.636058
3774.129197,536.266849,740.205942,9696.697840
3774.129512,383.047749,592.164754,9474.636058
3774.129827,612.876398,370.102971,9622.677246
3774.130141,153.219100,-0.000000,9918.759623
3774.130456,-459.657299,222.061783,9992.780217
3774.130771,-689.485948,222.061783,9548.656652
3774.131085,306.438199,-370.102971,9992.780217
3774.131400,306.438199,148.041188,9178.553681
3774.131714,229.828649,-148.041188,8956.491898
3774.132029,229.828649,-222.061783,9104.533087
3774.132344,0.000000,-222.061783,9400.615463
3774.132658,-229.828649,-0.000000,9474.636058
3774.132973,0.000000,-222.061783,9844.739029
3774.133288,0.000000,-0.000000,9474.636058
3774.133602,0.000000,444.123565,9844.739029
3774.133917,-229.828649,592.164754,9030.512492
3774.134232,612.876398,222.061783,9770.718434
3774.134546,459.657299,740.205942,9770.718434
3774.134861,229.828649,666.185348,9622.677246
3774.135175,229.828649,592.164754,9548.656652
3774.135490,229.828649,592.164754,9104.533087
3774.135805,306.438199,296.082377,9178.553681
3774.136119,0.000000,148.041188,9252.574275
3774.136434,-229.828649,-296.082377,9622.677246
3774.136749,-1072.533697,-888.247130,10436.903782
3774.137063,-919.314598,-222.061783,10362.883188
3774.137378,-612.876398,-0.000000,10658.965565
3774.137693,-612.876398,-0.000000,10584.944971
3774.138007,-689.485948,888.247130,10288.862594
3774.138322,0.000000,740.205942,9918.759623
3774.138637,766.095498,888.247130,9844.739029
3774.138951,1455.581446,1036.288319,9400.615463
3774.139266,1608.800546,1776.494261,9104.533087
3774.139580,1608.800546,1480.411884,8364.327145
3774.139895,1378.971896,1184.329507,8586.388927
3774.140210,1149.143247,740.205942,8882.471304
3774.140524,689.485948,148.041188,8956.491898
3774.140839,0.000000,-370.102971,9696.697840
3774.141154,-689.485948,-814.226536,10732.986159
3774.141468,-1378.971896,-1110.308913,10955.047942
3774.141783,-1455.581446,-666.185348,10955.047942
3774.142098,-919.314598,-148.041188,10807.006753
3774.142412,-536.266849,-0.000000,10288.862594
3774.142727,612.876398,888.247130,9326.594869
3774.143042,919.314598,1332.370696,8586.388927
3774.143356,1762.019645,1036.288319,8808.450710
3774.143671,1762.019645,1184.329507,8734.430116
3774.143985,1762.019645,1184.329507,8660.409521
3774.144300,1378.971896,814.226536,8808.450710
3774.144615,1302.362347,666.185348,8512.368333
3774.144929,383.047749,-296.082377,9474.636058
3774.145244,-536.266849,-962.267725,10066.800811
3774.145559,-1225.752797,-1332.370696,11177.109724
3774.145873,-1685.410096,-1554.432478,10362.883188
3774.146188,-1915.238745,-1406.391290,10436.903782
3774.146503,-1149.143247,-592.164754,11177.109724
3774.146817,-842.705048,-222.061783,9918.759623
3774.147132,229.828649,-0.000000,9326.594869
3774.147447,1762.019645,148.041188,9104.533087
3774.147761,1378.971896,888.247130,8364.327145
3774.148076,1991.848295,1554.432478,8068.244768
3774.148390,1685.410096,1258.350101,8882.471304
3774.148705,1455.581446,814.226536,9178.553681
3774.149020,919.314598,444.123565,8734.430116
3774.149334,383.047749,296.082377,9326.594869
3774.149649,0.000000,-740.205942,10288.862594
3774.149964,-995.924147,-1332.370696,10658.965565
3774.150278,-1685.410096,-962.267725,10584.944971
3774.150593,-1149.143247,-1554.432478,10658.965565
3774.150908,-1225.752797,-740.205942,10436.903782
3774.151222,-766.095498,296.082377,9400.615463
3774.151537,0.000000,-148.041188,9622.677246
3774.151852,536.266849,222.061783,9400.615463
3774.152166,766.095498,962.267725,9104.533087
3774.152481,995.924147,1332.370696,8512.368333
3774.152795,1149.143247,1184.329507,8956.491898
3774.153110,1072.533697,1406.391290,9252.574275
3774.153425,612.876398,1332.370696,8808.450710
3774.153739,612.876398,518.144159,9178.553681
3774.154054,-536.266849,-148.041188,10288.862594
3774.154369,-995.924147,-148.041188,10066.800811
3774.154683,-1608.800546,-1036.288319,10510.924376
3774.154998,-1991.848295,-962.267725,10732.986159
3774.155313,-1532.190996,-962.267725,10732.986159
3774.155627,-1302.362347,-222.061783,9918.759623
3774.155942,-153.219100,-370.102971,9770.718434
3774.156257,459.657299,296.082377,9918.759623
3774.156571,459.657299,962.267725,8660.409521
3774.156886,919.314598,1184.329507,8808.450710
3774.157200,1838.629195,1924.535449,9030.512492
3774.157515,1455.581446,1702.473667,8882.471304
3774.157830,1072.533697,1628.453072,8364.327145
3774.158144,919.314598,296.082377,8808.450710
3774.158459,459.657299,-0.000000,9696.697840
3774.158774,0.000000,-296.082377,10140.821405
3774.159088,-689.485948,-740.205942,10436.903782
3774.159403,-919.314598,-888.247130,10732.986159
3774.159718,-1072.533697,-518.144159,10436.903782
3774.160032,-919.314598,-370.102971,9992.780217
3774.160347,-536.266849,-74.020594,10288.862594
3774.160662,76.609550,-0.000000,10436.903782
3774.160976,383.047749,962.267725,9918.759623
3774.161291,919.314598,1332.370696,9104.533087
3774.161605,1072.533697,1258.350101,8956.491898
3774.161920,1608.800546,1850.514855,8660.409521
3774.162235,2068.457845,1628.453072,8364.327145
3774.162549,1915.238745,1036.288319,8586.388927
3774.162864,766.095498,222.061783,9104.533087
3774.163179,0.000000,-0.000000,9326.594869
3774.163493,-612.876398,-592.164754,9918.759623
3774.163808,-1225.752797,-888.247130,10881.027347
3774.164123,-1378.971896,-888.247130,10807.006753
3774.164437,-1378.971896,-814.226536,10658.965565
3774.164752,-689.485948,-1184.329507,11325.150913
3774.165067,-383.047749,-370.102971,10881.027347
3774.165381,0.000000,222.061783,9474.636058
3774.165696,995.924147,518.144159,9696.697840
3774.166010,1915.238745,1184.329507,8882.471304
3774.166325,2068.457845,1776.494261,7994.224174
3774.166640,2298.286494,1332.370696,7179.997637
3774.166954,2068.457845,592.164754,8142.265362
3774.167269,1302.362347,74.020594,8734.430116
3774.167584,-153.219100,-814.226536,9030.512492
3774.167898,-995.924147,-1110.308913,9844.739029
3774.168213,-1378.971896,-1776.494261,11177.109724
3774.168528,-1838.629195,-1702.473667,10732.986159
3774.168842,-1991.848295,-1406.391290,10362.883188
3774.169157,-1149.143247,-1628.453072,10881.027347
3774.169472,-612.876398,-814.226536,10510.924376
3774.169786,229.828649,-74.020594,9474.636058
3774.170101,689.485948,740.205942,9030.512492
3774.170415,1762.019645,1628.453072,8808.450710
3774.170730,1455.581446,1776.494261,7772.162391
3774.171045,1838.629195,1110.308913,8216.285956
3774.171359,1302.362347,666.185348,8882.471304
3774.171674,383.047749,-0.000000,9696.697840
3774.171989,-689.485948,-518.144159,9622.677246
3774.172303,-612.876398,-1036.288319,10584.944971
3774.172618,-1532.190996,-1036.288319,10881.027347
3774.172933,-1915.238745,-888.247130,11103.089130
3774.173247,-1378.971896,-666.185348,10658.965565
3774.173562,-536.266849,-1332.370696,10510.924376
3774.173877,-689.485948,-296.082377,9696.697840
3774.174191,-383.047749,222.061783,8882.471304
3774.174506,689.485948,814.226536,8586.388927
3774.174820,1149.143247,1110.308913,8512.368333
3774.175135,1608.800546,1702.473667,8068.244768
3774.175450,1455.581446,1036.288319,8586.388927
3774.175764,1225.752797,740.205942,9474.636058
3774.176079,229.828649,370.102971,10066.800811
3774.176394,-689.485948,666.185348,9992.780217
3774.176708,-842.705048,370.102971,10807.006753
3774.177023,-1149.143247,222.061783,10955.047942
3774.177338,-842.705048,-0.000000,10807.006753
3774.177652,-306.438199,-0.000000,9992.780217
3774.177967,0.000000,296.082377,10288.862594
3774.178282,0.000000,-0.000000,9622.677246
3774.178596,383.047749,444.123565,9178.553681
3774.178911,842.705048,1110.308913,9104.533087
3774.179225,995.924147,1036.288319,9030.512492
3774.179540,1685.410096,814.226536,8660.409521
3774.179855,919.314598,-0.000000,9030.512492
3774.180169,306.438199,-222.061783,9844.739029
3774.180484,0.000000,-0.000000,10214.842000
3774.180799,-536.266849,-444.123565,10510.924376
3774.181113,0.000000,-0.000000,10584.944971
3774.181428,-536.266849,-222.061783,10436.903782
3774.181743,-229.828649,296.082377,9622.677246
3774.182057,76.609550,-148.041188,9992.780217
3774.182372,229.828649,370.102971,9770.718434
3774.182687,0.000000,370.102971,10140.821405
3774.183001,919.314598,444.123565,9326.594869
3774.183316,995.924147,-0.000000,9326.594869
3774.183630,995.924147,296.082377,9252.574275
3774.183945,1378.971896,592.164754,8364.327145
3774.184260,766.095498,-0.000000,9030.512492
3774.184574,383.047749,-370.102971,9474.636058
3774.184889,-306.438199,-74.020594,9548.656652
3774.185204,-459.657299,-518.144159,9548.656652
3774.185518,0.000000,-444.123565,9622.677246
3774.185833,-229.828649,-74.020594,9696.697840
3774.186148,-306.438199,-370.102971,9178.553681
3774.186462,76.609550,-148.041188,9252.574275
3774.186777,153.219100,-148.041188,10362.883188
3774.187092,0.000000,-74.020594,9548.656652
3774.187406,306.438199,-74.020594,9622.677246
3774.187721,-306.438199,-0.000000,9770.718434
3774.188035,0.000000,1332.370696,9252.574275
3774.188350,689.485948,1184.329507,8882.471304
3774.188665,766.095498,666.185348,9178.553681
3774.188979,459.657299,-0.000000,9474.636058
3774.189294,153.219100,-0.000000,9252.574275
3774.189609,0.000000,-148.041188,9326.594869
3774.189923,0.000000,-0.000000,9622.677246
3774.190238,0.000000,-148.041188,9548.656652
3774.190553,0.000000,-518.144159,9474.636058
3774.190867,-383.047749,-1036.288319,9918.759623
3774.191182,-766.095498,-888.247130,10214.842000
3774.191497,-536.266849,148.041188,9696.697840
3774.191811,-153.219100,296.082377,10140.821405
3774.192126,76.609550,444.123565,9696.697840
3774.192440,383.047749,888.247130,9178.553681
3774.192755,689.485948,814.226536,8808.450710
3774.193070,536.266849,518.144159,9548.656652
3774.193384,383.047749,592.164754,9622.677246
3774.193699,0.000000,666.185348,9326.594869
3774.194014,0.000000,518.144159,9474.636058
3774.194328,0.000000,-0.000000,10140.821405
3774.194643,-459.657299,-518.144159,9622.677246
3774.194958,-612.876398,-518.144159,9844.739029
3774.195272,-612.876398,-740.205942,10658.965565
3774.195587,-1072.533697,-370.102971,10658.965565
3774.195902,-689.485948,-0.000000,10066.800811
3774.196216,0.000000,-0.000000,10066.800811
3774.196531,153.219100,222.061783,9844.739029
3774.196845,689.485948,962.267725,8882.471304
3774.197160,1532.190996,1332.370696,8142.265362
3774.197475,1455.581446,1110.308913,8882.471304
3774.197789,995.924147,740.205942,9474.636058
3774.198104,766.095498,296.082377,9030.512492
3774.198419,229.828649,-0.000000,8956.491898
3774.198733,0.000000,-0.000000,9770.718434
3774.199048,-153.219100,-74.020594,9992.780217
3774.199363,-766.095498,-222.061783,9992.780217
3774.199677,-689.485948,-666.185348,10584.944971
3774.199992,-1149.143247,-148.041188,10066.800811
3774.200307,-536.266849,-0.000000,10362.883188
3774.200621,0.000000,-0.000000,9844.739029
3774.200936,459.657299,740.205942,9696.697840
3774.201250,1378.971896,1184.329507,8438.347739
3774.201565,1685.410096,1406.391290,7994.224174
3774.201880,1455.581446,962.267725,8438.347739
3774.202194,1532.190996,740.205942,8734.430116
3774.202509,995.924147,666.185348,8882.471304
3774.202824,306.438199,-0.000000,9252.574275
3774.203138,76.609550,-0.000000,9474.636058
3774.203453,-306.438199,222.061783,9770.718434
3774.203768,-689.485948,-444.123565,10658.965565
3774.204082,-842.705048,-1184.329507,10881.027347
3774.204397,-1149.143247,-666.185348,10066.800811
3774.204712,-459.657299,-370.102971,10584.944971
3774.205026,76.609550,444.123565,9918.759623
3774.205341,229.828649,1332.370696,9548.656652
3774.205655,766.095498,1184.329507,8660.409521
3774.205970,1685.410096,740.205942,8660.409521
3774.206285,1378.971896,666.185348,9474.636058
3774.206599,919.314598,518.144159,9622.677246
3774.206914,383.047749,888.247130,9622.677246
3774.207229,0.000000,-0.000000,9622.677246
3774.207543,0.000000,-0.000000,10288.862594
3774.207858,0.000000,-0.000000,9770.718434
3774.208173,-536.266849,-1332.370696,10510.924376
3774.208487,-459.657299,-1184.329507,10732.986159
3774.208802,-383.047749,-666.185348,10066.800811
3774.209117,-306.438199,-148.041188,9548.656652
3774.209431,306.438199,-0.000000,9474.636058
3774.209746,306.438199,666.185348,9178.553681
3774.210060,612.876398,296.082377,8734.430116
3774.210375,1225.752797,-0.000000,9178.553681
3774.210690,689.485948,-0.000000,9252.574275
3774.211004,306.438199,222.061783,9548.656652
3774.211319,0.000000,-0.000000,9696.697840
3774.211634,0.000000,-148.041188,10214.842000
3774.211948,-306.438199,-666.185348,10066.800811
3774.212263,-612.876398,-592.164754,9474.636058
3774.212578,0.000000,-592.164754,9474.636058
3774.212892,76.609550,-148.041188,9030.512492
3774.213207,76.609550,-666.185348,9400.615463
3774.213522,229.828649,-370.102971,9104.533087
3774.213836,0.000000,-0.000000,9178.553681
3774.214151,153.219100,296.082377,8808.450710
3774.214465,153.219100,-0.000000,9400.615463
3774.214780,383.047749,148.041188,9474.636058
3774.215095,0.000000,296.082377,9696.697840
3774.215409,-383.047749,148.041188,9548.656652
3774.215724,-229.828649,-0.000000,9992.780217
3774.216039,-229.828649,370.102971,9770.718434
3774.216353,-612.876398,222.061783,9844.739029
3774.216668,0.000000,-0.000000,8882.471304
3774.216983,0.000000,-370.102971,9104.533087
3774.217297,153.219100,-370.102971,9104.533087
3774.217612,153.219100,-222.061783,9178.553681
3774.217927,229.828649,222.061783,9400.615463
3774.218241,153.219100,-148.041188,9844.739029
3774.218556,0.000000,962.267725,8586.388927
3774.218870,306.438199,888.247130,8956.491898
3774.219185,459.657299,-0.000000,9992.780217
3774.219500,-229.828649,-814.226536,10214.842000
3774.219814,0.000000,-148.041188,10362.883188
3774.220129,0.000000,370.102971,10436.903782
3774.220444,-153.219100,1332.370696,10658.965565
3774.220758,153.219100,1258.350101,9918.759623
3774.221073,459.657299,1184.329507,9474.636058
3774.221388,766.095498,370.102971,9548.656652
3774.221702,459.657299,444.123565,10140.821405
3774.222017,229.828649,740.205942,9844.739029
3774.222332,383.047749,814.226536,10066.800811
3774.222646,0.000000,592.164754,10066.800811
3774.222961,0.000000,518.144159,9844.739029
3774.223276,153.219100,296.082377,9918.759623
3774.223590,153.219100,-0.000000,10584.944971
3774.223905,0.000000,370.102971,10584.944971
3774.224219,-612.876398,1110.308913,9104.533087
3774.224534,0.000000,592.164754,9252.574275
3774.224849,383.047749,222.061783,9622.677246
3774.225163,0.000000,518.144159,9104.533087
3774.225478,153.219100,-370.102971,9474.636058
3774.225793,995.924147,370.102971,9622.677246
3774.226107,-76.609550,592.164754,10214.842000
3774.226422,229.828649,1110.308913,9474.636058
3774.226737,0.000000,444.123565,9696.697840
3774.227051,153.219100,444.123565,10510.924376
3774.227366,0.000000,-0.000000,9770.718434
3774.227681,76.609550,444.123565,9252.574275
3774.227995,306.438199,-74.020594,9474.636058
3774.228310,0.000000,-296.082377,9548.656652
3774.228624,153.219100,-0.000000,9696.697840
3774.228939,0.000000,222.061783,9030.512492
3774.229254,229.828649,-370.102971,9474.636058
3774.229568,76.609550,-148.041188,9030.512492
3774.229883,229.828649,-962.267725,8734.430116
3774.230198,459.657299,-740.205942,9252.574275
3774.230512,0.000000,-592.164754,9474.636058
3774.230827,-536.266849,-444.123565,9770.718434
3774.231142,0.000000,-518.144159,9474.636058
3774.231456,229.828649,222.061783,9548.656652
3774.231771,383.047749,370.102971,8882.471304
3774.232086,536.266849,-0.000000,8216.285956
3774.232400,536.266849,-0.000000,9326.594869
3774.232715,0.000000,-518.144159,9326.594869
3774.233029,76.609550,-370.102971,9548.656652
3774.233344,-306.438199,-444.123565,9770.718434
3774.233659,0.000000,-148.041188,9252.574275
3774.233973,153.219100,222.061783,8586.388927
3774.234288,0.000000,-0.000000,9474.636058
3774.234603,0.000000,-592.164754,10288.862594
3774.234917,-612.876398,-518.144159,9548.656652
3774.235232,-306.438199,-592.164754,9178.553681
3774.235547,-536.266849,-148.041188,9696.697840
3774.235861,-229.828649,296.082377,9622.677246
3774.236176,-306.438199,370.102971,8956.491898
3774.236491,153.219100,370.102971,9474.636058
3774.236805,612.876398,-74.020594,9548.656652
3774.237120,229.828649,444.123565,9178.553681
3774.237434,306.438199,592.164754,9622.677246
3774.237749,459.657299,888.247130,9770.718434
3774.238064,76.609550,814.226536,10066.800811
3774.238378,0.000000,1036.288319,9992.780217
3774.238693,229.828649,444.123565,10066.800811
3774.239008,229.828649,370.102971,9918.759623
3774.239322,0.000000,296.082377,10066.800811
3774.239637,-229.828649,296.082377,9474.636058
3774.239952,306.438199,-0.000000,9696.697840
3774.240266,76.609550,814.226536,9178.553681
3774.240581,536.266849,592.164754,9252.574275
3774.240896,689.485948,-0.000000,9844.739029
3774.241210,383.047749,148.041188,9770.718434
3774.241525,76.609550,-0.000000,10510.924376
3774.241839,0.000000,592.164754,10066.800811
3774.242154,76.609550,296.082377,10732.986159
3774.242469,0.000000,1110.308913,10362.883188
3774.242783,76.609550,666.185348,9770.718434
3774.243098,229.828649,888.247130,10140.821405
3774.243413,229.828649,740.205942,10140.821405
3774.243727,383.047749,296.082377,9992.780217
3774.244042,536.266849,740.205942,9622.677246
3774.244357,995.924147,222.061783,9326.594869
3774.244671,459.657299,962.267725,8882.471304
3774.244986,536.266849,666.185348,8882.471304
3774.245301,459.657299,-444.123565,9548.656652
3774.245615,0.000000,-518.144159,9918.759623
3774.245930,-229.828649,-222.061783,10214.842000
3774.246244,-689.485948,-444.123565,9770.718434
3774.246559,-536.266849,-74.020594,9918.759623
3774.246874,0.000000,148.041188,9844.739029
3774.247188,0.000000,-0.000000,9400.615463
3774.247503,842.705048,-0.000000,8956.491898
3774.247818,995.924147,740.205942,8734.430116
3774.248132,842.705048,1036.288319,8734.430116
3774.248447,1072.533697,518.144159,8512.368333
3774.248762,1225.752797,592.164754,8734.430116
3774.249076,153.219100,296.082377,8734.430116
3774.249391,0.000000,-0.000000,8882.471304
3774.249706,0.000000,-814.226536,9844.739029
3774.250020,-995.924147,-1184.329507,10140.821405
3774.250335,-1455.581446,-1110.308913,10214.842000
3774.250649,-1225.752797,-962.267725,10066.800811
3774.250964,-919.314598,-518.144159,10214.842000
3774.251279,-766.095498,-0.000000,9844.739029
3774.251593,229.828649,-0.000000,8808.450710
3774.251908,1072.533697,-0.000000,8808.450710
3774.252223,919.314598,222.061783,8586.388927
3774.252537,1302.362347,518.144159,8882.471304
3774.252852,1455.581446,-0.000000,8808.450710
3774.253167,766.095498,222.061783,8808.450710
3774.253481,383.047749,370.102971,9178.553681
3774.253796,0.000000,-222.061783,9622.677246
3774.254111,-612.876398,-962.267725,10288.862594
3774.254425,-995.924147,-888.247130,11325.150913
3774.254740,-1378.971896,-1036.288319,10732.986159
3774.255054,-1225.752797,-518.144159,11177.109724
3774.255369,-842.705048,-296.082377,10658.965565
3774.255684,0.000000,148.041188,9844.739029
3774.255998,612.876398,-0.000000,9474.636058
3774.256313,842.705048,370.102971,9030.512492
3774.256628,1378.971896,1036.288319,9252.574275
3774.256942,1685.410096,1258.350101,8808.450710
3774.257257,1532.190996,888.247130,9104.533087
3774.257572,1149.143247,740.205942,9104.533087
3774.257886,383.047749,666.185348,9400.615463
3774.258201,229.828649,-0.000000,9696.697840
3774.258516,-306.438199,-814.226536,10584.944971
3774.258830,-842.705048,-888.247130,10584.944971
3774.259145,-919.314598,-666.185348,10881.027347
3774.259459,-1149.143247,-592.164754,10510.924376
3774.259774,-612.876398,-0.000000,10510.924376
3774.260089,229.828649,740.205942,9252.574275
3774.260403,919.314598,666.185348,9104.533087
3774.260718,1149.143247,592.164754,9474.636058
3774.261033,1378.971896,962.267725,8882.471304
3774.261347,1225.752797,1258.350101,8660.409521
3774.261662,1149.143247,1184.329507,9400.615463
3774.261977,995.924147,1110.308913,9252.574275
3774.262291,229.828649,666.185348,8734.430116
3774.262606,76.609550,-0.000000,9326.594869
3774.262921,-383.047749,-370.102971,9548.656652
3774.263235,-1072.533697,-666.185348,10140.821405
3774.263550,-1378.971896,-592.164754,10732.986159
3774.263864,-1762.019645,-592.164754,10732.986159
3774.264179,-1225.752797,-148.041188,10288.862594
3774.264494,-536.266849,518.144159,9696.697840
3774.264808,76.609550,296.082377,9326.594869
3774.265123,766.095498,-0.000000,9844.739029
3774.265438,459.657299,888.247130,9696.697840
3774.265752,919.314598,1702.473667,9474.636058
3774.266067,842.705048,1850.514855,9178.553681
3774.266382,1072.533697,1924.535449,8512.368333
3774.266696,612.876398,888.247130,8956.491898
3774.267011,0.000000,296.082377,8734.430116
3774.267326,0.000000,-666.185348,10140.821405
3774.267640,-766.095498,-592.164754,10436.903782
3774.267955,-1149.143247,-148.041188,9474.636058
3774.268269,-1608.800546,-592.164754,10362.883188
3774.268584,-1302.362347,-148.041188,10362.883188
3774.268899,-689.485948,-222.061783,9770.718434
3774.269213,76.609550,-296.082377,9992.780217
3774.269528,153.219100,-74.020594,10140.821405
3774.269843,383.047749,1480.411884,9770.718434
3774.270157,1455.581446,1628.453072,9474.636058
3774.270472,919.314598,1702.473667,8882.471304
3774.270787,1149.143247,1702.473667,8586.388927
3774.271101,1762.019645,1110.308913,8512.368333
3774.271416,1149.143247,370.102971,8586.388927
3774.271731,536.266849,-148.041188,9622.677246
3774.272045,-536.266849,-666.185348,9696.697840
3774.272360,-1149.143247,-1110.308913,10288.862594
3774.272674,-1378.971896,-1406.391290,11177.109724
3774.272989,-1378.971896,-1554.432478,10955.047942
3774.273304,-1072.533697,-1258.350101,10436.903782
3774.273618,0.000000,-814.226536,10436.903782
3774.273933,0.000000,-666.185348,10066.800811
3774.274248,842.705048,370.102971,9770.718434
3774.274562,919.314598,888.247130,9548.656652
3774.274877,1149.143247,666.185348,8808.450710
3774.275192,1838.629195,1110.308913,7846.182985
3774.275506,2145.067394,592.164754,7698.141797
3774.275821,1455.581446,-0.000000,8364.327145
3774.276135,689.485948,-370.102971,9474.636058
3774.276450,0.000000,-888.247130,9474.636058
3774.276765,-995.924147,-1406.391290,10140.821405
3774.277079,-1302.362347,-962.267725,10732.986159
3774.277394,-1225.752797,-814.226536,10288.862594
3774.277709,-1072.533697,-1110.308913,10140.821405
3774.278023,-842.705048,-1110.308913,10658.965565
3774.278338,-459.657299,-962.267725,10584.944971
3774.278653,229.828649,-370.102971,9918.759623
3774.278967,919.314598,296.082377,9474.636058
3774.279282,1225.752797,1258.350101,8956.491898
3774.279596,1302.362347,1776.494261,7624.121203
3774.279911,1991.848295,1332.370696,7846.182985
3774.280226,1685.410096,222.061783,9030.512492
3774.280540,229.828649,296.082377,9326.594869
3774.280855,0.000000,-444.123565,9474.636058
3774.281170,-995.924147,-962.267725,10066.800811
3774.281484,-1532.190996,-814.226536,10362.883188
3774.281799,-1838.629195,-592.164754,9844.739029
3774.282114,-1072.533697,-814.226536,10066.800811
3774.282428,-766.095498,-1036.288319,10288.862594
3774.282743,-306.438199,-222.061783,9770.718434
3774.283057,383.047749,222.061783,8882.471304
3774.283372,1532.190996,962.267725,8512.368333
3774.283687,919.314598,1702.473667,8438.347739
3774.284001,995.924147,1628.453072,7920.203579
3774.284316,1302.362347,1258.350101,7994.224174
3774.284631,1072.533697,296.082377,9548.656652
3774.284945,0.000000,148.041188,10066.800811
3774.285260,-995.924147,-148.041188,10362.883188
3774.285575,-1072.533697,296.082377,10955.047942
3774.285889,-1225.752797,444.123565,10807.006753
3774.286204,-1225.752797,444.123565,10436.903782
3774.286518,229.828649,-518.144159,10510.924376
3774.286833,0.000000,-0.000000,10214.842000
3774.287148,0.000000,296.082377,9622.677246
3774.287462,383.047749,1184.329507,9178.553681
3774.287777,995.924147,1480.411884,9178.553681
3774.288092,689.485948,1924.535449,8808.450710
3774.288406,1072.533697,1258.350101,9030.512492
3774.288721,1072.533697,666.185348,9474.636058
3774.289036,766.095498,370.102971,10288.862594
3774.289350,0.000000,370.102971,10288.862594
3774.289665,-995.924147,444.123565,10584.944971
3774.289979,-1149.143247,-0.000000,11473.192101
3774.290294,-766.095498,666.185348,10362.883188
3774.290609,-153.219100,444.123565,10140.821405
3774.290923,842.705048,-0.000000,10140.821405
3774.291238,459.657299,-148.041188,10066.800811
3774.291553,383.047749,740.205942,9548.656652
3774.291867,919.314598,888.247130,9474.636058
3774.292182,995.924147,888.247130,9400.615463
3774.292497,1072.533697,444.123565,9326.594869
3774.292811,1149.143247,740.205942,9104.533087
3774.293126,1302.362347,222.061783,9474.636058
3774.293440,383.047749,518.144159,9548.656652
3774.293755,0.000000,148.041188,9252.574275
3774.294070,-689.485948,-74.020594,9474.636058
3774.294384,-766.095498,-1110.308913,9548.656652
3774.294699,-306.438199,-1184.329507,10066.800811
3774.295014,-306.438199,-962.267725,9474.636058
3774.295328,-459.657299,-1110.308913,9622.677246
3774.295643,-306.438199,-1036.288319,9770.718434
3774.295958,0.000000,-0.000000,9844.739029
3774.296272,76.609550,370.102971,9178.553681
3774.296587,766.095498,-0.000000,9030.512492
3774.296901,842.705048,888.247130,8734.430116
3774.297216,1149.143247,-0.000000,8882.471304
3774.297531,919.314598,-0.000000,8512.368333
3774.297845,153.219100,-518.144159,9178.553681
3774.298160,-306.438199,-666.185348,9252.574275
3774.298475,383.047749,-1110.308913,9696.697840
3774.298789,-612.876398,-666.185348,9622.677246
3774.299104,-919.314598,-962.267725,9548.656652
3774.299419,-689.485948,-888.247130,9400.615463
3774.299733,-919.314598,-1258.350101,9696.697840
3774.300048,-612.876398,-888.247130,10214.842000
3774.300362,-383.047749,-518.144159,10140.821405
3774.300677,0.000000,-74.020594,9992.780217
3774.300992,536.266849,962.267725,9548.656652
3774.301306,766.095498,1628.453072,8216.285956
3774.301621,995.924147,1554.432478,8438.347739
3774.301936,1608.800546,1332.370696,8808.450710
3774.302250,689.485948,814.226536,9326.594869
3774.302565,536.266849,222.061783,8882.471304
3774.302880,0.000000,222.061783,8734.430116
3774.303194,-459.657299,-222.061783,9548.656652
3774.303509,-689.485948,-0.000000,10214.842000
3774.303824,-995.924147,-592.164754,10214.842000
3774.304138,-995.924147,-888.247130,10510.924376
3774.304453,-995.924147,-296.082377,11473.192101
3774.304767,-306.438199,370.102971,10362.883188
3774.305082,-306.438199,1036.288319,10214.842000
3774.305397,306.438199,1628.453072,9770.718434
3774.305711,919.314598,1702.473667,8660.409521
3774.306026,1991.848295,1258.350101,8808.450710
3774.306341,1838.629195,1184.329507,9252.574275
3774.306655,1685.410096,1258.350101,9474.636058
3774.306970,1072.533697,1184.329507,9474.636058
3774.307285,536.266849,666.185348,9474.636058
3774.307599,-153.219100,-0.000000,10436.903782
3774.307914,-459.657299,-370.102971,10732.986159
3774.308228,-919.314598,-592.164754,11103.089130
3774.308543,-1455.581446,-1258.350101,11473.192101
3774.308858,-1149.143247,-370.102971,11103.089130
3774.309172,-459.657299,-444.123565,10732.986159
3774.309487,0.000000,444.123565,10362.883188
3774.309802,153.219100,666.185348,9474.636058
3774.310116,1378.971896,962.267725,8808.450710
3774.310431,2221.676944,1184.329507,8734.430116
3774.310746,2374.896044,1332.370696,9030.512492
3774.311060,1838.629195,1480.411884,8586.388927
3774.311375,1072.533697,518.144159,8808.450710
3774.311689,459.657299,-0.000000,9400.615463
3774.312004,0.000000,-0.000000,9696.697840
3774.312319,-383.047749,-666.185348,9474.636058
3774.312633,-919.314598,-888.247130,9918.759623
3774.312948,-1149.143247,-1110.308913,10881.027347
3774.313263,-1378.971896,-888.247130,10288.862594
3774.313577,-766.095498,-148.041188,9770.718434
3774.313892,-459.657299,-74.020594,9474.636058
3774.314207,536.266849,592.164754,8364.327145
3774.314521,1455.581446,1110.308913,8364.327145
3774.314836,1762.019645,962.267725,8216.285956
3774.315150,1378.971896,592.164754,8660.409521
3774.315465,612.876398,666.185348,8808.450710
3774.315780,842.705048,-0.000000,9178.553681
3774.316094,383.047749,-370.102971,9474.636058
3774.316409,-306.438199,-0.000000,9252.574275
3774.316724,-383.047749,-74.020594,9400.615463
3774.317038,-689.485948,-814.226536,9918.759623
3774.317353,-766.095498,-1110.308913,10140.821405
3774.317668,-842.705048,-740.205942,10140.821405
3774.317982,-459.657299,-740.205942,9622.677246
3774.318297,0.000000,-592.164754,9178.553681
3774.318611,306.438199,370.102971,9326.594869
3774.318926,536.266849,518.144159,8808.450710
3774.319241,766.095498,-0.000000,9030.512492
3774.319555,306.438199,-222.061783,9992.780217
3774.319870,612.876398,-0.000000,9326.594869
3774.320185,0.000000,-0.000000,9770.718434
3774.320499,-612.876398,296.082377,10288.862594
3774.320814,-842.705048,444.123565,9918.759623
3774.321129,-612.876398,-148.041188,9696.697840
3774.321443,-612.876398,-962.267725,10955.047942
3774.321758,-612.876398,-814.226536,10658.965565
3774.322072,-536.266849,-296.082377,9992.780217
3774.322387,-536.266849,-0.000000,9918.759623
3774.322702,0.000000,370.102971,9622.677246
3774.323016,229.828649,592.164754,9622.677246
3774.323331,766.095498,666.185348,9326.594869
3774.323646,612.876398,-0.000000,9622.677246
3774.323960,76.609550,-74.020594,10288.862594
3774.324275,-229.828649,222.061783,10214.842000
3774.324590,0.000000,666.185348,9992.780217
3774.324904,153.219100,592.164754,10140.821405
3774.325219,0.000000,518.144159,9548.656652
3774.325533,689.485948,518.144159,9326.594869
3774.325848,842.705048,518.144159,8734.430116
3774.326163,383.047749,740.205942,9548.656652
3774.326477,306.438199,370.102971,9696.697840
3774.326792,0.000000,222.061783,9252.574275
3774.327107,0.000000,222.061783,9400.615463
3774.327421,229.828649,222.061783,9770.718434
3774.327736,0.000000,444.123565,9474.636058
3774.328051,536.266849,296.082377,9770.718434
3774.328365,76.609550,592.164754,9992.780217
3774.328680,-153.219100,370.102971,10288.862594
3774.328994,0.000000,370.102971,9770.718434
3774.329309,76.609550,592.164754,9474.636058
3774.329624,536.266849,1036.288319,9178.553681
3774.329938,995.924147,222.061783,9178.553681
3774.330253,766.095498,-0.000000,9030.512492
3774.330568,76.609550,-296.082377,9326.594869
3774.330882,0.000000,-222.061783,9696.697840
3774.331197,0.000000,-370.102971,9992.780217
3774.331512,-383.047749,-74.020594,9844.739029
3774.331826,-689.485948,-0.000000,9622.677246
3774.332141,-306.438199,-148.041188,9622.677246
3774.332455,0.000000,-444.123565,10214.842000
3774.332770,0.000000,-74.020594,9844.739029
3774.333085,-383.047749,-0.000000,9696.697840
3774.333399,0.000000,222.061783,9844.739029
3774.333714,76.609550,444.123565,9030.512492
3774.334029,383.047749,444.123565,9474.636058
3774.334343,459.657299,222.061783,9178.553681
3774.334658,306.438199,-0.000000,9326.594869
3774.334973,0.000000,-0.000000,10066.800811
3774.335287,-383.047749,296.082377,9770.718434
3774.335602,-306.438199,-0.000000,9770.718434
3774.335916,-229.828649,814.226536,9622.677246
3774.336231,76.609550,370.102971,9474.636058
3774.336546,536.266849,222.061783,9104.533087
3774.336860,766.095498,148.041188,9326.594869
3774.337175,459.657299,296.082377,9770.718434
3774.337490,306.438199,-0.000000,9030.512492
3774.337804,383.047749,-0.000000,8882.471304
3774.338119,459.657299,148.041188,8660.409521
3774.338434,536.266849,370.102971,8808.450710
3774.338748,536.266849,296.082377,8956.491898
3774.339063,306.438199,-148.041188,9992.780217
3774.339377,0.000000,-296.082377,10288.862594
3774.339692,-689.485948,-296.082377,9696.697840
3774.340007,-383.047749,-148.041188,10066.800811
3774.340321,-536.266849,-222.061783,10288.862594
3774.340636,76.609550,518.144159,9918.759623
3774.340951,459.657299,296.082377,9474.636058
3774.341265,459.657299,296.082377,9474.636058
3774.341580,306.438199,222.061783,9548.656652
3774.341895,306.438199,-0.000000,9474.636058
3774.342209,689.485948,-0.000000,9548.656652
3774.342524,383.047749,-0.000000,9474.636058
3774.342838,229.828649,-74.020594,9178.553681
3774.343153,229.828649,-592.164754,9400.615463
3774.343468,-459.657299,-666.185348,10214.842000
3774.343782,-842.705048,-518.144159,10362.883188
3774.344097,-459.657299,-666.185348,10362.883188
3774.344412,-612.876398,-74.020594,9844.739029
3774.344726,-153.219100,-0.000000,9918.759623
3774.345041,689.485948,222.061783,9252.574275
3774.345356,919.314598,-74.020594,9252.574275
3774.345670,689.485948,-0.000000,9474.636058
3774.345985,459.657299,370.102971,9548.656652
3774.346299,383.047749,444.123565,9030.512492
3774.346614,766.095498,592.164754,9548.656652
3774.346929,459.657299,592.164754,9252.574275
3774.347243,459.657299,444.123565,9104.533087
3774.347558,612.876398,-0.000000,9400.615463
3774.347873,-383.047749,-74.020594,10362.883188
3774.348187,-229.828649,-444.123565,9992.780217
3774.348502,0.000000,-370.102971,9474.636058
3774.348817,0.000000,-0.000000,9104.533087
3774.349131,0.000000,-0.000000,8808.450710
3774.349446,689.485948,-666.185348,8734.430116
3774.349760,383.047749,-74.020594,9178.553681
3774.350075,153.219100,-0.000000,9696.697840
3774.350390,-229.828649,370.102971,9400.615463
3774.350704,229.828649,518.144159,9474.636058
3774.351019,612.876398,222.061783,10288.862594
3774.351334,76.609550,666.185348,9474.636058
3774.351648,0.000000,-0.000000,9474.636058
3774.351963,536.266849,296.082377,9622.677246
3774.352278,459.657299,296.082377,9992.780217
3774.352592,306.438199,1110.308913,9326.594869
3774.352907,0.000000,888.247130,9474.636058
3774.353222,76.609550,296.082377,9178.553681
3774.353536,0.000000,148.041188,8956.491898
3774.353851,-919.314598,-148.041188,9326.594869
3774.354165,0.000000,-444.123565,9696.697840
3774.354480,-842.705048,-740.205942,10436.903782
3774.354795,-1149.143247,-222.061783,11029.068536
3774.355109,-842.705048,-0.000000,10881.027347
3774.355424,-459.657299,370.102971,10732.986159
3774.355739,0.000000,814.226536,10288.862594
3774.356053,919.314598,1110.308913,9474.636058
3774.356368,1072.533697,666.185348,9474.636058
3774.356683,459.657299,962.267725,9400.615463
3774.356997,995.924147,1332.370696,9474.636058
3774.357312,842.705048,740.205942,9326.594869
3774.357626,766.095498,444.123565,9400.615463
3774.357941,689.485948,592.164754,8808.450710
3774.358256,766.095498,-444.123565,9252.574275
3774.358570,0.000000,-666.185348,10510.924376
3774.358885,-1149.143247,-888.247130,11399.171507
3774.359200,-1302.362347,-518.144159,11029.068536
3774.359514,-1149.143247,-518.144159,11029.068536
3774.359829,-536.266849,-0.000000,10881.027347
3774.360144,459.657299,814.226536,9474.636058
3774.360458,1225.752797,592.164754,9030.512492
3774.360773,1225.752797,444.123565,9104.533087
3774.361087,1532.190996,1258.350101,8364.327145
3774.361402,1608.800546,1184.329507,8290.306550
3774.361717,1225.752797,888.247130,8734.430116
3774.362031,919.314598,148.041188,8808.450710
3774.362346,0.000000,-0.000000,8660.409521
3774.362661,-919.314598,-814.226536,9770.718434
3774.362975,-995.924147,-1480.411884,11029.068536
3774.363290,-1608.800546,-1110.308913,11399.171507
3774.363605,-1532.190996,-814.226536,11029.068536
3774.363919,-995.924147,-592.164754,10288.862594
3774.364234,-229.828649,-0.000000,9770.718434
3774.364548,1149.143247,296.082377,9474.636058
3774.364863,1532.190996,444.123565,8586.388927
3774.365178,1532.190996,1036.288319,8734.430116
3774.365492,1762.019645,1110.308913,8512.368333
3774.365807,1608.800546,962.267725,8364.327145
3774.366122,1532.190996,666.185348,9030.512492
3774.366436,459.657299,592.164754,9104.533087
3774.366751,153.219100,222.061783,9400.615463
3774.367066,-383.047749,-666.185348,9770.718434
3774.367380,-766.095498,-1258.350101,10732.986159
3774.367695,-1072.533697,-1702.473667,11103.089130
3774.368009,-1532.190996,-888.247130,10362.883188
3774.368324,-1149.143247,-814.226536,10584.944971
3774.368639,-612.876398,74.020594,9770.718434
3774.368953,459.657299,592.164754,9400.615463
3774.369268,1072.533697,592.164754,9326.594869
3774.369583,1455.581446,1036.288319,9104.533087
3774.369897,1302.362347,1036.288319,8660.409521
3774.370212,995.924147,1036.288319,9252.574275
3774.370527,1149.143247,518.144159,9030.512492
3774.370841,383.047749,592.164754,9400.615463
3774.371156,229.828649,-0.000000,9178.553681
3774.371470,0.000000,-148.041188,9844.739029
3774.371785,-842.705048,-222.061783,9696.697840
3774.372100,-1455.581446,-666.185348,10140.821405
3774.372414,-1378.971896,-888.247130,10362.883188
3774.372729,-1378.971896,-740.205942,10510.924376
3774.373043,-1072.533697,-0.000000,10214.842000
3774.373358,-383.047749,-148.041188,9918.759623
3774.373672,306.438199,444.123565,9252.574275
3774.373987,536.266849,740.205942,9474.636058
3774.374302,689.485948,1332.370696,9844.739029
3774.374616,919.314598,1406.391290,8734.430116
3774.374931,842.705048,2072.576638,8956.491898
3774.375245,919.314598,1998.556043,8808.450710
3774.375560,689.485948,962.267725,8734.430116
3774.375874,153.219100,-370.102971,9474.636058
3774.376189,-306.438199,-1110.308913,10066.800811
3774.376504,-919.314598,-666.185348,10214.842000
3774.376818,-1608.800546,-740.205942,9918.759623
3774.377133,-1532.190996,-592.164754,10584.944971
3774.377447,-1608.800546,148.041188,10288.862594
3774.377762,-459.657299,-148.041188,10214.842000
3774.378076,-229.828649,-222.061783,9992.780217
3774.378391,612.876398,-148.041188,10510.924376
3774.378706,459.657299,740.205942,9918.759623
3774.379020,995.924147,1406.391290,9474.636058
3774.379335,1378.971896,2072.576638,9030.512492
3774.379649,1838.629195,1850.514855,8364.327145
3774.379964,2451.505594,962.267725,8438.347739
3774.380278,1915.238745,444.123565,9030.512492
3774.380593,919.314598,-74.020594,9474.636058
3774.380908,0.000000,-296.082377,9548.656652
3774.381222,-919.314598,-814.226536,10214.842000
3774.381537,-995.924147,-1776.494261,10436.903782
3774.381851,-1302.362347,-1036.288319,10066.800811
3774.382166,-766.095498,-1628.453072,10288.862594
3774.382480,-383.047749,-1628.453072,10288.862594
3774.382795,-229.828649,-370.102971,10066.800811
3774.383110,766.095498,814.226536,9548.656652
3774.383424,1302.362347,1184.329507,9030.512492
3774.383739,1685.410096,1702.473667,7920.203579
3774.384053,1608.800546,1110.308913,7994.224174
3774.384368,1838.629195,962.267725,7920.203579
3774.384682,1455.581446,-222.061783,9326.594869
3774.384997,383.047749,-74.020594,10140.821405
3774.385312,-306.438199,-222.061783,9548.656652
3774.385626,-995.924147,-592.164754,9844.739029
3774.385941,-1455.581446,-1036.288319,10732.986159
3774.386255,-995.924147,-592.164754,10584.944971
3774.386570,-1072.533697,-1036.288319,10584.944971
3774.386884,-689.485948,-888.247130,10066.800811
3774.387199,-229.828649,296.082377,9474.636058
3774.387514,612.876398,962.267725,8290.306550
3774.387828,1685.410096,1110.308913,7772.162391
3774.388143,1838.629195,1480.411884,7994.224174
3774.388457,1685.410096,1184.329507,7772.162391
3774.388772,1608.800546,592.164754,8068.244768
3774.389086,612.876398,444.123565,9178.553681
3774.389401,-306.438199,-0.000000,9992.780217
3774.389716,-995.924147,-296.082377,10732.986159
3774.390030,-1072.533697,-296.082377,11177.109724
3774.390345,-1378.971896,-148.041188,11177.109724
3774.390659,-1532.190996,-74.020594,10584.944971
3774.390974,-1302.362347,-370.102971,10732.986159
3774.391288,-612.876398,-74.020594,10510.924376
3774.391603,0.000000,888.247130,9696.697840
3774.391917,383.047749,1258.350101,9104.533087
3774.392232,1225.752797,1110.308913,9030.512492
3774.392547,842.705048,1406.391290,8808.450710
3774.392861,995.924147,1184.329507,8068.244768
3774.393176,689.485948,814.226536,8808.450710
3774.393490,229.828649,296.082377,9474.636058
3774.393805,-153.219100,-444.123565,10362.883188
3774.394119,-1072.533697,-444.123565,10658.965565
3774.394434,-1532.190996,-740.205942,10955.047942
3774.394749,-1608.800546,-370.102971,10955.047942
3774.395063,-1072.533697,-444.123565,10214.842000
3774.395378,-383.047749,-74.020594,10288.862594
3774.395692,0.000000,-296.082377,10436.903782
3774.396007,689.485948,814.226536,9400.615463
3774.396321,995.924147,888.247130,8512.368333
3774.396636,1608.800546,1554.432478,8882.471304
3774.396951,1685.410096,1628.453072,8586.388927
3774.397265,1685.410096,1628.453072,8290.306550
3774.397580,1302.362347,-148.041188,9104.533087
3774.397894,689.485948,-666.185348,10140.821405
3774.398209,0.000000,-1554.432478,10584.944971
3774.398523,-995.924147,-666.185348,10732.986159
3774.398838,-995.924147,-296.082377,10881.027347
3774.399153,-919.314598,-148.041188,10732.986159
3774.399467,-383.047749,-74.020594,9474.636058
3774.399782,612.876398,-444.123565,9696.697840
3774.400096,766.095498,-148.041188,9696.697840
3774.400411,995.924147,-0.000000,9474.636058
3774.400725,1532.190996,814.226536,9326.594869
3774.401040,1532.190996,962.267725,9030.512492
3774.401355,1762.019645,1480.411884,8882.471304
3774.401669,1685.410096,1110.308913,8734.430116
3774.401984,919.314598,370.102971,9474.636058
3774.402298,536.266849,-296.082377,10140.821405
3774.402613,0.000000,-444.123565,9992.780217
3774.402927,-306.438199,-74.020594,9696.697840
3774.403242,-689.485948,-592.164754,10584.944971
3774.403557,-612.876398,-296.082377,10362.883188
3774.403871,-459.657299,-222.061783,9474.636058
3774.404186,383.047749,-1332.370696,10066.800811
3774.404500,-229.828649,-666.185348,10362.883188
3774.404815,229.828649,222.061783,9696.697840
3774.405129,842.705048,592.164754,9400.615463
3774.405444,536.266849,518.144159,8956.491898
3774.405759,1072.533697,888.247130,8512.368333
3774.406073,842.705048,518.144159,8734.430116
3774.406388,689.485948,-74.020594,9326.594869
3774.406702,0.000000,-0.000000,9252.574275
3774.407017,-229.828649,-0.000000,9474.636058
3774.407331,-536.266849,-222.061783,9622.677246
3774.407646,-1072.533697,-666.185348,9474.636058
3774.407960,-766.095498,-1036.288319,9622.677246
3774.408275,-1072.533697,-1332.370696,9622.677246
3774.408590,-766.095498,-1184.329507,9992.780217
3774.408904,-842.705048,-74.020594,10214.842000
3774.409219,-306.438199,222.061783,10066.800811
3774.409533,0.000000,296.082377,9918.759623
3774.409848,536.266849,1258.350101,9474.636058
3774.410162,1149.143247,1702.473667,8882.471304
3774.410477,1225.752797,1776.494261,8512.368333
3774.410792,1225.752797,1258.350101,8956.491898
3774.411106,536.266849,962.267725,9104.533087
3774.411421,0.000000,222.061783,8956.491898
3774.411735,-612.876398,-148.041188,9400.615463
3774.412050,-1149.143247,-518.144159,9696.697840
3774.412364,-1915.238745,-518.144159,10140.821405
3774.412679,-1378.971896,-666.185348,10214.842000
3774.412994,-1225.752797,-814.226536,10658.965565
3774.413308,-1455.581446,-666.185348,10584.944971
3774.413623,-1149.143247,148.041188,10362.883188
3774.413937,-306.438199,1110.308913,9770.718434
3774.414252,153.219100,2072.576638,9252.574275
3774.414566,1149.143247,1628.453072,8438.347739
3774.414881,1991.848295,1258.350101,8142.265362
3774.415196,1991.848295,1110.308913,9030.512492
3774.415510,1378.971896,1110.308913,9474.636058
3774.415825,612.876398,1110.308913,9622.677246
3774.416139,383.047749,-0.000000,9770.718434
3774.416454,0.000000,-74.020594,10362.883188
3774.416768,-919.314598,-222.061783,10362.883188
3774.417083,-1225.752797,-1258.350101,10584.944971
3774.417398,-995.924147,-1332.370696,11103.089130
3774.417712,-766.095498,-666.185348,11177.109724
3774.418027,0.000000,-0.000000,9918.759623
3774.418341,153.219100,296.082377,9400.615463
3774.418656,919.314598,1110.308913,9104.533087
3774.418970,1838.629195,888.247130,8586.388927
3774.419285,2451.505594,1036.288319,8290.306550
3774.419600,2221.676944,1036.288319,8882.471304
3774.419914,1455.581446,518.144159,9030.512492
3774.420229,995.924147,-0.000000,9326.594869
3774.420543,153.219100,-0.000000,9992.780217
3774.420858,-459.657299,-0.000000,10140.821405
3774.421172,-842.705048,-444.123565,10214.842000
3774.421487,-536.266849,-1110.308913,10658.965565
3774.421802,-612.876398,-888.247130,10955.047942
3774.422116,-612.876398,-370.102971,10584.944971
3774.422431,76.609550,-0.000000,9844.739029
3774.422745,536.266849,-222.061783,9622.677246
3774.423060,919.314598,962.267725,9178.553681
3774.423374,2068.457845,888.247130,8364.327145
3774.423689,2374.896044,370.102971,7920.203579
3774.424003,1685.410096,222.061783,8660.409521
3774.424318,1455.581446,-0.000000,9178.553681
3774.424633,1072.533697,-0.000000,9178.553681
3774.424947,229.828649,222.061783,9918.759623
3774.425262,0.000000,-74.020594,9622.677246
3774.425576,-459.657299,-740.205942,9400.615463
3774.425891,-536.266849,-1036.288319,9770.718434
3774.426205,-842.705048,-962.267725,10807.006753
3774.426520,-1532.190996,-518.144159,9918.759623
3774.426835,-1149.143247,-444.123565,9992.780217
3774.427149,-766.095498,-222.061783,9696.697840
3774.427464,0.000000,518.144159,9030.512492
3774.427778,536.266849,518.144159,8956.491898
3774.428093,459.657299,222.061783,9252.574275
3774.428407,153.219100,296.082377,10066.800811
3774.428722,153.219100,444.123565,9474.636058
3774.429037,-459.657299,518.144159,9474.636058
3774.429351,-383.047749,370.102971,9696.697840
3774.429666,-459.657299,222.061783,9252.574275
3774.429980,-612.876398,-518.144159,9474.636058
3774.430295,-919.314598,-1332.370696,10066.800811
3774.430609,-1225.752797,-1406.391290,10066.800811
3774.430924,-1225.752797,-666.185348,9622.677246
3774.431239,-842.705048,-444.123565,9548.656652
3774.431553,-689.485948,-222.061783,9474.636058
3774.431868,0.000000,-0.000000,9030.512492
3774.432182,306.438199,296.082377,9104.533087
3774.432497,306.438199,-0.000000,9696.697840
3774.432811,306.438199,370.102971,9844.739029
3774.433126,0.000000,962.267725,9474.636058
3774.433441,229.828649,518.144159,9548.656652
3774.433755,76.609550,666.185348,10584.944971
3774.434070,0.000000,666.185348,9400.615463
3774.434384,766.095498,444.123565,9178.553681
3774.434699,383.047749,592.164754,9770.718434
3774.435013,229.828649,740.205942,9548.656652
3774.435328,153.219100,296.082377,10140.821405
3774.435643,0.000000,222.061783,9622.677246
3774.435957,229.828649,370.102971,9844.739029
3774.436272,383.047749,518.144159,9104.533087
3774.436586,229.828649,592.164754,8734.430116
3774.436901,766.095498,370.102971,9770.718434
3774.437215,383.047749,518.144159,9770.718434
3774.437530,153.219100,740.205942,9622.677246
3774.437845,536.266849,518.144159,9548.656652
3774.438159,536.266849,666.185348,9770.718434
3774.438474,612.876398,1110.308913,9474.636058
3774.438788,842.705048,888.247130,9326.594869
3774.439103,919.314598,444.123565,9696.697840
3774.439417,383.047749,518.144159,10066.800811
3774.439732,153.219100,592.164754,10140.821405
3774.440047,76.609550,370.102971,9918.759623
3774.440361,0.000000,518.144159,9696.697840
3774.440676,229.828649,370.102971,9844.739029
3774.440990,766.095498,-0.000000,9474.636058
3774.441305,612.876398,-0.000000,10214.842000
3774.441619,76.609550,-0.000000,9918.759623
3774.441934,229.828649,444.123565,9326.594869
3774.442248,612.876398,-0.000000,9400.615463
3774.442563,766.095498,-0.000000,9474.636058
3774.442878,1225.752797,296.082377,8660.409521
3774.443192,995.924147,-0.000000,8734.430116
3774.443507,766.095498,-74.020594,9326.594869
3774.443821,-383.047749,-222.061783,10288.862594
3774.444136,0.000000,592.164754,9844.739029
3774.444450,-306.438199,-0.000000,11103.089130
3774.444765,-383.047749,370.102971,9770.718434
3774.445080,0.000000,-0.000000,9992.780217
3774.445394,383.047749,-148.041188,9770.718434
3774.445709,0.000000,-148.041188,9696.697840
3774.446023,0.000000,814.226536,9918.759623
3774.446338,0.000000,592.164754,9474.636058
3774.446652,0.000000,518.144159,9474.636058
3774.446967,0.000000,222.061783,9178.553681
3774.447282,0.000000,518.144159,8586.388927
3774.447596,76.609550,-444.123565,9326.594869
3774.447911,-459.657299,-518.144159,9844.739029
3774.448225,-689.485948,-740.205942,9770.718434
3774.448540,-842.705048,-814.226536,9474.636058
3774.448854,-689.485948,-222.061783,10140.821405
3774.449169,-459.657299,-148.041188,9918.759623
3774.449484,-306.438199,-296.082377,9030.512492
3774.449798,0.000000,-0.000000,8956.491898
3774.450113,612.876398,-148.041188,9326.594869
3774.450427,0.000000,-222.061783,9178.553681
3774.450742,0.000000,-296.082377,9326.594869
3774.451056,76.609550,296.082377,9326.594869
3774.451371,-229.828649,148.041188,9030.512492
3774.451686,0.000000,-296.082377,9474.636058
3774.452000,-459.657299,-518.144159,9770.718434
3774.452315,-306.438199,-666.185348,9992.780217
3774.452629,-383.047749,-370.102971,9400.615463
3774.452944,0.000000,-592.164754,9844.739029
3774.453258,-229.828649,-0.000000,9474.636058
3774.453573,153.219100,-0.000000,8956.491898
3774.453888,612.876398,-0.000000,8660.409521
3774.454202,842.705048,-370.102971,8808.450710
3774.454517,1225.752797,-814.226536,8882.471304
3774.454831,919.314598,444.123565,8882.471304
3774.455146,383.047749,74.020594,9770.718434
3774.455460,306.438199,296.082377,10288.862594
3774.455775,536.266849,592.164754,9992.780217
3774.456090,612.876398,-0.000000,9770.718434
3774.456404,689.485948,-370.102971,10288.862594
3774.456719,153.219100,-0.000000,10214.842000
3774.457033,459.657299,370.102971,9844.739029
3774.457348,689.485948,-0.000000,9622.677246
3774.457662,459.657299,888.247130,9326.594869
3774.457977,536.266849,1036.288319,8660.409521
3774.458291,689.485948,296.082377,8956.491898
3774.458606,689.485948,222.061783,9622.677246
3774.458921,612.876398,-222.061783,10436.903782
3774.459235,0.000000,444.123565,9992.780217
3774.459550,0.000000,222.061783,10140.821405
3774.459864,229.828649,1036.288319,10214.842000
3774.460179,0.000000,740.205942,9992.780217
3774.460493,229.828649,592.164754,9844.739029
3774.460808,306.438199,370.102971,9770.718434
3774.461123,459.657299,1184.329507,9400.615463
3774.461437,153.219100,1036.288319,9178.553681
3774.461752,383.047749,222.061783,9474.636058
3774.462066,229.828649,1036.288319,8734.430116
3774.462381,153.219100,296.082377,8882.471304
3774.462695,306.438199,-0.000000,9178.553681
3774.463010,0.000000,-518.144159,10288.862594
3774.463325,-766.095498,296.082377,10436.903782
3774.463639,-1302.362347,-0.000000,10140.821405
3774.463954,-689.485948,592.164754,10362.883188
3774.464268,-689.485948,-0.000000,10288.862594
3774.464583,0.000000,518.144159,9474.636058
3774.464897,459.657299,1036.288319,9548.656652
3774.465212,0.000000,740.205942,9104.533087
3774.465527,842.705048,1258.350101,9030.512492
3774.465841,612.876398,740.205942,8512.368333
3774.466156,1072.533697,444.123565,9548.656652
3774.466470,76.609550,592.164754,9104.533087
3774.466785,0.000000,296.082377,8956.491898
3774.467099,153.219100,-814.226536,9918.759623
3774.467414,-689.485948,-592.164754,10807.006753
3774.467729,-1532.190996,-518.144159,11103.089130
3774.468043,-1685.410096,-518.144159,10732.986159
3774.468358,-919.314598,-740.205942,10732.986159
3774.468672,-76.609550,222.061783,10214.842000
3774.468987,229.828649,592.164754,9622.677246
3774.469301,689.485948,666.185348,9030.512492
3774.469616,995.924147,370.102971,9400.615463
3774.469931,1072.533697,814.226536,8808.450710
3774.470245,1608.800546,518.144159,8808.450710
3774.470560,1302.362347,518.144159,8882.471304
3774.470874,919.314598,74.020594,9030.512492
3774.471189,306.438199,-0.000000,8956.491898
3774.471503,0.000000,-1258.350101,10066.800811
3774.471818,-995.924147,-1036.288319,11029.068536
3774.472133,-1532.190996,-1036.288319,10807.006753
3774.472447,-1378.971896,-1480.411884,10955.047942
3774.472762,-1072.533697,-1184.329507,10436.903782
3774.473076,-383.047749,-148.041188,9844.739029
3774.473391,536.266849,296.082377,8956.491898
3774.473706,1149.143247,296.082377,8364.327145
3774.474021,1991.848295,518.144159,9252.574275
3774.474335,1608.800546,740.205942,7698.141797
3774.474650,2068.457845,370.102971,7994.224174
3774.474965,1532.190996,814.226536,9252.574275
3774.475279,306.438199,592.164754,9030.512492
3774.475594,306.438199,-74.020594,9178.553681
3774.475909,-306.438199,-1036.288319,9992.780217
3774.476223,-842.705048,-1184.329507,10955.047942
3774.476538,-1378.971896,-1998.556043,10584.944971
3774.476853,-995.924147,-1406.391290,10140.821405
3774.477167,-1072.533697,-666.185348,10362.883188
3774.477482,-612.876398,-222.061783,9696.697840
3774.477797,0.000000,-148.041188,9622.677246
3774.478112,1302.362347,518.144159,9474.636058
3774.478426,1072.533697,740.205942,9400.615463
3774.478741,1532.190996,1258.350101,8586.388927
3774.479056,1532.190996,1184.329507,8734.430116
3774.479370,1838.629195,1554.432478,9252.574275
3774.479685,919.314598,1332.370696,9104.533087
3774.480000,383.047749,962.267725,9178.553681
3774.480314,229.828649,-148.041188,9696.697840
3774.480629,-689.485948,-444.123565,10362.883188
3774.480944,-1225.752797,-814.226536,10288.862594
3774.481258,-2145.067394,-666.185348,10732.986159
3774.481573,-2221.676944,-814.226536,10658.965565
3774.481888,-1838.629195,-444.123565,9696.697840
3774.482202,0.000000,-518.144159,9844.739029
3774.482517,-229.828649,-370.102971,9918.759623
3774.482832,0.000000,-0.000000,9992.780217
3774.483147,306.438199,888.247130,9030.512492
3774.483461,536.266849,1554.432478,9030.512492
3774.483776,995.924147,2220.617826,9104.533087
3774.484091,995.924147,2072.576638,8216.285956
3774.484405,1455.581446,1480.411884,8290.306550
3774.484720,842.705048,592.164754,9252.574275
3774.485035,0.000000,-296.082377,9770.718434
3774.485349,-1685.410096,-592.164754,9770.718434
3774.485664,-1838.629195,-666.185348,10288.862594
3774.485979,-1608.800546,-444.123565,10881.027347
3774.486293,-1225.752797,-0.000000,10510.924376
3774.486608,0.000000,-222.061783,9918.759623
3774.486923,0.000000,-0.000000,10214.842000
3774.487238,0.000000,296.082377,10066.800811
3774.487552,1072.533697,1406.391290,9252.574275
3774.487867,1532.190996,1776.494261,9252.574275
3774.488182,1762.019645,1776.494261,8734.430116
3774.488496,2451.505594,1702.473667,8586.388927
3774.488811,2374.896044,1480.411884,8512.368333
3774.489126,1838.629195,518.144159,9696.697840
3774.489440,612.876398,370.102971,9696.697840
3774.489755,383.047749,-222.061783,9992.780217
3774.490070,-229.828649,-444.123565,10807.006753
3774.490384,-766.095498,-518.144159,10436.903782
3774.490699,-1072.533697,-962.267725,10881.027347
3774.491014,-612.876398,-1036.288319,10362.883188
3774.491328,-229.828649,-814.226536,10510.924376
3774.491643,76.609550,-74.020594,10436.903782
3774.491958,842.705048,592.164754,9474.636058
3774.492273,1685.410096,1332.370696,9178.553681
3774.492587,1608.800546,1480.411884,7920.203579
3774.492902,1991.848295,814.226536,7846.182985
3774.493217,2145.067394,-0.000000,7994.224174
3774.493531,1225.752797,-74.020594,9622.677246
3774.493846,0.000000,-666.185348,9844.739029
3774.494161,-612.876398,-1110.308913,10140.821405
3774.494475,-842.705048,-1332.370696,10807.006753
3774.494790,-1455.581446,-1110.308913,10658.965565
3774.495105,-1455.581446,-888.247130,10140.821405
3774.495419,-995.924147,-1258.350101,10362.883188
3774.495734,-842.705048,-296.082377,10214.842000
3774.496049,-229.828649,-148.041188,9474.636058
3774.496364,383.047749,370.102971,8808.450710
3774.496678,919.314598,518.144159,8734.430116
3774.496993,1302.362347,1184.329507,8290.306550
3774.497308,1455.581446,1036.288319,7476.080014
3774.497622,1608.800546,296.082377,8882.471304
3774.497937,383.047749,296.082377,9252.574275
3774.498252,-612.876398,-296.082377,9622.677246
3774.498566,-995.924147,-814.226536,10214.842000
3774.498881,-1302.362347,-1332.370696,10510.924376
3774.499196,-1378.971896,-888.247130,10807.006753
3774.499510,-1225.752797,-888.247130,10140.821405
3774.499825,-536.266849,-814.226536,10140.821405
3774.500140,-306.438199,-370.102971,9918.759623
3774.500455,459.657299,592.164754,9030.512492
3774.500769,1225.752797,518.144159,8660.409521
3774.501084,1378.971896,1110.308913,8364.327145
3774.501399,2068.457845,1554.432478,8142.265362
3774.501713,1991.848295,1184.329507,7920.203579
3774.502028,1838.629195,370.102971,8660.409521
3774.502343,842.705048,444.123565,9844.739029
3774.502657,-229.828649,-0.000000,10510.924376
3774.502972,-1225.752797,-296.082377,10881.027347
3774.503287,-1378.971896,-148.041188,10881.027347
3774.503601,-1762.019645,-222.061783,10732.986159
3774.503916,-1532.190996,-666.185348,10288.862594
3774.504231,-995.924147,-962.267725,10658.965565
3774.504545,-536.266849,-592.164754,10436.903782
3774.504860,153.219100,444.123565,9474.636058
3774.505175,766.095498,1480.411884,8808.450710
3774.505490,1302.362347,1924.535449,8660.409521
3774.505804,1762.019645,1998.556043,7920.203579
3774.506119,1838.629195,1110.308913,8660.409521
3774.506434,1302.362347,148.041188,9918.759623
3774.506748,306.438199,444.123565,10214.842000
3774.507063,-459.657299,222.061783,10288.862594
3774.507378,-842.705048,-74.020594,10658.965565
3774.507692,-919.314598,-74.020594,10955.047942
3774.508007,-459.657299,-296.082377,10510.924376
3774.508322,-612.876398,-296.082377,10288.862594
3774.508636,-229.828649,-222.061783,10362.883188
3774.508951,0.000000,518.144159,10066.800811
3774.509266,612.876398,1036.288319,9252.574275
3774.509581,995.924147,962.267725,9326.594869
3774.509895,1225.752797,1480.411884,9104.533087
3774.510210,1685.410096,1406.391290,8808.450710
3774.510525,1838.629195,1110.308913,8956.491898
3774.510839,1455.581446,740.205942,9770.718434
3774.511154,383.047749,740.205942,9622.677246
3774.511469,0.000000,-0.000000,9696.697840
3774.511783,0.000000,-444.123565,10140.821405
3774.512098,-689.485948,-740.205942,10510.924376
3774.512413,-689.485948,-666.185348,9844.739029
3774.512727,-842.705048,-1406.391290,9696.697840
3774.513042,-766.095498,-888.247130,10584.944971
3774.513357,-612.876398,-592.164754,10362.883188
3774.513672,0.000000,-0.000000,9770.718434
3774.513986,536.266849,-222.061783,10140.821405
3774.514301,689.485948,814.226536,9474.636058
3774.514616,1225.752797,962.267725,8142.265362
3774.514930,1149.143247,888.247130,8660.409521
3774.515245,1302.362347,-0.000000,9030.512492
3774.515560,0.000000,-814.226536,9104.533087
3774.515874,0.000000,-666.185348,8660.409521
3774.516189,-612.876398,-740.205942,9400.615463
3774.516504,-766.095498,-888.247130,10140.821405
3774.516818,-842.705048,-740.205942,9400.615463
3774.517133,-842.705048,-1406.391290,9918.759623
3774.517448,-766.095498,-1480.411884,9992.780217
3774.517762,-612.876398,-888.247130,10510.924376
3774.518077,0.000000,-148.041188,9474.636058
3774.518392,612.876398,518.144159,9474.636058
3774.518707,842.705048,1554.432478,8586.388927
3774.519021,1149.143247,1480.411884,7920.203579
3774.519336,1762.019645,1036.288319,8216.285956
3774.519651,1302.362347,370.102971,8956.491898
3774.519965,383.047749,148.041188,8956.491898
3774.520280,459.657299,-0.000000,8956.491898
3774.520595,-536.266849,-0.000000,9474.636058
3774.520909,-766.095498,-444.123565,9918.759623
3774.521224,-842.705048,-592.164754,10140.821405
3774.521539,-766.095498,-740.205942,10436.903782
3774.521853,-1302.362347,-740.205942,10881.027347
3774.522168,-1378.971896,-370.102971,10732.986159
3774.522483,-536.266849,444.123565,10288.862594
3774.522798,0.000000,1184.329507,9992.780217
3774.523112,459.657299,1776.494261,9104.533087
3774.523427,1378.971896,1554.432478,8290.306550
3774.523742,1762.019645,1036.288319,8734.430116
3774.524056,1378.971896,1184.329507,9400.615463
3774.524371,689.485948,962.267725,9252.574275
3774.524686,0.000000,666.185348,9400.615463
3774.525000,-536.266849,370.102971,10881.027347
3774.525315,-1149.143247,-148.041188,10288.862594
3774.525630,-919.314598,-666.185348,10510.924376
3774.525944,-1378.971896,-1110.308913,10955.047942
3774.526259,-1378.971896,-1258.350101,11325.150913
3774.526574,-1455.581446,-740.205942,11103.089130
3774.526888,-383.047749,222.061783,10066.800811
3774.527203,0.000000,370.102971,10066.800811
3774.527518,612.876398,888.247130,8216.285956
3774.527833,1378.971896,592.164754,8364.327145
3774.528147,2068.457845,1258.350101,9178.553681
3774.528462,1302.362347,814.226536,8956.491898
3774.528777,1225.752797,962.267725,8438.347739
3774.529091,995.924147,-0.000000,9252.574275
3774.529406,1072.533697,-0.000000,9844.739029
3774.529721,-229.828649,-296.082377,9770.718434
3774.530035,-383.047749,-296.082377,9918.759623
3774.530350,-689.485948,-1036.288319,11103.089130
3774.530665,-1225.752797,-444.123565,10807.006753
3774.530979,-1149.143247,-666.185348,10214.842000
3774.531294,-306.438199,-370.102971,9622.677246
3774.531609,0.000000,148.041188,9548.656652
3774.531924,536.266849,888.247130,8882.471304
3774.532238,1685.410096,814.226536,8512.368333
3774.532553,2757.943793,740.205942,8808.450710
3774.532868,1302.362347,370.102971,8586.388927
3774.533182,995.924147,370.102971,8364.327145
3774.533497,842.705048,444.123565,9474.636058
3774.533812,153.219100,518.144159,9992.780217
3774.534126,306.438199,-0.000000,9104.533087
3774.534441,-383.047749,-222.061783,9548.656652
3774.534756,76.609550,-592.164754,10140.821405
3774.535070,-459.657299,-814.226536,10066.800811
3774.535385,-689.485948,-444.123565,9770.718434
3774.535700,-229.828649,-518.144159,9918.759623
3774.536015,0.000000,-0.000000,9178.553681
3774.536329,0.000000,370.102971,8882.471304
3774.536644,536.266849,296.082377,9030.512492
3774.536959,612.876398,-0.000000,9252.574275
3774.537273,842.705048,-148.041188,9400.615463
3774.537588,766.095498,370.102971,9474.636058
3774.537903,0.000000,-0.000000,9992.780217
3774.538217,-306.438199,592.164754,10214.842000
3774.538532,-383.047749,370.102971,9104.533087
3774.538847,-229.828649,-592.164754,9844.739029
3774.539161,-459.657299,-592.164754,10214.842000
3774.539476,-919.314598,-592.164754,10436.903782
3774.539791,-536.266849,-74.020594,9918.759623
3774.540105,-153.219100,-0.000000,9696.697840
3774.540420,-459.657299,222.061783,9474.636058
3774.540735,-459.657299,-0.000000,9548.656652
3774.541050,0.000000,444.123565,9252.574275
3774.541364,229.828649,-444.123565,10214.842000
3774.541679,0.000000,-0.000000,9696.697840
3774.541994,0.000000,370.102971,9548.656652
3774.542308,76.609550,1036.288319,9844.739029
3774.542623,229.828649,1480.411884,9992.780217
3774.542938,383.047749,1332.370696,9252.574275
3774.543252,689.485948,-0.000000,9696.697840
3774.543567,383.047749,518.144159,9326.594869
3774.543882,-153.219100,518.144159,8956.491898
3774.544196,-153.219100,296.082377,9770.718434
3774.544511,0.000000,222.061783,10140.821405
3774.544826,-306.438199,148.041188,9844.739029
3774.545141,-306.438199,444.123565,9030.512492
3774.545455,0.000000,296.082377,9696.697840
3774.545770,76.609550,-0.000000,10288.862594
3774.546085,-229.828649,296.082377,9918.759623
3774.546399,229.828649,888.247130,9918.759623
3774.546714,0.000000,740.205942,9844.739029
3774.547029,306.438199,1258.350101,9474.636058
3774.547343,766.095498,888.247130,8808.450710
3774.547658,766.095498,-0.000000,9178.553681
3774.547973,689.485948,-0.000000,9474.636058
3774.548287,0.000000,370.102971,9252.574275
3774.548602,-229.828649,-296.082377,9696.697840
3774.548917,-229.828649,-74.020594,10362.883188
3774.549231,-459.657299,-444.123565,10066.800811
3774.549546,-229.828649,-592.164754,9770.718434
3774.549861,0.000000,-444.123565,10140.821405
3774.550176,229.828649,-370.102971,10214.842000
3774.550490,383.047749,-0.000000,9474.636058
3774.550805,383.047749,444.123565,9474.636058
3774.551120,766.095498,1184.329507,8734.430116
3774.551434,1072.533697,666.185348,8808.450710
3774.551749,1455.581446,518.144159,8660.409521
3774.552064,1378.971896,-444.123565,9178.553681
3774.552378,229.828649,-296.082377,9844.739029
3774.552693,-76.609550,-0.000000,9770.718434
3774.553008,0.000000,222.061783,10436.903782
3774.553322,-229.828649,-222.061783,10658.965565
3774.553637,-536.266849,-0.000000,9696.697840
3774.553952,0.000000,-222.061783,9992.780217
3774.554267,-229.828649,-296.082377,9992.780217
3774.554581,-229.828649,-518.144159,9474.636058
3774.554896,229.828649,-0.000000,9548.656652
3774.555211,153.219100,592.164754,9030.512492
3774.555525,383.047749,740.205942,9104.533087
3774.555840,383.047749,962.267725,8734.430116
3774.556155,689.485948,-0.000000,8734.430116
3774.556469,229.828649,-296.082377,9474.636058
3774.556784,-153.219100,-370.102971,9844.739029
3774.557099,-536.266849,-148.041188,10288.862594
3774.557413,-689.485948,-444.123565,10436.903782
3774.557728,-842.705048,-0.000000,10066.800811
3774.558043,-689.485948,-0.000000,9474.636058
3774.558358,-612.876398,-444.123565,9474.636058
3774.558672,153.219100,-296.082377,10066.800811
3774.558987,0.000000,-296.082377,9400.615463
3774.559302,0.000000,-0.000000,9400.615463
3774.559616,153.219100,222.061783,9400.615463
3774.559931,306.438199,-0.000000,9252.574275
3774.560246,153.219100,-74.020594,9252.574275
3774.560560,536.266849,-74.020594,9326.594869
3774.560875,459.657299,-296.082377,9696.697840
3774.561190,76.609550,-148.041188,10140.821405
3774.561504,0.000000,222.061783,9696.697840
3774.561819,76.609550,296.082377,9548.656652
3774.562134,-153.219100,222.061783,9474.636058
3774.562448,0.000000,-0.000000,9326.594869
3774.562763,459.657299,-740.205942,8956.491898
3774.563078,383.047749,-518.144159,9474.636058
3774.563393,153.219100,-370.102971,9548.656652
3774.563707,383.047749,-0.000000,9474.636058
3774.564022,383.047749,-0.000000,10066.800811
3774.564337,306.438199,592.164754,9770.718434
3774.564651,536.266849,814.226536,9474.636058
3774.564966,842.705048,518.144159,9474.636058
3774.565281,842.705048,370.102971,9696.697840
3774.565595,153.219100,444.123565,9326.594869
3774.565910,153.219100,666.185348,9696.697840
3774.566225,0.000000,592.164754,9474.636058
3774.566539,0.000000,592.164754,9548.656652
3774.566854,0.000000,814.226536,9326.594869
3774.567169,229.828649,518.144159,9474.636058
3774.567484,459.657299,296.082377,9770.718434
3774.567798,0.000000,-0.000000,10140.821405
3774.568113,-612.876398,370.102971,10436.903782
3774.568428,-306.438199,370.102971,10362.883188
3774.568742,-459.657299,888.247130,10140.821405
3774.569057,0.000000,592.164754,9474.636058
3774.569372,383.047749,592.164754,9770.718434
3774.569686,689.485948,-0.000000,9696.697840
3774.570001,0.000000,444.123565,9474.636058
3774.570316,76.609550,1036.288319,9474.636058
3774.570630,306.438199,518.144159,9104.533087
3774.570945,229.828649,370.102971,9030.512492
3774.571260,459.657299,-0.000000,8882.471304
3774.571575,689.485948,-740.205942,8882.471304
3774.571889,0.000000,-592.164754,9992.780217
3774.572204,-383.047749,-148.041188,10510.924376
3774.572519,-536.266849,-0.000000,10584.944971
3774.572833,-536.266849,-0.000000,10510.924376
3774.573148,-306.438199,296.082377,10214.842000
3774.573463,229.828649,-0.000000,9696.697840
3774.573777,919.314598,-0.000000,9474.636058
3774.574092,766.095498,-0.000000,9252.574275
3774.574407,766.095498,518.144159,8956.491898
3774.574721,919.314598,1110.308913,8956.491898
3774.575036,689.485948,370.102971,9104.533087
3774.575351,306.438199,370.102971,8808.450710
3774.575665,229.828649,74.020594,9104.533087
3774.575980,153.219100,-740.205942,9844.739029
3774.576295,-995.924147,-962.267725,10881.027347
3774.576609,-1302.362347,-1258.350101,10732.986159
3774.576924,-1608.800546,-814.226536,10732.986159
3774.577239,-995.924147,-370.102971,10066.800811
3774.577553,-536.266849,518.144159,9918.759623
3774.577868,153.219100,592.164754,9104.533087
3774.578183,995.924147,518.144159,9326.594869
3774.578497,1225.752797,1258.350101,8438.347739
3774.578812,1455.581446,962.267725,8290.306550
3774.579127,1378.971896,370.102971,8882.471304
3774.579441,1302.362347,370.102971,8808.450710
3774.579756,766.095498,296.082377,9252.574275
3774.580071,76.609550,-0.000000,9178.553681
3774.580385,-229.828649,-296.082377,9770.718434
3774.580700,-995.924147,-1036.288319,10362.883188
3774.581015,-1532.190996,-666.185348,10732.986159
3774.581329,-1378.971896,-888.247130,10658.965565
3774.581644,-995.924147,-592.164754,10214.842000
3774.581958,-459.657299,444.123565,9770.718434
3774.582273,459.657299,296.082377,9400.615463
3774.582588,1149.143247,-0.000000,9104.533087
3774.582902,1302.362347,666.185348,9178.553681
3774.583217,1685.410096,1258.350101,8364.327145
3774.583532,1762.019645,1036.288319,8808.450710
3774.583846,1149.143247,962.267725,8956.491898
3774.584161,383.047749,-74.020594,9104.533087
3774.584476,0.000000,-296.082377,10066.800811
3774.584790,-459.657299,-1036.288319,10436.903782
3774.585105,-919.314598,-1332.370696,10510.924376
3774.585420,-1225.752797,-962.267725,11103.089130
3774.585734,-383.047749,-518.144159,11029.068536
3774.586049,-842.705048,-592.164754,9992.780217
3774.586364,-306.438199,-222.061783,9474.636058
3774.586678,766.095498,592.164754,9696.697840
3774.586993,842.705048,962.267725,9252.574275
3774.587308,1149.143247,888.247130,8660.409521
3774.587622,1532.190996,814.226536,9104.533087
3774.587937,995.924147,1480.411884,9326.594869
3774.588252,766.095498,1332.370696,9400.615463
3774.588566,153.219100,1628.453072,9252.574275
3774.588881,229.828649,370.102971,9178.553681
3774.589196,153.219100,-148.041188,10140.821405
3774.589510,-1072.533697,-222.061783,10066.800811
3774.589825,-1072.533697,-296.082377,10066.800811
3774.590140,-1302.362347,-518.144159,10732.986159
3774.590454,-1378.971896,222.061783,10066.800811
3774.590769,-1072.533697,370.102971,9622.677246
3774.591084,0.000000,-0.000000,8956.491898
3774.591398,383.047749,296.082377,8882.471304
3774.591713,76.609550,592.164754,9104.533087
3774.592028,-383.047749,962.267725,9104.533087
3774.592342,-306.438199,666.185348,8882.471304
3774.592657,-459.657299,888.247130,9474.636058
3774.592972,-842.705048,740.205942,9030.512492
3774.593286,-919.314598,-444.123565,9622.677246
3774.593601,-1378.971896,-1628.453072,10362.883188
