#time,accel_x,accel_y,accel_z
4177.969591,153.219100,-0.000000,9252.574275
4177.969907,306.438199,-148.041188,9252.574275
4177.970223,383.047749,370.102971,9474.636058
4177.970538,76.609550,296.082377,9474.636058
4177.970854,76.609550,-0.000000,9622.677246
4177.971169,76.609550,-0.000000,9844.739029
4177.971485,153.219100,-0.000000,9622.677246
4177.971800,153.219100,-0.000000,9400.615463
4177.972116,153.219100,444.123565,9548.656652
4177.972431,0.000000,518.144159,9992.780217
4177.972747,-76.609550,296.082377,9474.636058
4177.973062,0.000000,148.041188,9548.656652
4177.973378,0.000000,-0.000000,9844.739029
4177.973693,0.000000,-0.000000,9474.636058
4177.974009,76.609550,222.061783,9548.656652
4177.974324,0.000000,296.082377,9844.739029
4177.974640,0.000000,-296.082377,9474.636058
4177.974955,0.000000,148.041188,9548.656652
4177.975271,0.000000,-0.000000,9548.656652
4177.975586,0.000000,222.061783,9474.636058
4177.975902,383.047749,222.061783,9622.677246
4177.976218,536.266849,-0.000000,9474.636058
4177.976533,0.000000,-148.041188,9696.697840
4177.976849,0.000000,-0.000000,9770.718434
4177.977164,153.219100,222.061783,9622.677246
4177.977480,229.828649,222.061783,9622.677246
4177.977795,383.047749,148.041188,9844.739029
4177.978111,229.828649,-0.000000,9326.594869
4177.978426,153.219100,-0.000000,9548.656652
4177.978742,153.219100,148.041188,9474.636058
4177.979057,153.219100,148.041188,9252.574275
4177.979373,306.438199,-0.000000,9474.636058
4177.979688,153.219100,296.082377,9696.697840
4177.980004,76.609550,222.061783,9622.677246
4177.980319,76.609550,-0.000000,9400.615463
4177.980635,76.609550,296.082377,9400.615463
4177.980950,306.438199,370.102971,9844.739029
4177.981266,153.219100,-0.000000,9918.759623
4177.981581,76.609550,-0.000000,9474.636058
4177.981897,153.219100,222.061783,9548.656652
4177.982213,-153.219100,296.082377,9696.697840
4177.982528,76.609550,518.144159,9622.677246
4177.982844,229.828649,370.102971,9474.636058
4177.983159,76.609550,-0.000000,9474.636058
4177.983475,153.219100,222.061783,9474.636058
4177.983790,0.000000,-0.000000,9622.677246
4177.984106,76.609550,-0.000000,9622.677246
4177.984421,0.000000,-0.000000,9622.677246
4177.984737,0.000000,-0.000000,9474.636058
4177.985052,76.609550,-0.000000,9548.656652
4177.985368,229.828649,-0.000000,9696.697840
4177.985683,0.000000,-0.000000,9548.656652
4177.985999,0.000000,-0.000000,9474.636058
4177.986314,229.828649,-0.000000,9252.574275
4177.986630,76.609550,-0.000000,9622.677246
4177.986945,536.266849,-0.000000,9326.594869
4177.987261,76.609550,-0.000000,9622.677246
4177.987576,0.000000,-0.000000,9474.636058
4177.987892,0.000000,-0.000000,9474.636058
4177.988208,383.047749,296.082377,9548.656652
4177.988523,229.828649,-74.020594,9696.697840
4177.988839,76.609550,-0.000000,9474.636058
4177.989154,0.000000,-222.061783,9622.677246
4177.989470,0.000000,222.061783,9474.636058
4177.989785,76.609550,-0.000000,9548.656652
4177.990101,306.438199,-0.000000,9474.636058
4177.990416,306.438199,296.082377,9474.636058
4177.990732,153.219100,-0.000000,9696.697840
4177.991047,0.000000,296.082377,9252.574275
4177.991363,842.705048,370.102971,9400.615463
4177.991678,306.438199,-0.000000,9696.697840
4177.991994,0.000000,296.082377,9548.656652
4177.992309,0.000000,222.061783,9696.697840
4177.992625,-229.828649,148.041188,9474.636058
4177.992940,0.000000,222.061783,9474.636058
4177.993256,0.000000,-0.000000,9622.677246
4177.993571,0.000000,222.061783,9548.656652
4177.993887,-306.438199,592.164754,9548.656652
4177.994203,-536.266849,370.102971,9622.677246
4177.994518,-459.657299,-0.000000,9770.718434
4177.994834,-842.705048,444.123565,9770.718434
4177.995149,-612.876398,296.082377,9770.718434
4177.995465,-689.485948,740.205942,9548.656652
4177.995780,-612.876398,518.144159,9622.677246
4177.996096,-229.828649,-0.000000,9622.677246
4177.996411,-383.047749,592.164754,9474.636058
4177.996727,-919.314598,814.226536,8808.450710
4177.997042,-1072.533697,740.205942,9178.553681
4177.997358,-842.705048,1258.350101,9104.533087
4177.997673,-919.314598,962.267725,8882.471304
4177.997989,-1302.362347,1036.288319,8956.491898
4177.998304,-1838.629195,1628.453072,9030.512492
4177.998620,-2298.286494,1184.329507,8956.491898
4177.998935,-2451.505594,888.247130,9326.594869
4177.999251,-2681.334243,1258.350101,9992.780217
4177.999566,-2987.772442,1110.308913,10362.883188
4177.999882,-3064.381992,1184.329507,9622.677246
4178.000198,-2911.162892,1776.494261,9992.780217
4178.000513,-2604.724693,1998.556043,9548.656652
4178.000829,-2681.334243,2294.638420,9696.697840
4178.001144,-2451.505594,2442.679609,9474.636058
4178.001460,-2528.115143,2368.659014,9474.636058
4178.001775,-2374.896044,2664.741391,9400.615463
4178.002091,-1991.848295,2738.761985,9252.574275
4178.002406,-2451.505594,2812.782580,9474.636058
4178.002722,-2451.505594,2664.741391,9918.759623
4178.003037,-2221.676944,2516.700203,10436.903782
4178.003353,-2528.115143,2368.659014,10436.903782
4178.003668,-2451.505594,2220.617826,9622.677246
4178.003984,-1915.238745,2368.659014,9992.780217
4178.004299,-1302.362347,2516.700203,9770.718434
4178.004615,-1072.533697,3034.844362,9104.533087
4178.004930,0.000000,3330.926739,9104.533087
4178.005246,-995.924147,3923.091493,8438.347739
4178.005561,-919.314598,4145.153275,8438.347739
4178.005877,-1072.533697,4071.132681,8586.388927
4178.006193,-2374.896044,3849.070898,9178.553681
4178.006508,-2451.505594,2960.823768,9918.759623
4178.006824,-2757.943793,2664.741391,10288.862594
4178.007139,-2911.162892,2516.700203,11177.109724
4178.007455,-3064.381992,2738.761985,11547.212695
4178.007770,-2987.772442,3182.885551,11399.171507
4178.008086,-2604.724693,3627.009116,10807.006753
4178.008401,-2145.067394,4293.194464,9548.656652
4178.008717,-1378.971896,4737.318029,9696.697840
4178.009032,-1378.971896,5255.462188,9178.553681
4178.009348,-1608.800546,4737.318029,8438.347739
4178.009663,-1685.410096,4441.235652,8660.409521
4178.009979,-2374.896044,3775.050304,9252.574275
4178.010294,-2374.896044,2738.761985,10140.821405
4178.010610,-2604.724693,2220.617826,10807.006753
4178.010925,-2757.943793,1776.494261,11251.130318
4178.011241,-2604.724693,1184.329507,11251.130318
4178.011556,-1915.238745,2072.576638,11251.130318
4178.011872,-1149.143247,2146.597232,11029.068536
4178.012188,-536.266849,2368.659014,9918.759623
4178.012503,689.485948,3108.864956,8956.491898
4178.012819,536.266849,3627.009116,8586.388927
4178.013134,459.657299,3627.009116,7772.162391
4178.013450,383.047749,4145.153275,7920.203579
4178.013765,-689.485948,3849.070898,7624.121203
4178.014081,-1838.629195,2886.803174,8364.327145
4178.014396,-2068.457845,2220.617826,9104.533087
4178.014712,-3677.258390,1258.350101,9770.718434
4178.015027,-4443.353888,592.164754,11251.130318
4178.015343,-4903.011187,148.041188,11621.233289
4178.015658,-4366.744339,-222.061783,11029.068536
4178.015974,-3907.087040,222.061783,11473.192101
4178.016289,-3217.601092,518.144159,11029.068536
4178.016605,-2681.334243,1184.329507,10584.944971
4178.016920,-1225.752797,1924.535449,9770.718434
4178.017236,229.828649,2590.720797,9326.594869
4178.017551,536.266849,3108.864956,8734.430116
4178.017867,842.705048,3552.988522,8660.409521
4178.018183,229.828649,3034.844362,7846.182985
4178.018498,-459.657299,2442.679609,7920.203579
4178.018814,-1149.143247,2072.576638,7550.100608
4178.019129,-2374.896044,1036.288319,7624.121203
4178.019445,-3294.210641,-370.102971,8290.306550
4178.019760,-4673.182538,-888.247130,9474.636058
4178.020076,-4749.792088,-1554.432478,11325.150913
4178.020391,-5056.230287,-1184.329507,9918.759623
4178.020707,-5439.278036,-1554.432478,11029.068536
4178.021022,-3830.477490,-1110.308913,12065.356855
4178.021338,-2604.724693,-888.247130,11917.315666
4178.021653,-536.266849,814.226536,10807.006753
4178.021969,1225.752797,1924.535449,9474.636058
4178.022284,1991.848295,4293.194464,7920.203579
4178.022600,2528.115143,5477.523971,6735.874072
4178.022915,2298.286494,6365.771101,5107.421000
4178.023231,995.924147,5773.606348,4959.379811
4178.023547,-536.266849,4737.318029,6143.709319
4178.023862,-3217.601092,2590.720797,7772.162391
4178.024178,-5056.230287,-518.144159,10436.903782
4178.024493,-6894.859482,-3034.844362,13027.624579
4178.024809,-7967.393179,-3775.050304,13249.686362
4178.025124,-7431.126331,-4145.153275,14656.077652
4178.025440,-5669.106685,-3404.947333,14804.118840
4178.025755,-3677.258390,-888.247130,12065.356855
4178.026071,-766.095498,3182.885551,9326.594869
4178.026386,1608.800546,5995.668130,6365.771101
4178.026702,2451.505594,9178.553681,5033.400406
4178.027017,2987.772442,10584.944971,4145.153275
4178.027333,1685.410096,9326.594869,4589.276840
4178.027648,76.609550,6587.832884,7179.997637
4178.027964,-1455.581446,3997.112087,10732.986159
4178.028279,-3447.429741,-296.082377,12731.542202
4178.028595,-4826.401637,-2886.803174,15322.262999
4178.028910,-5592.497135,-3034.844362,16580.613101
4178.029226,-4979.620737,-3108.864956,14582.057057
4178.029542,-3370.820191,-1406.391290,11917.315666
4178.029857,-2374.896044,2294.638420,9918.759623
4178.030173,-995.924147,4959.379811,7772.162391
4178.030488,76.609550,6883.915261,4737.318029
4178.030804,1149.143247,7550.100608,4441.235652
4178.031119,766.095498,7772.162391,5033.400406
4178.031435,-766.095498,5477.523971,6957.935855
4178.031750,-1532.190996,2664.741391,9104.533087
4178.032066,-2068.457845,1406.391290,11325.150913
4178.032381,-1915.238745,-0.000000,12139.377449
4178.032697,-2451.505594,444.123565,13101.645173
4178.033012,-2987.772442,962.267725,12953.603985
4178.033328,-2757.943793,1480.411884,12435.459826
4178.033643,-2528.115143,3182.885551,10807.006753
4178.033959,-3140.991542,3997.112087,9326.594869
4178.034274,-2604.724693,4293.194464,8216.285956
4178.034590,-1915.238745,3701.029710,7624.121203
4178.034905,-1149.143247,3404.947333,7031.956449
4178.035221,-1302.362347,3478.967927,7328.038826
4178.035537,-1685.410096,3775.050304,9178.553681
4178.035852,-2374.896044,3256.906145,10436.903782
4178.036168,-2528.115143,2516.700203,11621.233289
4178.036483,-2681.334243,1406.391290,11991.336260
4178.036799,-2604.724693,-148.041188,11991.336260
4178.037114,-2068.457845,-0.000000,11029.068536
4178.037430,-1838.629195,1702.473667,9696.697840
4178.037745,-2221.676944,3108.864956,8438.347739
4178.038061,-1838.629195,4441.235652,7624.121203
4178.038376,-1762.019645,5625.565159,7105.977043
4178.038692,-2528.115143,5995.668130,7402.059420
4178.039007,-3217.601092,3701.029710,8660.409521
4178.039323,-2911.162892,2072.576638,9252.574275
4178.039638,-3217.601092,-0.000000,11177.109724
4178.039954,-3370.820191,-1184.329507,12065.356855
4178.040269,-2987.772442,-1110.308913,13101.645173
4178.040585,-2298.286494,-222.061783,12879.583391
4178.040900,-1072.533697,518.144159,10955.047942
4178.041216,383.047749,2072.576638,9326.594869
4178.041531,1532.190996,3404.947333,7328.038826
4178.041846,1608.800546,3923.091493,7105.977043
4178.042161,1685.410096,4441.235652,6365.771101
4178.042477,536.266849,3627.009116,6143.709319
4178.042792,-1149.143247,3256.906145,7920.203579
4178.043107,-2145.067394,1332.370696,9252.574275
4178.043423,-2221.676944,-888.247130,10807.006753
4178.043738,-1991.848295,-2960.823768,11843.295072
4178.044053,-2068.457845,-3108.864956,12879.583391
4178.044368,-2451.505594,-2442.679609,13545.768739
4178.044684,-1762.019645,-1406.391290,13249.686362
4178.044999,-1455.581446,814.226536,11399.171507
4178.045314,0.000000,2220.617826,9178.553681
4178.045630,1608.800546,3256.906145,7920.203579
4178.045945,2298.286494,3923.091493,6217.729913
4178.046260,2451.505594,3404.947333,6735.874072
4178.046576,1149.143247,2368.659014,7994.224174
4178.046891,0.000000,2146.597232,9178.553681
4178.047206,-995.924147,444.123565,10362.883188
4178.047521,-1455.581446,-1924.535449,11991.336260
4178.047837,-1072.533697,-2738.761985,12435.459826
4178.048152,-689.485948,-3552.988522,12287.418637
4178.048467,-995.924147,-3701.029710,12213.398043
4178.048783,-1225.752797,-1332.370696,11177.109724
4178.049098,-1225.752797,666.185348,9400.615463
4178.049413,153.219100,2072.576638,7920.203579
4178.049729,1991.848295,2812.782580,6883.915261
4178.050044,2374.896044,2886.803174,6069.688724
4178.050359,1762.019645,1850.514855,6883.915261
4178.050674,229.828649,1702.473667,8290.306550
4178.050990,-995.924147,1110.308913,9474.636058
4178.051305,-842.705048,-814.226536,10436.903782
4178.051620,-229.828649,-1924.535449,11399.171507
4178.051936,229.828649,-3330.926739,11917.315666
4178.052251,0.000000,-3701.029710,12361.439231
4178.052566,-919.314598,-2220.617826,11621.233289
4178.052881,-1608.800546,-74.020594,9400.615463
4178.053197,-1149.143247,2146.597232,7254.018232
4178.053512,612.876398,2516.700203,5995.668130
4178.053827,1225.752797,2146.597232,6143.709319
4178.054143,1149.143247,1036.288319,6513.812290
4178.054458,-229.828649,-0.000000,8216.285956
4178.054773,-2374.896044,222.061783,9326.594869
4178.055089,-3064.381992,-370.102971,10881.027347
4178.055404,-2298.286494,-962.267725,11695.253884
4178.055719,-995.924147,-2220.617826,12213.398043
4178.056034,-459.657299,-3034.844362,12213.398043
4178.056350,-995.924147,-2146.597232,12435.459826
4178.056665,-1302.362347,666.185348,10584.944971
4178.056980,-1455.581446,2442.679609,9178.553681
4178.057296,229.828649,3330.926739,7179.997637
4178.057611,1455.581446,3182.885551,6143.709319
4178.057926,1762.019645,1258.350101,7105.977043
4178.058242,995.924147,296.082377,8290.306550
4178.058557,-1378.971896,888.247130,9104.533087
4178.058872,-1762.019645,-222.061783,9918.759623
4178.059187,-1072.533697,-1184.329507,11547.212695
4178.059503,-229.828649,-1776.494261,11843.295072
4178.059818,459.657299,-2664.741391,12361.439231
4178.060133,383.047749,-2146.597232,11695.253884
4178.060449,-459.657299,-666.185348,10955.047942
4178.060764,0.000000,2294.638420,9030.512492
4178.061079,1302.362347,3478.967927,7105.977043
4178.061394,2451.505594,3849.070898,7254.018232
4178.061710,3447.429741,2442.679609,6661.853478
4178.062025,2528.115143,1480.411884,8216.285956
4178.062340,689.485948,1702.473667,9252.574275
4178.062656,-459.657299,962.267725,10881.027347
4178.062971,0.000000,-0.000000,11695.253884
4178.063286,536.266849,-1480.411884,11917.315666
4178.063602,995.924147,-1998.556043,12065.356855
4178.063917,0.000000,-2590.720797,11769.274478
4178.064232,-612.876398,-518.144159,10214.842000
4178.064547,-766.095498,592.164754,9400.615463
4178.064863,536.266849,2442.679609,7624.121203
4178.065178,2221.676944,2738.761985,7105.977043
4178.065493,2681.334243,2220.617826,7105.977043
4178.065809,2604.724693,518.144159,8512.368333
4178.066124,459.657299,962.267725,9400.615463
4178.066439,-842.705048,296.082377,10288.862594
4178.066754,0.000000,-222.061783,10807.006753
4178.067070,536.266849,-962.267725,11325.150913
4178.067385,1072.533697,-2072.576638,11769.274478
4178.067700,995.924147,-2590.720797,11473.192101
4178.068016,-153.219100,-1036.288319,10584.944971
4178.068331,-383.047749,222.061783,9252.574275
4178.068646,306.438199,1406.391290,7994.224174
4178.068962,1378.971896,1998.556043,7772.162391
4178.069277,2298.286494,1702.473667,7698.141797
4178.069592,1685.410096,-0.000000,8364.327145
4178.069907,0.000000,444.123565,8734.430116
4178.070223,-1608.800546,-148.041188,10288.862594
4178.070538,-1225.752797,-296.082377,10510.924376
4178.070853,-536.266849,-1110.308913,10955.047942
4178.071169,153.219100,-2294.638420,11473.192101
4178.071484,0.000000,-2442.679609,11917.315666
4178.071799,-612.876398,-888.247130,10658.965565
4178.072115,-766.095498,222.061783,9770.718434
4178.072430,-459.657299,1554.432478,8956.491898
4178.072745,1072.533697,2664.741391,6883.915261
4178.073060,1378.971896,1776.494261,6957.935855
4178.073376,1149.143247,518.144159,7476.080014
4178.073691,-1149.143247,-222.061783,9104.533087
4178.074006,-1991.848295,-370.102971,9474.636058
4178.074322,-2298.286494,-962.267725,10362.883188
4178.074637,-1762.019645,-1406.391290,11399.171507
4178.074952,-1378.971896,-2664.741391,11621.233289
4178.075267,-842.705048,-2590.720797,11695.253884
4178.075583,-1072.533697,-1702.473667,11547.212695
4178.075898,-1149.143247,-0.000000,10066.800811
4178.076213,0.000000,1480.411884,8956.491898
4178.076529,1302.362347,2590.720797,7179.997637
4178.076844,1991.848295,2294.638420,6587.832884
4178.077159,1838.629195,1110.308913,7328.038826
4178.077475,76.609550,444.123565,7994.224174
4178.077790,-1608.800546,296.082377,9696.697840
4178.078105,-1608.800546,-740.205942,11029.068536
4178.078420,-842.705048,-1184.329507,11325.150913
4178.078736,-229.828649,-2516.700203,12139.377449
4178.079051,0.000000,-2368.659014,12065.356855
4178.079366,-459.657299,-1850.514855,11325.150913
4178.079682,-306.438199,-0.000000,10140.821405
4178.079997,1225.752797,1998.556043,8956.491898
4178.080312,2451.505594,3330.926739,7105.977043
4178.080628,3140.991542,3404.947333,6735.874072
4178.080943,2911.162892,2442.679609,7031.956449
4178.081258,689.485948,962.267725,8068.244768
4178.081573,-536.266849,962.267725,9326.594869
4178.081889,-459.657299,-0.000000,10436.903782
4178.082204,76.609550,-592.164754,10807.006753
4178.082519,919.314598,-1850.514855,11769.274478
4178.082835,383.047749,-2368.659014,11843.295072
4178.083150,-383.047749,-1480.411884,12139.377449
4178.083465,-153.219100,592.164754,10288.862594
4178.083780,76.609550,1628.453072,9252.574275
4178.084096,2221.676944,2664.741391,7402.059420
4178.084411,2987.772442,2812.782580,6735.874072
4178.084726,2681.334243,1998.556043,7105.977043
4178.085042,1378.971896,1184.329507,8586.388927
4178.085357,-766.095498,962.267725,9548.656652
4178.085672,-1072.533697,-0.000000,10881.027347
4178.085988,0.000000,-296.082377,11029.068536
4178.086303,383.047749,-1406.391290,10881.027347
4178.086618,766.095498,-2220.617826,11843.295072
4178.086933,612.876398,-1702.473667,11251.130318
4178.087249,-612.876398,-0.000000,10362.883188
4178.087564,-612.876398,1480.411884,9326.594869
4178.087879,1072.533697,2368.659014,7179.997637
4178.088195,1991.848295,2220.617826,6809.894666
4178.088510,2451.505594,740.205942,8142.265362
4178.088825,919.314598,666.185348,8512.368333
4178.089141,-1302.362347,740.205942,9326.594869
4178.089456,-1455.581446,-74.020594,10584.944971
4178.089771,-1072.533697,-296.082377,10955.047942
4178.090086,-459.657299,-962.267725,10658.965565
4178.090402,-229.828649,-2220.617826,11843.295072
4178.090717,-1149.143247,-1776.494261,11843.295072
4178.091032,-1915.238745,-296.082377,10955.047942
4178.091348,-1532.190996,1332.370696,9030.512492
4178.091663,-919.314598,2072.576638,7920.203579
4178.091978,689.485948,2442.679609,7402.059420
4178.092293,919.314598,1702.473667,7402.059420
4178.092609,0.000000,444.123565,8216.285956
4178.092924,-1915.238745,444.123565,9770.718434
4178.093239,-2757.943793,-0.000000,9844.739029
4178.093555,-2068.457845,-0.000000,9918.759623
4178.093870,-1455.581446,-814.226536,10362.883188
4178.094185,-842.705048,-2146.597232,10955.047942
4178.094501,-766.095498,-2146.597232,10955.047942
4178.094816,-1991.848295,-962.267725,10584.944971
4178.095131,-1991.848295,592.164754,9918.759623
4178.095446,-306.438199,2146.597232,8290.306550
4178.095762,995.924147,1998.556043,7328.038826
4178.096077,1455.581446,1480.411884,7328.038826
4178.096392,766.095498,-148.041188,9030.512492
4178.096708,-1072.533697,74.020594,9178.553681
4178.097023,-1685.410096,-74.020594,9770.718434
4178.097338,-459.657299,-148.041188,10066.800811
4178.097653,229.828649,-1258.350101,10584.944971
4178.097969,1378.971896,-1924.535449,10510.924376
4178.098284,1532.190996,-2368.659014,11547.212695
4178.098599,306.438199,-666.185348,10584.944971
4178.098915,0.000000,518.144159,9622.677246
4178.099230,766.095498,1554.432478,8290.306550
4178.099545,2221.676944,1998.556043,7846.182985
4178.099861,3140.991542,962.267725,7698.141797
4178.100176,2451.505594,-0.000000,8660.409521
4178.100491,459.657299,370.102971,8956.491898
4178.100806,-536.266849,-74.020594,10362.883188
4178.101122,0.000000,-0.000000,10510.924376
4178.101437,1072.533697,-814.226536,10807.006753
4178.101752,1838.629195,-1702.473667,11177.109724
4178.102068,1685.410096,-2220.617826,11547.212695
4178.102383,76.609550,-814.226536,10584.944971
4178.102698,0.000000,-0.000000,10066.800811
4178.103014,995.924147,1628.453072,8660.409521
4178.103329,2145.067394,2072.576638,7920.203579
4178.103644,2528.115143,1554.432478,7698.141797
4178.103959,1685.410096,296.082377,8808.450710
4178.104275,0.000000,148.041188,9326.594869
4178.104590,-1378.971896,-296.082377,10436.903782
4178.104905,-1225.752797,-222.061783,10807.006753
4178.105221,383.047749,-74.020594,10955.047942
4178.105536,1072.533697,-740.205942,10881.027347
4178.105851,1225.752797,-1628.453072,10955.047942
4178.106166,153.219100,-592.164754,10584.944971
4178.106482,-229.828649,962.267725,9548.656652
4178.106797,612.876398,1258.350101,8734.430116
4178.107112,1915.238745,1776.494261,7179.997637
4178.107428,2145.067394,1628.453072,6809.894666
4178.107743,1532.190996,444.123565,7846.182985
4178.108058,153.219100,-0.000000,8216.285956
4178.108374,-1455.581446,-444.123565,9326.594869
4178.108689,-2145.067394,-444.123565,10584.944971
4178.109004,-1072.533697,-814.226536,10732.986159
4178.109319,-229.828649,-1258.350101,10584.944971
4178.109635,229.828649,-1628.453072,10881.027347
4178.109950,-1149.143247,-888.247130,10807.006753
4178.110265,-1991.848295,518.144159,10140.821405
4178.110581,-1149.143247,1406.391290,9252.574275
4178.110896,0.000000,2368.659014,7994.224174
4178.111211,689.485948,2146.597232,7624.121203
4178.111527,0.000000,1036.288319,8290.306550
4178.111842,-919.314598,814.226536,9696.697840
4178.112157,-3064.381992,-0.000000,10436.903782
4178.112472,-3064.381992,-666.185348,11399.171507
4178.112788,-2145.067394,-666.185348,11029.068536
4178.113103,-1302.362347,-1110.308913,11103.089130
4178.113418,-459.657299,-1850.514855,10881.027347
4178.113734,-1072.533697,-666.185348,10510.924376
4178.114049,-2145.067394,148.041188,9844.739029
4178.114364,-1378.971896,1036.288319,8438.347739
4178.114679,689.485948,2072.576638,7920.203579
4178.114995,1455.581446,1628.453072,7550.100608
4178.115310,1225.752797,814.226536,7920.203579
4178.115625,153.219100,1110.308913,8364.327145
4178.115941,-1455.581446,444.123565,9400.615463
4178.116256,-1225.752797,-518.144159,10362.883188
4178.116571,0.000000,-222.061783,10584.944971
4178.116887,919.314598,-740.205942,10140.821405
4178.117202,1302.362347,-1110.308913,10214.842000
4178.117517,1072.533697,-1332.370696,10955.047942
4178.117832,-229.828649,222.061783,9696.697840
4178.118148,229.828649,1036.288319,8956.491898
4178.118463,1532.190996,2368.659014,7994.224174
4178.118778,2911.162892,1998.556043,7105.977043
4178.119094,3447.429741,1554.432478,7698.141797
4178.119409,1915.238745,740.205942,8512.368333
4178.119724,-459.657299,148.041188,9696.697840
4178.120040,-766.095498,370.102971,10214.842000
4178.120355,306.438199,-222.061783,10955.047942
4178.120670,1302.362347,-0.000000,9918.759623
4178.120985,1378.971896,-962.267725,10584.944971
4178.121301,842.705048,-814.226536,11399.171507
4178.121616,0.000000,370.102971,9770.718434
4178.121931,0.000000,1332.370696,9326.594869
4178.122247,1149.143247,2294.638420,8956.491898
4178.122562,1838.629195,1998.556043,8290.306550
4178.122877,1991.848295,1184.329507,8438.347739
4178.123192,612.876398,222.061783,9400.615463
4178.123508,-1149.143247,-0.000000,10288.862594
4178.123823,-1455.581446,-74.020594,11103.089130
4178.124138,-459.657299,-666.185348,10807.006753
4178.124454,459.657299,-1184.329507,11399.171507
4178.124769,1149.143247,-1332.370696,10881.027347
4178.125084,689.485948,-1554.432478,10955.047942
4178.125400,-306.438199,-0.000000,10066.800811
4178.125715,306.438199,1036.288319,9622.677246
4178.126030,842.705048,1702.473667,7920.203579
4178.126345,1915.238745,1480.411884,7550.100608
4178.126661,2374.896044,592.164754,7550.100608
4178.126976,1225.752797,-370.102971,8808.450710
4178.127291,-995.924147,-148.041188,9474.636058
4178.127607,-1762.019645,-888.247130,10436.903782
4178.127922,-1532.190996,-1036.288319,10288.862594
4178.128237,-459.657299,-1184.329507,10807.006753
4178.128552,0.000000,-1924.535449,10214.842000
4178.128868,0.000000,-1776.494261,10436.903782
4178.129183,-1455.581446,-592.164754,10066.800811
4178.129498,-1608.800546,-0.000000,9622.677246
4178.129814,-536.266849,1184.329507,8956.491898
4178.130129,1302.362347,1554.432478,7846.182985
4178.130444,689.485948,814.226536,7328.038826
4178.130760,995.924147,592.164754,7920.203579
4178.131075,-1072.533697,962.267725,9252.574275
4178.131390,-2451.505594,-74.020594,9696.697840
4178.131705,-1991.848295,-444.123565,10214.842000
4178.132021,-919.314598,-814.226536,10288.862594
4178.132336,-459.657299,-1554.432478,10288.862594
4178.132651,-995.924147,-2072.576638,11029.068536
4178.132967,-2068.457845,-1184.329507,10436.903782
4178.133282,-2604.724693,-518.144159,10584.944971
4178.133597,-1149.143247,592.164754,8882.471304
4178.133913,459.657299,962.267725,7698.141797
4178.134228,1608.800546,1480.411884,7846.182985
4178.134543,2068.457845,222.061783,8290.306550
4178.134858,842.705048,592.164754,8586.388927
4178.135174,0.000000,518.144159,9400.615463
4178.135489,459.657299,-0.000000,9622.677246
4178.135804,1685.410096,-0.000000,9252.574275
4178.136120,1915.238745,-1332.370696,9844.739029
4178.136435,1608.800546,-1702.473667,10732.986159
4178.136750,0.000000,-962.267725,10288.862594
4178.137065,-1149.143247,-592.164754,10214.842000
4178.137381,0.000000,592.164754,9178.553681
4178.137696,766.095498,962.267725,8660.409521
4178.138011,1302.362347,1036.288319,8364.327145
4178.138327,1378.971896,444.123565,9326.594869
4178.138642,0.000000,814.226536,9992.780217
4178.138957,-766.095498,518.144159,10510.924376
4178.139273,0.000000,74.020594,10881.027347
4178.139588,842.705048,740.205942,10807.006753
4178.139903,1608.800546,296.082377,10436.903782
4178.140218,2145.067394,-444.123565,10732.986159
4178.140534,919.314598,370.102971,10584.944971
4178.140849,-536.266849,962.267725,10066.800811
4178.141164,0.000000,1480.411884,8808.450710
4178.141480,842.705048,1998.556043,8142.265362
4178.141795,1838.629195,1332.370696,8068.244768
4178.142110,1225.752797,222.061783,8882.471304
4178.142426,-459.657299,-296.082377,9770.718434
4178.142741,-2068.457845,-148.041188,10214.842000
4178.143057,-1991.848295,-0.000000,10510.924376
4178.143372,-536.266849,-0.000000,11029.068536
4178.143687,766.095498,-740.205942,10436.903782
4178.144003,995.924147,-888.247130,10807.006753
4178.144318,76.609550,-0.000000,10658.965565
4178.144634,-766.095498,962.267725,10066.800811
4178.144949,76.609550,1702.473667,9548.656652
4178.145265,1915.238745,2368.659014,8438.347739
4178.145580,2221.676944,1998.556043,7624.121203
4178.145895,1915.238745,666.185348,8364.327145
4178.146211,153.219100,-370.102971,9252.574275
4178.146526,-1762.019645,-444.123565,9770.718434
4178.146842,-1532.190996,-592.164754,10362.883188
4178.147157,-1532.190996,-1184.329507,10807.006753
4178.147472,-612.876398,-1702.473667,10362.883188
4178.147788,0.000000,-2072.576638,10510.924376
4178.148103,-612.876398,-1924.535449,10584.944971
4178.148419,-1302.362347,-518.144159,9992.780217
4178.148734,-689.485948,814.226536,9326.594869
4178.149049,766.095498,1850.514855,8068.244768
4178.149365,1685.410096,1554.432478,7772.162391
4178.149680,2221.676944,814.226536,8142.265362
4178.149996,536.266849,518.144159,8216.285956
4178.150311,-1302.362347,444.123565,9474.636058
4178.150626,-1762.019645,-148.041188,9844.739029
4178.150942,-995.924147,-0.000000,9844.739029
4178.151257,0.000000,-962.267725,9992.780217
4178.151573,0.000000,-1332.370696,10510.924376
4178.151888,-995.924147,-1628.453072,10362.883188
4178.152204,-1915.238745,-814.226536,9992.780217
4178.152519,-1685.410096,-222.061783,9696.697840
4178.152834,76.609550,1110.308913,8364.327145
4178.153150,1608.800546,666.185348,7402.059420
4178.153465,2068.457845,888.247130,7254.018232
4178.153781,1378.971896,-0.000000,8586.388927
4178.154096,-383.047749,222.061783,8956.491898
4178.154411,-229.828649,222.061783,9844.739029
4178.154727,0.000000,222.061783,9548.656652
4178.155042,1072.533697,-222.061783,9770.718434
4178.155358,1685.410096,-962.267725,9992.780217
4178.155673,612.876398,-1332.370696,10436.903782
4178.155988,-842.705048,-444.123565,10807.006753
4178.156304,-766.095498,444.123565,9770.718434
4178.156619,229.828649,1554.432478,9030.512492
4178.156935,1608.800546,1924.535449,7846.182985
4178.157250,1838.629195,666.185348,8290.306550
4178.157565,842.705048,-0.000000,9622.677246
4178.157881,-689.485948,296.082377,9474.636058
4178.158196,-1302.362347,-0.000000,10436.903782
4178.158512,-383.047749,222.061783,10955.047942
4178.158827,229.828649,296.082377,9918.759623
4178.159143,1225.752797,-444.123565,10362.883188
4178.159458,229.828649,-518.144159,10807.006753
4178.159773,-919.314598,148.041188,10436.903782
4178.160089,-842.705048,-0.000000,10658.965565
4178.160404,229.828649,1628.453072,9104.533087
4178.160720,689.485948,1406.391290,8586.388927
4178.161035,1225.752797,1110.308913,7920.203579
4178.161350,536.266849,-0.000000,9696.697840
4178.161666,-995.924147,148.041188,10140.821405
4178.161981,-1532.190996,-0.000000,10807.006753
4178.162297,-766.095498,-0.000000,10658.965565
4178.162612,383.047749,-0.000000,10066.800811
4178.162927,1302.362347,-814.226536,9992.780217
4178.163243,1072.533697,-1184.329507,10288.862594
4178.163558,0.000000,-888.247130,10732.986159
4178.163874,-306.438199,740.205942,10584.944971
4178.164189,153.219100,1406.391290,8734.430116
4178.164505,1838.629195,1850.514855,8364.327145
4178.164820,2451.505594,1184.329507,8216.285956
4178.165135,1608.800546,-74.020594,8808.450710
4178.165451,0.000000,-0.000000,9252.574275
4178.165766,-1455.581446,-296.082377,10140.821405
4178.166082,-536.266849,-0.000000,9844.739029
4178.166397,612.876398,-370.102971,9918.759623
4178.166712,995.924147,-592.164754,9696.697840
4178.167028,536.266849,-962.267725,11103.089130
4178.167343,-612.876398,-814.226536,9918.759623
4178.167659,-1302.362347,-0.000000,9770.718434
4178.167974,0.000000,1110.308913,8660.409521
4178.168289,842.705048,1480.411884,8364.327145
4178.168605,1532.190996,1406.391290,7698.141797
4178.168920,995.924147,-74.020594,9326.594869
4178.169236,-1149.143247,-0.000000,9474.636058
4178.169551,-2068.457845,-296.082377,9696.697840
4178.169866,-1072.533697,-74.020594,9992.780217
4178.170182,-229.828649,-148.041188,9918.759623
4178.170497,76.609550,-592.164754,9844.739029
4178.170813,0.000000,-1776.494261,10362.883188
4178.171128,-1225.752797,-1184.329507,10658.965565
4178.171444,-1838.629195,-0.000000,9918.759623
4178.171759,-612.876398,222.061783,8956.491898
4178.172074,306.438199,1850.514855,8142.265362
4178.172390,1762.019645,962.267725,7402.059420
4178.172705,1608.800546,-74.020594,8586.388927
4178.173021,0.000000,-74.020594,9474.636058
4178.173336,-1838.629195,-0.000000,9844.739029
4178.173651,-689.485948,296.082377,10362.883188
4178.173967,229.828649,518.144159,9474.636058
4178.174282,842.705048,-0.000000,9474.636058
4178.174598,1225.752797,-888.247130,9992.780217
4178.174913,306.438199,-666.185348,10362.883188
4178.175228,-1149.143247,148.041188,10288.862594
4178.175544,-383.047749,666.185348,9696.697840
4178.175859,1149.143247,1332.370696,9252.574275
4178.176175,1455.581446,1480.411884,8882.471304
4178.176490,1149.143247,-0.000000,9474.636058
4178.176805,0.000000,444.123565,9844.739029
4178.177121,-1225.752797,-0.000000,9992.780217
4178.177436,-842.705048,222.061783,10288.862594
4178.177752,153.219100,814.226536,9548.656652
4178.178067,1455.581446,-0.000000,8882.471304
4178.178383,1225.752797,-962.267725,9622.677246
4178.178698,306.438199,-148.041188,10436.903782
4178.179013,-612.876398,-0.000000,10362.883188
4178.179329,-766.095498,518.144159,9474.636058
4178.179644,612.876398,2072.576638,8586.388927
4178.179960,1302.362347,1776.494261,8660.409521
4178.180275,1302.362347,-0.000000,8734.430116
4178.180590,0.000000,-296.082377,9844.739029
4178.180906,-1685.410096,-148.041188,10807.006753
4178.181221,-1302.362347,-370.102971,10955.047942
4178.181537,0.000000,296.082377,9696.697840
4178.181852,1072.533697,-0.000000,9992.780217
4178.182167,1532.190996,-814.226536,10658.965565
4178.182483,459.657299,-518.144159,10436.903782
4178.182798,-612.876398,296.082377,9918.759623
4178.183114,0.000000,814.226536,9252.574275
4178.183429,1455.581446,1850.514855,8438.347739
4178.183744,2987.772442,1554.432478,7624.121203
4178.184060,2298.286494,-0.000000,8290.306550
4178.184375,919.314598,-518.144159,9400.615463
4178.184691,-689.485948,-814.226536,9474.636058
4178.185006,-1149.143247,-666.185348,9844.739029
4178.185322,229.828649,-222.061783,10214.842000
4178.185637,689.485948,-0.000000,9622.677246
4178.185952,1378.971896,-740.205942,10066.800811
4178.186268,153.219100,-592.164754,9474.636058
4178.186583,-1302.362347,-74.020594,9622.677246
4178.186899,-1149.143247,222.061783,9474.636058
4178.187214,0.000000,1776.494261,9030.512492
4178.187529,1149.143247,1998.556043,8142.265362
4178.187845,1149.143247,814.226536,8438.347739
4178.188160,0.000000,-296.082377,10214.842000
4178.188476,-2221.676944,-666.185348,10510.924376
4178.188791,-2374.896044,-370.102971,10510.924376
4178.189106,-1225.752797,592.164754,9918.759623
4178.189422,0.000000,370.102971,9548.656652
4178.189737,383.047749,-518.144159,9622.677246
4178.190053,0.000000,-1406.391290,10140.821405
4178.190368,-2221.676944,-592.164754,9622.677246
4178.190683,-2374.896044,-222.061783,9918.759623
4178.190999,-689.485948,814.226536,8956.491898
4178.191314,766.095498,1110.308913,8216.285956
4178.191630,1225.752797,222.061783,8734.430116
4178.191945,383.047749,-444.123565,9474.636058
4178.192261,-1072.533697,-74.020594,9918.759623
4178.192576,-1149.143247,-148.041188,10140.821405
4178.192891,-306.438199,296.082377,10510.924376
4178.193207,1225.752797,296.082377,9400.615463
4178.193522,1838.629195,-444.123565,9030.512492
4178.193838,995.924147,-592.164754,10214.842000
4178.194153,0.000000,-0.000000,9696.697840
4178.194468,-919.314598,518.144159,10214.842000
4178.194784,153.219100,1406.391290,9696.697840
4178.195099,1072.533697,1406.391290,8438.347739
4178.195415,1991.848295,370.102971,8660.409521
4178.195730,1838.629195,-814.226536,9696.697840
4178.196045,-306.438199,-370.102971,9844.739029
4178.196361,-1225.752797,-148.041188,10658.965565
4178.196676,-459.657299,-0.000000,10066.800811
4178.196992,995.924147,592.164754,9474.636058
4178.197307,1838.629195,-0.000000,9474.636058
4178.197622,1302.362347,-74.020594,9400.615463
4178.197938,0.000000,222.061783,9844.739029
4178.198253,-1225.752797,962.267725,10214.842000
4178.198569,-383.047749,666.185348,9474.636058
4178.198884,995.924147,1036.288319,9178.553681
4178.199200,1072.533697,962.267725,9400.615463
4178.199515,459.657299,-0.000000,9548.656652
4178.199830,-689.485948,-370.102971,10658.965565
4178.200146,-1532.190996,-370.102971,10881.027347
4178.200461,-383.047749,-0.000000,10807.006753
4178.200777,689.485948,592.164754,10288.862594
4178.201092,1455.581446,592.164754,9252.574275
4178.201407,1608.800546,-592.164754,9696.697840
4178.201723,229.828649,-74.020594,9622.677246
4178.202038,-229.828649,370.102971,9474.636058
4178.202354,612.876398,1036.288319,9104.533087
4178.202669,1455.581446,1480.411884,8216.285956
4178.202984,1838.629195,1110.308913,8216.285956
4178.203300,1225.752797,-222.061783,9030.512492
4178.203615,-612.876398,-888.247130,10214.842000
4178.203931,-1302.362347,-740.205942,11029.068536
4178.204246,-612.876398,-296.082377,10436.903782
4178.204561,306.438199,-0.000000,9844.739029
4178.204877,1225.752797,-0.000000,9622.677246
4178.205192,1225.752797,-222.061783,9770.718434
4178.205508,0.000000,222.061783,9770.718434
4178.205823,-1072.533697,1332.370696,9474.636058
4178.206139,-689.485948,1332.370696,9178.553681
4178.206454,153.219100,1998.556043,8586.388927
4178.206769,689.485948,518.144159,8364.327145
4178.207085,0.000000,-740.205942,9844.739029
4178.207400,-2221.676944,-666.185348,10436.903782
4178.207716,-2911.162892,-740.205942,10066.800811
4178.208031,-2221.676944,-592.164754,10436.903782
4178.208346,-1072.533697,-74.020594,10214.842000
4178.208662,-229.828649,-74.020594,10140.821405
4178.208977,76.609550,-1036.288319,9918.759623
4178.209293,-766.095498,-740.205942,10140.821405
4178.209608,-1685.410096,666.185348,9252.574275
4178.209923,-995.924147,1184.329507,9104.533087
4178.210239,536.266849,1702.473667,8512.368333
4178.210554,1378.971896,1184.329507,8290.306550
4178.210870,1225.752797,-0.000000,8734.430116
4178.211185,0.000000,-1776.494261,9474.636058
4178.211500,-1762.019645,-592.164754,10140.821405
4178.211816,-1685.410096,-962.267725,11177.109724
4178.212131,-153.219100,-370.102971,9992.780217
4178.212447,689.485948,-592.164754,9622.677246
4178.212762,1225.752797,-962.267725,9400.615463
4178.213078,459.657299,-518.144159,9474.636058
4178.213393,-153.219100,592.164754,8956.491898
4178.213708,153.219100,962.267725,9104.533087
4178.214024,1762.019645,1554.432478,8364.327145
4178.214339,2528.115143,1110.308913,8216.285956
4178.214655,2221.676944,-0.000000,8438.347739
4178.214970,612.876398,-222.061783,9622.677246
4178.215285,-1072.533697,-370.102971,10214.842000
4178.215601,-766.095498,-518.144159,11029.068536
4178.215916,536.266849,222.061783,10066.800811
4178.216232,1608.800546,-0.000000,9622.677246
4178.216547,1838.629195,-296.082377,9474.636058
4178.216862,153.219100,-222.061783,9770.718434
4178.217178,-919.314598,592.164754,9400.615463
4178.217493,-459.657299,814.226536,9326.594869
4178.217809,306.438199,1628.453072,9030.512492
4178.218124,1302.362347,1184.329507,8512.368333
4178.218439,1838.629195,-0.000000,9178.553681
4178.218755,766.095498,-518.144159,10362.883188
4178.219070,-1225.752797,-0.000000,10807.006753
4178.219386,-1225.752797,-148.041188,11029.068536
4178.219701,-383.047749,296.082377,10584.944971
4178.220017,1072.533697,666.185348,9400.615463
4178.220332,1915.238745,-0.000000,9474.636058
4178.220647,1225.752797,-222.061783,9622.677246
4178.220963,0.000000,1036.288319,9548.656652
4178.221278,229.828649,1036.288319,9326.594869
4178.221594,1455.581446,1628.453072,8512.368333
4178.221909,2451.505594,1554.432478,8290.306550
4178.222224,2528.115143,-74.020594,8586.388927
4178.222540,1149.143247,-1036.288319,10436.903782
4178.222855,-1072.533697,-666.185348,10288.862594
4178.223171,-1225.752797,-444.123565,10732.986159
4178.223486,-612.876398,-222.061783,10140.821405
4178.223801,153.219100,-0.000000,9474.636058
4178.224117,842.705048,-370.102971,9844.739029
4178.224432,0.000000,-888.247130,10214.842000
4178.224748,-1225.752797,-0.000000,9992.780217
4178.225063,-1762.019645,666.185348,9696.697840
4178.225378,-689.485948,1332.370696,9326.594869
4178.225694,153.219100,1184.329507,8438.347739
4178.226009,766.095498,222.061783,9178.553681
4178.226325,-306.438199,-370.102971,9918.759623
4178.226640,-1838.629195,-148.041188,10510.924376
4178.226956,-2757.943793,-0.000000,10732.986159
4178.227271,-1991.848295,370.102971,10362.883188
4178.227586,-1149.143247,222.061783,9474.636058
4178.227902,-229.828649,-666.185348,9474.636058
4178.228217,-153.219100,-1184.329507,10510.924376
4178.228533,-1762.019645,-740.205942,9844.739029
4178.228848,-2451.505594,74.020594,9696.697840
4178.229163,-1225.752797,1258.350101,8734.430116
4178.229479,229.828649,1036.288319,8586.388927
4178.229794,766.095498,592.164754,8216.285956
4178.230110,306.438199,-518.144159,9474.636058
4178.230425,-612.876398,-296.082377,9918.759623
4178.230740,-1149.143247,-0.000000,9400.615463
4178.231056,0.000000,-148.041188,9770.718434
4178.231371,306.438199,-0.000000,9400.615463
4178.231687,1225.752797,-74.020594,9400.615463
4178.232002,1225.752797,-444.123565,9622.677246
4178.232317,229.828649,-0.000000,9474.636058
4178.232633,0.000000,740.205942,9252.574275
4178.232948,229.828649,1036.288319,8734.430116
4178.233264,1302.362347,1184.329507,8660.409521
4178.233579,1608.800546,592.164754,8364.327145
4178.233895,1302.362347,-592.164754,9622.677246
4178.234210,0.000000,-592.164754,9992.780217
4178.234525,-919.314598,-444.123565,10732.986159
4178.234841,0.000000,296.082377,10510.924376
4178.235156,1072.533697,666.185348,9696.697840
4178.235472,1838.629195,-0.000000,9474.636058
4178.235787,2145.067394,-740.205942,9844.739029
4178.236102,689.485948,-148.041188,9696.697840
4178.236418,-306.438199,148.041188,9770.718434
4178.236733,383.047749,888.247130,9474.636058
4178.237049,1455.581446,1184.329507,8808.450710
4178.237364,1455.581446,518.144159,8364.327145
4178.237679,1762.019645,-518.144159,10362.883188
4178.237995,536.266849,-370.102971,10066.800811
4178.238310,-536.266849,-444.123565,10658.965565
4178.238626,153.219100,-0.000000,10732.986159
4178.238941,919.314598,592.164754,9844.739029
4178.239257,1838.629195,-0.000000,9770.718434
4178.239572,1838.629195,-444.123565,10214.842000
4178.239887,612.876398,-370.102971,10288.862594
4178.240203,306.438199,888.247130,9918.759623
4178.240518,612.876398,1036.288319,9696.697840
4178.240834,1532.190996,1850.514855,8364.327145
4178.241149,2221.676944,1110.308913,8438.347739
4178.241464,1915.238745,-0.000000,9326.594869
4178.241780,0.000000,-148.041188,9548.656652
4178.242095,-919.314598,-370.102971,9992.780217
4178.242411,-919.314598,-222.061783,10362.883188
4178.242726,-612.876398,296.082377,9844.739029
4178.243041,229.828649,-370.102971,9844.739029
4178.243357,459.657299,-962.267725,9918.759623
4178.243672,-536.266849,-888.247130,10214.842000
4178.243988,-1762.019645,-0.000000,9474.636058
4178.244303,-1149.143247,962.267725,9622.677246
4178.244618,-995.924147,1850.514855,8290.306550
4178.244934,153.219100,1110.308913,8216.285956
4178.245249,306.438199,-74.020594,9030.512492
4178.245564,-1225.752797,-1036.288319,10288.862594
4178.245880,-2451.505594,-444.123565,10140.821405
4178.246195,-2451.505594,-592.164754,10436.903782
4178.246511,-1455.581446,-0.000000,9474.636058
4178.246826,-689.485948,-296.082377,9474.636058
4178.247141,-766.095498,-1332.370696,9548.656652
4178.247457,-1455.581446,-1036.288319,10140.821405
4178.247772,-2374.896044,-518.144159,9696.697840
4178.248087,-1532.190996,-0.000000,9400.615463
4178.248403,-383.047749,888.247130,8734.430116
4178.248718,689.485948,1036.288319,8438.347739
4178.249034,1455.581446,-0.000000,9326.594869
4178.249349,0.000000,-592.164754,9474.636058
4178.249664,-842.705048,-222.061783,9844.739029
4178.249980,-1149.143247,148.041188,10584.944971
4178.250295,153.219100,814.226536,9474.636058
4178.250611,1378.971896,370.102971,9178.553681
4178.250926,1685.410096,-296.082377,9474.636058
4178.251241,766.095498,-0.000000,10140.821405
4178.251557,-995.924147,222.061783,9622.677246
4178.251872,-612.876398,962.267725,9474.636058
4178.252187,1149.143247,1406.391290,9252.574275
4178.252503,1378.971896,1480.411884,8290.306550
4178.252818,2145.067394,222.061783,8956.491898
4178.253134,1072.533697,-148.041188,9770.718434
4178.253449,-995.924147,370.102971,10288.862594
4178.253764,-842.705048,222.061783,10214.842000
4178.254080,919.314598,1332.370696,9918.759623
4178.254395,1378.971896,1110.308913,9326.594869
4178.254710,1685.410096,296.082377,9326.594869
4178.255026,919.314598,-370.102971,9918.759623
4178.255341,-689.485948,518.144159,10362.883188
4178.255657,-919.314598,740.205942,10066.800811
4178.255972,306.438199,1258.350101,9474.636058
4178.256287,1072.533697,1184.329507,9252.574275
4178.256603,1915.238745,-0.000000,9696.697840
4178.256918,919.314598,-296.082377,10362.883188
4178.257234,-689.485948,-0.000000,10732.986159
4178.257549,-1072.533697,-148.041188,10584.944971
4178.257864,0.000000,444.123565,10362.883188
4178.258180,1532.190996,592.164754,9770.718434
4178.258495,2221.676944,-74.020594,9548.656652
4178.258810,1685.410096,-296.082377,9474.636058
4178.259126,229.828649,370.102971,9770.718434
4178.259441,-383.047749,1184.329507,9696.697840
4178.259757,536.266849,1258.350101,9622.677246
4178.260072,1532.190996,1332.370696,8808.450710
4178.260387,1991.848295,-148.041188,8660.409521
4178.260703,1149.143247,-592.164754,9918.759623
4178.261018,-536.266849,-370.102971,9770.718434
4178.261334,-1685.410096,-0.000000,10436.903782
4178.261649,-995.924147,222.061783,9844.739029
4178.261964,612.876398,592.164754,9252.574275
4178.262280,995.924147,-0.000000,9252.574275
4178.262595,459.657299,-444.123565,9696.697840
4178.262910,-1302.362347,-0.000000,10436.903782
4178.263226,-1838.629195,-74.020594,9918.759623
4178.263541,-1608.800546,148.041188,9400.615463
4178.263857,-383.047749,888.247130,8882.471304
4178.264172,229.828649,-74.020594,9178.553681
4178.264487,153.219100,-296.082377,9474.636058
4178.264803,-842.705048,-444.123565,9400.615463
4178.265118,-2068.457845,-74.020594,9326.594869
4178.265433,-1149.143247,296.082377,9326.594869
4178.265749,0.000000,444.123565,8882.471304
4178.266064,383.047749,-0.000000,8882.471304
4178.266380,459.657299,-962.267725,8734.430116
4178.266695,-1225.752797,-1036.288319,9622.677246
4178.267010,-2451.505594,-444.123565,9696.697840
4178.267326,-1455.581446,-74.020594,9474.636058
4178.267641,-306.438199,592.164754,8586.388927
4178.267957,612.876398,-518.144159,8882.471304
4178.268272,306.438199,-962.267725,9770.718434
4178.268587,-1072.533697,-1036.288319,10140.821405
4178.268903,-1762.019645,-814.226536,10584.944971
4178.269218,-306.438199,-148.041188,10288.862594
4178.269533,1072.533697,518.144159,9474.636058
4178.269849,1455.581446,296.082377,8734.430116
4178.270164,1685.410096,-444.123565,10214.842000
4178.270480,689.485948,-0.000000,9474.636058
4178.270795,-612.876398,444.123565,9474.636058
4178.271110,-459.657299,962.267725,9252.574275
4178.271426,689.485948,962.267725,8956.491898
4178.271741,1685.410096,148.041188,9178.553681
4178.272057,1302.362347,-666.185348,9992.780217
4178.272372,76.609550,-740.205942,10436.903782
4178.272687,-383.047749,-444.123565,10584.944971
4178.273003,-383.047749,-148.041188,10584.944971
4178.273318,689.485948,814.226536,9696.697840
4178.273633,1838.629195,592.164754,9696.697840
4178.273949,1762.019645,370.102971,9252.574275
4178.274264,766.095498,296.082377,9992.780217
4178.274580,-459.657299,1332.370696,9474.636058
4178.274895,-383.047749,1628.453072,9474.636058
4178.275210,689.485948,1480.411884,8808.450710
4178.275526,1455.581446,370.102971,9030.512492
4178.275841,919.314598,-888.247130,9696.697840
4178.276156,-306.438199,-1332.370696,10510.924376
4178.276472,-1838.629195,-0.000000,10658.965565
4178.276787,-1378.971896,444.123565,10658.965565
4178.277103,459.657299,666.185348,9252.574275
4178.277418,1378.971896,370.102971,9178.553681
4178.277733,1685.410096,148.041188,9104.533087
4178.278049,1302.362347,222.061783,8882.471304
4178.278364,-229.828649,1258.350101,8290.306550
4178.278680,229.828649,1110.308913,9326.594869
4178.278995,1225.752797,1184.329507,9326.594869
4178.279310,1685.410096,296.082377,9326.594869
4178.279626,1378.971896,-296.082377,9696.697840
4178.279941,229.828649,-814.226536,10288.862594
4178.280256,-919.314598,-0.000000,10658.965565
4178.280572,-612.876398,-0.000000,10362.883188
4178.280887,306.438199,592.164754,10140.821405
4178.281203,1072.533697,592.164754,9178.553681
4178.281518,1685.410096,-444.123565,9326.594869
4178.281833,612.876398,-0.000000,9918.759623
4178.282149,-842.705048,1258.350101,9918.759623
4178.282464,-919.314598,1480.411884,9474.636058
4178.282779,76.609550,1406.391290,9622.677246
4178.283095,919.314598,666.185348,9030.512492
4178.283410,995.924147,-74.020594,9474.636058
4178.283726,-383.047749,-444.123565,10288.862594
4178.284041,-2528.115143,-444.123565,10881.027347
4178.284356,-2681.334243,-370.102971,10807.006753
4178.284672,-1608.800546,-74.020594,9474.636058
4178.284987,-383.047749,-592.164754,9918.759623
4178.285303,306.438199,-814.226536,9918.759623
4178.285618,-383.047749,-0.000000,9622.677246
4178.285933,-1762.019645,444.123565,9178.553681
4178.286249,-1991.848295,962.267725,9548.656652
4178.286564,-229.828649,1258.350101,9252.574275
4178.286879,536.266849,962.267725,8882.471304
4178.287195,842.705048,-148.041188,9474.636058
4178.287510,0.000000,-888.247130,9992.780217
4178.287826,-1455.581446,-296.082377,10362.883188
4178.288141,-1149.143247,-148.041188,10362.883188
4178.288456,0.000000,296.082377,9622.677246
4178.288772,1149.143247,444.123565,9474.636058
4178.289087,1532.190996,-0.000000,8290.306550
4178.289403,1302.362347,-370.102971,8956.491898
4178.289718,-306.438199,666.185348,8882.471304
4178.290033,-1072.533697,370.102971,9104.533087
4178.290349,383.047749,962.267725,8660.409521
4178.290664,1072.533697,888.247130,8808.450710
4178.290979,1915.238745,-444.123565,8734.430116
4178.291295,919.314598,-1258.350101,10140.821405
4178.291610,-919.314598,-296.082377,10436.903782
4178.291926,-1072.533697,-222.061783,10732.986159
4178.292241,306.438199,814.226536,9696.697840
4178.292556,1915.238745,222.061783,9918.759623
4178.292872,2221.676944,-148.041188,9326.594869
4178.293187,1685.410096,-222.061783,9844.739029
4178.293502,383.047749,592.164754,9622.677246
4178.293818,-612.876398,1036.288319,9252.574275
4178.294133,0.000000,1406.391290,9104.533087
4178.294449,995.924147,740.205942,9326.594869
4178.294764,1072.533697,-222.061783,9548.656652
4178.295079,306.438199,-1776.494261,10362.883188
4178.295395,-1225.752797,-1184.329507,11399.171507
4178.295710,-1608.800546,-592.164754,10807.006753
4178.296026,-229.828649,-222.061783,10288.862594
4178.296341,1225.752797,-74.020594,9918.759623
4178.296656,1838.629195,148.041188,9030.512492
4178.296972,2374.896044,-0.000000,8660.409521
4178.297287,689.485948,666.185348,9030.512492
4178.297602,-306.438199,1332.370696,9252.574275
4178.297918,153.219100,1258.350101,8956.491898
4178.298233,1838.629195,222.061783,8660.409521
4178.298549,1455.581446,-74.020594,9104.533087
4178.298864,766.095498,-1258.350101,9622.677246
4178.299179,-536.266849,-1184.329507,10584.944971
4178.299495,-1608.800546,-518.144159,11251.130318
4178.299810,-1455.581446,-0.000000,10807.006753
4178.300126,689.485948,518.144159,9992.780217
4178.300441,1455.581446,222.061783,9178.553681
4178.300756,1532.190996,-296.082377,9178.553681
4178.301072,383.047749,444.123565,9104.533087
4178.301387,-1225.752797,518.144159,8956.491898
4178.301702,-919.314598,1036.288319,9326.594869
4178.302018,306.438199,1332.370696,8660.409521
4178.302333,306.438199,444.123565,9030.512492
4178.302649,153.219100,-1110.308913,10214.842000
4178.302964,-1838.629195,-962.267725,10510.924376
4178.303279,-2987.772442,-814.226536,10955.047942
4178.303595,-2068.457845,-814.226536,11029.068536
4178.303910,-766.095498,222.061783,9918.759623
4178.304225,459.657299,-0.000000,9104.533087
4178.304541,995.924147,-814.226536,9326.594869
4178.304856,0.000000,592.164754,9178.553681
4178.305172,-1532.190996,1480.411884,8882.471304
4178.305487,-1225.752797,1702.473667,9030.512492
4178.305802,-306.438199,1850.514855,8660.409521
4178.306118,306.438199,518.144159,8586.388927
4178.306433,689.485948,-1332.370696,9918.759623
4178.306749,-612.876398,-1332.370696,10881.027347
4178.307064,-2068.457845,-1184.329507,11103.089130
4178.307379,-1838.629195,-0.000000,10807.006753
4178.307695,153.219100,-0.000000,10140.821405
4178.308010,1608.800546,-0.000000,8956.491898
4178.308325,2451.505594,296.082377,8512.368333
4178.308641,1455.581446,370.102971,8660.409521
4178.308956,0.000000,888.247130,8290.306550
4178.309272,0.000000,1480.411884,8734.430116
4178.309587,842.705048,1554.432478,8216.285956
4178.309902,1608.800546,740.205942,7994.224174
4178.310218,1685.410096,-592.164754,9770.718434
4178.310533,76.609550,-962.267725,10807.006753
4178.310848,-1455.581446,-1332.370696,11103.089130
4178.311164,-1532.190996,-592.164754,11399.171507
4178.311479,229.828649,148.041188,10362.883188
4178.311795,1455.581446,666.185348,9326.594869
4178.312110,1915.238745,222.061783,9474.636058
4178.312425,1302.362347,962.267725,9474.636058
4178.312741,0.000000,1480.411884,9030.512492
4178.313056,-153.219100,2072.576638,8956.491898
4178.313372,842.705048,2368.659014,9104.533087
4178.313687,1685.410096,1628.453072,8068.244768
4178.314002,1838.629195,-148.041188,9400.615463
4178.314318,0.000000,-1258.350101,11177.109724
4178.314633,-1532.190996,-888.247130,11473.192101
4178.314948,-1915.238745,-740.205942,11695.253884
4178.315264,-536.266849,-592.164754,10807.006753
4178.315579,1302.362347,148.041188,9548.656652
4178.315895,1762.019645,-0.000000,9400.615463
4178.316210,842.705048,370.102971,9622.677246
4178.316525,0.000000,1332.370696,9104.533087
4178.316841,-459.657299,1480.411884,8808.450710
4178.317156,612.876398,1406.391290,8660.409521
4178.317472,995.924147,1036.288319,8734.430116
4178.317787,1149.143247,-592.164754,9474.636058
4178.318102,229.828649,-1554.432478,10732.986159
4178.318418,-919.314598,-962.267725,10955.047942
4178.318733,-1838.629195,-888.247130,11103.089130
4178.319048,-229.828649,-222.061783,10584.944971
4178.319364,229.828649,-0.000000,8660.409521
4178.319679,1225.752797,-740.205942,9104.533087
4178.319995,1149.143247,-518.144159,8956.491898
4178.320310,-1225.752797,592.164754,9326.594869
4178.320625,-1302.362347,1554.432478,8882.471304
4178.320941,-612.876398,1036.288319,9030.512492
4178.321256,612.876398,1258.350101,8660.409521
4178.321571,842.705048,-370.102971,8734.430116
4178.321887,0.000000,-888.247130,9918.759623
4178.322202,-2068.457845,-666.185348,10658.965565
4178.322518,-2604.724693,-814.226536,10955.047942
4178.322833,-1302.362347,-740.205942,10658.965565
4178.323148,-306.438199,-222.061783,9400.615463
4178.323464,995.924147,-74.020594,9178.553681
4178.323779,689.485948,-592.164754,9252.574275
4178.324095,-536.266849,666.185348,9326.594869
4178.324410,-1378.971896,1406.391290,9252.574275
4178.324725,-689.485948,1554.432478,8216.285956
4178.325041,612.876398,814.226536,8512.368333
4178.325356,1225.752797,-74.020594,9030.512492
4178.325671,536.266849,-1480.411884,9918.759623
4178.325987,-1302.362347,-1036.288319,10510.924376
4178.326302,-2374.896044,-1036.288319,11251.130318
4178.326618,-842.705048,-222.061783,10436.903782
4178.326933,1149.143247,-0.000000,9474.636058
4178.327248,1838.629195,-148.041188,9104.533087
4178.327564,1302.362347,-0.000000,9548.656652
4178.327879,383.047749,592.164754,8734.430116
4178.328195,0.000000,962.267725,8956.491898
4178.328510,0.000000,1406.391290,8882.471304
4178.328825,1149.143247,1332.370696,8142.265362
4178.329141,1991.848295,-0.000000,8660.409521
4178.329456,995.924147,-1036.288319,10214.842000
4178.329771,0.000000,-888.247130,10658.965565
4178.330087,-1225.752797,-888.247130,10955.047942
4178.330402,-612.876398,-0.000000,10288.862594
4178.330718,612.876398,370.102971,10288.862594
4178.331033,1838.629195,666.185348,8882.471304
4178.331348,1455.581446,-0.000000,9548.656652
4178.331664,612.876398,962.267725,9326.594869
4178.331979,-612.876398,1332.370696,9030.512492
4178.332294,153.219100,1480.411884,8512.368333
4178.332610,919.314598,1406.391290,8512.368333
4178.332925,1455.581446,592.164754,9622.677246
4178.333241,995.924147,-814.226536,10066.800811
4178.333556,-689.485948,-592.164754,10881.027347
4178.333871,-2068.457845,-444.123565,11251.130318
4178.334187,-842.705048,-148.041188,10881.027347
4178.334502,1149.143247,148.041188,9844.739029
4178.334818,1991.848295,-0.000000,9400.615463
4178.335133,1991.848295,-222.061783,9326.594869
4178.335448,689.485948,518.144159,9030.512492
4178.335764,-229.828649,1480.411884,9104.533087
4178.336079,459.657299,1480.411884,9104.533087
4178.336394,1302.362347,1258.350101,8734.430116
4178.336710,1455.581446,592.164754,8956.491898
4178.337025,1302.362347,-1036.288319,9918.759623
4178.337341,-612.876398,-962.267725,10732.986159
4178.337656,-2145.067394,-518.144159,11325.150913
4178.337971,-1378.971896,-222.061783,11473.192101
4178.338287,0.000000,592.164754,10140.821405
4178.338602,1225.752797,-592.164754,9178.553681
4178.338917,1455.581446,-518.144159,9770.718434
4178.339233,153.219100,-370.102971,9400.615463
4178.339548,-842.705048,1554.432478,9252.574275
4178.339864,-1072.533697,1776.494261,8660.409521
4178.340179,383.047749,1998.556043,8216.285956
4178.340494,919.314598,222.061783,8512.368333
4178.340810,612.876398,-1332.370696,9548.656652
4178.341125,-995.924147,-2072.576638,10140.821405
4178.341441,-2681.334243,-1332.370696,10510.924376
4178.341756,-2604.724693,-814.226536,10881.027347
4178.342071,-766.095498,-148.041188,9844.739029
4178.342387,459.657299,-0.000000,9252.574275
4178.342702,766.095498,-592.164754,8660.409521
4178.343017,-306.438199,-296.082377,8956.491898
4178.343333,-689.485948,962.267725,8808.450710
4178.343648,-1455.581446,740.205942,9178.553681
4178.343964,-383.047749,1258.350101,9252.574275
4178.344279,842.705048,888.247130,8216.285956
4178.344595,842.705048,-444.123565,9400.615463
4178.344910,459.657299,-1258.350101,10066.800811
4178.345225,-1149.143247,-962.267725,9992.780217
4178.345541,-766.095498,-518.144159,10510.924376
4178.345856,0.000000,222.061783,9844.739029
4178.346172,1378.971896,666.185348,8808.450710
4178.346487,1915.238745,-444.123565,8364.327145
4178.346802,1225.752797,-74.020594,9030.512492
4178.347118,-766.095498,888.247130,9030.512492
4178.347433,-842.705048,1110.308913,9030.512492
4178.347749,689.485948,1702.473667,8808.450710
4178.348064,1302.362347,962.267725,8956.491898
4178.348380,1532.190996,-0.000000,9326.594869
4178.348695,689.485948,-592.164754,10955.047942
4178.349010,-1455.581446,-592.164754,12065.356855
4178.349326,-1378.971896,-444.123565,11621.233289
4178.349641,0.000000,814.226536,11103.089130
4178.349957,1225.752797,1258.350101,9178.553681
4178.350272,1991.848295,518.144159,9252.574275
4178.350588,1225.752797,666.185348,9548.656652
4178.350903,0.000000,1184.329507,9326.594869
4178.351218,-306.438199,1480.411884,9252.574275
4178.351534,306.438199,1702.473667,9474.636058
4178.351849,1072.533697,1702.473667,9104.533087
4178.352165,1532.190996,-0.000000,9400.615463
4178.352480,766.095498,-814.226536,10436.903782
4178.352796,-689.485948,-814.226536,10955.047942
4178.353111,-536.266849,-444.123565,10881.027347
4178.353426,0.000000,740.205942,10584.944971
4178.353742,1302.362347,740.205942,9400.615463
4178.354057,1991.848295,148.041188,9474.636058
4178.354373,1685.410096,-74.020594,9548.656652
4178.354688,0.000000,370.102971,9548.656652
4178.355003,-689.485948,814.226536,9548.656652
4178.355319,153.219100,1406.391290,9400.615463
4178.355634,1685.410096,1184.329507,8438.347739
4178.355950,1608.800546,222.061783,9030.512492
4178.356265,1225.752797,-888.247130,10362.883188
4178.356581,-689.485948,-444.123565,10807.006753
4178.356896,-1225.752797,-0.000000,10732.986159
4178.357211,-383.047749,-0.000000,9992.780217
4178.357527,1072.533697,518.144159,8956.491898
4178.357842,1149.143247,-0.000000,9030.512492
4178.358158,612.876398,-518.144159,9178.553681
4178.358473,-612.876398,-0.000000,9178.553681
4178.358789,-1685.410096,370.102971,8956.491898
4178.359104,-1225.752797,888.247130,8734.430116
4178.359419,-306.438199,888.247130,8808.450710
4178.359735,0.000000,-74.020594,8882.471304
4178.360050,-689.485948,-1406.391290,10140.821405
4178.360366,-1685.410096,-1036.288319,10436.903782
4178.360681,-2834.553343,-962.267725,10955.047942
4178.360997,-2145.067394,-0.000000,10066.800811
4178.361312,-689.485948,296.082377,9918.759623
4178.361627,459.657299,-0.000000,9252.574275
4178.361943,383.047749,-444.123565,8882.471304
4178.362258,-842.705048,-0.000000,8808.450710
4178.362574,-2068.457845,1036.288319,9178.553681
4178.362889,-1838.629195,370.102971,8956.491898
4178.363204,0.000000,592.164754,8660.409521
4178.363520,383.047749,-0.000000,8216.285956
4178.363835,229.828649,-1776.494261,10066.800811
4178.364151,-1225.752797,-962.267725,10584.944971
4178.364466,-1762.019645,-1406.391290,11103.089130
4178.364782,-766.095498,-666.185348,10658.965565
4178.365097,536.266849,-0.000000,9474.636058
4178.365412,1378.971896,740.205942,8438.347739
4178.365728,1991.848295,370.102971,8956.491898
4178.366043,536.266849,888.247130,8586.388927
4178.366359,-306.438199,1406.391290,8956.491898
4178.366674,153.219100,1258.350101,9178.553681
4178.366990,919.314598,1702.473667,8660.409521
4178.367305,1915.238745,296.082377,9474.636058
4178.367620,1915.238745,-888.247130,10584.944971
4178.367936,229.828649,-666.185348,10584.944971
4178.368251,-1225.752797,-518.144159,11325.150913
4178.368567,-612.876398,370.102971,11325.150913
4178.368882,995.924147,888.247130,9918.759623
4178.369198,1915.238745,740.205942,9178.553681
4178.369513,2068.457845,-148.041188,9104.533087
4178.369828,995.924147,666.185348,9104.533087
4178.370144,-536.266849,1332.370696,9326.594869
4178.370459,-153.219100,740.205942,9696.697840
4178.370775,229.828649,1850.514855,9252.574275
4178.371090,1608.800546,592.164754,9178.553681
4178.371405,1149.143247,-888.247130,10510.924376
4178.371721,76.609550,-1036.288319,11695.253884
4178.372036,-1072.533697,-1036.288319,11769.274478
4178.372352,-612.876398,-0.000000,11029.068536
4178.372667,995.924147,1480.411884,9696.697840
4178.372983,2374.896044,1110.308913,8956.491898
4178.373298,2604.724693,-0.000000,8882.471304
4178.373613,1608.800546,-0.000000,9252.574275
4178.373929,-459.657299,814.226536,8956.491898
4178.374244,-229.828649,1110.308913,8882.471304
4178.374560,536.266849,1406.391290,8142.265362
4178.374875,919.314598,-74.020594,8956.491898
4178.375191,1378.971896,-1850.514855,9548.656652
4178.375506,306.438199,-1998.556043,10510.924376
4178.375821,-1608.800546,-1110.308913,10732.986159
4178.376137,-1532.190996,-592.164754,10881.027347
4178.376452,-306.438199,814.226536,10214.842000
4178.376768,1455.581446,1184.329507,9030.512492
4178.377083,995.924147,740.205942,8808.450710
4178.377399,766.095498,592.164754,9104.533087
4178.377714,-689.485948,814.226536,9030.512492
4178.378029,-1915.238745,1628.453072,9104.533087
4178.378345,-995.924147,1406.391290,9252.574275
4178.378660,0.000000,666.185348,9104.533087
4178.378976,0.000000,-1258.350101,9918.759623
4178.379291,-1225.752797,-1850.514855,11177.109724
4178.379606,-3064.381992,-1702.473667,11177.109724
4178.379922,-3294.210641,-1184.329507,11251.130318
4178.380237,-1608.800546,-148.041188,10214.842000
4178.380553,0.000000,592.164754,8660.409521
4178.380868,766.095498,-148.041188,9030.512492
4178.381184,229.828649,-370.102971,8956.491898
4178.381499,-1072.533697,666.185348,8882.471304
4178.381814,-1302.362347,1554.432478,8512.368333
4178.382130,0.000000,1628.453072,8142.265362
4178.382445,612.876398,1036.288319,8734.430116
4178.382761,1149.143247,-370.102971,9252.574275
4178.383076,76.609550,-2146.597232,10214.842000
4178.383392,-1072.533697,-1776.494261,11177.109724
4178.383707,-1915.238745,-1406.391290,11029.068536
4178.384022,-306.438199,-518.144159,10510.924376
4178.384338,919.314598,-0.000000,9696.697840
4178.384653,1532.190996,-148.041188,8808.450710
4178.384969,1532.190996,-370.102971,8882.471304
4178.385284,76.609550,592.164754,8586.388927
4178.385600,-153.219100,592.164754,8660.409521
4178.385915,536.266849,888.247130,8290.306550
4178.386230,1915.238745,1332.370696,8438.347739
4178.386546,1915.238745,-296.082377,8882.471304
4178.386861,995.924147,-1480.411884,10140.821405
4178.387177,-1225.752797,-1332.370696,11547.212695
4178.387492,-1225.752797,-888.247130,11325.150913
4178.387807,229.828649,148.041188,9918.759623
4178.388123,1762.019645,962.267725,9326.594869
4178.388438,2221.676944,740.205942,8586.388927
4178.388754,1532.190996,222.061783,9178.553681
4178.389069,0.000000,1184.329507,8956.491898
4178.389385,-1532.190996,1184.329507,8512.368333
4178.389700,0.000000,1554.432478,9252.574275
4178.390015,1225.752797,1184.329507,9326.594869
4178.390331,1532.190996,-222.061783,9474.636058
4178.390646,612.876398,-1036.288319,10510.924376
4178.390962,-919.314598,-1184.329507,11621.233289
4178.391277,-1608.800546,-370.102971,11473.192101
4178.391593,0.000000,74.020594,10584.944971
4178.391908,1225.752797,888.247130,9622.677246
4178.392223,1762.019645,740.205942,9252.574275
4178.392539,2145.067394,296.082377,8882.471304
4178.392854,612.876398,518.144159,8808.450710
4178.393170,-229.828649,1110.308913,9030.512492
4178.393485,0.000000,1184.329507,9252.574275
4178.393801,689.485948,1258.350101,8808.450710
4178.394116,1225.752797,-0.000000,9252.574275
4178.394431,1072.533697,-1924.535449,10807.006753
4178.394747,-612.876398,-1406.391290,11251.130318
4178.395062,-1532.190996,-1184.329507,11325.150913
4178.395378,-842.705048,-148.041188,11029.068536
4178.395693,306.438199,222.061783,9770.718434
4178.396008,1685.410096,296.082377,8660.409521
4178.396324,1762.019645,-0.000000,9104.533087
4178.396639,229.828649,888.247130,8734.430116
4178.396955,-1072.533697,1406.391290,8882.471304
4178.397270,-536.266849,1332.370696,8660.409521
4178.397586,0.000000,740.205942,8660.409521
4178.397901,0.000000,-0.000000,9104.533087
4178.398216,0.000000,-1628.453072,10510.924376
4178.398532,-1762.019645,-1332.370696,11177.109724
4178.398847,-2145.067394,-1110.308913,11103.089130
4178.399163,-2298.286494,-74.020594,11177.109724
4178.399478,-459.657299,814.226536,9844.739029
4178.399794,459.657299,666.185348,8956.491898
4178.400109,459.657299,370.102971,8586.388927
4178.400424,0.000000,518.144159,8216.285956
4178.400740,-612.876398,1036.288319,8660.409521
4178.401055,-689.485948,1406.391290,8364.327145
4178.401371,-229.828649,1850.514855,8068.244768
4178.401686,689.485948,814.226536,8364.327145
4178.402002,536.266849,-1258.350101,9770.718434
4178.402317,-1072.533697,-740.205942,10510.924376
4178.402632,-2221.676944,-1110.308913,10658.965565
4178.402948,-1302.362347,-888.247130,11325.150913
4178.403263,-229.828649,-222.061783,10214.842000
4178.403579,1302.362347,-0.000000,9326.594869
4178.403894,1685.410096,-148.041188,9252.574275
4178.404209,842.705048,370.102971,8586.388927
4178.404525,0.000000,1480.411884,8512.368333
4178.404840,229.828649,1628.453072,8290.306550
4178.405156,1455.581446,1924.535449,7994.224174
4178.405471,1532.190996,1332.370696,8512.368333
4178.405787,995.924147,-888.247130,9770.718434
4178.406102,-459.657299,-1258.350101,11029.068536
4178.406417,-1838.629195,-1554.432478,11843.295072
4178.406733,-1378.971896,-1258.350101,11991.336260
4178.407048,0.000000,-370.102971,10584.944971
4178.407364,1378.971896,-0.000000,9918.759623
4178.407679,1455.581446,-0.000000,9474.636058
4178.407995,842.705048,296.082377,9252.574275
4178.408310,-306.438199,1776.494261,8438.347739
4178.408625,0.000000,1184.329507,8734.430116
4178.408941,766.095498,1480.411884,8512.368333
4178.409256,1455.581446,1258.350101,8290.306550
4178.409572,1838.629195,-444.123565,9696.697840
4178.409887,0.000000,-1184.329507,11325.150913
4178.410203,-1225.752797,-888.247130,11843.295072
4178.410518,-766.095498,-962.267725,11843.295072
4178.410833,153.219100,296.082377,10658.965565
4178.411149,1838.629195,222.061783,9252.574275
4178.411464,2145.067394,222.061783,9326.594869
4178.411780,1302.362347,518.144159,9326.594869
4178.412095,-76.609550,666.185348,9104.533087
4178.412410,0.000000,1184.329507,9104.533087
4178.412726,766.095498,1480.411884,8216.285956
4178.413041,2068.457845,666.185348,7994.224174
4178.413357,1608.800546,-518.144159,9326.594869
4178.413672,153.219100,-962.267725,10214.842000
4178.413988,-1378.971896,-1406.391290,11103.089130
4178.414303,-1608.800546,-1258.350101,10955.047942
4178.414618,-306.438199,-444.123565,10955.047942
4178.414934,1149.143247,-0.000000,9474.636058
4178.415249,1685.410096,222.061783,8734.430116
4178.415565,536.266849,-0.000000,8882.471304
4178.415880,-383.047749,592.164754,8290.306550
4178.416196,-1532.190996,444.123565,8660.409521
4178.416511,-306.438199,1406.391290,8364.327145
4178.416826,0.000000,962.267725,8364.327145
4178.417142,306.438199,-592.164754,8808.450710
4178.417457,-306.438199,-1850.514855,9918.759623
4178.417773,-2221.676944,-1406.391290,10881.027347
4178.418088,-2911.162892,-1776.494261,11029.068536
4178.418404,-1915.238745,-222.061783,10510.924376
4178.418719,229.828649,592.164754,9474.636058
4178.419034,766.095498,222.061783,9030.512492
4178.419350,842.705048,-444.123565,9030.512492
4178.419665,-995.924147,-0.000000,9104.533087
4178.419981,-1608.800546,1110.308913,8586.388927
4178.420296,-766.095498,1702.473667,8586.388927
4178.420611,689.485948,1850.514855,8142.265362
4178.420927,1378.971896,592.164754,9030.512492
4178.421242,306.438199,-1110.308913,9844.739029
4178.421558,-1532.190996,-592.164754,10584.944971
4178.421873,-1991.848295,-444.123565,11325.150913
4178.422189,-536.266849,296.082377,10658.965565
4178.422504,536.266849,592.164754,9622.677246
4178.422819,1608.800546,222.061783,9548.656652
4178.423135,919.314598,-148.041188,9252.574275
4178.423450,-229.828649,518.144159,9326.594869
4178.423766,-919.314598,1628.453072,9178.553681
4178.424081,153.219100,1480.411884,9178.553681
4178.424397,1532.190996,2368.659014,8364.327145
4178.424712,1915.238745,1184.329507,9030.512492
4178.425027,1378.971896,-0.000000,10066.800811
4178.425343,-383.047749,-370.102971,10658.965565
4178.425658,-1991.848295,-444.123565,11547.212695
4178.425974,-536.266849,-0.000000,11177.109724
4178.426289,1302.362347,666.185348,10066.800811
4178.426605,1762.019645,370.102971,9770.718434
4178.426920,1225.752797,370.102971,9622.677246
4178.427235,229.828649,666.185348,9252.574275
4178.427551,-1225.752797,814.226536,9622.677246
4178.427866,-229.828649,1184.329507,9918.759623
4178.428182,995.924147,1406.391290,8734.430116
4178.428497,1455.581446,-0.000000,9104.533087
4178.428812,1149.143247,-1036.288319,10584.944971
4178.429128,-612.876398,-740.205942,10955.047942
4178.429443,-1072.533697,-814.226536,11029.068536
4178.429759,0.000000,-444.123565,11177.109724
4178.430074,1685.410096,148.041188,9992.780217
4178.430390,2374.896044,-0.000000,9622.677246
4178.430705,2451.505594,-444.123565,9030.512492
4178.431020,1685.410096,-0.000000,9030.512492
4178.431336,153.219100,370.102971,8808.450710
4178.431651,766.095498,370.102971,8734.430116
4178.431967,1072.533697,1406.391290,7846.182985
4178.432282,1838.629195,370.102971,8142.265362
4178.432598,1532.190996,-1110.308913,9622.677246
4178.432913,-229.828649,-1554.432478,10584.944971
4178.433228,-2221.676944,-1332.370696,10658.965565
4178.433544,-1685.410096,-1406.391290,11029.068536
4178.433859,0.000000,-0.000000,10066.800811
4178.434175,1072.533697,148.041188,9178.553681
4178.434490,1532.190996,-222.061783,9326.594869
4178.434806,383.047749,-0.000000,9474.636058
4178.435121,-1149.143247,740.205942,9326.594869
4178.435436,-842.705048,1184.329507,8882.471304
4178.435752,0.000000,1628.453072,8068.244768
4178.436067,689.485948,518.144159,8734.430116
4178.436383,842.705048,-740.205942,9474.636058
4178.436698,-1455.581446,-1702.473667,9918.759623
4178.437013,-2757.943793,-1776.494261,10732.986159
4178.437329,-2451.505594,-1480.411884,10658.965565
4178.437644,-842.705048,-444.123565,9548.656652
4178.437960,766.095498,-444.123565,9178.553681
4178.438275,766.095498,-814.226536,8956.491898
4178.438591,-229.828649,-148.041188,9326.594869
4178.438906,-1685.410096,370.102971,8512.368333
4178.439221,-1072.533697,444.123565,8586.388927
4178.439537,0.000000,962.267725,8512.368333
4178.439852,612.876398,962.267725,8734.430116
4178.440168,995.924147,-370.102971,9770.718434
4178.440483,-383.047749,-888.247130,10436.903782
4178.440799,-1608.800546,-666.185348,11029.068536
4178.441114,-1685.410096,-148.041188,11621.233289
4178.441429,-536.266849,666.185348,10510.924376
4178.441745,1302.362347,814.226536,9622.677246
4178.442060,1915.238745,814.226536,9252.574275
4178.442376,1072.533697,148.041188,9474.636058
4178.442691,-383.047749,1184.329507,9178.553681
4178.443007,-612.876398,1850.514855,8586.388927
4178.443322,306.438199,2146.597232,8660.409521
4178.443637,1455.581446,1554.432478,8734.430116
4178.443953,1685.410096,666.185348,9474.636058
4178.444268,459.657299,-592.164754,10362.883188
4178.444588,-1302.362347,-370.102971,11177.109724
4178.444904,-1455.581446,-0.000000,11547.212695
4178.445219,0.000000,888.247130,10658.965565
4178.445534,1378.971896,1332.370696,9178.553681
4178.445850,1991.848295,888.247130,9474.636058
4178.446165,1149.143247,1036.288319,9696.697840
4178.446481,-229.828649,1480.411884,9178.553681
4178.446796,-383.047749,1554.432478,9548.656652
4178.447112,-383.047749,2220.617826,9178.553681
4178.447427,689.485948,1554.432478,8734.430116
4178.447743,1225.752797,-0.000000,9400.615463
4178.448058,459.657299,-1628.453072,10658.965565
4178.448374,-1225.752797,-1258.350101,10955.047942
4178.448689,-1532.190996,-1036.288319,11103.089130
4178.449005,-383.047749,148.041188,10140.821405
4178.449320,1225.752797,740.205942,9474.636058
4178.449635,2145.067394,-74.020594,8956.491898
4178.449951,2298.286494,-296.082377,8660.409521
4178.450266,612.876398,592.164754,8660.409521
4178.450582,-459.657299,1036.288319,8660.409521
4178.450897,766.095498,740.205942,9326.594869
4178.451213,1685.410096,1036.288319,8142.265362
4178.451528,1685.410096,-370.102971,8660.409521
4178.451844,1225.752797,-1924.535449,10066.800811
4178.452159,-612.876398,-1184.329507,10881.027347
4178.452475,-1149.143247,-1110.308913,10510.924376
4178.452790,-612.876398,-740.205942,10658.965565
4178.453106,1149.143247,888.247130,9252.574275
4178.453421,1455.581446,222.061783,8882.471304
4178.453736,1608.800546,-444.123565,8586.388927
4178.454052,459.657299,-0.000000,9030.512492
4178.454367,-919.314598,814.226536,8734.430116
4178.454683,-536.266849,962.267725,8956.491898
4178.454998,766.095498,1258.350101,8512.368333
4178.455314,842.705048,-0.000000,8956.491898
4178.455629,536.266849,-1184.329507,10066.800811
4178.455945,-1762.019645,-1554.432478,10955.047942
4178.456260,-3064.381992,-740.205942,11325.150913
4178.456576,-2068.457845,-740.205942,10658.965565
4178.456891,0.000000,592.164754,9770.718434
4178.457207,-153.219100,-0.000000,9252.574275
4178.457522,612.876398,-814.226536,9326.594869
4178.457838,-1149.143247,-0.000000,9326.594869
4178.458153,-1762.019645,222.061783,9252.574275
4178.458468,-1378.971896,518.144159,9178.553681
4178.458784,306.438199,1406.391290,8660.409521
4178.459099,536.266849,296.082377,8808.450710
4178.459415,153.219100,-1332.370696,9844.739029
4178.459730,-1225.752797,-1776.494261,10362.883188
4178.460046,-2221.676944,-1702.473667,11029.068536
4178.460361,-1072.533697,-1036.288319,10658.965565
4178.460677,153.219100,222.061783,9770.718434
4178.460992,1455.581446,296.082377,9400.615463
4178.461308,1685.410096,296.082377,9770.718434
4178.461623,0.000000,962.267725,7476.080014
4178.461939,-459.657299,-0.000000,9918.759623
4178.462254,306.438199,814.226536,9030.512492
4178.462569,383.047749,1036.288319,9030.512492
4178.462885,1608.800546,518.144159,9548.656652
4178.463200,1455.581446,-444.123565,9696.697840
4178.463516,76.609550,-592.164754,10881.027347
4178.463831,-1072.533697,-444.123565,11547.212695
4178.464147,-842.705048,-0.000000,10658.965565
4178.464462,766.095498,1036.288319,9622.677246
4178.464778,2068.457845,740.205942,8734.430116
4178.465093,1991.848295,296.082377,8438.347739
4178.465409,536.266849,666.185348,9178.553681
4178.465724,-1149.143247,1036.288319,9770.718434
4178.466040,-1149.143247,1110.308913,9326.594869
4178.466355,536.266849,1258.350101,9252.574275
4178.466670,1608.800546,666.185348,9474.636058
4178.466986,1225.752797,-74.020594,9918.759623
4178.467301,0.000000,-370.102971,11325.150913
4178.467617,-1072.533697,-370.102971,10881.027347
4178.467932,-919.314598,-0.000000,10584.944971
4178.468248,995.924147,1332.370696,10510.924376
4178.468563,2451.505594,1406.391290,8808.450710
4178.468879,2298.286494,1184.329507,8142.265362
4178.469194,1455.581446,666.185348,8808.450710
4178.469510,0.000000,1702.473667,8734.430116
4178.469825,0.000000,1184.329507,9252.574275
4178.470141,459.657299,1554.432478,8734.430116
4178.470456,919.314598,-0.000000,8956.491898
4178.470771,1072.533697,-1628.453072,10140.821405
4178.471087,-459.657299,-1628.453072,10584.944971
4178.471402,-1762.019645,-1184.329507,10955.047942
4178.471718,-1991.848295,-666.185348,10807.006753
4178.472033,0.000000,148.041188,9770.718434
4178.472349,1302.362347,740.205942,8438.347739
4178.472664,1915.238745,222.061783,8808.450710
4178.472980,1302.362347,666.185348,9030.512492
4178.473295,-689.485948,1258.350101,8882.471304
4178.473611,-1225.752797,1184.329507,8956.491898
4178.473926,-766.095498,1258.350101,8882.471304
4178.474242,306.438199,814.226536,8512.368333
4178.474557,383.047749,-518.144159,9918.759623
4178.474873,-919.314598,-1554.432478,10807.006753
4178.475188,-2757.943793,-1110.308913,11621.233289
4178.475503,-2834.553343,-962.267725,11399.171507
4178.475819,-1608.800546,-0.000000,10214.842000
4178.476134,153.219100,740.205942,9326.594869
4178.476450,1149.143247,-0.000000,8956.491898
4178.476765,459.657299,222.061783,8734.430116
4178.477081,-459.657299,1036.288319,8956.491898
4178.477396,-1762.019645,1036.288319,9030.512492
4178.477712,-229.828649,1628.453072,9104.533087
4178.478027,306.438199,1258.350101,9030.512492
4178.478343,229.828649,-222.061783,9474.636058
4178.478658,-612.876398,-1554.432478,11029.068536
4178.478974,-1608.800546,-1924.535449,11473.192101
4178.479289,-2068.457845,-1480.411884,11547.212695
4178.479604,-459.657299,-296.082377,10658.965565
4178.479920,1225.752797,592.164754,9104.533087
4178.480235,1608.800546,592.164754,8808.450710
4178.480551,1838.629195,222.061783,9030.512492
4178.480866,689.485948,814.226536,8290.306550
4178.481182,0.000000,1184.329507,7698.141797
4178.481497,689.485948,1332.370696,8216.285956
4178.481813,2145.067394,518.144159,7920.203579
4178.482128,1915.238745,-666.185348,8808.450710
4178.482444,842.705048,-1924.535449,10140.821405
4178.482759,-1225.752797,-2072.576638,11251.130318
4178.483075,-1072.533697,-1702.473667,10955.047942
4178.483390,0.000000,-666.185348,10362.883188
4178.483705,1072.533697,222.061783,9548.656652
4178.484021,1532.190996,-0.000000,8808.450710
4178.484336,1302.362347,-0.000000,8586.388927
4178.484652,76.609550,222.061783,8956.491898
4178.484967,-383.047749,740.205942,9252.574275
4178.485283,459.657299,888.247130,9400.615463
4178.485598,995.924147,1554.432478,9178.553681
4178.485914,1532.190996,592.164754,8808.450710
4178.486229,1149.143247,-1036.288319,9992.780217
4178.486545,-306.438199,-962.267725,10955.047942
4178.486860,-1302.362347,-1036.288319,11473.192101
4178.487176,-536.266849,-296.082377,10881.027347
4178.487491,1225.752797,666.185348,9844.739029
4178.487806,1532.190996,-0.000000,8956.491898
4178.488122,1532.190996,222.061783,8808.450710
4178.488437,153.219100,814.226536,8364.327145
4178.488753,-919.314598,1110.308913,9474.636058
4178.489068,0.000000,962.267725,8956.491898
4178.489384,1225.752797,1110.308913,8586.388927
4178.489699,1608.800546,666.185348,9252.574275
4178.490015,459.657299,-592.164754,10658.965565
4178.490330,-1225.752797,-962.267725,11325.150913
4178.490646,-1685.410096,-1628.453072,11251.130318
4178.490961,-1072.533697,-370.102971,11325.150913
4178.491277,689.485948,370.102971,9696.697840
4178.491592,1149.143247,666.185348,9178.553681
4178.491907,766.095498,814.226536,9326.594869
4178.492223,-612.876398,1110.308913,9030.512492
4178.492538,-1991.848295,1554.432478,8586.388927
4178.492854,-1378.971896,1036.288319,8364.327145
4178.493169,-383.047749,740.205942,8882.471304
4178.493485,-383.047749,-74.020594,9474.636058
4178.493800,-689.485948,-1998.556043,9992.780217
4178.494116,-1915.238745,-1480.411884,11103.089130
4178.494431,-2987.772442,-962.267725,11399.171507
4178.494747,-2374.896044,-444.123565,11177.109724
4178.495062,0.000000,296.082377,10362.883188
4178.495378,766.095498,888.247130,9030.512492
4178.495693,995.924147,518.144159,8734.430116
4178.496009,0.000000,888.247130,8882.471304
4178.496324,-1149.143247,1998.556043,8438.347739
4178.496639,-689.485948,1554.432478,8660.409521
4178.496955,-306.438199,1406.391290,8364.327145
4178.497270,689.485948,814.226536,8808.450710
4178.497586,0.000000,-1036.288319,10510.924376
4178.497901,-919.314598,-592.164754,11251.130318
4178.498217,-2298.286494,-1258.350101,11843.295072
4178.498532,-1685.410096,-1036.288319,11399.171507
4178.498848,766.095498,-0.000000,9844.739029
4178.499163,1991.848295,740.205942,8660.409521
4178.499479,2451.505594,888.247130,8734.430116
4178.499794,1608.800546,1184.329507,8512.368333
4178.500110,536.266849,2516.700203,8142.265362
4178.500425,153.219100,2146.597232,8142.265362
4178.500740,1378.971896,2294.638420,7994.224174
4178.501056,1915.238745,1036.288319,8808.450710
4178.501371,1532.190996,-740.205942,9696.697840
4178.501687,0.000000,-1406.391290,10881.027347
4178.502002,-1762.019645,-1554.432478,11473.192101
4178.502318,-1378.971896,-1110.308913,11547.212695
4178.502633,153.219100,-74.020594,11103.089130
4178.502949,842.705048,370.102971,9548.656652
4178.503264,1762.019645,148.041188,9252.574275
4178.503580,1762.019645,1110.308913,8364.327145
4178.503895,0.000000,1480.411884,8586.388927
4178.504211,0.000000,1702.473667,8512.368333
4178.504526,995.924147,1406.391290,8438.347739
4178.504841,2145.067394,962.267725,8512.368333
4178.505157,1991.848295,-1036.288319,9326.594869
4178.505472,306.438199,-1628.453072,11251.130318
4178.505788,-1302.362347,-1480.411884,11473.192101
4178.506103,-1838.629195,-1258.350101,12435.459826
4178.506419,0.000000,-592.164754,11325.150913
4178.506734,1378.971896,-222.061783,9474.636058
4178.507050,1991.848295,-296.082377,9104.533087
4178.507365,1378.971896,-666.185348,9178.553681
4178.507681,-306.438199,444.123565,9474.636058
4178.507996,-612.876398,814.226536,8586.388927
4178.508312,536.266849,1406.391290,8512.368333
4178.508627,1302.362347,1480.411884,8734.430116
4178.508942,1302.362347,-814.226536,9178.553681
4178.509258,0.000000,-2072.576638,10584.944971
4178.509573,-1225.752797,-1406.391290,10658.965565
4178.509889,-1685.410096,-1628.453072,11325.150913
4178.510204,-459.657299,-666.185348,10881.027347
4178.510520,612.876398,-0.000000,9622.677246
4178.510835,919.314598,-222.061783,9030.512492
4178.511151,229.828649,-0.000000,8808.450710
4178.511466,-766.095498,888.247130,8512.368333
4178.511782,-1685.410096,888.247130,8660.409521
4178.512097,-1149.143247,1554.432478,8290.306550
4178.512413,-306.438199,740.205942,7920.203579
4178.512728,306.438199,-74.020594,8734.430116
4178.513044,-383.047749,-1036.288319,10362.883188
4178.513359,-2451.505594,-1406.391290,11177.109724
4178.513674,-2604.724693,-1406.391290,11843.295072
4178.513990,-1915.238745,-74.020594,10881.027347
4178.514305,0.000000,370.102971,9474.636058
4178.514621,689.485948,370.102971,8438.347739
4178.514936,383.047749,-74.020594,8586.388927
4178.515252,-842.705048,444.123565,8808.450710
4178.515567,-1378.971896,1036.288319,8586.388927
4178.515883,-689.485948,1258.350101,8290.306550
4178.516198,153.219100,1554.432478,8068.244768
4178.516514,689.485948,-0.000000,8882.471304
4178.516829,0.000000,-1480.411884,10658.965565
4178.517145,-1072.533697,-1332.370696,11029.068536
4178.517460,-1991.848295,-1406.391290,11769.274478
4178.517775,-229.828649,-0.000000,10807.006753
4178.518091,1608.800546,888.247130,9844.739029
4178.518406,2451.505594,888.247130,9400.615463
4178.518722,2298.286494,814.226536,8290.306550
4178.519037,1532.190996,1110.308913,8660.409521
4178.519353,612.876398,1998.556043,8660.409521
4178.519668,766.095498,2146.597232,8068.244768
4178.519984,1762.019645,2220.617826,8956.491898
4178.520299,2145.067394,666.185348,8660.409521
4178.520615,1302.362347,-1110.308913,10436.903782
4178.520930,-536.266849,-1036.288319,11843.295072
4178.521246,-1608.800546,-1110.308913,11769.274478
4178.521561,-612.876398,-222.061783,12139.377449
4178.521876,1149.143247,592.164754,10732.986159
4178.522192,2145.067394,592.164754,9474.636058
4178.522507,1991.848295,666.185348,9548.656652
4178.522823,1225.752797,1406.391290,9696.697840
4178.523138,0.000000,2516.700203,8882.471304
4178.523454,689.485948,2738.761985,8660.409521
4178.523769,2145.067394,2516.700203,8586.388927
4178.524085,2911.162892,1776.494261,8660.409521
4178.524400,2528.115143,-296.082377,9992.780217
4178.524716,383.047749,-592.164754,10807.006753
4178.525031,-1149.143247,-1036.288319,11399.171507
4178.525347,-842.705048,-666.185348,11325.150913
4178.525662,383.047749,-666.185348,10881.027347
4178.525977,995.924147,-0.000000,9474.636058
4178.526293,995.924147,-888.247130,9178.553681
4178.526608,0.000000,-518.144159,9770.718434
4178.526924,-919.314598,148.041188,9104.533087
4178.527239,-1378.971896,444.123565,8882.471304
4178.527555,536.266849,1184.329507,8734.430116
4178.527870,1302.362347,296.082377,8734.430116
4178.528186,1378.971896,-592.164754,9622.677246
4178.528501,0.000000,-888.247130,10362.883188
4178.528817,-1532.190996,-666.185348,11251.130318
4178.529132,-1608.800546,-148.041188,11251.130318
4178.529448,-306.438199,-0.000000,9696.697840
4178.529763,842.705048,-296.082377,8956.491898
4178.530079,766.095498,-444.123565,9400.615463
4178.530394,-229.828649,-148.041188,9104.533087
4178.530709,-2374.896044,-0.000000,9178.553681
4178.531025,-2451.505594,-148.041188,9252.574275
4178.531340,-1302.362347,222.061783,8882.471304
4178.531656,-689.485948,-592.164754,8290.306550
4178.531971,-459.657299,-1258.350101,9474.636058
4178.532287,-1685.410096,-888.247130,10658.965565
4178.532602,-2604.724693,-1258.350101,10436.903782
4178.532918,-2374.896044,-1184.329507,10955.047942
4178.533233,-842.705048,-0.000000,9992.780217
4178.533549,229.828649,518.144159,8808.450710
4178.533864,689.485948,-0.000000,8734.430116
4178.534180,0.000000,-148.041188,8882.471304
4178.534495,-995.924147,296.082377,9400.615463
4178.534810,-2298.286494,666.185348,8734.430116
4178.535126,-689.485948,1258.350101,8734.430116
4178.535441,0.000000,666.185348,8956.491898
4178.535757,383.047749,-1184.329507,9622.677246
4178.536072,-689.485948,-1480.411884,10362.883188
4178.536388,-1915.238745,-1702.473667,10807.006753
4178.536703,-1455.581446,-1258.350101,10807.006753
4178.537019,229.828649,-370.102971,10214.842000
4178.537334,1685.410096,888.247130,8734.430116
4178.537650,2451.505594,592.164754,8290.306550
4178.537965,2374.896044,296.082377,8512.368333
4178.538281,1455.581446,962.267725,8734.430116
4178.538596,612.876398,1480.411884,8216.285956
4178.538911,1762.019645,1776.494261,7846.182985
4178.539227,2528.115143,1554.432478,8882.471304
4178.539542,2681.334243,-0.000000,9770.718434
4178.539858,766.095498,-888.247130,11029.068536
4178.540173,-1225.752797,-1258.350101,11251.130318
4178.540489,-1302.362347,-1036.288319,11991.336260
4178.540804,612.876398,740.205942,10732.986159
4178.541120,1915.238745,888.247130,9548.656652
4178.541435,2528.115143,1184.329507,9474.636058
4178.541751,1225.752797,814.226536,9548.656652
4178.542066,229.828649,1628.453072,9326.594869
4178.542382,-306.438199,1628.453072,9474.636058
4178.542697,1378.971896,2368.659014,9400.615463
4178.543012,2068.457845,2072.576638,8882.471304
4178.543328,2221.676944,1036.288319,9400.615463
4178.543643,1072.533697,-222.061783,10881.027347
4178.543959,-842.705048,-518.144159,11177.109724
4178.544274,-1762.019645,-888.247130,11399.171507
4178.544590,-459.657299,592.164754,10510.924376
4178.544905,766.095498,814.226536,9474.636058
4178.545221,1302.362347,370.102971,9326.594869
4178.545536,1915.238745,-0.000000,9548.656652
4178.545852,-536.266849,666.185348,9548.656652
4178.546167,-1149.143247,740.205942,9474.636058
4178.546482,-229.828649,1702.473667,9474.636058
4178.546798,1378.971896,1628.453072,8956.491898
4178.547113,2298.286494,740.205942,8512.368333
4178.547428,1149.143247,-148.041188,9622.677246
4178.547744,-919.314598,-296.082377,10362.883188
4178.548059,-1915.238745,-1036.288319,10881.027347
4178.548375,-842.705048,-740.205942,10140.821405
4178.548690,306.438199,222.061783,9770.718434
4178.549005,689.485948,-370.102971,8956.491898
4178.549321,0.000000,-296.082377,8734.430116
4178.549636,-1378.971896,-222.061783,9178.553681
4178.549952,-1991.848295,-74.020594,9474.636058
4178.550267,-1915.238745,592.164754,8882.471304
4178.550582,-383.047749,592.164754,8956.491898
4178.550898,383.047749,-0.000000,9030.512492
4178.551213,0.000000,-1036.288319,9770.718434
4178.551529,-1838.629195,-1184.329507,10584.944971
4178.551844,-2911.162892,-1110.308913,10732.986159
4178.552159,-1762.019645,-888.247130,10881.027347
4178.552475,-306.438199,-148.041188,9474.636058
4178.552790,536.266849,296.082377,8660.409521
4178.553106,459.657299,-74.020594,8586.388927
4178.553421,-842.705048,296.082377,9252.574275
4178.553736,-2221.676944,666.185348,9474.636058
4178.554052,-1532.190996,-370.102971,9178.553681
4178.554367,0.000000,222.061783,9178.553681
4178.554683,459.657299,-0.000000,9030.512492
4178.554998,0.000000,-666.185348,10066.800811
4178.555313,-919.314598,-1036.288319,10214.842000
4178.555629,-1455.581446,-1110.308913,10732.986159
4178.555944,-842.705048,-444.123565,9992.780217
4178.556259,1072.533697,814.226536,9326.594869
4178.556575,2298.286494,1258.350101,8808.450710
4178.556890,1991.848295,666.185348,8512.368333
4178.557206,995.924147,1184.329507,8586.388927
4178.557521,-229.828649,1110.308913,8734.430116
4178.557836,-229.828649,1184.329507,9400.615463
4178.558152,1532.190996,962.267725,9104.533087
4178.558467,1915.238745,-0.000000,8882.471304
4178.558783,2221.676944,-1628.453072,10584.944971
4178.559098,-306.438199,-370.102971,10436.903782
4178.559413,-1149.143247,-1702.473667,11103.089130
4178.559729,153.219100,-518.144159,11103.089130
4178.560044,689.485948,888.247130,9474.636058
4178.560360,2681.334243,592.164754,8364.327145
4178.560675,2451.505594,740.205942,9104.533087
4178.560990,919.314598,962.267725,9622.677246
4178.561306,-306.438199,740.205942,9030.512492
4178.561621,-536.266849,814.226536,9548.656652
4178.561937,919.314598,1332.370696,9918.759623
4178.562252,1762.019645,740.205942,9474.636058
4178.562567,1072.533697,-0.000000,10955.047942
4178.562883,-229.828649,-444.123565,11177.109724
4178.563198,-1302.362347,-592.164754,11695.253884
4178.563513,-919.314598,-444.123565,11103.089130
4178.563829,919.314598,-0.000000,10288.862594
4178.564144,2298.286494,518.144159,9178.553681
4178.564460,2451.505594,444.123565,8734.430116
4178.564775,1302.362347,1110.308913,8586.388927
4178.565090,-229.828649,1184.329507,8660.409521
4178.565406,-612.876398,740.205942,9178.553681
4178.565721,459.657299,1036.288319,8956.491898
4178.566037,536.266849,-370.102971,9030.512492
4178.566352,995.924147,-1184.329507,9918.759623
4178.566667,-383.047749,-1258.350101,11103.089130
4178.566983,-2451.505594,-1258.350101,11399.171507
4178.567298,-1991.848295,-888.247130,11177.109724
4178.567614,383.047749,740.205942,9992.780217
4178.567929,1455.581446,1110.308913,9030.512492
4178.568244,2221.676944,814.226536,8142.265362
4178.568560,766.095498,962.267725,8216.285956
4178.568875,-689.485948,1184.329507,7772.162391
4178.569191,-766.095498,814.226536,7772.162391
4178.569506,-383.047749,1332.370696,8586.388927
4178.569821,383.047749,814.226536,8142.265362
4178.570137,-153.219100,-888.247130,9178.553681
4178.570452,-1991.848295,-1850.514855,10732.986159
4178.570768,-3524.039291,-2146.597232,11177.109724
4178.571083,-3677.258390,-2220.617826,11695.253884
4178.571398,-2298.286494,-444.123565,10658.965565
4178.571714,-306.438199,-0.000000,9622.677246
4178.572029,76.609550,666.185348,8364.327145
4178.572344,-383.047749,888.247130,8216.285956
4178.572660,-1302.362347,1554.432478,9326.594869
4178.572975,-1532.190996,1480.411884,9326.594869
4178.573291,0.000000,2146.597232,8956.491898
4178.573606,995.924147,2072.576638,8290.306550
4178.573921,1378.971896,518.144159,9400.615463
4178.574237,383.047749,-1184.329507,10436.903782
4178.574552,-1532.190996,-1480.411884,11325.150913
4178.574868,-2145.067394,-1480.411884,11695.253884
4178.575183,-536.266849,-296.082377,10658.965565
4178.575498,766.095498,296.082377,9178.553681
4178.575814,1378.971896,148.041188,9030.512492
4178.576129,1302.362347,592.164754,8734.430116
4178.576445,-459.657299,666.185348,8808.450710
4178.576760,-383.047749,-0.000000,9178.553681
4178.577075,229.828649,1184.329507,9326.594869
4178.577391,1608.800546,1406.391290,8956.491898
4178.577706,2221.676944,666.185348,9178.553681
4178.578022,1378.971896,-222.061783,10732.986159
4178.578337,153.219100,-740.205942,11695.253884
4178.578652,-459.657299,-148.041188,11251.130318
4178.578968,919.314598,666.185348,10510.924376
4178.579283,1838.629195,888.247130,9548.656652
4178.579599,2068.457845,666.185348,9178.553681
4178.579914,1915.238745,370.102971,9178.553681
4178.580229,0.000000,-0.000000,9474.636058
4178.580545,-1149.143247,-0.000000,9474.636058
4178.580860,-689.485948,148.041188,9178.553681
4178.581175,842.705048,444.123565,9400.615463
4178.581491,995.924147,-148.041188,9252.574275
4178.581806,766.095498,-1184.329507,10584.944971
4178.582122,-306.438199,-1776.494261,10881.027347
4178.582437,-919.314598,-1480.411884,11325.150913
4178.582752,1072.533697,-74.020594,10510.924376
4178.583068,2221.676944,1406.391290,9326.594869
4178.583383,2681.334243,1184.329507,8438.347739
4178.583699,2528.115143,962.267725,8512.368333
4178.584014,766.095498,592.164754,9030.512492
4178.584329,-306.438199,-148.041188,9326.594869
4178.584645,-383.047749,-148.041188,9622.677246
4178.584960,689.485948,370.102971,9178.553681
4178.585276,1072.533697,-740.205942,9178.553681
4178.585591,0.000000,-1850.514855,10362.883188
4178.585906,-1532.190996,-2146.597232,11177.109724
4178.586222,-2451.505594,-1998.556043,11177.109724
4178.586537,-1149.143247,-1184.329507,10658.965565
4178.586853,689.485948,-0.000000,9474.636058
4178.587168,1685.410096,962.267725,8438.347739
4178.587483,1685.410096,370.102971,8068.244768
4178.587799,459.657299,1110.308913,8290.306550
4178.588114,-842.705048,814.226536,8438.347739
4178.588430,-766.095498,1036.288319,8734.430116
4178.588745,0.000000,1406.391290,8586.388927
4178.589060,0.000000,222.061783,9104.533087
4178.589376,-612.876398,-962.267725,10288.862594
4178.589691,-2451.505594,-1332.370696,10881.027347
4178.590006,-3677.258390,-1628.453072,11325.150913
4178.590322,-3217.601092,-1480.411884,11695.253884
4178.590637,-919.314598,-0.000000,10362.883188
4178.590953,459.657299,444.123565,9030.512492
4178.591268,536.266849,222.061783,8956.491898
4178.591583,0.000000,1036.288319,8438.347739
4178.591899,-1225.752797,1628.453072,8512.368333
4178.592214,-612.876398,1554.432478,8660.409521
4178.592530,229.828649,2368.659014,8068.244768
4178.592845,1532.190996,1702.473667,8290.306550
4178.593160,1072.533697,-222.061783,10066.800811
4178.593476,-229.828649,-740.205942,11177.109724
4178.593791,-1608.800546,-1776.494261,11843.295072
4178.594107,-1608.800546,-1628.453072,11621.233289
4178.594422,0.000000,148.041188,10732.986159
4178.594737,1149.143247,814.226536,9622.677246
4178.595053,2298.286494,740.205942,9104.533087
4178.595368,995.924147,740.205942,9400.615463
4178.595684,0.000000,1628.453072,9030.512492
4178.595999,153.219100,1406.391290,8956.491898
4178.596314,1149.143247,2442.679609,8438.347739
4178.596630,2145.067394,1406.391290,8734.430116
4178.596945,1455.581446,-0.000000,9770.718434
4178.597261,229.828649,-370.102971,10881.027347
4178.597576,-919.314598,-740.205942,11769.274478
4178.597891,-1149.143247,-592.164754,11325.150913
4178.598207,76.609550,592.164754,10066.800811
4178.598522,1838.629195,370.102971,9918.759623
4178.598837,1838.629195,740.205942,8882.471304
4178.599153,919.314598,222.061783,9178.553681
4178.599468,-995.924147,1258.350101,9030.512492
4178.599784,-1149.143247,1036.288319,9326.594869
4178.600099,459.657299,1924.535449,8808.450710
4178.600414,1149.143247,1258.350101,8808.450710
4178.600730,1762.019645,74.020594,9400.615463
4178.601045,229.828649,-814.226536,10881.027347
4178.601361,-1149.143247,-1110.308913,10658.965565
4178.601676,-995.924147,-1998.556043,11251.130318
4178.601991,153.219100,-592.164754,10510.924376
4178.602307,1915.238745,-0.000000,9326.594869
4178.602622,2068.457845,-74.020594,8512.368333
4178.602938,1838.629195,-0.000000,8290.306550
4178.603253,459.657299,666.185348,7698.141797
4178.603568,-306.438199,-0.000000,8586.388927
4178.603884,1149.143247,1036.288319,8586.388927
4178.604199,1685.410096,814.226536,8438.347739
4178.604515,2145.067394,-370.102971,8882.471304
4178.604830,459.657299,-666.185348,10288.862594
4178.605145,-1455.581446,-1110.308913,11103.089130
4178.605461,-1608.800546,-1036.288319,11177.109724
4178.605776,-229.828649,-592.164754,10881.027347
4178.606092,766.095498,518.144159,9918.759623
4178.606407,1378.971896,888.247130,8808.450710
4178.606722,766.095498,444.123565,8734.430116
4178.607038,-612.876398,962.267725,8808.450710
4178.607353,-1685.410096,666.185348,9252.574275
4178.607668,-1149.143247,740.205942,8364.327145
4178.607984,-229.828649,444.123565,8512.368333
4178.608299,76.609550,-518.144159,9178.553681
4178.608615,-766.095498,-1332.370696,10288.862594
4178.608930,-2374.896044,-1406.391290,10807.006753
4178.609245,-3140.991542,-1924.535449,11843.295072
4178.609561,-1915.238745,-962.267725,11251.130318
4178.609876,-306.438199,-518.144159,10066.800811
4178.610192,766.095498,-0.000000,9918.759623
4178.610507,76.609550,296.082377,9548.656652
4178.610822,-919.314598,814.226536,9030.512492
4178.611138,-842.705048,1036.288319,9548.656652
4178.611453,0.000000,1184.329507,9104.533087
4178.611769,1302.362347,1480.411884,8734.430116
4178.612084,2298.286494,148.041188,8438.347739
4178.612399,1149.143247,-740.205942,10140.821405
4178.612715,-306.438199,-444.123565,10732.986159
4178.613030,-1455.581446,-1110.308913,11325.150913
4178.613346,-842.705048,-296.082377,11103.089130
4178.613661,919.314598,592.164754,9696.697840
4178.613976,1762.019645,-0.000000,8660.409521
4178.614292,1455.581446,-148.041188,8808.450710
4178.614607,0.000000,518.144159,9474.636058
4178.614923,-1149.143247,888.247130,9474.636058
4178.615238,-536.266849,888.247130,8882.471304
4178.615553,1455.581446,1554.432478,8734.430116
4178.615869,1991.848295,740.205942,8808.450710
4178.616184,1608.800546,-0.000000,9770.718434
4178.616499,0.000000,-74.020594,10584.944971
4178.616815,-842.705048,-222.061783,11399.171507
4178.617130,-383.047749,222.061783,10881.027347
4178.617446,1302.362347,814.226536,9548.656652
4178.617761,1608.800546,592.164754,8660.409521
4178.618076,1149.143247,222.061783,9400.615463
4178.618392,0.000000,444.123565,9622.677246
4178.618707,-1378.971896,592.164754,9178.553681
4178.619023,-842.705048,444.123565,9474.636058
4178.619338,459.657299,1036.288319,8808.450710
4178.619653,1838.629195,148.041188,8956.491898
4178.619969,1378.971896,-518.144159,9474.636058
4178.620284,0.000000,-962.267725,10362.883188
4178.620600,-1455.581446,-1406.391290,10658.965565
4178.620915,-612.876398,-518.144159,10658.965565
4178.621230,689.485948,814.226536,9696.697840
4178.621546,1838.629195,518.144159,8808.450710
4178.621861,2374.896044,222.061783,8586.388927
4178.622177,842.705048,148.041188,9104.533087
4178.622492,-766.095498,740.205942,9326.594869
4178.622807,-536.266849,814.226536,9474.636058
4178.623123,995.924147,1332.370696,8586.388927
4178.623438,1838.629195,296.082377,8808.450710
4178.623754,1915.238745,-814.226536,9400.615463
4178.624069,0.000000,-1184.329507,10658.965565
4178.624384,-536.266849,-1702.473667,11177.109724
4178.624700,-1608.800546,-592.164754,10881.027347
4178.625015,153.219100,666.185348,9474.636058
4178.625330,1532.190996,814.226536,9326.594869
4178.625646,1455.581446,888.247130,8586.388927
4178.625961,306.438199,444.123565,9252.574275
4178.626277,-1378.971896,814.226536,8808.450710
4178.626592,-1378.971896,370.102971,9178.553681
4178.626907,-459.657299,1258.350101,8882.471304
4178.627223,76.609550,814.226536,9030.512492
4178.627538,-229.828649,-592.164754,9770.718434
4178.627854,-1608.800546,-888.247130,11103.089130
4178.628169,-3140.991542,-814.226536,11547.212695
4178.628484,-2834.553343,-1110.308913,11547.212695
4178.628800,-919.314598,-0.000000,11177.109724
4178.629115,153.219100,518.144159,9474.636058
4178.629431,1225.752797,296.082377,8290.306550
4178.629746,612.876398,370.102971,9030.512492
4178.630061,-995.924147,1184.329507,8956.491898
4178.630377,-995.924147,740.205942,9326.594869
4178.630692,76.609550,1332.370696,9474.636058
4178.631008,919.314598,888.247130,8586.388927
4178.631323,1378.971896,-444.123565,9104.533087
4178.631638,459.657299,-1184.329507,9622.677246
4178.631954,-1072.533697,-1628.453072,10732.986159
4178.632269,-1072.533697,-1406.391290,11029.068536
4178.632585,-153.219100,-370.102971,10288.862594
4178.632900,919.314598,518.144159,9030.512492
4178.633215,1608.800546,518.144159,8586.388927
4178.633531,1378.971896,370.102971,8956.491898
4178.633846,-153.219100,814.226536,8882.471304
4178.634161,-1149.143247,518.144159,9326.594869
4178.634477,689.485948,1258.350101,8882.471304
4178.634792,1762.019645,1258.350101,8512.368333
4178.635108,2068.457845,296.082377,9400.615463
4178.635423,689.485948,-296.082377,10140.821405
4178.635738,-612.876398,-444.123565,10584.944971
4178.636054,-1072.533697,-740.205942,10881.027347
4178.636369,0.000000,222.061783,10066.800811
4178.636685,919.314598,296.082377,9474.636058
4178.637000,1532.190996,222.061783,8808.450710
4178.637315,612.876398,-148.041188,9104.533087
4178.637631,-612.876398,-0.000000,9178.553681
4178.637946,-1685.410096,518.144159,9770.718434
4178.638262,-689.485948,814.226536,9622.677246
4178.638577,995.924147,814.226536,9400.615463
4178.638892,1685.410096,444.123565,9474.636058
4178.639208,689.485948,-74.020594,10362.883188
4178.639523,-842.705048,-222.061783,10955.047942
4178.639839,-995.924147,-222.061783,11251.130318
4178.640154,1072.533697,592.164754,10214.842000
4178.640469,1685.410096,740.205942,8956.491898
4178.640785,1838.629195,1184.329507,8734.430116
4178.641100,1225.752797,666.185348,9178.553681
4178.641415,-536.266849,814.226536,8882.471304
4178.641731,-1302.362347,-0.000000,9696.697840
4178.642046,-383.047749,666.185348,9326.594869
4178.642362,995.924147,518.144159,8660.409521
4178.642677,1378.971896,-444.123565,9622.677246
4178.642992,306.438199,-1258.350101,10807.006753
4178.643308,-842.705048,-814.226536,10510.924376
4178.643623,-1608.800546,-444.123565,10510.924376
4178.643939,0.000000,444.123565,10510.924376
4178.644254,1302.362347,740.205942,9178.553681
4178.644569,1991.848295,1110.308913,8438.347739
4178.644885,842.705048,444.123565,8808.450710
4178.645200,-306.438199,666.185348,8808.450710
4178.645516,-1532.190996,740.205942,9474.636058
4178.645831,-1072.533697,296.082377,9474.636058
4178.646146,-306.438199,370.102971,9474.636058
4178.646462,306.438199,-518.144159,9770.718434
4178.646777,-689.485948,-1628.453072,10436.903782
4178.647093,-2145.067394,-1184.329507,11769.274478
4178.647408,-2987.772442,-1258.350101,11029.068536
4178.647723,-2221.676944,-370.102971,10510.924376
4178.648039,689.485948,-0.000000,9252.574275
4178.648354,1532.190996,222.061783,8364.327145
4178.648670,1225.752797,222.061783,8512.368333
4178.648985,-229.828649,370.102971,9400.615463
4178.649300,-1149.143247,1480.411884,9326.594869
4178.649616,-612.876398,962.267725,8882.471304
4178.649931,919.314598,1258.350101,8660.409521
4178.650247,1532.190996,-0.000000,8808.450710
4178.650562,766.095498,-1036.288319,10510.924376
4178.650878,-1149.143247,-518.144159,10584.944971
4178.651193,-1762.019645,-888.247130,10436.903782
4178.651508,-1149.143247,-444.123565,10584.944971
4178.651824,383.047749,444.123565,9622.677246
4178.652139,1302.362347,148.041188,8586.388927
4178.652455,1149.143247,-0.000000,9252.574275
4178.652770,459.657299,-74.020594,9030.512492
4178.653085,-689.485948,814.226536,8882.471304
4178.653401,-536.266849,148.041188,9030.512492
4178.653716,689.485948,1332.370696,8808.450710
4178.654032,1991.848295,370.102971,8808.450710
4178.654347,2068.457845,-666.185348,9252.574275
4178.654662,383.047749,-888.247130,10510.924376
4178.654978,-919.314598,-666.185348,10510.924376
4178.655293,-689.485948,-148.041188,10658.965565
4178.655609,766.095498,666.185348,9474.636058
4178.655924,1685.410096,592.164754,9178.553681
4178.656240,1685.410096,370.102971,8956.491898
4178.656555,536.266849,-74.020594,9326.594869
4178.656870,-1302.362347,592.164754,9178.553681
4178.657186,-842.705048,-0.000000,9474.636058
4178.657501,0.000000,1110.308913,9252.574275
4178.657817,995.924147,666.185348,9030.512492
4178.658132,842.705048,-666.185348,9992.780217
4178.658447,153.219100,-740.205942,10881.027347
4178.658763,-1072.533697,-888.247130,10584.944971
4178.659078,-536.266849,-74.020594,10066.800811
4178.659394,1302.362347,1110.308913,9622.677246
4178.659709,2298.286494,1480.411884,8660.409521
4178.660024,2451.505594,1332.370696,8882.471304
4178.660340,1302.362347,1628.453072,8586.388927
4178.660655,-919.314598,814.226536,9400.615463
4178.660971,-995.924147,444.123565,9770.718434
4178.661286,-459.657299,740.205942,9548.656652
4178.661602,842.705048,-0.000000,9992.780217
4178.661917,306.438199,-592.164754,10362.883188
4178.662232,-842.705048,-1184.329507,10955.047942
4178.662548,-1685.410096,-1110.308913,11473.192101
4178.662863,-1378.971896,-518.144159,10881.027347
4178.663179,0.000000,888.247130,9992.780217
4178.663494,1455.581446,1554.432478,8808.450710
4178.663809,1685.410096,1110.308913,7994.224174
4178.664125,689.485948,148.041188,8512.368333
4178.664440,-1072.533697,592.164754,9400.615463
4178.664756,-1762.019645,74.020594,9474.636058
4178.665071,-536.266849,444.123565,8882.471304
4178.665386,0.000000,296.082377,9178.553681
4178.665702,153.219100,-962.267725,9548.656652
4178.666017,-1608.800546,-1628.453072,11251.130318
4178.666333,-2834.553343,-1406.391290,11695.253884
4178.666648,-2298.286494,-1850.514855,11399.171507
4178.666963,-612.876398,-592.164754,10732.986159
4178.667279,1608.800546,-74.020594,8660.409521
4178.667594,2451.505594,666.185348,8438.347739
4178.667910,2145.067394,296.082377,8512.368333
4178.668225,536.266849,518.144159,8882.471304
4178.668541,689.485948,-0.000000,9474.636058
4178.668856,1608.800546,666.185348,8216.285956
4178.669171,2451.505594,740.205942,8438.347739
4178.669487,3217.601092,-666.185348,8734.430116
4178.669802,1991.848295,-2146.597232,9474.636058
4178.670118,383.047749,-1776.494261,10807.006753
4178.670433,-306.438199,-2368.659014,10955.047942
4178.670748,0.000000,-370.102971,9178.553681
4178.671064,2145.067394,-1332.370696,9400.615463
4178.671379,3524.039291,-222.061783,8364.327145
4178.671695,2068.457845,-0.000000,8882.471304
4178.672010,153.219100,-370.102971,9918.759623
4178.672325,-153.219100,-222.061783,10140.821405
4178.672641,689.485948,-148.041188,9474.636058
4178.672956,2681.334243,-370.102971,9400.615463
4178.673272,2911.162892,-592.164754,9548.656652
4178.673587,1608.800546,-1998.556043,9918.759623
4178.673903,1378.971896,-1924.535449,11769.274478
4178.674218,229.828649,-1702.473667,11621.233289
4178.674533,689.485948,-1332.370696,10362.883188
4178.674849,2451.505594,-1036.288319,10066.800811
4178.675164,3830.477490,-1184.329507,8364.327145
4178.675480,3753.867940,-1258.350101,8216.285956
4178.675795,2834.553343,-2146.597232,9030.512492
4178.676110,1072.533697,-1924.535449,9548.656652
4178.676426,689.485948,-1554.432478,9400.615463
4178.676741,1838.629195,-2072.576638,9548.656652
4178.677057,3294.210641,-2294.638420,9474.636058
4178.677372,3294.210641,-2812.782580,9770.718434
4178.677687,2374.896044,-3552.988522,10362.883188
4178.678003,1302.362347,-3330.926739,10881.027347
4178.678318,1072.533697,-2664.741391,11547.212695
4178.678634,1455.581446,-1554.432478,10436.903782
4178.678949,2987.772442,-740.205942,8364.327145
4178.679264,3677.258390,-888.247130,8068.244768
4178.679580,3907.087040,-1924.535449,8216.285956
4178.679895,2451.505594,-2368.659014,8216.285956
4178.680211,842.705048,-2220.617826,9400.615463
4178.680526,1072.533697,-1702.473667,9844.739029
4178.680842,1378.971896,-1850.514855,9474.636058
4178.681157,1762.019645,-2516.700203,9918.759623
4178.681472,1915.238745,-3404.947333,9770.718434
4178.681788,1455.581446,-3849.070898,9992.780217
4178.682103,1225.752797,-3478.967927,9844.739029
4178.682419,1455.581446,-2664.741391,10066.800811
4178.682734,2068.457845,-1036.288319,9770.718434
4178.683049,2834.553343,-592.164754,8586.388927
4178.683365,3294.210641,-888.247130,8290.306550
4178.683680,2911.162892,-1554.432478,8512.368333
4178.683996,2681.334243,-2146.597232,8068.244768
4178.684311,2528.115143,-2294.638420,8142.265362
4178.684626,1991.848295,-1776.494261,8956.491898
4178.684942,1608.800546,-1850.514855,9104.533087
4178.685257,1378.971896,-2442.679609,9696.697840
4178.685573,766.095498,-2886.803174,10807.006753
4178.685888,383.047749,-3404.947333,11621.233289
4178.686204,536.266849,-3701.029710,11177.109724
4178.686519,1302.362347,-3256.906145,10288.862594
4178.686834,2374.896044,-2368.659014,8956.491898
4178.687150,2604.724693,-1554.432478,8734.430116
4178.687465,2911.162892,-1110.308913,8438.347739
4178.687781,2681.334243,-666.185348,8882.471304
4178.688096,2911.162892,-592.164754,9252.574275
4178.688411,3064.381992,-1332.370696,9400.615463
4178.688727,2451.505594,-1776.494261,9622.677246
4178.689042,2681.334243,-2886.803174,10510.924376
4178.689358,2298.286494,-3849.070898,10362.883188
4178.689673,2451.505594,-3849.070898,10584.944971
4178.689988,2298.286494,-3182.885551,10140.821405
4178.690304,2298.286494,-1850.514855,10214.842000
4178.690619,2681.334243,-814.226536,9474.636058
4178.690935,2757.943793,-1036.288319,9474.636058
4178.691250,2757.943793,-740.205942,9918.759623
4178.691565,2451.505594,-1554.432478,9548.656652
4178.691881,2298.286494,-2146.597232,9548.656652
4178.692196,2681.334243,-2442.679609,9844.739029
4178.692512,2681.334243,-2220.617826,9474.636058
4178.692827,3140.991542,-1332.370696,9178.553681
4178.693143,2681.334243,-1036.288319,9030.512492
4178.693458,2068.457845,-444.123565,9474.636058
4178.693773,1149.143247,-370.102971,9474.636058
4178.694089,1225.752797,-962.267725,9326.594869
4178.694404,689.485948,-1628.453072,10732.986159
4178.694720,919.314598,-2516.700203,10807.006753
4178.695035,1378.971896,-3775.050304,11177.109724
4178.695350,1455.581446,-3330.926739,11695.253884
4178.695666,2298.286494,-2516.700203,10288.862594
4178.695981,2834.553343,-1480.411884,9474.636058
4178.696297,3370.820191,-0.000000,8586.388927
4178.696612,3064.381992,740.205942,8364.327145
4178.696927,2834.553343,518.144159,8068.244768
4178.697243,2451.505594,-148.041188,7624.121203
4178.697558,1455.581446,-1850.514855,8882.471304
4178.697874,1762.019645,-2960.823768,9918.759623
4178.698189,1762.019645,-4293.194464,11473.192101
4178.698505,1915.238745,-4737.318029,12065.356855
4178.698820,2451.505594,-4293.194464,12509.480420
4178.699135,2528.115143,-2738.761985,10584.944971
4178.699451,2757.943793,-1628.453072,9178.553681
4178.699766,2911.162892,-222.061783,9030.512492
4178.700082,3140.991542,296.082377,6809.894666
4178.700397,3217.601092,592.164754,6217.729913
4178.700712,2451.505594,-0.000000,6661.853478
4178.701028,1072.533697,-1480.411884,8586.388927
4178.701343,76.609550,-2590.720797,9770.718434
4178.701659,0.000000,-3923.091493,11325.150913
4178.701974,76.609550,-4441.235652,12879.583391
4178.702289,842.705048,-4959.379811,13989.892304
4178.702605,2145.067394,-4959.379811,13693.809927
4178.702920,3370.820191,-3997.112087,11769.274478
4178.703236,4749.792088,-1776.494261,9548.656652
4178.703551,5286.058936,-0.000000,7254.018232
4178.703867,4903.011187,1480.411884,6661.853478
4178.704182,5209.449386,1924.535449,4959.379811
4178.704497,4213.525239,1332.370696,5181.441594
4178.704813,2451.505594,444.123565,5699.585753
4178.705128,76.609550,-1850.514855,8512.368333
4178.705444,-1378.971896,-3627.009116,10288.862594
4178.705759,-2221.676944,-5551.544565,12657.521608
4178.706074,-2604.724693,-6661.853478,13693.809927
4178.706390,-1225.752797,-6365.771101,13693.809927
4178.706705,0.000000,-5255.462188,13545.768739
4178.707021,1608.800546,-3552.988522,11843.295072
4178.707336,2987.772442,-962.267725,10658.965565
4178.707651,4213.525239,1850.514855,7698.141797
4178.707967,5132.839837,2960.823768,6291.750507
4178.708282,6588.421283,2886.803174,5921.647536
4178.708598,6435.202183,1850.514855,6439.791695
4178.708913,5439.278036,-0.000000,6661.853478
4178.709228,3600.648841,-2072.576638,8660.409521
4178.709544,1991.848295,-3552.988522,10584.944971
4178.709859,766.095498,-5033.400406,11621.233289
4178.710175,153.219100,-5625.565159,11473.192101
4178.710490,-229.828649,-6069.688724,11843.295072
4178.710806,-306.438199,-5181.441594,11251.130318
4178.711121,0.000000,-3923.091493,9622.677246
4178.711436,0.000000,-2220.617826,9252.574275
4178.711752,1225.752797,-740.205942,8512.368333
4178.712067,2528.115143,296.082377,8068.244768
4178.712383,3370.820191,962.267725,7772.162391
4178.712698,3600.648841,888.247130,8142.265362
4178.713013,3753.867940,296.082377,9252.574275
4178.713329,3524.039291,-0.000000,10066.800811
4178.713644,2911.162892,-962.267725,10584.944971
4178.713960,2604.724693,-1554.432478,11325.150913
4178.714275,2221.676944,-2664.741391,10807.006753
4178.714590,1302.362347,-3034.844362,11029.068536
4178.714906,536.266849,-3478.967927,10288.862594
4178.715221,229.828649,-3404.947333,9770.718434
4178.715537,0.000000,-2738.761985,9178.553681
4178.715852,383.047749,-2146.597232,8364.327145
4178.716168,842.705048,-1628.453072,8290.306550
4178.716483,1608.800546,-1702.473667,8438.347739
4178.716798,1915.238745,-1480.411884,8586.388927
4178.717114,2528.115143,-1110.308913,9474.636058
4178.717429,2987.772442,-814.226536,9844.739029
4178.717745,3524.039291,-666.185348,10140.821405
4178.718060,3753.867940,-518.144159,10140.821405
4178.718375,3907.087040,-370.102971,10140.821405
4178.718691,3294.210641,-148.041188,9548.656652
4178.719006,2604.724693,-296.082377,9400.615463
4178.719322,2374.896044,-592.164754,8808.450710
4178.719637,1685.410096,-666.185348,8734.430116
4178.719952,1608.800546,-1480.411884,9030.512492
4178.720268,995.924147,-2368.659014,9030.512492
4178.720583,536.266849,-2960.823768,9696.697840
4178.720899,306.438199,-3256.906145,9992.780217
4178.721214,306.438199,-2886.803174,9548.656652
4178.721529,919.314598,-2664.741391,9918.759623
4178.721845,1225.752797,-1998.556043,9844.739029
4178.722160,1455.581446,-962.267725,9400.615463
4178.722476,1225.752797,-370.102971,9326.594869
4178.722791,1532.190996,-148.041188,9030.512492
4178.723107,1685.410096,-0.000000,9548.656652
4178.723422,1302.362347,-0.000000,9400.615463
4178.723737,1072.533697,-74.020594,9104.533087
4178.724053,689.485948,-444.123565,10066.800811
4178.724368,689.485948,-1332.370696,11251.130318
4178.724684,459.657299,-1776.494261,11621.233289
4178.724999,919.314598,-2220.617826,11621.233289
4178.725314,1608.800546,-2738.761985,11103.089130
4178.725630,2068.457845,-2442.679609,10140.821405
4178.725945,2374.896044,-2220.617826,9770.718434
4178.726261,2528.115143,-1258.350101,9104.533087
4178.726576,2834.553343,-1258.350101,8734.430116
4178.726891,3294.210641,-814.226536,8068.244768
4178.727207,3370.820191,-1110.308913,7920.203579
4178.727522,3677.258390,-1110.308913,8438.347739
4178.727838,3677.258390,-1554.432478,9030.512492
4178.728153,3217.601092,-1924.535449,9696.697840
4178.728469,2834.553343,-2886.803174,10584.944971
4178.728784,2911.162892,-3034.844362,10510.924376
4178.729099,3064.381992,-2516.700203,10658.965565
4178.729415,3140.991542,-2220.617826,10584.944971
4178.729730,3294.210641,-1924.535449,10140.821405
4178.730046,4060.306139,-1998.556043,9770.718434
4178.730361,4060.306139,-1924.535449,9326.594869
4178.730676,4519.963438,-2072.576638,9178.553681
4178.730992,4443.353888,-2368.659014,8512.368333
4178.731307,4673.182538,-2664.741391,8438.347739
4178.731623,4136.915689,-3330.926739,9622.677246
4178.731938,3907.087040,-3627.009116,9474.636058
4178.732253,3370.820191,-3404.947333,9474.636058
4178.732569,2911.162892,-3256.906145,9474.636058
4178.732884,2834.553343,-3404.947333,9474.636058
4178.733200,2987.772442,-3552.988522,9622.677246
4178.733515,3064.381992,-3034.844362,9474.636058
4178.733831,1991.848295,-2886.803174,9474.636058
4178.734146,1608.800546,-2590.720797,9474.636058
4178.734461,1838.629195,-2516.700203,9474.636058
4178.734777,1991.848295,-2664.741391,9696.697840
4178.735092,1915.238745,-2516.700203,10066.800811
4178.735408,1532.190996,-2368.659014,9844.739029
4178.735723,1455.581446,-2738.761985,10140.821405
4178.736038,1685.410096,-2886.803174,10214.842000
4178.736354,1991.848295,-3108.864956,10066.800811
4178.736669,2068.457845,-3108.864956,10288.862594
4178.736985,1991.848295,-3256.906145,9474.636058
4178.737300,2298.286494,-3034.844362,9030.512492
4178.737615,2451.505594,-2738.761985,8512.368333
4178.737931,2451.505594,-2590.720797,7920.203579
4178.738246,1991.848295,-2368.659014,8142.265362
4178.738562,1608.800546,-2516.700203,7920.203579
4178.738877,1149.143247,-2368.659014,8068.244768
4178.739192,689.485948,-2590.720797,7994.224174
4178.739508,153.219100,-2516.700203,8882.471304
4178.739823,-612.876398,-2294.638420,9178.553681
4178.740139,-842.705048,-2146.597232,9622.677246
4178.740454,-995.924147,-2220.617826,9844.739029
4178.740770,-536.266849,-1776.494261,10362.883188
4178.741085,-766.095498,-1554.432478,10658.965565
4178.741400,-306.438199,-1184.329507,10436.903782
4178.741716,383.047749,-1184.329507,10881.027347
4178.742031,1302.362347,-1258.350101,10807.006753
4178.742347,2451.505594,-1110.308913,10362.883188
4178.742662,2834.553343,-1258.350101,10288.862594
4178.742977,3830.477490,-518.144159,9844.739029
4178.743293,3983.696590,-222.061783,9326.594869
4178.743608,4060.306139,-0.000000,7994.224174
4178.743924,3524.039291,-222.061783,9178.553681
4178.744239,2757.943793,-74.020594,8142.265362
4178.744554,2298.286494,-740.205942,8364.327145
4178.744870,1302.362347,-1184.329507,8808.450710
4178.745185,1302.362347,-1776.494261,9696.697840
4178.745501,153.219100,-2516.700203,11177.109724
4178.745816,306.438199,-2516.700203,12139.377449
4178.746132,1302.362347,-2368.659014,13027.624579
4178.746447,2298.286494,-1850.514855,12953.603985
4178.746762,4060.306139,-1406.391290,12213.398043
4178.747078,5669.106685,-74.020594,11029.068536
4178.747393,6741.640382,1036.288319,9622.677246
4178.747709,6588.421283,2442.679609,7550.100608
4178.748024,6435.202183,3108.864956,6069.688724
4178.748339,5515.887586,3108.864956,6439.791695
4178.748655,4136.915689,1332.370696,6143.709319
4178.748970,2221.676944,-370.102971,7254.018232
4178.749286,536.266849,-2516.700203,9918.759623
4178.749601,-689.485948,-4811.338623,12657.521608
4178.749917,-1915.238745,-7105.977043,14137.933492
4178.750232,-842.705048,-7328.038826,15026.180623
4178.750547,919.314598,-6735.874072,14508.036463
4178.750863,3064.381992,-4663.297435,11917.315666
4178.751178,5132.839837,-1406.391290,8808.450710
4178.751494,6588.421283,1702.473667,5107.421000
4178.751809,6818.249932,3775.050304,3997.112087
4178.752124,6205.373534,4885.359217,2590.720797
4178.752440,5056.230287,3552.988522,3627.009116
4178.752755,3217.601092,1332.370696,6513.812290
4178.753071,1225.752797,-2442.679609,9474.636058
4178.753386,-689.485948,-6069.688724,12583.501014
4178.753702,-2068.457845,-8438.347739,14730.098246
4178.754017,-2221.676944,-9178.553681,15470.304188
4178.754332,-1302.362347,-8438.347739,15470.304188
4178.754648,153.219100,-6365.771101,12361.439231
4178.754963,2145.067394,-3182.885551,9696.697840
4178.755279,3830.477490,962.267725,6883.915261
4178.755594,3983.696590,2442.679609,4959.379811
4178.755909,4060.306139,2960.823768,4293.194464
4178.756225,3677.258390,1554.432478,5625.565159
4178.756540,3370.820191,-592.164754,7105.977043
4178.756856,2604.724693,-2590.720797,9474.636058
4178.757171,1685.410096,-4515.256246,10881.027347
4178.757487,76.609550,-6069.688724,12287.418637
4178.757802,0.000000,-6439.791695,13101.645173
4178.758117,0.000000,-6069.688724,13175.665768
4178.758433,0.000000,-5033.400406,11917.315666
4178.758748,-383.047749,-3330.926739,10881.027347
4178.759064,0.000000,-2072.576638,9104.533087
4178.759379,612.876398,-1924.535449,7476.080014
4178.759695,1302.362347,-1554.432478,6513.812290
4178.760010,1072.533697,-1406.391290,6587.832884
4178.760325,1302.362347,-888.247130,7772.162391
4178.760641,1685.410096,-1406.391290,9326.594869
4178.760956,1915.238745,-1924.535449,10510.924376
